accx,accy,accz,body_accx,body_accy,body_accz,body_gyrox,body_gyroy,body_gyroz
0.9138322,0.1455662,0.4220016,-0.02657204,0.06771945,0.04452796,-0.04300496,-0.01358202,0.0377228
0.9156945,0.145797,0.4192787,-0.02392148,0.06669931,0.03970133,-0.03716835,-0.01846478,0.04466866
0.9202561,0.1456389,0.4182195,-0.01857512,0.0652655,0.03656253,-0.0367643,-0.01853549,0.04457924
0.9193754,0.1497864,0.421935,-0.0186752,0.06811432,0.03822455,-0.0373472,-0.01769731,0.04974725
0.9203105,0.1464161,0.4169988,-0.01696454,0.06342437,0.03126258,-0.03614766,-0.01442405,0.04650554
0.9213914,0.1420496,0.4163826,-0.01511398,0.0577188,0.02865037,-0.03489897,-0.003915715,0.04764358
0.9209063,0.1455639,0.4177108,-0.01483621,0.05987673,0.02801381,-0.03460765,0.01931768,0.04404872
0.9227016,0.1444341,0.4118951,-0.01228564,0.05737498,0.02026643,-0.04083419,0.03143234,0.02837226
0.923301,0.1439052,0.4137399,-0.01093929,0.0554606,0.0202141,-0.05301419,0.03906875,0.03297519
0.9188995,0.1450897,0.423338,-0.01460311,0.05524783,0.02795135,-0.0622236,0.04188911,0.04570396
0.9128678,0.1425096,0.4312803,-0.01990688,0.0512606,0.03407014,-0.06072789,0.02021526,0.05925139
0.9107671,0.1373969,0.4326535,-0.02129001,0.0447327,0.03365795,-0.05329316,-0.003962362,0.06631094
0.9097354,0.1298566,0.4331161,-0.02161456,0.03577123,0.03237369,-0.04392285,-0.01912637,0.05739972
0.907801,0.1292459,0.4397279,-0.02285231,0.03373545,0.0372774,-0.03341167,-0.02634323,0.05493096
0.9114709,0.132214,0.4373565,-0.01849622,0.03527701,0.03323676,-0.02530623,-0.03232024,0.04925798
0.9167301,0.1324674,0.4286929,-0.01256159,0.03410459,0.02294278,-0.01866495,-0.03884902,0.0464572
0.9170965,0.138243,0.4266596,-0.01153056,0.03845716,0.01931821,-0.01680489,-0.03381013,0.0574943
0.9166554,0.1447684,0.4251533,-0.01131828,0.04356412,0.0162601,-0.02265514,-0.0338757,0.05660515
0.9165145,0.1451181,0.4267687,-0.01081745,0.0425013,0.01636347,-0.02947716,-0.03790105,0.0558616
0.9170273,0.1428779,0.4268881,-0.009674957,0.03885597,0.01501122,-0.0294834,-0.03463831,0.06507452
0.9186603,0.1405363,0.4228401,-0.007424438,0.03511772,0.009532169,-0.02627793,-0.03390247,0.0697621
0.919703,0.1378917,0.4223282,-0.005777012,0.03108635,0.007630203,-0.02850754,-0.03030064,0.07193156
0.9198542,0.1321949,0.4199018,-0.005034145,0.02401402,0.003855074,-0.03279567,-0.02847152,0.06453627
0.9190201,0.1273017,0.4203693,-0.005289975,0.01775801,0.003015439,-0.03687152,-0.03115311,0.05031371
0.920375,0.1281821,0.4208628,-0.003370603,0.01729006,0.002243993,-0.03778738,-0.02909865,0.04667277
0.9242411,0.1275796,0.413365,0.001045737,0.01535535,-0.006476383,-0.0318747,-0.02110307,0.04366806
0.9269507,0.123657,0.4110084,0.004291173,0.01011837,-0.01001275,-0.02591451,-0.006879944,0.03465343
0.9252582,0.1248042,0.4172037,0.003119288,0.009970654,-0.004953971,-0.01847398,-0.001839891,0.03371879
0.9211061,0.1288779,0.4252145,-0.0005276492,0.01277038,0.001963815,-0.01221679,-0.004180128,0.03448819
0.9218517,0.1324036,0.4252576,0.0007071406,0.01504457,0.0009573576,-0.0102462,0.0009691929,0.03142449
0.9219926,0.138016,0.4230555,0.001321151,0.01942892,-0.00225103,-0.00777014,0.004532328,0.03431432
0.9179202,0.1384416,0.4301286,-0.002294386,0.01865066,0.003858529,-0.008449116,0.003812055,0.03417403
0.9150426,0.1343763,0.4318132,-0.004731378,0.01340649,0.004621817,-0.002598048,-0.003388429,0.02571218
0.9113206,0.1349384,0.4297391,-0.008028896,0.012815,0.001668062,0.005001946,-0.01494349,0.01974934
0.911962,0.1356282,0.4307686,-0.006978871,0.01237734,0.001858643,-0.001003195,-0.02079092,0.02215363
0.9157563,0.1359312,0.4277577,-0.002791335,0.01157953,-0.001951172,-0.006978682,-0.02299194,0.03206062
0.9151448,0.1353,0.4244809,-0.003024834,0.009874516,-0.005987513,-0.01240074,-0.01878787,0.03741672
0.9172059,0.1310591,0.4206647,-0.0006005787,0.004587336,-0.01052449,-0.01560277,-0.01113438,0.03017889
0.9216776,0.1301549,0.4190922,0.004219535,0.002664856,-0.01277939,-0.01221787,-0.003404967,0.01787711
0.9241395,0.1322036,0.4201411,0.007015068,0.003723886,-0.01237486,-0.01438602,0.001116389,0.01326699
0.9220168,0.135813,0.4197287,0.005211221,0.006372549,-0.01339407,-0.01386156,-0.004229949,0.02064881
0.9154862,0.1389075,0.4216609,-0.001015482,0.00853548,-0.01203136,-0.01141472,-0.002502287,0.02609175
0.9155036,0.1373495,0.4225846,-0.0007089015,0.00607536,-0.01164046,-0.01162225,0.005477492,0.02282334
0.9210931,0.1370625,0.4254614,0.005155272,0.004915511,-0.009260281,-0.007682928,0.008408298,0.01983525
0.9245873,0.1379169,0.4294475,0.008909827,0.004926281,-0.005735503,-0.01051731,0.01113356,0.02023499
0.9225978,0.137309,0.4258017,0.007166262,0.003503979,-0.009808043,-0.01644883,0.009997111,0.02199233
0.9175579,0.1375222,0.4209923,0.002358118,0.00293188,-0.01501058,-0.01976556,0.01642537,0.02359036
0.9177961,0.1378846,0.419884,0.002813779,0.002537865,-0.01647906,-0.02528131,0.02307967,0.02317289
0.916568,0.1392766,0.4252462,0.001789226,0.003202329,-0.0114449,-0.02545209,0.01063981,0.01934379
0.9135747,0.1406374,0.4330612,-0.001013989,0.003864071,-0.003926412,-0.02443053,0.001807142,0.01424211
0.9145551,0.1394123,0.4320831,0.0001433476,0.001968089,-0.005170644,-0.02180352,0.004931297,0.01196826
0.9132708,0.1375317,0.430453,-0.0009766654,-0.0005554893,-0.007037628,-0.01233234,0.007024713,0.01713658
0.9138559,0.1381379,0.4322016,-0.0002394259,-0.0005647867,-0.005497946,-0.01032052,0.003345479,0.02710446
0.9145856,0.1394301,0.4300119,0.0006307553,0.0001392595,-0.00786951,-0.01456207,-0.009209308,0.03072846
0.9129635,0.1388169,0.4292274,-0.0008620373,-0.001035255,-0.008810159,-0.0139551,-0.02529803,0.02950717
0.9149012,0.1383811,0.4279613,0.001194249,-0.002005889,-0.01020756,-0.01195779,-0.03113086,0.02788161
0.9155666,0.1372675,0.4232657,0.001967823,-0.003628168,-0.01501056,-0.009121803,-0.02547843,0.02544273
0.9169832,0.1354625,0.4249674,0.003482711,-0.005916003,-0.01339323,-0.006065363,-0.02665079,0.02581795
0.9189778,0.1359426,0.4273454,0.005566055,-0.005893329,-0.01107729,-0.003849932,-0.02626823,0.02426786
0.9199833,0.1365153,0.4237452,0.006650813,-0.005752907,-0.01471809,0.0003826489,-0.01764086,0.01968526
0.9227707,0.1360774,0.4216185,0.009508255,-0.006598254,-0.01686455,0.0008008945,-0.02075513,0.01918957
0.9178368,0.1376586,0.4215486,0.004635211,-0.005400106,-0.01693414,-0.004051597,-0.02483932,0.02327952
0.9117343,0.1424321,0.4221196,-0.001415381,-0.0009855791,-0.01634331,-0.006307066,-0.02235939,0.02694162
0.9132007,0.1485635,0.422882,9.428963e-05,0.004810187,-0.01554219,-0.006467527,-0.02102957,0.02417645
0.9127274,0.1516081,0.4252256,-0.0003437455,0.007541635,-0.01314163,-0.00721307,-0.02123887,0.02093988
0.9126405,0.1482999,0.4273996,-0.0004029125,0.003941719,-0.01089327,-0.006685297,-0.02734412,0.02188583
0.9164759,0.1412164,0.4230279,0.003452986,-0.00341298,-0.01517393,-0.003995988,-0.0314824,0.0193127
0.9188721,0.1360873,0.4182295,0.005863066,-0.008793537,-0.01986542,-0.001770288,-0.03020085,0.01648441
0.9174938,0.1381277,0.4122146,0.004492124,-0.006985353,-0.02575795,-0.003367548,-0.02527662,0.01899541
0.9158618,0.1420835,0.4057788,0.002861082,-0.003242924,-0.03205624,-0.006741929,-0.02040996,0.02276518
0.9178138,0.1382229,0.414967,0.004808142,-0.007298582,-0.02271558,-0.008198875,-0.02111951,0.02551878
0.918672,0.1358148,0.4256468,0.005655552,-0.009883832,-0.01186839,-0.005721884,-0.0173693,0.02559676
0.9176536,0.1393655,0.4204928,0.004620755,-0.006492844,-0.01684086,-0.001369012,-0.0111552,0.02494903
0.9187171,0.1407763,0.4177773,0.00566236,-0.005224787,-0.01936117,-0.0004099427,-0.009558809,0.0262991
0.9207975,0.1437612,0.4210472,0.007715701,-0.002366074,-0.01588309,-0.0007341348,-0.008147744,0.02582531
0.9228944,0.1441907,0.4188932,0.009780378,-0.00204704,-0.01781661,-0.0002130933,-0.004600702,0.02435615
0.9225133,0.1417394,0.4181585,0.009361968,-0.004593665,-0.01831913,-0.001754811,0.0007962194,0.02246079
0.920604,0.144721,0.4169509,0.007410138,-0.001692861,-0.01928344,-0.004203964,0.005485425,0.02014726
0.9209009,0.1449043,0.4122934,0.007659577,-0.001576661,-0.02368694,-0.005693604,0.008445094,0.02653805
0.9208787,0.1437589,0.4160067,0.007584841,-0.002776068,-0.01970933,-0.005728653,0.006702185,0.03372659
0.9206278,0.1445638,0.4211345,0.007276572,-0.002012779,-0.01430731,-0.007131646,0.000795646,0.02741609
0.9211076,0.1409855,0.4207215,0.007694391,-0.005621077,-0.01443676,-0.01056511,-0.003913006,0.02235342
0.9202828,0.1377531,0.42088,0.006802847,-0.008872255,-0.01398612,-0.009321325,-0.0003869659,0.02633847
0.9185324,0.1368702,0.4187823,0.004981334,-0.00976312,-0.01578378,-0.006400536,0.008082907,0.02590269
0.9149721,0.1376759,0.4168362,0.001345677,-0.008954917,-0.01742238,-0.006288669,0.006358378,0.02257316
0.9126403,0.1389064,0.4161575,-0.00106528,-0.007711745,-0.01778684,-0.004341508,0.00342162,0.02372015
0.9145232,0.1393017,0.416008,0.0007350953,-0.007293961,-0.01761575,-0.002019329,0.004008824,0.0291192
0.9160231,0.1428552,0.421168,0.002149403,-0.003708602,-0.01212929,0.001232256,0.0005749757,0.03479566
0.9173031,0.1445365,0.425804,0.003341299,-0.001986528,-0.007161561,0.007039794,0.005266367,0.0303949
0.9198099,0.139956,0.4263842,0.00575771,-0.006517785,-0.006245074,0.01054369,0.01742525,0.02261599
0.9203298,0.1348841,0.4249632,0.006185123,-0.01153257,-0.007326034,0.01282028,0.02582079,0.0247229
0.9167652,0.1358344,0.4230165,0.00252606,-0.01051767,-0.008929894,0.01275222,0.02310957,0.02777435
0.9124904,0.140059,0.4252485,-0.001845032,-0.006221049,-0.006352992,0.00880338,0.01594827,0.03066689
0.9151194,0.1409768,0.4272283,0.0006863613,-0.00522408,-0.004026919,0.005875136,0.01739235,0.03460854
0.918603,0.1434292,0.4239526,0.004071259,-0.002685928,-0.006955782,0.00240163,0.01485588,0.03148259
0.9159836,0.147167,0.4209541,0.001352211,0.00114375,-0.009607399,0.0009824123,0.01293677,0.03029621
0.9158664,0.1472677,0.4205259,0.001134903,0.001341745,-0.00968941,0.003140818,0.01676707,0.03252345
0.9159362,0.1452103,0.4214827,0.001104169,-0.0006135069,-0.008387366,-0.0001514036,0.009129883,0.03225891
0.9135388,0.1415354,0.4246228,-0.001393791,-0.004182107,-0.004903491,-0.003662673,0.005610051,0.03424718
0.9155631,0.1402291,0.4268315,0.0005300292,-0.005378452,-0.00235306,-0.001404805,0.01428292,0.03445572
0.9161994,0.1403746,0.4240704,0.001066258,-0.005119578,-0.004774858,0.002124302,0.01889702,0.03420876
0.9153061,0.1399349,0.4211022,7.366453e-05,-0.005442914,-0.007406838,0.006260966,0.01673376,0.03709531
0.9173902,0.140667,0.4244713,0.002059255,-0.004591692,-0.00370493,0.004311978,0.01079721,0.03593645
0.9169939,0.1402491,0.4290801,0.001565371,-0.00488793,0.001232726,-0.00333815,0.006838897,0.03242406
0.9168329,0.1411004,0.4300103,0.001307932,-0.003912725,0.002487332,-0.008497307,0.002436603,0.03080993
0.9179207,0.1422309,0.431914,0.002300587,-0.002656398,0.004710383,-0.01186705,0.001231343,0.02981834
0.9162991,0.1410548,0.4338932,0.0005850725,-0.003704905,0.007003141,-0.01219321,0.006470835,0.03021317
0.9164546,0.1399461,0.431551,0.0006480696,-0.004684775,0.00496799,-0.01127668,0.006326683,0.034913
0.9180937,0.1383576,0.4259808,0.002196137,-0.006143265,-0.0003022114,-0.01056995,0.005760848,0.0403151
0.918043,0.138253,0.4219271,0.002055944,-0.006116873,-0.004063504,-0.008998463,0.007527088,0.03852131
0.9175985,0.1372785,0.4233525,0.001523567,-0.006959576,-0.00235344,-0.009762701,0.01258138,0.03636873
0.915378,0.1334222,0.4243953,-0.0007831631,-0.01068325,-0.001033746,-0.009031105,0.02301953,0.03919964
0.9129552,0.1319211,0.4219065,-0.003290419,-0.01205099,-0.003253589,-0.006152123,0.02277203,0.0390988
0.9137196,0.1301096,0.4210791,-0.002608566,-0.01372809,-0.003819852,-0.003172708,0.01569841,0.03717125
0.9144196,0.1266921,0.4220668,-0.001988934,-0.01700996,-0.002579003,0.0009552856,0.01127233,0.03285884
0.9132166,0.1275705,0.4267855,-0.003269985,-0.01599443,0.002384997,0.00393071,0.005754663,0.02525379
0.9120686,0.1304943,0.4327775,-0.004493494,-0.01293159,0.008614285,0.007274235,0.001064547,0.02502438
0.9115128,0.130688,0.4303054,-0.005121926,-0.01259682,0.006371134,0.008961604,-0.002144256,0.0247233
0.914603,0.1305404,0.4254051,-0.002101545,-0.01260114,0.00169111,0.008790634,0.001450673,0.01636903
0.9200471,0.1310346,0.4276614,0.00327592,-0.01196134,0.00415876,0.01039964,0.006005592,0.01531429
0.9192076,0.1321018,0.4314741,0.002372927,-0.01074606,0.008173847,0.009992137,0.002356436,0.01724944
0.9132337,0.1340838,0.4308626,-0.003661648,-0.008613669,0.007755521,0.009123583,0.0003302203,0.01254093
0.9103788,0.1335154,0.4267287,-0.006574307,-0.009029326,0.00380533,0.009342003,0.0008496969,0.01394746
0.9137804,0.1327565,0.4240786,-0.003227268,-0.00963339,0.001329468,0.008910406,0.00308423,0.01625545
0.9191566,0.1339766,0.4259105,0.002097525,-0.008256267,0.003326035,0.009157213,0.006657304,0.01268029
0.9172641,0.1342636,0.4304488,0.0001567996,-0.007810382,0.008019586,0.009051709,0.0002908073,0.01373058
0.9119383,0.135743,0.4344438,-0.005214134,-0.006170268,0.01216046,0.008907507,-0.008152715,0.01572214
0.9125464,0.1367693,0.4336055,-0.00464816,-0.004981596,0.01145827,0.006595587,-0.007873107,0.01640961
0.9155501,0.1357555,0.4317847,-0.001683281,-0.005831792,0.009763721,0.002078084,-0.00794792,0.01451676
0.9173863,0.1361385,0.4301223,0.0001173187,-0.005284134,0.008217454,0.0004499138,-0.007456208,0.01041564
0.916631,0.1360859,0.4246366,-0.000670419,-0.005171271,0.002837759,0.0006561847,-0.003811925,0.01409206
0.9142099,0.135208,0.4247134,-0.003120905,-0.005883039,0.003010646,0.0007001789,-0.005546241,0.01362151
0.9137592,0.1356573,0.4305635,-0.003598037,-0.005267365,0.008947157,-0.001004092,-0.007518915,0.01030137
0.9136956,0.1371142,0.4326457,-0.003684985,-0.003643801,0.01110616,-0.004532057,-0.005220168,0.01398884
0.9141594,0.1380752,0.4313352,-0.003241526,-0.002516333,0.009862911,-0.005388288,-0.00412242,0.01118711
0.9151411,0.1368137,0.4287092,-0.002277127,-0.003611694,0.007294613,-0.003020924,0.000147113,0.009811784
0.9161089,0.1346102,0.4289105,-0.001323597,-0.005649679,0.007544059,-0.001056933,0.004866389,0.01136587
0.9173206,0.1330047,0.4293769,-0.0001232654,-0.007090425,0.008049363,-0.001670806,0.002782958,0.01069092
0.9163191,0.1337009,0.4268224,-0.00113326,-0.006230304,0.005524599,-0.0008998198,0.001189099,0.01506009
0.9156971,0.1352861,0.4270377,-0.00176108,-0.004482178,0.005760733,0.004079567,0.001635962,0.0120708
0.916489,0.132855,0.4306873,-0.0009725046,-0.006751258,0.009422559,0.007364063,0.0001166253,0.007455655
0.9173987,0.131074,0.4344376,-6.375792e-05,-0.008371355,0.01317662,0.006641318,-0.002537964,0.006325329
0.9185821,0.1332091,0.4321123,0.001121041,-0.006076475,0.01084662,0.005848604,-0.004356792,0.0004746889
0.9170516,0.1329973,0.4269566,-0.0004058977,-0.006129488,0.005677904,0.007042807,0.001895883,0.003613905
0.9158504,0.1296062,0.4257887,-0.00160171,-0.009362841,0.004488809,0.008894169,0.00980361,0.007394837
0.9161566,0.1267048,0.4220449,-0.001288238,-0.01210759,0.0007161808,0.009675468,0.00577729,0.001136764
0.9148863,0.1282148,0.4207597,-0.002549577,-0.01044175,-0.0006052007,0.009674359,0.001814861,-0.001170357
0.9151163,0.1331582,0.4234469,-0.002308876,-0.005343148,0.002039151,0.006611023,0.004105347,0.0008630031
0.9167009,0.1355822,0.4195537,-0.0007119456,-0.002764669,-0.001902988,-0.006960602,0.003087338,0.0009687453
0.9203667,0.1353144,0.4139569,0.002967754,-0.002878746,-0.007554133,-0.03732259,0.009762384,-0.004293031
0.9248111,0.1356112,0.4122044,0.007427451,-0.002429197,-0.009365708,-0.06445779,0.03687218,-0.01668966
0.9196537,0.1396028,0.4232321,0.002286194,0.001713907,0.00159908,-0.05704479,0.07248016,-0.02686323
0.9074392,0.1443444,0.4433658,-0.009911452,0.006605471,0.02166647,-0.03477525,0.08046029,-0.02104895
0.9015743,0.1446794,0.4464859,-0.01575858,0.007088418,0.02471684,-0.0237132,0.04505108,-0.004297489
0.905211,0.1421509,0.4398008,-0.01210289,0.004705231,0.01795794,-0.01207089,0.009431381,0.008807732
0.9126326,0.1355173,0.4381137,-0.004660532,-0.001786198,0.01619247,-0.008484601,0.0001276236,0.01475533
0.9168214,0.1297436,0.4336358,-0.000449053,-0.007420976,0.01163118,-0.007387158,0.0002543696,0.01219287
0.9152657,0.1324844,0.433002,-0.00197999,-0.004544466,0.01090892,0.006521653,0.003186001,0.01451023
0.9117126,0.1350414,0.4344786,-0.005506477,-0.001854916,0.01229198,0.008129157,0.005004512,0.02347393
0.9105193,0.1339592,0.4297505,-0.006671248,-0.00280773,0.007465201,0.004898883,0.004705225,0.01909289
0.9112011,0.1364692,0.4297272,-0.005958982,-0.0001714124,0.007338321,0.00782313,0.005011237,0.01504398
0.9113642,0.1391599,0.431747,-0.005763493,0.002642484,0.009249844,0.006944132,0.003368679,0.01737536
0.9124923,0.1385013,0.430138,-0.00460079,0.002103673,0.00752812,0.01169317,0.003060902,0.01429046
0.9154777,0.1380065,0.4326345,-0.001578765,0.001725291,0.009907578,0.0102526,0.007967835,0.01564767
0.9175375,0.134003,0.4351656,0.000519702,-0.00216551,0.01231754,0.007226824,0.02065469,0.01497241
0.9166908,0.1288758,0.43446,-0.000286533,-0.007183705,0.01148666,0.01090684,0.03289914,0.009541975
0.9149915,0.1311442,0.4339596,-0.001943781,-0.00480969,0.01085704,0.007885953,0.03333118,0.007793725
0.9144826,0.1343687,0.4329131,-0.002409273,-0.001482918,0.009677431,0.008997853,0.02456656,0.005931412
0.9137524,0.1366521,0.4334413,-0.003094677,0.000899632,0.01006858,0.007109375,0.01225033,0.006950773
0.9145241,0.1397535,0.4350965,-0.002277104,0.004096986,0.01158309,0.002433261,0.007264558,0.006023676
0.9164012,0.1376499,0.4369823,-0.0003529456,0.002086096,0.01332464,0.005964328,0.01500297,0.003025289
0.9168199,0.1332207,0.4383907,0.0001137605,-0.002253778,0.01458513,0.003019624,0.02250864,0.0002529183
0.9177124,0.1301777,0.4363928,0.001055158,-0.005210939,0.01243568,0.0005126731,0.01960977,-0.007398539
0.9145065,0.1331585,0.4356505,-0.002101354,-0.002147563,0.01153822,0.001737305,0.01212971,-0.006507918
0.9080029,0.1396091,0.435114,-0.008555146,0.004382442,0.01084307,2.472815e-05,0.008216095,0.0009640354
0.9074553,0.1376264,0.4322899,-0.009052222,0.002476101,0.007856748,-0.000341283,0.009687863,0.004344689
0.908932,0.1360757,0.4342573,-0.007524307,0.0009985443,0.009658703,-0.000275685,0.01142167,0.007373077
0.9080091,0.1387491,0.4372918,-0.008394979,0.003741687,0.01252475,0.002409905,0.001180685,0.006574298
0.907348,0.1396859,0.4383834,-0.009002505,0.004744843,0.01344504,0.005172461,-0.01145916,0.003550033
0.9067919,0.1441965,0.441275,-0.009503646,0.009318294,0.01616231,0.006344534,-0.01046528,-2.020227e-05
0.9071407,0.1443922,0.4407218,-0.009098273,0.009572907,0.0154318,0.005881135,-0.008287469,-0.0006306576
0.9099976,0.1405101,0.4385992,-0.006182903,0.005745549,0.01312889,0.003785632,-0.007270072,0.003847185
0.9155605,0.1395301,0.4379129,-0.000559669,0.004815954,0.01225915,0.005871354,0.001136278,0.002633484
0.9193104,0.1321601,0.4358642,0.003252333,-0.002508152,0.01002393,0.007372234,0.007613149,-0.001463791
0.9148139,0.1278581,0.4374872,-0.001180571,-0.006768533,0.01145768,0.007891829,0.003214445,-0.004473857
0.9074901,0.1326831,0.4386571,-0.00843947,-0.001905848,0.01243552,0.00942968,-0.004563348,-0.00425917
0.9068513,0.1351442,0.4358418,-0.009012366,0.0005892653,0.009425616,0.01000512,-0.005534441,1.435417e-05
0.9115691,0.1384956,0.4355592,-0.00422732,0.00397138,0.008945974,0.01275633,-0.003914562,-0.001659065
0.9150668,0.1405295,0.4343389,-0.000661006,0.006032693,0.007526378,0.01215171,-0.001104057,-0.002161329
0.9125913,0.1388538,0.4337684,-0.003066776,0.004380905,0.006754725,0.01143975,0.003099722,-0.0005381366
0.9093819,0.138371,0.4339644,-0.006205365,0.003918719,0.006748016,0.01482883,0.00441164,-0.003730111
0.9115831,0.1358055,0.4304864,-0.003932297,0.001370221,0.003066047,0.01388871,0.004393601,-0.006490202
0.9116865,0.1378247,0.4310744,-0.00375609,0.003403027,0.003449157,0.01291458,-0.003931428,-0.01099843
0.9102066,0.1432539,0.4323147,-0.005162304,0.008842526,0.004484188,0.01277983,-0.01394322,-0.009228783
0.9117491,0.1433446,0.4320149,-0.003545226,0.00893999,0.00397905,0.01039643,-0.009596003,-0.001145274
0.9102752,0.1460123,0.4337444,-0.004943694,0.01161088,0.005503456,0.006989457,-0.005999835,0.001811877
0.9072157,0.146069,0.4295842,-0.007926988,0.01166675,0.001138893,0.001048727,-0.01176714,0.005694636
0.9049825,0.1411707,0.4264603,-0.01008301,0.006763335,-0.002188473,0.001365959,-0.01550669,0.006661038
0.9053938,0.1428666,0.4306806,-0.009593607,0.008449838,0.001829857,0.003751188,-0.01881319,0.005104822
0.9101674,0.1425554,0.4363075,-0.004740587,0.008124708,0.00725672,0.0009053718,-0.02093176,0.008262742
0.9118622,0.138156,0.444355,-0.002965158,0.003707008,0.01510612,0.004401813,-0.0180602,0.009336013
0.9112879,0.1384713,0.4482052,-0.00345751,0.00399955,0.01876,0.007272434,-0.01682011,0.009126288
0.9119554,0.1391022,0.4406932,-0.002707101,0.004603341,0.01105326,0.005353788,-0.01572994,0.008532074
0.9125339,0.137591,0.4317725,-0.002044752,0.003061054,0.00193895,0.007370901,-0.01550405,0.007584366
0.9129953,0.1353062,0.4323762,-0.001498783,0.0007411833,0.002350354,0.006469924,-0.02004402,0.007955447
0.9120469,0.1345016,0.434376,-0.002362115,-0.0001020424,0.004159347,0.00615903,-0.01820206,0.00820762
0.913068,0.1371314,0.4307186,-0.001255495,0.002485873,0.0003128471,0.00746109,-0.008593272,0.0116938
0.915566,0.1408283,0.4300402,0.001328199,0.006137818,-0.000552491,0.003014723,-0.001180147,0.0134692
0.9162233,0.1424736,0.4321212,0.002071056,0.007735254,0.001344017,0.001690375,-0.004515104,0.01235199
0.9138255,0.1404571,0.4365349,-0.0002414635,0.005667983,0.005575915,0.001136694,-0.01375332,0.01401459
0.9093005,0.1385617,0.4417737,-0.004681688,0.003719019,0.01063565,-0.001995702,-0.01322136,0.01413528
0.9107678,0.1376741,0.4372224,-0.003130349,0.002775137,0.00590798,0.0001519179,-0.01080114,0.01193806
0.9128268,0.1355034,0.4322129,-0.000987998,0.0005454527,0.0007247549,0.001595829,-0.004647551,0.009980272
0.9121062,0.1348857,0.4348398,-0.00162605,-0.0001334509,0.003180705,0.0001642692,0.007554615,0.00892706
0.9164046,0.134765,0.4337331,0.002754143,-0.0003173744,0.001905829,0.0008412126,0.004033243,0.004553692
0.9169058,0.1310288,0.4306713,0.003336055,-0.004118339,-0.001321096,0.001586951,0.0005654415,-0.002446372
0.9139016,0.1267545,0.432992,0.0004111913,-0.008458744,0.0008376594,0.001335692,0.005308157,0.0002734648
0.9147186,0.1276623,0.434234,0.001306042,-0.007617569,0.001921186,-0.000947261,-0.0002145005,0.006656541
0.9141518,0.1304171,0.4327494,0.000815379,-0.004929578,0.0002815908,-0.002677451,-0.001936978,0.006194866
0.915246,0.1311166,0.4339846,0.001983951,-0.004296306,0.001365497,0.002619649,0.003574016,0.002066576
0.9169765,0.1339808,0.4362281,0.003786771,-0.001497523,0.003461365,0.008506312,0.004934499,-0.003545145
0.9130426,0.1381686,0.4379806,-7.696769e-05,0.002625997,0.00507003,0.005933825,0.002495742,-0.002265219
0.9096296,0.1397924,0.4381069,-0.00342211,0.004186654,0.005056129,0.003918264,-0.002149411,0.002389966
0.9110047,0.1385983,0.43567,-0.001981304,0.002930512,0.002482578,0.006380509,-0.003688111,0.001072389
0.9124154,0.1363337,0.4324142,-0.0005070423,0.0006049546,-0.0009063585,0.00499001,-0.00551236,0.002248024
0.913075,0.1351409,0.4281665,0.0002139662,-0.0006478357,-0.005283651,0.003926461,-0.003985674,0.003734993
0.915198,0.134379,0.4299424,0.002396355,-0.001468568,-0.003633616,0.004687727,0.007770532,0.001924745
0.9143304,0.135763,0.4351019,0.001585927,-0.0001421188,0.001404192,0.002979932,0.01514754,0.0006915135
0.9126997,0.1377408,0.4342742,1.01846e-05,0.001779539,0.0004588004,0.002747649,0.01358111,-0.0003108803
0.9148456,0.13737,0.438897,0.002208736,0.001353804,0.004968108,0.000483289,0.0124011,0.006940184
0.9148266,0.1376459,0.4447325,0.002240027,0.001576273,0.01069401,-0.004138025,0.01517185,0.01448272
0.9149193,0.1373223,0.4367879,0.002380566,0.001200396,0.002643499,-0.004416961,0.01891898,0.0107628
0.9155816,0.1363978,0.4309015,0.003088313,0.0002250461,-0.003345418,-0.00663168,0.01852811,0.008055355
0.9119528,0.135983,0.4371662,-0.0004976768,-0.0002393857,0.0028201,-0.01193725,0.01498089,0.008203819
0.9111045,0.1346571,0.4406321,-0.00130563,-0.001613527,0.00619018,-0.01084105,0.009750144,0.006826938
0.9147568,0.1335109,0.4356357,0.002384515,-0.002806531,0.001101134,-0.006513764,0.00867899,0.00638716
0.9170787,0.1311622,0.4333879,0.004741818,-0.00520036,-0.00123624,-0.006427697,0.01169859,0.005106373
0.9135061,0.1298352,0.4366104,0.001202165,-0.006570824,0.001899699,-0.005748759,0.01057389,0.00376495
0.9080058,0.1310001,0.4380786,-0.004267679,-0.005447239,0.003284341,-0.0005550221,0.009927255,0.003688277
0.9096258,0.1312663,0.4389917,-0.002619682,-0.005220108,0.004116895,0.004704399,0.008773082,0.003050869
0.9104794,0.1312615,0.4411564,-0.001740092,-0.005261294,0.006203681,0.006450406,0.007261305,0.002050563
0.9082518,0.1304594,0.4435161,-0.003943726,-0.006097157,0.008487919,0.005474969,0.01135911,0.001775465
0.9101586,0.1305079,0.4436447,-0.002014613,-0.006079432,0.008543181,0.006859484,0.009625503,0.0004783866
0.9106795,0.1333042,0.4401645,-0.001472908,-0.003310807,0.004991483,0.009684309,-0.0009552319,-0.001149386
0.9095021,0.1363807,0.4389754,-0.002630797,-0.0002588565,0.003732302,0.009778669,-0.01093746,-0.001500589
0.9102779,0.1379132,0.4380818,-0.001836702,0.001252171,0.002770067,0.008766182,-0.01194177,-0.002713714
0.9133118,0.1344094,0.433953,0.001214388,-0.002270029,-0.001426168,0.006082569,0.0003391049,-0.00437866
0.9165992,0.1292013,0.4310965,0.004517999,-0.007493777,-0.004348781,0.004479077,0.009183564,-0.006150805
0.9152385,0.1297854,0.4318979,0.00317241,-0.006922387,-0.00361197,0.004104576,0.003174006,-0.005598077
0.9136787,0.1363255,0.4367513,0.001626458,-0.0003919594,0.001178683,0.002369577,-0.005247291,0.000137981
0.9141479,0.1444631,0.4402863,0.002108121,0.007738995,0.004652727,0.004606495,-0.007885135,0.004724842
0.9136479,0.1456655,0.4393552,0.001619255,0.008937397,0.00366249,0.005812735,-0.005760167,0.004775364
0.9141292,0.1392658,0.4342433,0.002110244,0.002535761,-0.001506828,0.002829279,-0.002220063,0.003712723
0.9148979,0.1323219,0.4281429,0.002887242,-0.004408373,-0.007663062,0.001730815,-0.001114676,0.0009133768
0.9148288,0.1279696,0.4317158,0.002824891,-0.008759228,-0.004144152,-0.0009779053,0.0004860706,-0.003128112
0.9128536,0.1322381,0.440367,0.0008550682,-0.00448751,0.004455258,-0.004348517,0.00076375,-0.00356717
0.9100271,0.1392778,0.4452006,-0.00196763,0.002557278,0.009239004,-0.003194233,-0.005709385,-0.003222663
0.9112214,0.1370447,0.4452319,-0.000770941,0.0003311831,0.009222276,-0.0003075617,-0.008396533,-0.005931463
0.9136375,0.1337492,0.4390364,0.001646284,-0.002955651,0.002980095,0.0009974597,-0.002243086,-0.005598698
0.9135794,0.1325764,0.4354763,0.00158813,-0.004118242,-0.0006255072,0.001865691,0.001116149,-0.002140336
0.9121605,0.1313198,0.4362821,0.0001680643,-0.005362945,0.0001357242,0.002850133,-0.003759482,-0.002129102
0.9093858,0.135184,0.4373635,-0.002608955,-0.001485171,0.001173718,0.004901585,-0.01102303,-0.004942378
0.90836,0.1371934,0.4385921,-0.003638004,0.0005395032,0.00235986,0.008779401,-0.01282143,-0.005323389
0.9093798,0.135509,0.4367152,-0.002622182,-0.001128137,0.0004415694,0.007456089,-0.01356481,-0.0001427047
0.9091324,0.1353233,0.4373742,-0.002874069,-0.001295579,0.001060248,0.004063253,-0.01588448,0.004545457
0.9100057,0.134394,0.4385225,-0.002005597,-0.002205175,0.002169139,0.00470373,-0.01455531,0.001098212
0.9117622,0.1344643,0.4375926,-0.0002540661,-0.002114,0.001200814,0.003290053,-0.01426041,-0.002410438
0.9127039,0.1335763,0.4413527,0.000682499,-0.002979843,0.004923391,0.002885358,-0.0142537,0.00166123
0.9152442,0.1300767,0.4442649,0.003217647,-0.006456039,0.007798827,0.002519857,-0.01129208,0.002446803
0.9172263,0.1291772,0.4450346,0.005194412,-0.007330768,0.008532117,-0.002433447,-0.005103213,-0.00406438
0.9149649,0.133066,0.4406299,0.002927348,-0.003415727,0.004091324,-0.004835226,0.003395458,-0.007817585
0.911816,0.1389836,0.433472,-0.0002277158,0.00252969,-0.003102786,-0.00264067,0.001993277,-0.006107723
0.9123293,0.1392029,0.4387659,0.0002789367,0.002778163,0.002154838,0.003357409,-0.003473946,-0.003652333
0.9127994,0.1346193,0.4436038,0.0007419632,-0.001775105,0.006956644,0.007892894,-0.001836421,-0.004367901
0.911173,0.1327934,0.4396285,-0.0008919884,-0.003569711,0.002945142,0.005879937,-0.002444086,-0.00469373
0.9110397,0.134797,0.4384206,-0.001033256,-0.001533994,0.001700843,0.005015297,-0.003512853,-0.003838832
0.9117835,0.1365806,0.4354072,-0.000297679,0.0002826742,-0.001349101,0.00837371,-0.000915505,-0.007424334
0.9146436,0.13251,0.4318022,0.002554047,-0.00375407,-0.004990704,0.009720381,0.004776472,-0.01051153
0.9172345,0.1293138,0.4333649,0.005136227,-0.006915709,-0.003464365,0.005001479,0.012475,-0.009590869
0.9132714,0.1337004,0.4342846,0.001163999,-0.002493729,-0.002580642,-0.00196664,0.008227057,-0.008353313
0.9091794,0.1371201,0.4346807,-0.002937508,0.0009623006,-0.002219751,-0.003446429,-0.001575389,-0.006707664
0.9103726,0.1368834,0.4363354,-0.001754234,0.0007626585,-0.0005994903,0.002716838,-0.006309729,-0.003769112
0.9113694,0.1367728,0.434416,-0.0007675762,0.0006897127,-0.002552323,0.007592824,-0.01360012,-0.0006043444
0.9116968,0.1369851,0.4299708,-0.0004503919,0.0009399786,-0.007029789,0.001980474,-0.009014115,0.001009443
0.9140312,0.1375236,0.4277871,0.001873775,0.001516744,-0.009244405,-0.003161387,0.001535777,0.00285014
0.914373,0.1373818,0.4249129,0.002205169,0.001413316,-0.01214783,-0.0001650031,-0.003326631,0.004075485
0.9133333,0.1355972,0.4241563,0.001155066,-0.0003330939,-0.01293132,-0.0001780977,-0.0001396984,0.003586054
0.9142448,0.134083,0.4330966,0.002055924,-0.001809297,-0.004015151,-0.00204106,0.007761949,0.004182624
0.9134861,0.1346836,0.4424202,0.001286337,-0.001171112,0.005287259,-0.0004805605,-0.002423309,0.005366236
0.910804,0.1350388,0.4417925,-0.00140679,-0.0007785504,0.004641161,3.707834e-06,-0.01106132,0.00780892
0.9055651,0.1344731,0.4404295,-0.006656912,-0.001307178,0.003262356,0.000620136,-0.01655679,0.01118513
0.9015016,0.1347908,0.4424361,-0.01073144,-0.0009528119,0.00525529,0.001493664,-0.03440333,0.01729197
0.9075237,0.1347906,0.4348103,-0.00471994,-0.0009166327,-0.002382326,0.001844556,-0.0554131,0.02784931
0.9139769,0.1340731,0.424743,0.001723502,-0.00159815,-0.01245969,0.004336546,-0.06315518,0.04029821
0.9126666,0.1321316,0.4272055,0.0004043872,-0.00350419,-0.01000529,0.007721443,-0.05750782,0.0501049
0.9119221,0.1297001,0.4278938,-0.0003480826,-0.005900435,-0.009322769,0.01704139,-0.05533211,0.04501767
0.9128872,0.1302263,0.4245072,0.0006099204,-0.00533913,-0.01271234,0.02908367,-0.05293243,0.03566921
0.9126183,0.1310341,0.4272292,0.0003346079,-0.004496149,-0.009990212,0.02938556,-0.04514458,0.03769283
0.9143099,0.1286064,0.4267619,0.002020521,-0.006888515,-0.01045405,0.02876161,-0.04732392,0.0364887
0.9197124,0.1252195,0.425396,0.007417907,-0.01023965,-0.01181264,0.03302869,-0.0495859,0.03229031
0.9240432,0.122755,0.4272892,0.0117439,-0.01266769,-0.009908173,0.02810346,-0.04199255,0.02999465
0.9235246,0.1232577,0.4260096,0.01122031,-0.01212739,-0.01117223,0.02152806,-0.03583322,0.02515476
0.9228478,0.1253498,0.4262027,0.01053774,-0.009996073,-0.01095908,0.01513015,-0.02770998,0.02231381
0.9242508,0.1249191,0.4258412,0.01193378,-0.01038572,-0.01129595,0.005501793,-0.01735773,0.01523677
0.9236095,0.1251974,0.4204851,0.01128379,-0.0100641,-0.01662255,0.005522792,-0.013912,0.006706545
0.9231192,0.1271516,0.4167418,0.0107827,-0.008064179,-0.02033126,0.003980068,-0.01292306,0.005650717
0.9239867,0.1279438,0.4174006,0.01163688,-0.007223581,-0.01963228,-0.003155378,-0.00688851,0.006622186
0.9222743,0.1280051,0.4194256,0.009908256,-0.007111281,-0.01756094,0.001613061,0.002030056,0.008654
0.9209329,0.1263673,0.4200995,0.008547521,-0.008695247,-0.01683425,0.00421965,0.005079167,0.01040137
0.9210149,0.1249685,0.4235278,0.008606804,-0.0100375,-0.01334644,-0.003565104,0.001511305,0.01090326
0.9214169,0.123783,0.4263224,0.008982471,-0.0111635,-0.01048554,-0.00705051,0.001061255,0.009889357
0.9226629,0.1211942,0.4205907,0.01019859,-0.01368965,-0.016144,-0.007100703,0.00441613,0.006651667
0.921305,0.1205293,0.4142648,0.008806949,-0.01428849,-0.0223899,-0.007443338,0.00513401,0.005254484
0.9202042,0.1207545,0.4133311,0.007668503,-0.01399372,-0.02323639,-0.007933732,0.002315405,0.008394397
0.9209732,0.120913,0.4215844,0.008396004,-0.01376166,-0.01488838,-0.005997844,-0.002030911,0.01430076
0.9196887,0.1209756,0.4320586,0.007065911,-0.01362142,-0.004311896,-0.001497406,-0.003949092,0.01248227
0.9182373,0.1205312,0.4286535,0.005565111,-0.01398383,-0.007607474,-0.001704445,-0.003643267,0.006102187
0.9177594,0.1216343,0.4270088,0.005033846,-0.01279429,-0.009135762,-0.002052423,-0.007392076,0.004724635
0.9178756,0.1234415,0.4328889,0.00509305,-0.01089596,-0.003132815,-0.0002554276,-0.01625008,0.004822095
0.9170211,0.12513,0.4291225,0.004178018,-0.009111752,-0.006770434,-0.0007210895,-0.02754292,0.007988381
0.9143666,0.1229302,0.4251439,0.001459586,-0.01121122,-0.01061478,0.0009777254,-0.03748629,0.008509165
0.9142604,0.1196423,0.4233971,0.001286391,-0.01439437,-0.01222217,0.002883378,-0.04126799,0.006242449
0.9185439,0.1236569,0.4177189,0.005500199,-0.01027037,-0.01775597,0.003497528,-0.04168681,0.008576249
0.9232779,0.1256951,0.417219,0.01016181,-0.00811827,-0.01810642,0.004026821,-0.04284684,0.009939379
0.9227696,0.1200296,0.41702,0.00957857,-0.01366548,-0.01815091,0.001841498,-0.04320512,0.01233067
0.9202961,0.1168372,0.4148581,0.007027538,-0.0167353,-0.02015297,0.001651263,-0.04406743,0.0127375
0.9214102,0.1201997,0.4170077,0.008061379,-0.01324572,-0.01783809,0.002694109,-0.04499815,0.01111566
0.9230332,0.1249008,0.4185828,0.009601467,-0.008413031,-0.01609227,0.001768142,-0.04321549,0.01457053
0.9256342,0.1253486,0.419607,0.01211679,-0.00782934,-0.0148917,0.001525852,-0.04273542,0.01559882
0.9275394,0.1231751,0.4185932,0.01393344,-0.009862753,-0.01572379,0.0005434791,-0.04309247,0.01729232
0.925916,0.1193228,0.413923,0.01221847,-0.01357105,-0.02020675,9.633809e-05,-0.04223275,0.01709422
0.9267513,0.114061,0.4110996,0.012959,-0.01868498,-0.02283743,-0.001088344,-0.04373524,0.005866865
0.9302446,0.1131434,0.4076955,0.01635401,-0.01945059,-0.02604328,-0.006754895,-0.04382477,-0.003554906
0.9345235,0.1151673,0.4050485,0.02053091,-0.01727058,-0.0284861,-0.01105872,-0.03948141,-0.009521868
0.9363055,0.1156199,0.4054154,0.02220687,-0.0166573,-0.0279086,-0.00511361,-0.0326812,-0.01559083
0.9279035,0.1157521,0.4049621,0.01369432,-0.01635996,-0.02814469,0.01164077,-0.02826182,-0.007496812
0.9176395,0.1181623,0.4056062,0.003315068,-0.01377993,-0.02727615,0.02283744,-0.02955658,0.008744281
0.9178484,0.1222218,0.4064618,0.003404046,-0.009545939,-0.02618881,0.01719224,-0.02871637,0.01041184
0.9256199,0.1230252,0.4055835,0.01105147,-0.008563742,-0.02682778,0.009501724,-0.02645605,0.005206886
0.9324886,0.1217426,0.4055199,0.01779209,-0.009663486,-0.02664428,0.008600363,-0.02237029,0.003434028
0.932846,0.1222604,0.4074781,0.01801736,-0.008959077,-0.02443107,0.005971227,-0.01467051,-0.0007395489
0.9297368,0.1225858,0.4082143,0.01477183,-0.008443656,-0.02343193,0.004690004,-0.01791481,0.002885877
0.9276688,0.1229268,0.4037287,0.01256317,-0.007909496,-0.02764665,0.005645463,-0.02599529,0.007837524
0.9258236,0.1239689,0.4005213,0.01057283,-0.006671345,-0.03057522,0.001080395,-0.03087737,0.000146032
0.9258969,0.1233812,0.4047097,0.01049674,-0.007060725,-0.02610003,0.001202243,-0.03827977,-0.003099184
0.9272467,0.1210103,0.4079764,0.01169291,-0.009231116,-0.02253835,0.004917179,-0.0376195,0.002160256
0.9270226,0.1177733,0.4024948,0.01131135,-0.01226581,-0.02771696,0.00203513,-0.0281097,0.005521353
0.9280016,0.1149409,0.3981241,0.0121289,-0.01489429,-0.03177678,0.001557778,-0.01670744,0.005385959
0.9294053,0.1130501,0.4043224,0.0133675,-0.01657936,-0.02525954,-0.0004632746,-0.01553797,0.003582717
0.929946,0.1109446,0.4120426,0.01373941,-0.01847734,-0.01721252,-0.004857104,-0.03718392,0.002578527
0.9321983,0.1120021,0.4150113,0.01581918,-0.01721031,-0.01390946,-0.001692418,-0.05535441,0.00181479
0.9332249,0.1153596,0.412538,0.01666971,-0.01364114,-0.01604135,0.003665041,-0.04871366,0.008975748
0.9333644,0.1142776,0.4057313,0.01662927,-0.01450922,-0.02250028,0.01001772,-0.0337502,0.01840559
0.9348215,0.1152905,0.4011716,0.01790258,-0.01328017,-0.02670631,0.01359792,-0.0268679,0.01372975
0.935373,0.1208113,0.395093,0.01826633,-0.007541036,-0.03242539,0.01109595,-0.02866874,0.008022032
0.935634,0.1209459,0.388497,0.01833556,-0.007186074,-0.0386559,0.009430678,-0.03309256,0.01113962
0.9345998,0.1178438,0.3918923,0.01710531,-0.01006624,-0.03488881,0.005027299,-0.0381764,0.01294002
0.934494,0.115453,0.397489,0.01679917,-0.01223376,-0.02891367,-0.00161315,-0.0399392,0.01044116
0.9371612,0.1133167,0.3975472,0.01926177,-0.01414558,-0.02847023,-0.003316138,-0.03281214,0.004662199
0.9377625,0.1116128,0.4018321,0.01965409,-0.01562369,-0.02379335,-0.004459688,-0.02463721,0.001599828
0.9373773,0.1106262,0.4063017,0.0190555,-0.0163833,-0.01892531,-0.006719289,-0.02822563,0.006731066
0.9366091,0.1141399,0.4006253,0.01806923,-0.01264133,-0.02419712,-0.004135593,-0.03215262,0.01222621
0.9357984,0.1163644,0.3975538,0.01703601,-0.01018714,-0.02685836,-0.001586256,-0.02538393,0.01032157
0.9372177,0.1137369,0.4002953,0.01822816,-0.01258373,-0.02370114,-0.004763395,-0.02581616,0.006110287
0.9381168,0.1125316,0.3998351,0.01889556,-0.01355698,-0.0237405,-0.005086621,-0.03428334,0.007610592
0.9391119,0.1113901,0.3994576,0.01965456,-0.0144653,-0.02369219,0.0002424922,-0.04025056,0.01244985
0.940067,0.1107544,0.3947159,0.02036895,-0.01486681,-0.02800352,0.004090554,-0.03750297,0.01449586
0.9403578,0.1111218,0.3833196,0.02041442,-0.01426403,-0.03896483,0.001776765,-0.01397694,0.008758681
0.9437849,0.1099193,0.3743589,0.02359156,-0.01523005,-0.04748584,-0.005005337,0.01360942,-0.001054593
0.9461985,0.1086669,0.3739649,0.02575051,-0.01624486,-0.04743481,-0.007750369,0.02728525,-0.00208361
0.940735,0.107882,0.3799445,0.02002736,-0.01679079,-0.04100401,-0.002972797,0.03928995,-0.001573784
0.9353001,0.1082355,0.3820164,0.01432774,-0.01619699,-0.03847426,0.004489425,0.05624676,-0.007906125
0.9397683,0.1076718,0.3832665,0.01852642,-0.01651903,-0.03675918,0.00703628,0.06200973,-0.01392278
0.9448273,0.1065184,0.3874968,0.02331127,-0.01742921,-0.03205681,0.005131703,0.05576194,-0.02198028
0.9432624,0.1083351,0.3882719,0.02146752,-0.01536757,-0.03080238,0.004497208,0.05865859,-0.02506735
0.9393139,0.1108842,0.3882631,0.01723557,-0.01257194,-0.030325,0.002029141,0.05872399,-0.0204225
0.9344585,0.1135315,0.3903954,0.01209217,-0.009676589,-0.02769978,-0.0009197538,0.05246762,-0.01978873
0.9348041,0.1154848,0.3962709,0.01214566,-0.007473891,-0.02132502,-0.003666781,0.05431678,-0.01811479
0.9360337,0.1153678,0.4019302,0.01307935,-0.007340364,-0.01516072,-0.007125872,0.04968876,-0.01729801
0.9314618,0.1150652,0.399551,0.008208253,-0.007391833,-0.01702995,-0.00481098,0.04582386,-0.01850261
0.9311692,0.1143544,0.3963339,0.007613784,-0.007851111,-0.01973301,-0.002769262,0.04705582,-0.01583084
0.9313128,0.1136405,0.3984685,0.007453327,-0.0083136,-0.01708116,-0.002268679,0.03801156,-0.01930369
0.9291869,0.1148761,0.4005656,0.005021745,-0.006826793,-0.01446425,0.001375944,0.02687072,-0.02492285
0.9315913,0.1193901,0.4015982,0.007119576,-0.002062121,-0.01291006,0.001200536,0.01902363,-0.02451584
0.9317068,0.1231192,0.4035206,0.006928204,0.001916529,-0.01046514,-0.0003876789,0.01825013,-0.0169248
0.9323475,0.119199,0.4030023,0.007262172,-0.001755617,-0.01046089,-0.0009102931,0.02723127,-0.00543722
0.9346155,0.1144474,0.4020963,0.009223964,-0.006261298,-0.01084526,-0.001194347,0.03633425,-0.008953497
0.9326575,0.1166114,0.4033523,0.006960815,-0.003853809,-0.009069196,0.001736099,0.03530954,-0.0162303
0.9332785,0.116829,0.4025979,0.007277948,-0.00339549,-0.009306076,0.003929669,0.028454,-0.01478369
0.9338662,0.1139881,0.4029227,0.007563541,-0.005998517,-0.008466962,0.003220771,0.02658341,-0.02106146
0.932327,0.1158698,0.4049871,0.005724183,-0.003882073,-0.005892229,0.00119669,0.02269041,-0.02272974
0.9320168,0.1176024,0.4056924,0.005116241,-0.001918151,-0.004681227,0.0006226642,0.02514335,-0.01613243
0.9298656,0.1178588,0.404929,0.002670049,-0.00143399,-0.004944453,0.001321291,0.03298196,-0.01568601
0.9301749,0.1182369,0.3996067,0.002687532,-0.0008319287,-0.009772589,0.001278948,0.02583346,-0.01318599
0.9313225,0.1148717,0.394702,0.003546784,-0.0039773,-0.01418987,0.002207799,0.02156537,-0.009485163
0.9299848,0.1135487,0.3958124,0.001924786,-0.005084638,-0.01259898,0.001831648,0.023154,-0.007302231
0.9307143,0.116745,0.3997201,0.002374124,-0.001677147,-0.008217774,0.0005013032,0.01972593,-0.006556527
0.9307381,0.1189086,0.4034139,0.00212247,0.0006932399,-0.004057967,-0.002111377,0.0179469,-0.009468961
0.9302263,0.1182595,0.4040188,0.001340135,0.0002463134,-0.002994672,-0.005512685,0.01397757,-0.01092437
0.930848,0.1163998,0.3998455,0.001696566,-0.001416164,-0.006717871,-0.001844969,0.01967667,-0.01451146
0.9304052,0.1169455,0.3960863,0.0009939496,-0.000678256,-0.01003555,0.002192458,0.02881271,-0.0143584
0.9305485,0.1176758,0.4005046,0.0008831342,0.0002391504,-0.005184443,0.0007925977,0.02224406,-0.01006803
0.930672,0.1175978,0.4050838,0.0007585617,0.0003429958,-0.0001814654,0.004091231,0.02025646,-0.01404252
0.9304038,0.1166532,0.4020926,0.0002484358,-0.0004252192,-0.002758259,0.008984033,0.02619536,-0.01646891
0.9306774,0.1133369,0.4014042,0.0002863889,-0.003570615,-0.00304182,0.006121771,0.02727258,-0.01588862
0.9305005,0.1142086,0.4026927,-0.0001195197,-0.002533387,-0.001358528,0.002654499,0.02767533,-0.01768935
0.930719,0.1180997,0.4015446,-0.0001234068,0.001517799,-0.00212189,0.001840284,0.02838175,-0.01568597
0.9315119,0.1198355,0.4014788,0.0004538278,0.003408355,-0.001813416,-0.002442553,0.02944167,-0.01360721
0.9319617,0.1192362,0.4010386,0.0006949794,0.002958212,-0.001889959,-0.003254633,0.02927184,-0.01275729
0.9312187,0.1171466,0.4002755,-0.0002498213,0.001012006,-0.002300005,0.0001341536,0.02686469,-0.009739656
0.9300489,0.1192132,0.3991022,-0.001614422,0.003216311,-0.003131126,-0.001071311,0.02441715,-0.008982452
0.9305402,0.1214603,0.3980917,-0.001310765,0.005595177,-0.00381015,-0.0007603117,0.02218777,-0.01183305
0.9303068,0.1211,0.400683,-0.001724814,0.005360637,-0.0008982072,0.001230359,0.02236391,-0.01329259
0.9276114,0.1216509,0.4054033,-0.004593609,0.00603116,0.00413202,-0.0002951475,0.02132893,-0.01434551
0.9258466,0.1187613,0.4107644,-0.006524473,0.00325477,0.009792027,-0.001786324,0.01665665,-0.01376157
0.9272045,0.1171414,0.412212,-0.005325177,0.001741637,0.01152733,-0.00256446,0.01509568,-0.009376133
0.9294254,0.1194876,0.408189,-0.003255172,0.004188144,0.007780217,-0.002141267,0.01674424,-0.008883848
0.9293683,0.1198262,0.4060899,-0.003455465,0.00462071,0.005944895,-0.002755836,0.01842491,-0.01001285
0.9287035,0.1203066,0.4055222,-0.004255604,0.005188564,0.005628564,-0.004796653,0.02038162,-0.01190289
0.9284979,0.1210725,0.404014,-0.00458875,0.006035664,0.004359368,-0.005830474,0.01964608,-0.01505467
0.9274128,0.1207171,0.404468,-0.005793566,0.005754826,0.005039844,-0.007251582,0.01522306,-0.01141504
0.9276182,0.1198834,0.4073237,-0.005700199,0.004989268,0.008109689,-0.005987871,0.01159635,-0.009713141
0.928138,0.1190849,0.4096473,-0.005284425,0.00425239,0.01063489,-0.003292489,0.0118983,-0.01342279
0.927682,0.1195114,0.4098628,-0.005836713,0.004734177,0.01103934,-0.001503935,0.01519986,-0.01451939
0.928924,0.1195194,0.4103582,-0.004683028,0.004790948,0.01171101,-0.001080913,0.01836412,-0.01224194
0.93043,0.1193469,0.4076676,-0.003257678,0.004661037,0.009183769,-0.003154841,0.0188396,-0.01028447
0.9305828,0.1197066,0.4049167,-0.003177922,0.005057222,0.006583383,-0.001797952,0.01997493,-0.01645372
0.9293601,0.1200886,0.4085224,-0.0044662,0.005469478,0.01032677,-0.001554021,0.02332334,-0.0216156
0.9269223,0.1202692,0.4089428,-0.006962202,0.005674467,0.01087206,-0.004241308,0.0215568,-0.01617717
0.9258719,0.119249,0.4085576,-0.008063576,0.004672682,0.01059914,-0.002681641,0.01492058,-0.01057826
0.9263795,0.1184058,0.4080017,-0.007599762,0.003842067,0.0101429,-0.00227293,0.01013502,-0.009877364
0.9265962,0.1162312,0.4009305,-0.007419671,0.001674518,0.003158975,-0.001776883,0.009351638,-0.009883858
0.9268196,0.1131998,0.4008985,-0.007225604,-0.001355206,0.003202096,0.0005944038,0.01142951,-0.006062322
0.9289996,0.1169428,0.4051587,-0.005067961,0.002384426,0.00752564,0.0001487286,0.012538,-0.002992513
0.931351,0.1238197,0.4057392,-0.002731886,0.009253273,0.008158295,8.694858e-05,0.01650623,-0.008118534
0.9293281,0.1234514,0.4072195,-0.004763368,0.008872308,0.009679675,-0.0003607995,0.02227719,-0.01441112
0.9256029,0.1198025,0.4065332,-0.008490776,0.005206024,0.009023764,-0.002060101,0.02016693,-0.01491386
0.9250061,0.119579,0.4070741,-0.009083394,0.004960468,0.009584378,-0.002863286,0.01437738,-0.01514458
0.9275584,0.1180249,0.4075308,-0.006520572,0.00337984,0.01005055,-0.00279556,0.009926943,-0.01512319
0.930088,0.114839,0.4070862,-0.003974314,0.000163091,0.009605281,-0.0005371879,0.009614954,-0.01043154
0.928514,0.119038,0.4092919,-0.005525639,0.004327109,0.01180052,0.002097926,0.01454499,-0.009435983
0.9267299,0.1248529,0.4081502,-0.00728125,0.01010324,0.01063856,0.002484038,0.01640545,-0.01128224
0.9280273,0.1220916,0.4084649,-0.005949824,0.007299487,0.01092355,7.100355e-05,0.01483493,-0.00696026
0.9270727,0.120969,0.4116507,-0.006865,0.006130572,0.01407034,-0.003720197,0.01083812,-0.005393322
0.9261917,0.1232891,0.4118647,-0.007701259,0.008400578,0.01423622,-0.00478495,0.004512716,-0.008120176
0.9293565,0.1208207,0.4084748,-0.004486708,0.005878378,0.01078905,-0.002154456,-9.187876e-05,-0.006747711
0.9314303,0.1204772,0.4026859,-0.002358198,0.005477387,0.004934098,0.0009732834,-0.003574301,-0.006020324
0.9304999,0.122289,0.4035894,-0.003229302,0.007228183,0.005763042,0.00149559,-0.000675487,-0.008157396
0.9288753,0.1217017,0.4066607,-0.004790317,0.006576431,0.008751799,-3.684428e-05,0.007744073,-0.0109443
0.9272931,0.1207721,0.4060979,-0.006304957,0.005578922,0.008098908,-0.0007462401,0.01258144,-0.014285
0.9264313,0.1188791,0.4098258,-0.007095399,0.003614895,0.01172955,-0.0006358445,0.01565459,-0.01132889
0.9287475,0.1200167,0.4129289,-0.004704261,0.004678315,0.01472853,-0.001612498,0.01436943,-0.006334965
0.931922,0.1218689,0.4123685,-0.001451275,0.006453563,0.01405715,-0.003264822,0.008139679,-0.01034598
0.9302502,0.1203453,0.4106046,-0.003041469,0.004850223,0.0121756,-0.003878714,0.005894436,-0.0149045
0.9280052,0.1207881,0.4075146,-0.005201918,0.005210679,0.008961343,-0.004523294,0.005628299,-0.01524096
0.9279266,0.1211563,0.4068112,-0.005193397,0.005494075,0.008127401,-0.005911968,0.005242838,-0.01214195
0.9273106,0.1204784,0.4068527,-0.005719794,0.00472907,0.008032394,-0.006285239,0.007379807,-0.005840999
0.9280228,0.1208932,0.4085563,-0.004915654,0.005054608,0.009594037,-0.006307506,0.01189237,-0.007402466
0.9279526,0.1200434,0.4125961,-0.00489176,0.004113567,0.01348648,-0.006566232,0.01515323,-0.008659769
0.9269858,0.1200033,0.4141778,-0.005762518,0.003980356,0.0149158,-0.006269012,0.00911618,-0.003559065
0.9260451,0.1211347,0.4124715,-0.006605244,0.005016863,0.01305218,-0.004187966,0.0008164824,-0.005288127
0.9224898,0.1210063,0.4091891,-0.01006068,0.004792121,0.009607613,0.0005105769,-0.003240067,-0.005232399
0.922254,0.1206218,0.4100096,-0.01019485,0.004309895,0.01026114,0.003998457,-0.009898693,0.0001000466
0.9271768,0.1208607,0.4108041,-0.005168533,0.004449739,0.01088439,0.004691497,-0.0144776,0.001011121
0.9311418,0.1209642,0.4054509,-0.001098148,0.004453131,0.005355731,0.00371511,-0.01409644,0.000257594
0.9331928,0.1206792,0.4011146,0.001059768,0.004066906,0.0008401739,0.00219055,-0.003393247,-0.002322067
0.9343535,0.1200064,0.3985753,0.00232874,0.003292133,-0.001881452,0.00401375,0.01485616,-0.006137467
0.9323557,0.1164212,0.3969469,0.0004398805,-0.0003958733,-0.003694616,0.005929697,0.0128757,-0.008371342
0.9264948,0.1125735,0.3971696,-0.005311684,-0.004346679,-0.003658378,0.004446101,-0.000717512,-0.00823321
0.9253897,0.1154467,0.4014659,-0.006307354,-0.001576678,0.0004507454,0.002511702,-0.003984522,-0.006461099
0.929364,0.1220659,0.4099618,-0.002223433,0.004939663,0.008759244,-0.0002258154,-0.005622998,-0.004874761
0.930276,0.1257112,0.4097079,-0.001201757,0.008482632,0.008317891,-0.0004924879,-0.003925751,0.0003784822
0.9308185,0.1255916,0.406402,-0.000549904,0.008261174,0.004824947,0.002663716,-0.001575015,0.003786835
0.930929,0.1246072,0.4080061,-0.0003303295,0.007175204,0.006242292,0.002661931,0.0009326587,0.001274931
0.9309366,0.1259173,0.4012022,-0.0002144589,0.008383822,-0.0007478122,0.001775301,0.008730103,-0.0008967971
0.932718,0.1263253,0.395369,0.001674329,0.00869039,-0.006766173,0.002497365,0.005448903,-0.004508706
0.9316411,0.1225188,0.4026107,0.0007037288,0.004782331,0.0002918732,-4.63258e-05,0.001742522,-0.004907548
0.9307326,0.1196946,0.4079203,-9.997494e-05,0.00185639,0.005419763,-0.002178939,0.004878136,-0.0006022968
0.9307399,0.1206381,0.4036953,1.057627e-05,0.002698085,0.001015441,-0.001133546,-0.0003155549,-0.002309174
0.9300787,0.1214136,0.4012997,-0.0005491783,0.003371805,-0.001557136,-0.004387605,0.001348351,-0.006650468
0.9307591,0.1205812,0.4054313,0.0002306308,0.002437846,0.002400349,-0.007574746,0.007546885,-0.009128584
0.9288775,0.1213619,0.4068913,-0.001553468,0.00311723,0.003689155,-0.002542292,0.007613346,-0.01237454
0.9251019,0.1247743,0.4081563,-0.005233755,0.006428731,0.00478611,0.00132279,0.006696006,-0.01128464
0.9227623,0.1272248,0.4139432,-0.007479989,0.008778792,0.01040796,-0.002105899,-0.002572546,-0.005935728
0.9230894,0.1262809,0.4170196,-0.007061497,0.007734681,0.01332234,-0.003845449,-0.009116278,-0.003398835
0.9244829,0.1229147,0.418643,-0.005578108,0.00426833,0.01478614,0.0001774637,-0.00942423,-0.002343173
0.9235573,0.1204572,0.4188642,-0.006415199,0.00171088,0.01484991,0.002416072,-0.01637037,0.0007258071
0.9251796,0.1197112,0.4131049,-0.004705701,0.0008650723,0.008934904,0.0003653992,-0.02121706,0.005938532
0.9275051,0.1193727,0.4073057,-0.002294073,0.0004270555,0.002981284,-0.001612367,-0.0189356,0.01040833
0.9264248,0.1212999,0.4072787,-0.003289271,0.002255373,0.002801216,-0.003390891,-0.01489055,0.01120165
0.9279971,0.125633,0.4075301,-0.001633014,0.006490362,0.00290118,-0.003238968,-0.01063072,0.01394587
0.9305617,0.1287511,0.4036197,0.001014485,0.009510913,-0.00115912,9.753361e-05,-0.003208944,0.01764261
0.9318086,0.126134,0.401082,0.002342964,0.006796839,-0.003844639,0.002448151,0.0001945454,0.01383304
0.9340486,0.120691,0.3993003,0.004663125,0.001257242,-0.005771942,0.003188063,-0.007536986,0.004650747
0.9347203,0.1174362,0.3970157,0.005413253,-0.002093741,-0.008199275,0.005474099,-0.01208668,-0.004658406
0.9342376,0.1133569,0.3959081,0.005006805,-0.006268445,-0.00944631,0.008766713,-0.01013686,-0.008855092
0.933908,0.11268,0.3936537,0.004751043,-0.007039794,-0.01183622,0.007546915,-0.009216659,-0.009574406
0.9322,0.1151792,0.3965745,0.003114239,-0.004633413,-0.009046346,0.002296299,-0.006924661,-0.01098875
0.9313262,0.1139252,0.402559,0.00230881,-0.005978274,-0.003187706,-0.0004416722,0.0001578526,-0.008327556
0.9331638,0.1174826,0.4067269,0.004211673,-0.002509353,0.0008596404,0.001453837,0.01040746,-0.00778045
0.9364592,0.1260569,0.4117572,0.007569278,0.005979125,0.005774748,0.005525973,0.02192572,-0.008529099
0.9394475,0.1303961,0.4097841,0.01061625,0.01023503,0.003691588,0.006420765,0.03429375,-0.0008730736
0.9359641,0.1307693,0.4060594,0.007187739,0.01052713,-0.0001382013,0.00574724,0.03249987,0.005173266
0.9273373,0.1282897,0.4058648,-0.001388072,0.007968274,-0.0004332579,0.008158428,0.01763226,0.008633411
0.9256483,0.1219766,0.4031892,-0.003030236,0.001577275,-0.00320463,0.01083184,0.002221278,0.01033624
0.9303001,0.1112324,0.4054294,0.001664676,-0.009243383,-0.001055519,0.01157033,-0.01653577,0.002217644
0.9333727,0.1072222,0.4090811,0.004776589,-0.01332837,0.002509701,0.007645839,-0.01580934,-0.007381343
0.9332003,0.1119355,0.4079252,0.004639919,-0.008687645,0.001271819,0.003050812,-0.00181561,-0.01302937
0.9319228,0.1134362,0.4069889,0.003394426,-0.007256744,0.0002579641,0.004497541,-0.007032379,-0.0151644
0.9304439,0.1205971,0.4062724,0.001943844,-0.000162409,-0.0005319452,0.00472861,-0.01998412,-0.01053857
0.9271617,0.1299378,0.4072881,-0.001313662,0.009115006,0.0004144517,0.002376213,-0.03931887,0.0002104711
0.9296713,0.1285462,0.4058238,0.00121702,0.007663116,-0.001115151,0.00242253,-0.04796267,0.0112443
0.9361041,0.1268566,0.3985736,0.00766763,0.005915771,-0.008426671,0.003749225,-0.03174639,0.01781567
0.9375036,0.1221681,0.3915854,0.009081608,0.001171877,-0.01547214,0.008035785,-0.02551079,0.02039035
0.94027,0.113085,0.3897703,0.01185887,-0.007964547,-0.01733989,0.01068958,-0.02217834,0.01309189
0.9376448,0.1109672,0.3929727,0.009240541,-0.01013343,-0.01418498,0.006676681,-0.01698046,-0.002558431
0.9291823,0.11195,0.3928474,0.0007809697,-0.009198984,-0.01435207,0.004864847,-0.02313066,-0.01624174
0.9301036,0.1144392,0.3921999,0.001701104,-0.006755197,-0.01503528,0.005158509,-0.02019602,-0.02036163
0.9319655,0.1183097,0.3942553,0.003557879,-0.002926767,-0.01300889,0.0008301863,-0.01107456,-0.01024611
0.9324443,0.1189888,0.3925607,0.004027824,-0.002286229,-0.0147257,0.0004334515,-0.003439951,-0.00041316
0.9360454,0.1202115,0.3948463,0.007616423,-0.001098582,-0.01245504,0.001372185,-0.002307951,0.002989622
0.9348894,0.1224847,0.4008647,0.00644434,0.001142936,-0.006444319,-0.003015153,-0.008305191,0.006575346
0.9339428,0.1216133,0.4036114,0.005477891,0.0002431036,-0.003697931,0.0001217588,-0.005413071,0.007766445
0.9353692,0.120919,0.4034446,0.006880818,-0.0004765036,-0.003858039,0.005628326,-0.004097639,0.01106006
0.9344816,0.1215168,0.3981746,0.005966135,9.884467e-05,-0.009114478,0.00455618,0.002378468,0.01080723
0.9346272,0.1185311,0.3916715,0.006080947,-0.002906459,-0.01559733,0.004782091,0.01687392,0.002576879
0.934778,0.1152443,0.3870109,0.006197425,-0.006210152,-0.02023098,0.003730535,0.01306281,-0.0006239715
0.9336242,0.1157658,0.3929487,0.005005681,-0.005702741,-0.01425931,0.003305233,-0.0001032199,0.0009399093
0.9336922,0.1187924,0.4033231,0.005032171,-0.002687376,-0.00384366,0.004185578,-0.01361462,0.001982247
0.935915,0.1220896,0.3984527,0.007210179,0.0006015663,-0.008665834,0.0009990969,-0.01922426,0.001627823
0.9379259,0.1203093,0.3972343,0.009172895,-0.001184139,-0.009829068,-1.764129e-05,-0.01198243,0.000322312
0.9351076,0.1154293,0.4030961,0.006302955,-0.006066881,-0.00390547,0.000250409,-0.01439139,-0.002047392
0.9319881,0.1136716,0.400811,0.003128606,-0.00782464,-0.006122449,-0.001512612,-0.0186944,-0.004887155
0.9345106,0.1160132,0.4038397,0.005592863,-0.005480269,-0.003019703,-0.001091311,-0.01897114,0.001486391
0.9365581,0.1190019,0.4045832,0.007579129,-0.002485881,-0.002196593,0.005378629,-0.02030748,0.009598592
0.9358386,0.1156265,0.3958679,0.006795346,-0.005852686,-0.01082713,0.01215971,-0.004842049,0.006314535
0.9360711,0.1114439,0.3898555,0.006960485,-0.01002374,-0.01674997,0.007816102,0.01467725,0.002371836
0.9349235,0.1123134,0.3859505,0.005742674,-0.009139595,-0.02056025,-0.003055452,0.01419279,-0.001239267
0.9320912,0.1127261,0.3877442,0.00283734,-0.008708951,-0.01866665,-0.01658495,-0.001996671,-0.01053864
0.9297433,0.1181184,0.3919041,0.0004136532,-0.003295285,-0.01440131,-0.02637785,-0.01644609,-0.01170144
0.9293656,0.1264966,0.3920501,-4.209416e-05,0.005107624,-0.01414406,-0.01970484,-0.01241596,0.006888547
0.9337298,0.1265301,0.3923188,0.004242017,0.005168912,-0.01375832,-0.009962308,0.007033272,0.02927078
0.9377659,0.1229244,0.3916339,0.00819618,0.001593623,-0.01432043,-0.006405369,0.02959315,0.02747305
0.9363107,0.1183269,0.3913809,0.006657411,-0.002971325,-0.0144448,-0.005121912,0.03703063,0.0125486
0.9354247,0.1136106,0.3917321,0.005686005,-0.007653191,-0.01395937,-0.006008678,0.02326452,0.005852509
0.9380707,0.1110226,0.3906515,0.008245032,-0.01020467,-0.01490008,0.0005936401,0.01507089,-0.0089734
0.9405174,0.1059042,0.3900696,0.01060293,-0.01528447,-0.01533639,0.005899311,0.01925357,-0.02313344
0.9414618,0.1039702,0.3906442,0.01145679,-0.01717718,-0.0146106,0.002541028,0.02220228,-0.01952516
0.9386051,0.110673,0.3933963,0.008507507,-0.01043003,-0.01170184,0.006062095,0.02699844,-0.02250658
0.9339972,0.1178134,0.396231,0.003804885,-0.003242055,-0.008705094,0.008696745,0.02788802,-0.03148675
0.9339282,0.1198569,0.3977372,0.003639244,-0.001147493,-0.007031827,0.003431481,0.01624385,-0.02929376
0.9323177,0.1220458,0.3999134,0.001930391,0.001095562,-0.004683885,0.0008246116,0.003773135,-0.02187654
0.9267694,0.1272495,0.4025172,-0.003717913,0.006356181,-0.001904291,0.001165921,-0.001168883,-0.01316962
0.924955,0.128423,0.4036515,-0.005633244,0.007588707,-0.0005905761,0.0008069334,-0.005700551,-0.006859566
0.925568,0.1275255,0.4039044,-0.005121797,0.006751856,-0.000155454,-0.002081161,-0.01386893,-0.002971483
0.9300974,0.1273552,0.4037009,-0.0006939445,0.006643126,-0.0001744795,-0.000717907,-0.01668543,0.003840891
0.9373781,0.123798,0.3985939,0.006485713,0.003147814,-0.005095534,0.005279355,-0.007574084,0.01022469
0.9385843,0.1210624,0.3943841,0.007591338,0.0004739524,-0.009118249,0.00782411,0.00119581,0.01175832
0.9371341,0.1193403,0.3984851,0.006041114,-0.001186605,-0.004829382,0.008314445,-0.004908916,0.006990667
0.9373347,0.1157729,0.4008792,0.006141954,-0.004693025,-0.002246847,0.006641355,-0.01252951,-0.0001231333
0.9376859,0.1127057,0.3962242,0.00639378,-0.007699727,-0.006713154,0.006714209,-0.007017314,-0.0007842921
0.937908,0.1129346,0.3913413,0.006516621,-0.007410529,-0.0114074,0.007427656,-0.001353352,0.001495229
0.9390434,0.1133236,0.3873959,0.00755291,-0.006961299,-0.01516414,0.004139217,0.004989044,-0.0007112724
0.9407145,0.111462,0.3833526,0.009124939,-0.008762551,-0.01901873,0.001665435,0.01328419,-0.005863959
0.9386148,0.1187435,0.3888671,0.006926109,-0.001420319,-0.01331512,-0.002298605,0.008878147,-0.01450664
0.936424,0.1274869,0.3985804,0.004635867,0.007384117,-0.003412202,-0.00251162,0.005776168,-0.01801809
0.9375625,0.1243536,0.3950283,0.005674679,0.004312018,-0.006774091,0.001723885,0.008559724,-0.00979785
0.9368478,0.1234829,0.3937924,0.004859988,0.00350209,-0.007819428,0.002448124,0.005376692,-0.004402784
0.9351957,0.1239883,0.3990529,0.003107703,0.00406758,-0.002368302,0.005694963,0.005589306,-0.003905131
0.9341674,0.1184476,0.3922529,0.001979168,-0.001414004,-0.00897789,0.00666827,0.003610694,7.101349e-05
0.9321238,0.117006,0.3883612,-0.0001646565,-0.002797562,-0.01267941,0.001943155,-0.006411717,0.001560982
0.9318173,0.1195352,0.3939393,-0.0005711926,-0.0002114912,-0.006911507,-0.001911338,-0.01207259,-0.002213883
0.935112,0.1192358,0.3950658,0.002624086,-0.0004552389,-0.005595585,-0.003341318,-0.009915694,-0.003688202
0.9379614,0.116546,0.3936133,0.005374585,-0.0030905,-0.006859168,-0.00234238,-0.002802145,-0.002078879
0.9373932,0.1150699,0.3923848,0.004708272,-0.004513263,-0.007899325,-0.004812341,0.002220691,-0.002807294
0.9352932,0.1176457,0.3932652,0.002510882,-0.001885151,-0.006831273,-0.005306894,0.001654816,-0.004911567
0.9333212,0.1210117,0.3942694,0.0004421415,0.001532207,-0.005640258,-0.002874949,-0.001844386,-0.006504043
0.9329284,0.1204326,0.3937317,-4.659809e-05,0.001003475,-0.005992152,-0.004814477,-0.005343332,-0.006383425
0.9335782,0.1202668,0.3952609,0.0005084224,0.0008870002,-0.004278154,-0.003055922,-0.004330445,-0.003815376
0.9338506,0.1216701,0.3941213,0.0006871937,0.002338293,-0.005234223,-0.0006529711,0.002514581,-0.0009687381
0.9359181,0.120057,0.3903834,0.002662307,0.0007717846,-0.008789956,0.000142035,0.007241449,0.0004998157
0.9382355,0.1188751,0.3883003,0.00488875,-0.0003648728,-0.01069234,0.00357656,-0.006410594,-0.003730444
0.9368831,0.1180436,0.3872997,0.003446796,-0.0011526,-0.01151348,0.005515471,-0.02575015,-0.007371438
0.9353895,0.1176591,0.3876342,0.001864941,-0.0014949,-0.01100073,0.008239757,-0.02160087,-0.004848387
0.9374054,0.1205407,0.389325,0.0037938,0.001427626,-0.009132692,0.008620086,-0.001718444,-0.004495438
0.9388049,0.1212253,0.3915879,0.005107691,0.00215167,-0.006693452,0.006352904,0.02282764,-0.003043729
0.9379219,0.1204911,0.393825,0.00414013,0.001455329,-0.004280883,0.003629223,0.04034276,-0.005225083
0.9374048,0.1204778,0.3993205,0.003539754,0.001478316,0.00138907,-0.001774491,0.0344053,-0.01684235
0.9372878,0.12069,0.4033604,0.003340377,0.001725194,0.005601933,-0.00102405,0.03261219,-0.02056827
0.9372856,0.1230723,0.3995754,0.003256941,0.004140442,0.001987953,0.0005910764,0.04285904,-0.01507108
0.9352708,0.1234832,0.3963668,0.001161952,0.004582498,-0.001051914,-0.004330333,0.04050496,-0.01060356
0.9312476,0.1232009,0.3958768,-0.002940359,0.004329251,-0.001375849,-0.004865274,0.03969082,-0.01028572
0.929755,0.1243609,0.3967425,-0.004510822,0.005516174,-0.0003471302,0.0006278998,0.03633917,-0.009843009
0.9305682,0.1242022,0.4006853,-0.003774019,0.005381964,0.003755673,0.00474376,0.01715557,-0.004918547
0.9317748,0.1248428,0.4009524,-0.002641923,0.006044692,0.004179228,1.328355e-05,0.006211631,-0.006173034
0.9348336,0.1236275,0.3948146,0.0003444897,0.004848668,-0.001805842,-0.006946173,0.003523582,-0.007951095
0.9382324,0.12114,0.3889044,0.003672963,0.002377797,-0.007567242,-0.004611237,0.005330516,-0.004663612
0.9356189,0.1219495,0.3902164,0.0009913166,0.003200966,-0.006110287,-0.002162716,0.01409093,-0.006705938
0.9312402,0.1208791,0.3933709,-0.003453439,0.002141437,-0.002814517,-0.000984177,0.01472929,-0.007625442
0.9339509,0.1191663,0.3913072,-0.0008066236,0.0004367624,-0.004740542,0.003560386,0.0134747,-0.008351203
0.9360659,0.1230005,0.3929265,0.001246687,0.004276372,-0.002986967,0.003861706,0.01300268,-0.01164856
0.9355468,0.1263815,0.3988854,0.000668185,0.007660129,0.003102852,0.002877291,0.009174394,-0.01015648
0.9362104,0.1237972,0.4015075,0.001274474,0.005075854,0.005852183,0.003644268,0.007830765,-0.004031704
0.9321865,0.1207997,0.4012531,-0.002804446,0.002075476,0.005721231,0.00309258,0.002313306,0.004405363
0.9291589,0.1209286,0.3992035,-0.005884869,0.002198749,0.003790987,0.003293361,-0.00458433,0.00450205
0.9308147,0.1216574,0.3997193,-0.004279486,0.002919122,0.004421643,0.002552473,-0.007460718,0.001103516
0.930927,0.1224947,0.4008516,-0.004214979,0.003745398,0.005664113,0.0007306795,-0.005935569,0.002577275
0.931324,0.122835,0.3992597,-0.003863054,0.004072035,0.004177635,-0.001233431,-0.0009935609,-0.001712472
0.932547,0.1235969,0.4002327,-0.00268221,0.004817676,0.005250848,-0.004425937,-0.0001188604,-0.002335537
0.9338806,0.1250598,0.3999354,-0.001387766,0.006261739,0.005048691,-0.007206084,0.008254033,-0.0003610507
0.9345895,0.1217023,0.3976396,-0.0007150283,0.002882856,0.002842599,-0.01010016,0.01903331,-0.006973552
0.9320006,0.1182148,0.397395,-0.003337287,-0.0006285731,0.002682342,-0.01198061,0.0135371,-0.007797818
0.9288528,0.12236,0.3978044,-0.006515343,0.003490169,0.00317064,-0.0107219,0.009990786,-0.005784576
0.9297898,0.1260781,0.4001355,-0.00560565,0.007179635,0.00557535,-0.006369355,0.01319074,-0.005194619
0.933652,0.1249376,0.4013759,-0.001767634,0.006008202,0.006883787,-0.00205508,0.0104762,-0.002423121
0.9355589,0.1246712,0.4038904,0.0001183235,0.005708461,0.009460831,-0.004049196,0.01059015,-0.006923157
0.9360362,0.1252985,0.4083848,0.0005777366,0.006300153,0.01401207,-0.006747992,0.01484944,-0.00792162
0.9345374,0.1245422,0.4040908,-0.0009360609,0.005505679,0.00976878,-0.003545819,0.01363601,-0.001722616
0.9313144,0.1231371,0.3953349,-0.004171198,0.004060001,0.001057389,-0.001674944,0.001828576,-0.001989659
0.9319493,0.1225384,0.3916428,-0.003545836,0.003418381,-0.002596549,-0.002911164,-0.01418732,-0.003127752
0.9332469,0.1254659,0.3933686,-0.002255016,0.006300579,-0.0008384352,-0.004314901,-0.01865366,-0.003018084
0.9337564,0.1289569,0.3974661,-0.001749606,0.009743954,0.003285904,-0.004835114,-0.0250212,-0.003567807
0.9367286,0.1262698,0.4028187,0.001221068,0.00700681,0.008659945,-0.001952535,-0.04884316,-0.003034401
0.9398107,0.1234404,0.4124072,0.004304038,0.004124974,0.01826462,0.0002764543,-0.06233739,-0.006654944
0.9408284,0.1255182,0.4129143,0.005324811,0.006147843,0.0187823,0.0008516149,-0.05481945,-0.007446989
0.9382796,0.1253356,0.3979705,0.002780733,0.005907829,0.003842966,0.001172404,-0.03638088,0.004448586
0.9365441,0.1243812,0.3893933,0.001051399,0.004893658,-0.00473586,-0.002700766,-4.236653e-05,0.01546935
0.9378654,0.1247468,0.3925088,0.002379922,0.00519715,-0.001627859,-0.006920569,0.0275978,0.008457923
0.9379044,0.1212971,0.3929891,0.002427231,0.001683137,-0.001160261,-0.01008819,0.0192142,-0.004278301
0.9390972,0.118201,0.3872138,0.003628941,-0.001479267,-0.006952989,-0.01297102,0.01247438,-0.006201847
0.9401149,0.1194726,0.3848559,0.00465611,-0.0002758298,-0.009332311,-0.01121039,0.02266009,-0.006730903
0.9358914,0.1214614,0.3901238,0.0004423929,0.00164346,-0.004089285,-0.009535058,0.02056265,-0.006600446
0.9319926,0.1234914,0.3942511,-0.003446605,0.003602677,1.046319e-05,-0.008966405,0.01975862,-0.002803394
0.9347553,0.1261447,0.3964214,-0.0006739401,0.006184258,0.002150774,-0.007374317,0.02516018,-0.003225297
0.9372341,0.1275973,0.3966978,0.00181489,0.007564071,0.002395006,-0.008092246,0.01895673,-0.002280338
0.9329513,0.1293267,0.3952993,-0.002457691,0.009219602,0.0009624108,-0.007765852,0.02081218,-0.001178539
0.9309874,0.1309814,0.3985933,-0.004411278,0.01079921,0.004220535,-0.007351381,0.02359551,-0.002463397
0.934207,0.1269663,0.3995055,-0.001181069,0.006707621,0.005094961,-0.009626726,0.01769521,-0.0006940433
0.9348008,0.1231901,0.3964957,-0.0005764223,0.002853289,0.002045688,-0.01092197,0.01862825,-0.0008843597
0.9320515,0.1253316,0.3958239,-0.003314562,0.00491533,0.001332762,-0.01155314,0.01305753,-0.0002360933
0.9301862,0.1256694,0.3960551,-0.005168273,0.005172196,0.001521283,-0.01009738,0.006713608,0.004506266
0.9339306,0.1253207,0.39927,-0.001411871,0.004741231,0.0046921,-0.004916931,0.006777679,0.01073703
0.9376071,0.1264377,0.4013148,0.002277332,0.005774684,0.006691358,-0.0005198286,0.003737905,0.01548827
0.9339836,0.1236011,0.3999578,-0.001333017,0.002853402,0.005287488,-0.001002318,-0.001863143,0.01307821
0.9310004,0.1201899,0.4025308,-0.004302543,-0.0006435025,0.007812049,-0.002392513,-0.01567029,0.01131124
0.9312538,0.1206571,0.4047143,-0.004034995,-0.0002628714,0.009945571,0.0008464514,-0.01921527,0.01168662
0.9306897,0.1223701,0.4005578,-0.004584337,0.001362956,0.00573728,0.001947755,-0.007142732,0.005975469
0.932105,0.1232133,0.39718,-0.00315345,0.002118743,0.002305828,0.000183421,-0.0007051186,0.001513831
0.9338399,0.1240385,0.399497,-0.001402068,0.002856342,0.004567382,0.001563377,-0.0002147161,0.003229091
0.9316115,0.1246705,0.400672,-0.003613227,0.003400868,0.005685201,0.001452278,-0.008691243,0.005842877
0.9295409,0.1251255,0.3977184,-0.005665571,0.003768372,0.002672652,0.0004927956,-0.01858347,0.007301255
0.9310586,0.1262133,0.3956751,-0.004128555,0.004768856,0.0005687406,-0.001858909,-0.01733379,0.007572851
0.9327073,0.1262852,0.3929363,-0.002459464,0.004753546,-0.002232017,-0.005452829,-0.01142348,0.008162309
0.9333022,0.1251625,0.388983,-0.001843013,0.003543847,-0.006248422,-0.001026035,-0.004164292,0.01071982
0.9328342,0.1230093,0.3900188,-0.002288232,0.001303754,-0.00527624,0.002924207,-0.001235854,0.01179758
0.9314883,0.1213905,0.3936592,-0.003610381,-0.0004017252,-0.001699724,-0.001756898,-0.007147127,0.01079004
0.9327569,0.1223938,0.3957821,-0.002316794,0.0005154124,0.0003594267,-0.003948068,-0.01605277,0.01153727
0.9342509,0.1222969,0.3976909,-0.0007967092,0.0003329889,0.002204961,0.0002072076,-0.01809431,0.01314312
0.9339077,0.1209922,0.3958924,-0.001112809,-0.001056448,0.0003436889,0.004103427,-0.008432393,0.01393543
0.9349388,0.1207833,0.3931896,-5.365808e-05,-0.001348986,-0.002421391,0.003864987,0.0004961527,0.01238087
0.9350604,0.1206655,0.3956579,9.677985e-05,-0.001549275,-1.454584e-05,0.0005527783,-0.002731781,0.0102478
0.934281,0.1209797,0.3965934,-0.0006530986,-0.001316147,0.0008604536,-0.0024732,-0.007468086,0.01195692
0.9349644,0.1208481,0.3952493,6.050503e-05,-0.001527227,-0.000543182,-0.001698861,-0.005030838,0.01269631
0.9347406,0.1206779,0.3960851,-0.0001327246,-0.001775066,0.000234167,-0.0003526402,-0.003863697,0.009907238
0.9345388,0.1210247,0.3958581,-0.0003035644,-0.001503974,-5.010176e-05,-0.001230139,-0.002486768,0.0078965
0.9347543,0.1201722,0.3940402,-5.68301e-05,-0.00243004,-0.001924008,0.001628729,0.001169824,0.007040242
0.9336944,0.1178097,0.3876713,-0.001085357,-0.004863892,-0.008347574,0.004650208,0.001805268,0.006618953
0.9330824,0.1141473,0.3792592,-0.001665896,-0.008595057,-0.01681253,0.002173256,0.004985328,0.004517048
0.933831,0.1137834,0.3809233,-0.0008857285,-0.00902484,-0.01519889,-0.001327355,0.008918796,-0.0007828639
0.9361139,0.1188823,0.3855609,0.001428651,-0.003988641,-0.01060867,-0.004945186,0.01143004,-0.006255837
0.9377731,0.1229599,0.3847182,0.003119346,2.968304e-05,-0.01149512,-0.006723685,0.0124728,-0.00685537
0.9348776,0.1246046,0.3914131,0.0002550501,0.001618694,-0.004839887,-0.005071281,0.01036522,-0.001913421
0.9311023,0.1267631,0.4009996,-0.003489394,0.003724874,0.00471119,-0.00376736,0.01334562,0.004206903
0.9317843,0.1268241,0.3977509,-0.002776831,0.003736666,0.001431294,-0.00280172,0.01403765,0.009491393
0.9334538,0.123934,0.3935893,-0.001077199,0.0008002764,-0.002757773,-0.0029477,0.009974376,0.008491973
0.9332391,0.123049,0.3916461,-0.001261978,-0.0001283157,-0.004724805,-0.00491129,0.007205179,0.004524862
0.93343,0.1239075,0.3841133,-0.001041364,0.0006891483,-0.01227778,-0.005229941,0.003115613,0.007757367
0.9330297,0.1229565,0.3862079,-0.001412173,-0.0003004174,-0.0101995,-0.004316909,0.009763497,0.007652134
0.9313458,0.1209403,0.3921541,-0.003066863,-0.002352704,-0.004265434,-0.003987239,0.01685485,0.002773715
0.9309472,0.1187201,0.3879826,-0.00343648,-0.004606668,-0.008444854,-0.00340821,0.01097458,0.0008112635
0.9337982,0.1187696,0.3899683,-0.0005565507,-0.004588377,-0.006462797,-0.001324523,0.01009605,-0.004368127
0.9368632,0.1195466,0.3945008,0.00253721,-0.003839888,-0.001929454,0.001731672,0.01300254,-0.006907326
0.9323882,0.1187755,0.3941191,-0.001909152,-0.00463679,-0.002306118,0.001285063,0.01261541,-0.005611309
0.9256755,0.1223547,0.3983938,-0.008593443,-0.001080635,0.001977691,-0.001096892,0.0113455,-0.006116999
0.9264552,0.1262723,0.3982126,-0.007785268,0.002816777,0.001809391,-0.0003577587,0.008371194,-0.005055035
0.9295176,0.1256979,0.3956316,-0.004694248,0.002224732,-0.0007553982,-0.0001076503,0.006447481,-0.004415789
0.9314661,0.125756,0.3978852,-0.002716601,0.002267623,0.001517504,-0.0006074269,0.004644615,-0.001543089
0.9328143,0.1232022,0.3958576,-0.001338603,-0.0002993276,-0.0004880714,-0.0007881651,0.004487938,0.001724651
0.9333484,0.1191266,0.3958622,-0.0007742267,-0.004385976,-0.0004589449,-0.00334168,0.005740884,0.0003685367
0.9347648,0.1195707,0.3990502,0.0006729443,-0.003951004,0.002755743,-0.00340493,0.004698479,-0.0001415825
0.9347613,0.1191116,0.3967942,0.0007005521,-0.004417163,0.0005284417,-0.002380101,0.004766598,-0.001288231
0.93439,0.1165824,0.3944904,0.0003606294,-0.006951267,-0.001744971,-0.004894695,0.001988993,-0.006720045
0.9341423,0.116023,0.3937826,0.0001444149,-0.007513285,-0.002420925,-0.002534206,-0.0137071,-0.01288437
0.9329076,0.1167379,0.3933717,-0.001058816,-0.006798429,-0.002798579,0.002177045,-0.03694027,-0.01290901
0.9344641,0.1208895,0.3951299,0.0005291617,-0.002644253,-0.001005753,-0.001597124,-0.05271438,-0.009273123
0.9365353,0.125312,0.3968065,0.002631634,0.00178347,0.0007066242,-0.005519427,-0.0598569,-0.010986
0.9379025,0.1246086,0.3983348,0.004029786,0.001087829,0.002271758,-0.006323782,-0.06163886,-0.01804484
0.9396099,0.1264254,0.4001893,0.005767553,0.002914692,0.00416385,-0.01241229,-0.06712111,-0.02689013
0.938719,0.1284287,0.4001205,0.004906334,0.004929978,0.004133122,-0.01194918,-0.09474318,-0.02900016
0.9376544,0.1223505,0.398529,0.003870137,-0.001134613,0.00257981,0.001289727,-0.1277422,-0.02793069
0.9375317,0.1174569,0.3936327,0.003774635,-0.006013124,-0.002278439,0.01353853,-0.144331,-0.03068369
0.9376218,0.118835,0.3849989,0.003890372,-0.004618673,-0.01087434,0.02180338,-0.1458739,-0.0200744
0.9396546,0.1249011,0.378694,0.005947092,0.001465369,-0.01714119,0.02403156,-0.1123287,0.0008949059
0.941693,0.1317123,0.3734718,0.008007633,0.008295812,-0.02232474,0.01962694,-0.05394799,0.008896859
0.9420418,0.1308854,0.3702419,0.008376335,0.007489215,-0.02551447,0.01194662,-0.02242934,0.003392407
0.9413301,0.1265467,0.3737628,0.007682061,0.003171286,-0.02195093,-0.001809972,-0.02068508,-0.001511298
0.9406615,0.1239614,0.3768781,0.007028054,0.0006068951,-0.0187896,-0.01452989,-0.01070918,0.002177423
0.9402221,0.1213067,0.3781377,0.006600424,-0.00202682,-0.01748002,-0.01733894,0.01279834,0.004580494
0.9400139,0.1173919,0.3783527,0.006400811,-0.005920629,-0.01721037,-0.002424155,0.03020457,0.003172254
0.9405084,0.1104097,0.3755774,0.006900581,-0.01288177,-0.01992596,0.0220187,0.04991787,0.002139091
0.9402693,0.1083109,0.3750588,0.006663309,-0.01495887,-0.02037943,0.02452927,0.05786137,-0.007158088
0.9404526,0.1215707,0.3751092,0.006844997,-0.001676385,-0.02025804,0.006570978,0.0311003,-0.01651893
0.9430086,0.1407663,0.376151,0.009395806,0.01754315,-0.0191389,-0.009560233,0.01134949,-0.01568293
0.947029,0.1454579,0.3779929,0.01340723,0.02225939,-0.01721301,-0.01730752,0.01729029,-0.01351372
0.9490265,0.1327084,0.377905,0.01539169,0.009534193,-0.01721001,-0.01804581,0.03367543,-0.01467979
0.9440934,0.1196128,0.3833654,0.01044107,-0.003538003,-0.01165181,-0.01968733,0.04635913,-0.01526708
0.9386214,0.1167203,0.3870867,0.00494695,-0.006408272,-0.007825668,-0.01733207,0.02588238,-0.01346921
0.94009,0.1186826,0.3855612,0.006388669,-0.004424876,-0.009239703,-0.01026631,-0.006796242,-0.01288706
0.9409218,0.1201066,0.3872168,0.007188977,-0.002980411,-0.007466193,-0.00975454,-0.01479914,-0.011195
0.9387753,0.1211171,0.3835905,0.005006454,-0.001950102,-0.01096861,-0.01085236,-0.006713026,-0.01083367
0.937677,0.1219938,0.3797757,0.003867799,-0.001054011,-0.01465372,-0.01381605,-0.001635453,-0.01599947
0.9336423,0.1267697,0.3886263,-0.0002115577,0.003740957,-0.00566791,-0.01768632,-0.005080054,-0.01458821
0.9293467,0.1381565,0.3991986,-0.004555621,0.01514617,0.005044871,-0.01014041,-0.008533918,0.002114352
0.9334142,0.1441676,0.3984016,-0.0005398317,0.02117461,0.004392808,0.001095872,-0.01716929,0.02692365
0.9404726,0.1352581,0.3875102,0.006463831,0.01228064,-0.006349932,0.006416775,-0.03027855,0.03306633
0.9421457,0.1220705,0.375001,0.008079529,-0.0008939223,-0.01870726,0.01003013,-0.03020749,0.01690417
0.9428093,0.1143557,0.3643107,0.008683015,-0.008598319,-0.02924255,0.0107007,-0.01142646,0.007336988
0.9453039,0.112221,0.3561636,0.01111478,-0.01072495,-0.037231,0.00951313,0.01812707,-0.0004915195
0.9455578,0.1149246,0.3540903,0.01130299,-0.008015074,-0.03914091,0.01118353,0.02517153,-0.01431893
0.9423661,0.1184098,0.3581366,0.008042631,-0.004524764,-0.03492542,0.01164674,0.001940614,-0.02666262
0.9391274,0.1260291,0.3624944,0.004732039,0.003098882,-0.03039176,0.01042401,-0.009148694,-0.03736042
0.9407869,0.1398244,0.3664497,0.00631663,0.01689777,-0.02625308,0.006788535,0.004670821,-0.02965602
0.9425991,0.1463431,0.3727264,0.008050981,0.02341868,-0.01978508,-0.006994849,0.0166691,-0.01018612
0.9386053,0.1421462,0.3761072,0.003976552,0.01922202,-0.01620506,-0.01871863,0.01042239,-0.002870862
0.934378,0.1314479,0.3822993,-0.000334095,0.008520897,-0.009805998,-0.01394433,-0.00570072,-0.003331419
0.9317244,0.1176853,0.3912161,-0.003073435,-0.005247821,-0.0006748423,-0.008639954,-0.02233488,-0.007557624
0.9311195,0.1123704,0.387834,-0.003765947,-0.01057205,-0.003836144,-0.01140149,-0.02916665,-0.00835667
0.9336025,0.1141447,0.3858156,-0.001371947,-0.008809853,-0.005628171,-0.006829618,-0.01886486,0.004560427
0.9369234,0.1180049,0.3920482,0.001859001,-0.004963635,0.0008355511,0.00515921,-0.01511578,0.02804649
0.9434973,0.1270681,0.3919275,0.008342305,0.004084104,0.000950004,0.01235732,-0.01913756,0.04424448
0.9466206,0.1303089,0.3883679,0.01137444,0.007308043,-0.002371623,0.01165719,-0.01404956,0.03027709
0.9440971,0.1259916,0.3763689,0.008758947,0.002972528,-0.01413026,0.007212904,-0.009720677,0.01214388
0.9478575,0.1259938,0.3601935,0.01242644,0.002955038,-0.03006353,0.009181887,0.0008207275,0.01403446
0.9514887,0.1256213,0.3616877,0.01596339,0.002561347,-0.02832494,0.01090755,0.01521041,0.005665513
0.947732,0.127809,0.3671621,0.01211096,0.004726358,-0.02260343,0.005016865,0.01626839,-0.005471164
0.9453202,0.1399929,0.3634447,0.009601432,0.0168859,-0.02607056,-0.001855222,0.01403175,-0.0007300534
0.9461508,0.1469856,0.3649619,0.01033228,0.02385238,-0.02429956,-0.01816666,0.01783711,-0.001705303
0.9477933,0.1402297,0.3671844,0.01187282,0.01706749,-0.02181937,-0.03272343,0.02853477,-0.00682222
0.9470959,0.130869,0.3672996,0.01107123,0.007674463,-0.02144242,-0.03450917,0.03869533,-0.006486517
0.9387799,0.1292091,0.3770479,0.002648512,0.005978409,-0.01142825,-0.03702107,0.03687348,0.0004128122
0.9291647,0.1312302,0.3842982,-0.007075549,0.007959737,-0.003908166,-0.03175772,0.02324943,0.01555274
0.9312549,0.1303767,0.3837011,-0.005096014,0.007062612,-0.004232077,-0.02382599,0.01136052,0.02694426
0.937883,0.1301592,0.3891567,0.001420486,0.006797747,0.001499198,-0.01975071,0.008042287,0.03569542
0.9374365,0.1285843,0.3924545,0.0008616547,0.005171796,0.005074407,-0.009272977,-0.003064266,0.04324977
0.9373116,0.1244482,0.3834106,0.0006242791,0.0009810761,-0.003691435,-0.002585187,-0.01301987,0.03780144
0.9370711,0.1202807,0.3764585,0.0002712648,-0.003244343,-0.01036548,0.002691156,-0.003307977,0.02852096
0.9350543,0.1134823,0.3826343,-0.001857667,-0.01010345,-0.003912211,0.01147689,0.001299833,0.02514743
0.9371869,0.1063991,0.3875467,0.0001634572,-0.01724948,0.001276735,0.01930845,-0.0144817,0.01947733
0.9395607,0.1025136,0.3833921,0.002426663,-0.02119888,-0.002602924,0.02927089,-0.02734118,0.01126195
0.9441824,0.1038815,0.3822046,0.006938814,-0.01989472,-0.003517522,0.03739864,-0.0242782,0.00363772
0.9473475,0.1069982,0.3813791,0.009995453,-0.01684052,-0.004072795,0.04587363,-0.01988153,-0.002758103
0.9424496,0.1097008,0.3782165,0.004989953,-0.01419812,-0.006967974,0.05240498,-0.02042698,-0.001965034
0.9412313,0.1190524,0.3778236,0.003664831,-0.004903618,-0.007096628,0.04570067,-0.01993855,0.000880835
0.9456028,0.1295745,0.3740598,0.007930179,0.005564768,-0.01059941,0.03441221,-0.0190889,-0.001341514
0.9487244,0.1346566,0.3702608,0.01094631,0.01059657,-0.0141407,0.03074751,-0.01627142,-0.002219036
0.9494117,0.135107,0.3706814,0.01152855,0.01099952,-0.01346549,0.02760638,-0.01270773,-0.005163898
0.9486811,0.1293834,0.369141,0.01069293,0.005230898,-0.01475424,0.01922438,-0.01267769,-0.01131092
0.9460001,0.1251419,0.3675784,0.007906746,0.0009461068,-0.01606779,0.01122896,-0.0126746,-0.008680623
0.9395556,0.1253834,0.3665435,0.001356835,0.001146074,-0.016856,0.002413765,-0.01299027,-0.003119665
0.9388526,0.1273153,0.3648532,0.0005481003,0.003038027,-0.01830153,-0.008428631,-0.01594545,-0.001769056
0.9427216,0.1391788,0.3672117,0.004311431,0.01486293,-0.01569995,-0.02055526,-0.01470165,0.0005204804
0.9440092,0.1600211,0.3713432,0.005493309,0.03566753,-0.01132664,-0.03281897,-0.006014116,0.003902984
0.9480569,0.1679911,0.3731456,0.009435469,0.04359924,-0.009283684,-0.04184867,0.00655395,0.01450018
0.9464992,0.1518882,0.3750439,0.007772333,0.02745612,-0.007146066,-0.04737334,0.01403559,0.02395134
0.9412008,0.1285233,0.3764407,0.002368346,0.004047415,-0.005511292,-0.04030541,0.00372404,0.007641872
0.9440886,0.1119442,0.3752382,0.005150625,-0.01257932,-0.006477395,-0.03004107,-0.006596832,-0.01976722
0.9461974,0.1076206,0.3711802,0.007153756,-0.01695404,-0.01030076,-0.02656409,0.003471972,-0.02494992
0.9461052,0.1122842,0.3663784,0.006955994,-0.01234388,-0.01486981,-0.01252626,0.008350595,-0.01151014
0.9429431,0.1107396,0.3672852,0.003688159,-0.01394323,-0.01373183,3.332769e-05,-0.002120794,-0.003858289
0.9364477,0.1139988,0.3693442,-0.00291283,-0.01073921,-0.01144329,-0.00124225,-0.005938072,-0.008362211
0.9393622,0.1252604,0.3656528,-0.0001038338,0.0004675703,-0.01490649,-0.007326366,0.00135195,-0.01211854
0.9423068,0.124531,0.362628,0.002735915,-0.0003158986,-0.01770421,-0.01758441,0.02035471,-0.01161168
0.9386103,0.1237288,0.362476,-0.001064781,-0.001171257,-0.01763001,-0.0221897,0.04177856,-0.01302739
0.9386669,0.1280236,0.3706549,-0.001111371,0.003071416,-0.009225547,-0.02000262,0.04276666,-0.01200636
0.9380922,0.1270542,0.3870445,-0.00178807,0.002050917,0.007389034,-0.01660498,0.03806138,-0.002985986
0.9391592,0.1227333,0.3914145,-0.0008215773,-0.002320158,0.01198288,-0.01016998,0.04786657,0.01421328
0.942221,0.1119443,0.3868238,0.002141431,-0.01315805,0.007614028,0.0008371094,0.04964658,0.02459297
0.9353797,0.1059561,0.3880734,-0.004796964,-0.01919362,0.009082589,0.01369124,0.03371754,0.005843364
0.9310763,0.1133944,0.386802,-0.009195215,-0.01180026,0.008026363,0.02398013,0.01047749,-0.01517804
0.9419526,0.1196826,0.3768874,0.001588623,-0.005553989,-0.001677571,0.03812947,-0.008725082,-0.009019582
0.950882,0.1210556,0.3645104,0.01042813,-0.00421953,-0.01384867,0.04059365,-0.0004174419,-0.006671491
0.9449161,0.1284916,0.3621467,0.00437491,0.003181334,-0.01601114,0.02489647,0.01602068,-0.01659062
0.9372413,0.1416007,0.37097,-0.003384977,0.01625868,-0.006990938,0.01826188,0.01327101,-0.01830167
0.9378084,0.1470627,0.3755378,-0.002900695,0.02169161,-0.002230079,0.01553669,0.005553002,-0.01719931
0.9395114,0.1483377,0.3732611,-0.001278113,0.02293913,-0.00431761,0.005562633,-0.005004135,-0.01235247
0.9423844,0.1489686,0.3704127,0.001517111,0.02354306,-0.006980647,-0.00778617,-0.001780637,-0.001485844
0.9444499,0.1426918,0.3693186,0.003507356,0.01723853,-0.007893338,-0.02276142,0.01125041,0.006463845
0.9418357,0.1362401,0.369952,0.0008204483,0.01075775,-0.007082078,-0.02941349,0.006606715,0.009196953
0.9413445,0.1270512,0.3702161,0.0002589547,0.001537664,-0.006643751,-0.02730759,0.01300377,0.006962794
0.9398868,0.117869,0.3721701,-0.001266559,-0.007677892,-0.004518921,-0.02237624,0.0219869,0.004480145
0.9375507,0.1167289,0.3747004,-0.003668049,-0.008853037,-0.001821096,-0.01831295,0.0127897,0.004004104
0.93796,0.1133632,0.3778366,-0.003321597,-0.01225496,0.001479258,-0.01143899,0.008958015,0.003778487
0.9368434,0.1142789,0.3825601,-0.004498298,-0.01137583,0.006363204,-0.004590833,-0.0004040392,0.003720222
0.938402,0.1192797,0.3827831,-0.002996901,-0.006411375,0.006742751,-0.004499058,-0.008181122,0.002879534
0.9415072,0.1170921,0.3815924,5.410493e-05,-0.008634541,0.005704089,0.002558549,-0.001976148,0.003144728
0.9433916,0.1195578,0.3790387,0.001887305,-0.00620311,0.003297714,0.01050519,0.002771795,0.002759331
0.9441273,0.1231422,0.3728351,0.002574757,-0.002651364,-0.002763655,0.01179766,0.008154746,0.002263695
0.9419829,0.1227371,0.3741338,0.0003847402,-0.003087314,-0.001327889,0.01304188,0.004301192,0.006147852
0.9441479,0.1270031,0.3756549,0.002506781,0.001149776,0.0003252188,0.00919049,-0.0003438169,0.01299279
0.9481845,0.1282485,0.3669721,0.006502762,0.002368208,-0.008230483,0.010266,0.01416013,0.01477682
0.9496546,0.1270277,0.3607266,0.007934378,0.00112222,-0.01435364,0.01214398,0.02275806,-0.004762392
0.9471788,0.1258945,0.3603511,0.005421869,-3.459805e-05,-0.01461095,0.008440592,0.008090615,-0.0322103
0.9394422,0.1150783,0.3621635,-0.002350173,-0.01087273,-0.01268396,0.009071779,-0.005895453,-0.03374524
0.9391876,0.1055714,0.3669818,-0.002638816,-0.0203997,-0.007753858,0.007593013,-0.002171556,-0.02150893
0.9416464,0.1143399,0.3736114,-0.000212661,-0.01164871,-0.001014977,0.00961749,-0.002738392,-0.01398028
0.9392938,0.1273996,0.3789579,-0.002596468,0.001396482,0.004438396,0.01213652,-0.01347166,-0.005741471
0.9394034,0.1281263,0.3785676,-0.002516635,0.002111874,0.004152508,0.009649533,-0.01756106,-0.009511219
0.9342234,0.1302654,0.3796212,-0.007724748,0.004242667,0.005307651,0.01387833,-0.02092027,-0.02000515
0.9289755,0.1389535,0.3826962,-0.01299874,0.01292501,0.008480959,0.01865417,-0.01977376,-0.01768656
0.9352726,0.144279,0.3773553,-0.006725572,0.01824663,0.003234852,0.02355233,-0.01569585,-0.01653525
0.9416401,0.1485579,0.3729593,-0.0003793863,0.02252267,-0.001070086,0.0235104,-0.01942416,-0.009775684
0.9407919,0.1455131,0.3752036,-0.001246093,0.01947504,0.001261332,0.01749042,-0.01819704,0.004227969
0.939326,0.1375447,0.3752485,-0.002727871,0.01150268,0.001389599,0.01909944,-0.01704035,-0.0068878
0.9411805,0.1371428,0.3727862,-0.000886704,0.01109506,-0.0009932572,0.01568992,-0.01959489,-0.01899195
0.9426939,0.1364738,0.371623,0.0006160224,0.01041812,-0.002080806,0.006194143,-0.0167237,-0.01122633
0.945742,0.1329957,0.3723433,0.003655656,0.006929476,-0.001288505,-0.001878071,-0.01524342,-0.01141559
0.9486926,0.1298773,0.371286,0.006600019,0.003797714,-0.002277257,-0.01014527,-0.01128259,-0.01213714
0.9454976,0.1301789,0.3666793,0.003400464,0.004083089,-0.00681877,-0.01336084,-0.004924512,-0.008220448
0.9430016,0.134153,0.3631205,0.0009012933,0.008038032,-0.01031545,-0.01663751,-0.0006893043,-0.01156486
0.9413223,0.1339713,0.3668853,-0.0007800038,0.007834229,-0.006490993,-0.01758078,0.00374755,-0.01073087
0.9398775,0.1380321,0.3727438,-0.00222569,0.01186991,-0.0005749939,-0.01764333,0.00806317,-0.002210375
0.9443716,0.1425348,0.3709147,0.002268662,0.01634421,-0.002348556,-0.01971468,0.02059775,0.005608857
0.9478705,0.13641,0.3699729,0.005768725,0.01018729,-0.003236753,-0.01504445,0.02791589,0.005773235
0.9462548,0.1307436,0.3727452,0.004154886,0.004484887,-0.0004124285,-0.009276406,0.01963577,0.001662775
0.9432088,0.125519,0.3713042,0.001111157,-0.000779554,-0.001803169,-0.0005585364,0.01673447,0.003622734
0.9417277,0.123464,0.3682787,-0.0003674071,-0.002878111,-0.004780001,0.005216338,0.01927467,0.006414413
0.942552,0.1280192,0.3640652,0.0004596637,0.001630263,-0.008946233,0.004065912,0.02092029,0.006740515
0.943203,0.1281418,0.3633761,0.001113498,0.001703246,-0.009589111,0.008007559,0.0240815,0.003482495
0.9436535,0.1274651,0.36936,0.001566991,0.0009742903,-0.003559759,0.006640897,0.02362883,-0.006328575
0.9439188,0.1280912,0.3720268,0.001835326,0.001545882,-0.0008479542,0.00719652,0.01801088,-0.009223147
0.9427523,0.1274286,0.3709199,0.000671766,0.0008267233,-0.001910272,0.01050189,0.008878997,-0.004671121
0.9393184,0.1282542,0.3716823,-0.002759299,0.001593978,-0.001103692,0.004362404,0.003616241,-0.004364511
0.9373358,0.1292519,0.3771223,-0.004739104,0.00253172,0.004379961,0.005942,0.005147312,-0.005979869
0.9381676,0.1334689,0.3824609,-0.003904421,0.006687377,0.009761482,0.006692114,0.007444878,-0.006919703
0.9369906,0.1395552,0.3783847,-0.005078268,0.0127108,0.005727305,0.002493183,0.0097859,-0.004101561
0.9373203,0.1432102,0.3723825,-0.004744845,0.01630135,-0.0002344073,0.001784523,0.009152211,0.002590535
0.9387545,0.1439185,0.3721469,-0.003306257,0.01694303,-0.0004311276,-0.00322585,0.003318253,0.01029684
0.9397816,0.1372985,0.3742645,-0.002273941,0.01025393,0.001723849,-0.002266075,0.0001714566,0.01654553
0.9446322,0.129708,0.3775369,0.002582825,0.002591506,0.005031882,-0.002764005,0.002505941,0.01459251
0.9449429,0.1315142,0.3781835,0.002900483,0.004323036,0.005712403,-0.01086036,0.002088493,0.01346796
0.9399252,0.1360074,0.3755859,-0.00210964,0.008738937,0.003146699,-0.01335243,-0.007907501,0.02119365
0.9354858,0.138026,0.374481,-0.006540823,0.01067753,0.002071495,-0.01423437,-0.02522702,0.02755152
0.9333721,0.1397427,0.3740543,-0.008645651,0.01231167,0.001672209,-0.0157962,-0.03158756,0.0272788
0.9421343,0.1327074,0.3707717,0.0001264687,0.005191037,-0.001585103,-0.0220517,-0.01125294,0.01700151
0.9510213,0.1221521,0.3665948,0.009024258,-0.005452377,-0.005738901,-0.02418092,0.01842551,0.002310296
0.9473409,0.1240957,0.3677732,0.005355551,-0.003599114,-0.004539221,-0.01174634,0.03273926,-0.004471934
0.9436961,0.1259325,0.3717902,0.001722778,-0.001854438,-0.0005024994,-0.003656423,0.03143568,-0.008539224
0.9395453,0.1220287,0.3742969,-0.002415942,-0.005851552,0.002022486,-0.005434212,0.02319975,-0.01061905
0.9308782,0.1238075,0.3775038,-0.01107075,-0.004166801,0.00524632,-0.003420755,0.01152975,-0.008311371
0.9344053,0.1240997,0.3772594,-0.007530933,-0.003968697,0.005017429,0.006924991,0.004039772,-0.01315267
0.9449089,0.1218933,0.376353,0.002986091,-0.006268776,0.004124718,0.01249257,0.007345179,-0.01869912
0.9443407,0.1224739,0.3802645,0.002431998,-0.005781038,0.008048169,0.0110462,0.007207506,-0.01547198
0.9414275,0.1229111,0.3794956,-0.0004665108,-0.005435323,0.007289192,0.01497531,-0.007078524,-0.01261768
0.9404362,0.12703,0.3765598,-0.001442584,-0.001406072,0.004361015,0.0163193,-0.01801941,-0.008247786
0.9408873,0.1330909,0.3776801,-0.0009758941,0.004567168,0.005486406,0.01443083,-0.01135475,-0.003543464
0.9448868,0.135564,0.3761702,0.003039626,0.006954682,0.003979134,0.009186033,0.00668265,-0.002218873
0.9426869,0.1375869,0.3742321,0.0008559921,0.008893863,0.002040947,-0.001727702,0.01992374,0.006667595
0.9407606,0.1408111,0.3744038,-0.001053876,0.01203581,0.002210108,-0.0006164302,0.01630597,0.01570325
0.9409848,0.1450734,0.3722652,-0.000813212,0.01621712,6.644003e-05,0.00272078,0.007229615,0.01478418
0.9374563,0.1482413,0.3670667,-0.004325134,0.01930442,-0.00513944,-0.001766418,0.005768442,0.01436384
0.9403337,0.1453397,0.3616418,-0.001431013,0.0163221,-0.01057373,-0.004240399,0.004526071,0.01585022
0.9431357,0.1402033,0.3593195,0.001387955,0.01110413,-0.01290681,-0.01432538,0.004710562,0.01398502
0.9426283,0.1394383,0.3625836,0.0008976546,0.01025641,-0.009654313,-0.02829536,0.00889363,0.01068067
0.9442329,0.1376905,0.3700567,0.002519347,0.008424392,-0.002192823,-0.03123988,0.01041514,0.009761838
0.9442268,0.131241,0.3725659,0.002530364,0.001888982,0.000304905,-0.02452436,0.01825061,0.01093626
0.9462556,0.1265935,0.3719297,0.004575886,-0.002845893,-0.0003424826,-0.01820716,0.02486467,0.009303894
0.9456136,0.1269875,0.3770285,0.003950248,-0.002540428,0.004745528,-0.01889326,0.01177763,0.008487554
0.9428976,0.1278003,0.3806133,0.001249928,-0.001816846,0.008319723,-0.01420699,0.001954638,0.01012394
0.9442164,0.1257903,0.378403,0.002583513,-0.00391643,0.006098748,-0.006235041,0.01639906,0.008120155
0.9428314,0.1259319,0.3773096,0.001212453,-0.003864304,0.004994273,-0.01183588,0.03576332,0.00671705
0.9424949,0.1270629,0.3810544,0.0008889347,-0.002822287,0.008727285,-0.01768796,0.04085227,0.003012705
0.9437924,0.1248964,0.3850127,0.002198442,-0.005076775,0.0126729,-0.01609789,0.03998384,-0.007848985
0.9422167,0.1256804,0.3849393,0.0006337249,-0.004379527,0.01258535,-0.01770945,0.0449665,-0.01341163
0.9408333,0.1297555,0.3846873,-0.0007397704,-0.0003894947,0.0123174,-0.01740775,0.05002385,-0.01033097
0.9370664,0.1331245,0.3843299,-0.004497718,0.002896218,0.01194167,-0.01426508,0.0469915,-0.005078157
0.9336992,0.1333639,0.3832039,-0.007856784,0.003054378,0.01079466,-0.009265771,0.03663691,0.001098637
0.9340949,0.1305807,0.3830717,-0.007453352,0.0001917689,0.01063832,-0.001254761,0.02478988,0.009731782
0.9343119,0.1305957,0.3824508,-0.007228728,0.0001292138,0.009990019,-0.001855736,0.01244811,0.01537536
0.9355893,0.1305792,0.379341,-0.005943372,3.710166e-05,0.00684924,-0.004997824,0.004842045,0.01159178
0.9366354,0.1301643,0.3754338,-0.004888775,-0.000451438,0.002907428,-0.002237571,0.005780216,0.006766805
0.9349773,0.1302866,0.3780968,-0.006537601,-0.0004006588,0.005532381,-0.003499266,0.001815115,0.001450417
0.9350065,0.1252411,0.3848534,-0.006498063,-0.00551549,0.01224735,-0.003830201,-0.002976058,-0.002762309
0.9386525,0.1201928,0.3893219,-0.002840489,-0.01063083,0.01667073,0.0003184671,0.003201535,-0.0003088233
0.9422707,0.1174078,0.3904824,0.0007906552,-0.01347997,0.01778226,0.005673805,0.01426662,-0.006901073
0.9422989,0.1133118,0.3877228,0.0008330473,-0.01763678,0.01496929,0.01684134,0.0258474,-0.01633916
0.9409966,0.1103007,0.3886898,-0.0004540333,-0.02070457,0.01587822,0.02790012,0.03258389,-0.01392988
0.9420215,0.1130167,0.3900376,0.0005871903,-0.01804034,0.01716295,0.03429734,0.03704569,-0.01522941
0.942832,0.1212192,0.387694,0.001414837,-0.009884063,0.01475099,0.03572932,0.03826198,-0.02423359
0.9423741,0.1281252,0.390159,0.0009748135,-0.003018194,0.01714193,0.0357914,0.02349114,-0.03458145
0.940767,0.135858,0.394858,-0.0006139012,0.004680548,0.02176115,0.04295761,-0.006683054,-0.0450862
0.9389066,0.1428786,0.4058172,-0.00245541,0.01167269,0.03263432,0.04710442,-0.0592167,-0.05823363
0.9438399,0.1445067,0.4099794,0.002497147,0.01327729,0.0367035,0.05186264,-0.1005051,-0.07669942
0.9497965,0.146224,0.3771651,0.008473334,0.01497512,0.00378844,0.05770891,-0.06764595,-0.07535383
0.9409889,0.1468719,0.3447917,-0.0003146369,0.01560664,-0.02869342,0.03130741,-0.01519633,-0.0353861
0.9147367,0.1479388,0.3596535,-0.02654738,0.01665921,-0.01394647,-0.002374362,-0.01028305,0.02066131
0.89385,0.1479556,0.3721993,-0.04741385,0.01666299,-0.001520507,-0.002858536,-0.02467743,0.05443686
0.9161796,0.1408836,0.3467672,-0.02506181,0.00957814,-0.02707602,-0.01425774,-0.03335701,0.05067721
0.9547779,0.130872,0.3382718,0.01356227,-0.0004466057,-0.03569681,-0.04340176,0.002937686,0.04231484
0.9531822,0.1205961,0.3565319,0.01199603,-0.01073599,-0.01756246,-0.03905368,0.05729384,0.03359898
0.9435452,0.1223601,0.3707948,0.002391325,-0.008985719,-0.003423853,-0.02810185,0.05710543,0.002061574
0.9473503,0.1426741,0.3886597,0.006230796,0.01131472,0.01431878,-0.03473581,0.05384888,-0.01147269
0.9372781,0.1624561,0.4018076,-0.00380524,0.03108333,0.02734644,-0.01682474,0.04675913,0.0093627
0.932019,0.1627554,0.4073673,-0.009026645,0.03136824,0.03278713,0.01962703,0.007746308,0.02777157
0.9352933,0.1444232,0.4078455,-0.005713187,0.01301949,0.03314633,0.04175346,0.003962441,0.03313703
0.9326167,0.127773,0.3948549,-0.008348999,-0.003650148,0.02003549,0.02780658,0.009208248,0.02819726
0.9320417,0.1220182,0.3846676,-0.008881435,-0.009427552,0.009725742,-0.008162045,0.009053076,0.02716584
0.933013,0.1239096,0.3795999,-0.0078655,-0.007561223,0.004533219,-0.006306561,0.03872211,0.03770565
0.9386077,0.1253638,0.3794663,-0.002224101,-0.006133984,0.004272294,0.009886774,0.04524706,0.04695296
0.9413109,0.119128,0.3775069,0.0005279002,-0.01239805,0.002183436,0.01433749,0.0345044,0.04694601
0.9360356,0.119344,0.3667162,-0.004696655,-0.01221096,-0.008738384,0.02774043,0.03691679,0.03372103
0.9342083,0.1224615,0.371257,-0.006471521,-0.009122233,-0.004329759,0.02032032,0.03263417,0.01507109
0.9359057,0.1223181,0.3751861,-0.004719864,-0.009293674,-0.0005332297,0.01146992,0.03798349,0.0009967855
0.9389607,0.1287051,0.3687084,-0.001608934,-0.002933612,-0.007143453,0.01143118,0.03959036,-0.002226641
0.9373173,0.1318591,0.3728864,-0.003194806,0.0001949858,-0.003097159,-0.001381941,0.01719443,0.008855869
0.9353435,0.1429797,0.3778632,-0.005109494,0.01129163,0.001749196,0.0005735351,-0.003085659,0.0243104
0.9362595,0.1616379,0.3842207,-0.004133026,0.02992687,0.007977669,-0.0007663136,-0.009968354,0.03508543
0.933861,0.1580644,0.3874084,-0.006469626,0.02633054,0.01103794,-0.005736698,-0.01239006,0.03549785
0.9366787,0.1474992,0.3836074,-0.003588593,0.01574122,0.007110811,-0.000603977,-0.02630181,0.02763773
0.938742,0.1423331,0.3896493,-0.001460601,0.01054904,0.01302765,-0.008409052,-0.04055961,0.02067859
0.9370356,0.1347644,0.3923549,-0.003101048,0.00295167,0.01560898,-0.01395449,-0.04041177,0.01785889
0.9397322,0.1356346,0.3831439,-0.0003374528,0.00379052,0.006274105,-0.01942491,-0.0362227,0.01936565
0.9406458,0.1363567,0.3747279,0.000643932,0.004478684,-0.002265403,-0.02580712,-0.02264152,0.01719955
0.9404299,0.1285205,0.3733468,0.0004966106,-0.003393968,-0.003769685,-0.02395538,-0.007363761,0.007243942
0.9397848,0.1263105,0.3778798,-7.957263e-05,-0.005642718,0.0006409875,-0.03029465,-0.01076029,0.00038743
0.9382791,0.1230527,0.3801794,-0.001516152,-0.008940933,0.002819281,-0.02937019,-0.03721906,0.006176115
0.937453,0.1177433,0.3823494,-0.002273181,-0.01429191,0.004869332,-0.006139,-0.06996799,0.0213073
0.9369594,0.1220366,0.3820701,-0.002697738,-0.01004061,0.00447149,0.02397763,-0.07653159,0.03073718
0.9392376,0.120752,0.3745043,-0.000350592,-0.01136672,-0.003211447,0.03339579,-0.05645195,0.02503357
0.9401358,0.1146007,0.368942,0.0006162168,-0.01755852,-0.008889309,0.02348757,-0.03102379,0.01100609
0.9412628,0.1146109,0.3679896,0.001811374,-0.01758697,-0.009955142,0.02162039,-0.01717066,0.003325469
0.9439671,0.1153983,0.3741976,0.004583185,-0.01683561,-0.003857963,0.01886254,-0.01562247,0.005291023
0.9454542,0.1195495,0.3800584,0.006136828,-0.01271694,0.001895165,0.01843882,-0.005880935,0.003749442
0.9482628,0.1192153,0.3738866,0.009010686,-0.01307957,-0.004381017,0.02513396,0.009264879,-0.01050507
0.9475749,0.1184685,0.3704251,0.008386116,-0.01385027,-0.0079435,0.01631578,0.007182495,-0.03056962
0.9460982,0.1258297,0.3746663,0.00697052,-0.006508098,-0.003799542,0.009427502,-0.001209839,-0.03766695
0.9462046,0.1278477,0.3749718,0.00713537,-0.004503976,-0.00358727,0.01327591,0.003328483,-0.02622439
0.9404789,0.13313,0.3703043,0.001465098,0.0007694261,-0.008343738,0.01102178,0.00449961,-0.006616896
0.9356079,0.1408944,0.3671258,-0.003353581,0.008529827,-0.01160682,0.01115269,0.008631115,0.01247892
0.9365602,0.1408079,0.3732389,-0.002351892,0.008443563,-0.005573308,0.01113226,0.01965836,0.01483205
0.9380897,0.1479852,0.3845341,-0.0007759013,0.01562462,0.005647209,0.001503974,0.007720375,0.001966425
0.9382354,0.1570986,0.3896442,-0.0005863368,0.02474438,0.01068759,-0.01163591,-0.001945769,-0.003744171
0.939662,0.1527436,0.3855227,0.0008814668,0.02039711,0.006500767,-0.01770603,0.006531075,-0.002712319
0.9424783,0.1403805,0.3797387,0.003736602,0.008041911,0.0006554274,-0.01038346,0.005285779,0.004637599
0.940214,0.1284404,0.3776928,0.00150854,-0.003890681,-0.001448387,-0.002383889,-0.002390739,0.01781111
0.9379545,0.1220166,0.3730073,-0.0007172785,-0.01030761,-0.006188235,-0.0004360574,-0.01059218,0.01697134
0.9425759,0.1224178,0.3689221,0.003935301,-0.009899859,-0.01032418,0.0004927773,-0.01822857,0.007431534
0.9468332,0.1210742,0.3703616,0.008221243,-0.01123665,-0.008931548,-0.001891273,-0.02177606,0.0003852085
0.9478538,0.115001,0.367868,0.00926771,-0.01730234,-0.01146783,-0.004348133,-0.008281738,-0.007786691
0.9460441,0.1132874,0.365544,0.007480952,-0.01900708,-0.01382998,-0.005836302,0.02224047,-0.005394884
0.9405302,0.1163626,0.3751055,0.001986686,-0.01592078,-0.004301641,-0.006137474,0.02970807,0.002033737
0.9361209,0.1250008,0.3857023,-0.002406245,-0.007268677,0.006266986,-0.002527707,0.0137822,0.001183738
0.9375839,0.1345344,0.3845827,-0.0009300862,0.002281991,0.005123963,-0.0007614543,0.006188257,0.001637296
0.9406109,0.1344276,0.3830677,0.002107202,0.002195223,0.00358972,0.002562298,0.006502766,0.003456695
0.9394444,0.1334909,0.3853875,0.0009483518,0.001281347,0.005894132,0.008741817,0.004235906,0.003254457
0.9400253,0.1329099,0.3792285,0.001534212,0.0007254568,-0.0002769479,0.009345979,-0.002110229,0.003361473
0.9422573,0.1294794,0.3714838,0.003768591,-0.002677859,-0.00803076,0.00731879,-0.004080568,0.001769159
0.9409533,0.1314639,0.36946,0.002464563,-0.0006641787,-0.0100606,0.004299721,0.0005890546,-0.002970673
0.9409592,0.1348518,0.368476,0.002467949,0.002754525,-0.01104742,-0.0008655974,0.004716146,-0.00896196
0.9405201,0.133983,0.3700275,0.002023981,0.00191815,-0.009495188,-0.004176757,0.003052788,-0.008240951
0.9404069,0.1302104,0.3707733,0.001903653,-0.00182091,-0.008744867,-0.004936283,-0.003291891,-0.004353025
0.94275,0.1268157,0.3736416,0.004237236,-0.005181018,-0.005868086,-0.005319308,-0.0060624,-0.005641271
0.9414169,0.1289548,0.3787803,0.00289246,-0.003006368,-0.0007169738,-0.008810374,-0.005438267,-0.007607076
0.9412483,0.1323593,0.3763386,0.002710077,0.0004346906,-0.003142338,-0.01510477,-0.002022335,-0.01207662
0.942343,0.1308466,0.3763293,0.00378873,-0.00104046,-0.00313156,-0.01669586,-0.00118238,-0.01804262
0.941278,0.1298536,0.3802276,0.002705638,-0.001995059,0.0007902852,-0.009763266,-0.0144064,-0.02181538
0.9456657,0.1305492,0.3781382,0.007073171,-0.001260404,-0.001272393,-0.009846198,-0.03706286,-0.04254717
0.9587839,0.1299063,0.3742036,0.02016886,-0.001863722,-0.005177206,-0.0363826,-0.05078927,-0.09723082
0.9747812,0.1317967,0.3666836,0.03614096,6.696543e-05,-0.01266447,-0.06872386,-0.01594466,-0.1613762
0.9685873,0.1342754,0.3623174,0.02991793,0.002586258,-0.01699495,-0.06768045,0.07148044,-0.1699671
0.9274661,0.1350699,0.3705825,-0.01123717,0.003421605,-0.008690683,-0.04597353,0.1145,-0.09328277
0.892653,0.1287483,0.3748411,-0.04608884,-0.002859167,-0.004389307,-0.03473678,0.03385555,-0.006995908
0.9043083,0.1144178,0.3653248,-0.03447518,-0.01714885,-0.01385914,-0.02857788,-0.04619329,0.003981928
0.936408,0.1138262,0.3604818,-0.002418237,-0.01769931,-0.01865166,-0.0271515,0.01860853,-0.02713881
0.9484155,0.1291422,0.3756572,0.009546479,-0.002341337,-0.00342184,-0.02130058,0.07521574,-0.02734122
0.9483461,0.1414078,0.3915976,0.009434575,0.009967492,0.01257724,-0.0004045313,0.0231314,-0.007308092
0.9436173,0.1456316,0.3887764,0.00466305,0.01423538,0.009818221,0.004370906,-0.0080783,-0.0005022564
0.9384657,0.1495358,0.3850886,-0.0005315334,0.01818367,0.006195202,0.0004571876,-0.02730768,-0.004662924
0.9421129,0.1565582,0.3839139,0.00307236,0.02524921,0.005087141,0.005995028,-0.009541663,-0.0130027
0.933724,0.1547208,0.3772015,-0.005360023,0.02345298,-0.001557316,0.003384711,0.04736007,-0.01209349
0.9222765,0.1520437,0.3867158,-0.01685102,0.02081393,0.008025769,0.006024546,-0.01198679,-0.007439476
0.9240843,0.155595,0.3999104,-0.01508594,0.02439897,0.02128938,0.01066168,-0.06213513,-0.005614856
0.9263245,0.1503838,0.3887327,-0.01288709,0.0192163,0.0101802,0.005648275,-0.01628173,0.01096238
0.9339152,0.1459085,0.3781011,-0.005335536,0.01476356,-0.0003843278,0.007600273,-0.01276795,0.02853112
0.9431923,0.1425516,0.3732315,0.003905076,0.01142277,-0.005188519,0.01334682,-0.005365721,0.03145461
0.9512651,0.134379,0.3599243,0.01194379,0.003259529,-0.01843186,0.01646029,0.0174698,0.0235867
0.9545191,0.1339672,0.3567922,0.01516575,0.002850587,-0.02150132,0.00432488,0.0163594,0.009849976
0.9492139,0.1368535,0.3607022,0.009829886,0.00573321,-0.01752886,-0.02080878,0.03221297,0.003793804
0.9467137,0.1440617,0.3630218,0.007299775,0.0129316,-0.01514618,-0.03444561,0.03545134,0.007141227
0.9362788,0.1542912,0.376154,-0.00316468,0.02314507,-0.001949847,-0.04636762,0.01810279,0.01226072
0.9311378,0.15277,0.3876929,-0.008334866,0.02160125,0.009654416,-0.05706412,0.00447205,0.005969835
0.9401319,0.1439724,0.3892799,0.0006305617,0.01277381,0.01130774,-0.05268957,0.01492777,-0.001871645
0.9383475,0.1377153,0.393932,-0.001181747,0.006479636,0.01602622,-0.0437705,0.0319479,0.001488336
0.9335407,0.1371568,0.3979125,-0.006015526,0.005876709,0.02007226,-0.02451552,0.0062524,-0.002350383
0.9268124,0.1386204,0.3972216,-0.01276975,0.00728884,0.01944516,0.008983348,-0.01927606,0.0008560658
0.9208109,0.1398121,0.3963281,-0.01879549,0.008422479,0.01861264,0.02750945,-0.0236274,0.01908771
0.9304455,0.1416205,0.3866211,-0.00918296,0.01016625,0.008962822,0.0259874,-0.02193819,0.03330887
0.945313,0.1364335,0.3710138,0.005665316,0.004908462,-0.006591474,0.02168592,-0.002293439,0.04307463
0.9566096,0.1263185,0.3649079,0.01694533,-0.005283324,-0.01264846,0.007560395,0.01516098,0.04369765
0.9527173,0.1231142,0.3640362,0.01303844,-0.008569623,-0.01347492,-0.004796003,0.03325776,0.03590031
0.9438656,0.1275605,0.3671108,0.004173588,-0.004209814,-0.01035789,0.004404633,0.04287174,0.02006913
0.9484741,0.1334963,0.3744176,0.008769582,0.001635936,-0.003010788,0.01487137,0.03200509,0.01044838
0.9479468,0.1382007,0.374311,0.008230222,0.006247286,-0.003078907,0.0143027,0.03469187,0.0158843
0.943855,0.1411919,0.3742002,0.004126253,0.009142811,-0.00315278,0.002696099,0.05166699,0.005631616
0.9408146,0.1450962,0.381387,0.001073444,0.01294867,0.004069573,-0.01610683,0.06499339,-0.008751053
0.9313566,0.1481526,0.3886876,-0.008397366,0.01590389,0.01140423,-0.01903197,0.04997038,-0.002620175
0.9325634,0.1416817,0.396741,-0.007203477,0.009328828,0.01948987,-0.009436215,0.01426823,0.01235632
0.9358992,0.1351382,0.4049287,-0.00388033,0.002678171,0.02770707,-0.004845115,0.004592055,0.02374319
0.9312522,0.1365464,0.4059901,-0.008539407,0.003976298,0.02879435,0.001488452,0.01381257,0.01597155
0.9338298,0.1304949,0.3994938,-0.005972957,-0.002187924,0.02231914,0.006606626,0.01867673,0.003987923
0.934214,0.1179742,0.3970463,-0.005598662,-0.01482322,0.01988678,0.001197183,0.009298523,0.0008914853
0.9319269,0.1141616,0.3979529,-0.007894254,-0.01875169,0.02080197,-0.0003795358,-0.004337959,-0.01616821
0.9337242,0.1179036,0.3959458,-0.006103694,-0.01512543,0.01879625,0.01223202,-0.009238389,-0.0284719
0.9293911,0.121054,0.3969502,-0.01044153,-0.01208965,0.01979425,0.02578923,-0.02316427,-0.01115346
0.9266956,0.1245391,0.3958374,-0.01313946,-0.008717119,0.01866699,0.02723147,-0.02945992,0.004139634
0.9298802,0.1338764,0.3942238,-0.009954524,0.0005104642,0.01703038,0.02209578,-0.02959678,0.002445164
0.9311986,0.1426947,0.3940954,-0.008632732,0.009222086,0.01687032,0.01984107,-0.04721895,-0.001198837
0.9307849,0.1425558,0.3882901,-0.009039722,0.008979367,0.0110245,0.01782669,-0.05970447,-0.005533937
0.9299649,0.140202,0.3879702,-0.009849324,0.006524321,0.01065519,0.02068957,-0.07546074,-0.004101866
0.932861,0.1412693,0.3900162,-0.006939215,0.007492675,0.01264319,0.02815562,-0.09004823,0.001355435
0.9419549,0.1369417,0.3855426,0.002172632,0.00306818,0.008103171,0.02706432,-0.05915702,0.002192806
0.9554769,0.1278616,0.3768072,0.01571601,-0.006106969,-0.000706849,0.02728434,-0.001194485,0.006309295
0.9578261,0.1284837,0.3656195,0.01808948,-0.00557771,-0.01197658,0.03145514,0.02691993,0.009677629
0.9399888,0.1396257,0.3676296,0.000278254,0.005473829,-0.01005497,0.02760264,0.007276616,0.007806447
0.9294019,0.1537821,0.3728445,-0.0102813,0.019542,-0.004933779,0.01864299,-0.007414707,0.004178128
0.9396933,0.1611844,0.3684259,3.868609e-05,0.02685803,-0.009450345,0.001684026,0.01606814,-0.001730301
0.9489277,0.158513,0.3747153,0.009302739,0.02410111,-0.003262178,-0.009982177,0.03087197,-0.002375926
0.945033,0.1557913,0.3846723,0.005438565,0.02129374,0.006591152,-0.004947663,0.02966894,0.008816019
0.9389913,0.1516169,0.3853006,-0.0005722706,0.0170324,0.007113621,-0.005878869,0.03231204,0.02987415
0.9349522,0.1481932,0.3842175,-0.004580255,0.01352,0.005922701,-0.01259907,0.02639934,0.04458982
0.928542,0.1456911,0.3793538,-0.01095916,0.01092692,0.0009494412,-0.01504244,0.02452623,0.04305007
0.9294346,0.1312115,0.3746246,-0.01003485,-0.003645942,-0.003890767,-0.01657196,0.02331175,0.03829509
0.9358454,0.1211408,0.3745049,-0.003591469,-0.01381216,-0.004122627,-0.01633848,0.009964817,0.03318581
0.9390217,0.12928,0.3747091,-0.0003815008,-0.005769735,-0.004031135,-0.0236586,0.008072688,0.02729155
0.9392783,0.134786,0.3736066,-9.040605e-05,-0.0003611224,-0.00524618,-0.0363247,0.02073403,0.02834156
0.9324561,0.1285937,0.3735849,-0.006877166,-0.006650924,-0.0053799,-0.04056141,0.03403907,0.02775454
0.9290978,0.1256658,0.3840552,-0.01019902,-0.009675838,0.00497953,-0.03230116,0.03264979,0.01083594
0.9328542,0.1277637,0.39794,-0.006405104,-0.007673924,0.01875456,-0.01823659,0.01705983,-0.01799253
0.9332669,0.1205782,0.4028672,-0.005953578,-0.01495366,0.02357293,-0.0105022,9.638992e-05,-0.03719261
0.9297835,0.1109646,0.4085209,-0.009396603,-0.024659,0.02911774,0.007654743,-0.02433647,-0.0297255
0.9214909,0.1100901,0.4116362,-0.01764706,-0.02562166,0.03212326,0.03914039,-0.03384371,-0.005602104
0.9196931,0.112449,0.4033395,-0.01940052,-0.02334614,0.02371457,0.04998297,-0.02435127,0.01123912
0.9328275,0.1147043,0.3957349,-0.006219041,-0.02116838,0.01599491,0.04268788,-0.02308391,0.009096536
0.9485231,0.1171334,0.3886535,0.00952654,-0.01881003,0.008794985,0.03548099,-0.01339821,-0.01355139
0.9506384,0.1234908,0.3772184,0.01169448,-0.01251579,-0.002762167,0.02650622,-0.0005492008,-0.03911995
0.9392082,0.1330032,0.3733789,0.0003187755,-0.003058609,-0.006726983,0.02043211,-0.004980007,-0.04338891
0.9343631,0.1456023,0.3737591,-0.004470546,0.009493034,-0.006474355,0.02113523,-0.006937753,-0.02517231
0.9373993,0.1594196,0.369512,-0.001377471,0.02327014,-0.01085066,0.0145534,0.0002605643,-0.003834462
0.9415284,0.1597975,0.3682096,0.002809528,0.02361392,-0.01228296,-0.003108468,0.00625716,-0.0009626411
0.9461785,0.1529477,0.3693091,0.007518181,0.01673466,-0.01131297,-0.009375265,0.009244622,-0.002946787
0.9433655,0.1518956,0.3722075,0.004763991,0.01565634,-0.008542763,-0.01030813,0.00817013,0.001998728
0.9400152,0.1509006,0.3811742,0.001472251,0.01463744,0.0002977493,-0.02147551,0.005673778,0.0009912061
0.9404139,0.1480625,0.3857455,0.001928944,0.01177681,0.004745181,-0.02559284,0.009098425,0.004938014
0.9397896,0.1405438,0.3819385,0.001361957,0.004236393,0.0008167253,-0.02549995,0.01166153,0.01205678
0.938941,0.1285468,0.3810797,0.0005697683,-0.00778205,-0.0001608526,-0.02684844,0.008636353,0.0140284
0.9349603,0.1232658,0.3841371,-0.003355653,-0.0130839,0.002780363,-0.02067898,0.007156017,0.01449351
0.9316701,0.1252991,0.3871972,-0.006591527,-0.01107047,0.005726904,-0.01555714,0.002975271,0.007320886
0.9315474,0.1262357,0.3935181,-0.006660771,-0.01015233,0.01193677,-0.01089723,-0.00147446,0.006464932
0.9312184,0.1284348,0.3972546,-0.006936984,-0.007969574,0.01556449,-0.003221971,-0.003444311,0.01400765
0.9338169,0.1346954,0.3919291,-0.004286127,-0.001722945,0.01013178,0.002947978,-0.004251653,0.01691496
0.9385661,0.1360369,0.3872835,0.0005151967,-0.0003930578,0.005380339,0.009317106,0.002723338,0.01372372
0.9390473,0.13348,0.3878443,0.001048298,-0.00295904,0.005836355,0.01147759,0.008528349,0.007171175
0.9371863,0.1331508,0.3866975,-0.0007613197,-0.003294939,0.004585575,0.01031435,0.009574806,0.01194485
0.9378116,0.1316035,0.3843773,-8.500984e-05,-0.004846625,0.002162312,0.01175609,0.007679075,0.01438674
0.937438,0.1308645,0.3853826,-0.0004083232,-0.005587603,0.00306549,0.01253885,-0.001389847,0.003714372
0.9375112,0.1299504,0.3884706,-0.0002853736,-0.006501028,0.006052346,0.01453252,-0.007941647,0.0009057018
0.9400278,0.1269749,0.3911495,0.00228004,-0.009473259,0.008630993,0.02085488,-0.01264937,0.005888764
0.9416244,0.129348,0.3892855,0.003924716,-0.007094047,0.006667579,0.02463792,-0.01895953,0.009949579
0.9440469,0.1332846,0.3813243,0.006394051,-0.003148245,-0.001392484,0.01880267,-0.02151508,-0.0003882373
0.945825,0.1335961,0.3769349,0.008217601,-0.002824589,-0.00587985,0.008909944,-0.02545987,-0.02833742
0.953663,0.1337547,0.3837297,0.01609909,-0.00265082,0.0008180138,0.007779164,-0.03225563,-0.07202783
0.9779675,0.1290376,0.3924447,0.04044456,-0.007349852,0.009437407,0.01574429,-0.01719112,-0.1403047
0.9878868,0.1227795,0.3892065,0.05040071,-0.013587,0.006104774,0.0146033,0.06378279,-0.1850898
0.9398306,0.1282757,0.378672,0.002375658,-0.008066689,-0.004522849,-0.0171563,0.1488565,-0.1642588
0.8850837,0.1412076,0.3736829,-0.0523464,0.004892651,-0.009603859,-0.04969036,0.1110099,-0.1055442
0.9012824,0.1522951,0.3773688,-0.03612784,0.01601049,-0.006008131,-0.03181932,0.03874861,-0.02377952
0.9248024,0.1564694,0.3864763,-0.01259111,0.0202175,0.003011436,-0.01119745,0.03397899,0.04295613
0.910938,0.1494926,0.3905346,-0.02644004,0.01327439,0.006984067,-0.02997884,0.002876727,0.04501205
0.9176534,0.1435819,0.3923752,-0.01970926,0.007397662,0.008741266,-0.03073571,-0.01525555,0.0397289
0.9237022,0.1447197,0.400944,-0.01364439,0.00856898,0.01722836,-0.01797193,0.001544115,0.0503158
0.9303361,0.142609,0.403887,-0.006992754,0.00649067,0.020091,-0.02071604,-0.02735208,0.006834465
0.9629722,0.136373,0.3940966,0.02566293,0.0002857768,0.01022061,-0.01208487,0.01184046,-0.06947926
0.9585088,0.1305823,0.3829242,0.02122036,-0.005475409,-0.001031669,-0.007760161,0.08355539,-0.114321
0.9239379,0.1356103,0.3873774,-0.01332947,-0.0004192152,0.003341543,-0.01087298,0.0578063,-0.09448337
0.8980487,0.1489483,0.4026758,-0.03919753,0.01294563,0.01855982,0.0001740624,0.01450166,-0.03090195
0.8918965,0.1505721,0.409562,-0.04532726,0.01459461,0.02536552,0.01507472,-0.02628869,0.01984217
0.9213599,0.1433109,0.40652,-0.01583846,0.007356419,0.02224173,0.02725697,-0.03210101,0.07183237
0.9485081,0.1390657,0.3932892,0.01133914,0.003131665,0.008927098,0.02338506,-2.719161e-05,0.07390828
0.959701,0.1446441,0.3853863,0.02256528,0.008727635,0.0009379826,0.0142409,0.01098305,0.002358144
0.9466123,0.1586764,0.3915016,0.009512738,0.02277447,0.006964687,0.01532885,0.04840725,-0.04181607
0.9112773,0.1679043,0.3911759,-0.02578411,0.03201313,0.006548215,0.009384503,0.03984373,-0.05116441
0.9056809,0.1759391,0.3843297,-0.03134014,0.04005388,-0.0003908509,-0.004265907,-0.01416135,-0.02937657
0.9094065,0.1806935,0.3800381,-0.02757103,0.04480785,-0.004777032,-0.02419182,-0.009178709,0.00246703
0.9078261,0.1705683,0.3883976,-0.02910374,0.03467428,0.003486442,-0.03436342,-0.02089236,0.02173598
0.9190974,0.1522085,0.3995734,-0.01777944,0.0162968,0.01456511,-0.03693398,-0.0487609,0.0476536
0.9376463,0.1360552,0.394171,0.0008281642,0.0001159171,0.009064536,-0.05148616,-0.0527305,0.02031018
0.9672946,0.1312026,0.394343,0.0305408,-0.00477371,0.009136981,-0.0439038,-0.02746974,-0.0225864
0.9697939,0.1304342,0.4007397,0.03310861,-0.005587887,0.01543272,-0.02748016,0.03380642,-0.0463436
0.9449973,0.1255629,0.4007866,0.008382985,-0.01051266,0.01537687,-0.02237652,0.03217701,-0.07346538
0.9322837,0.1247272,0.4051844,-0.004258459,-0.01140853,0.01966983,-0.00369022,0.02069741,-0.06590787
0.9225498,0.1309057,0.4049064,-0.01391966,-0.005295566,0.0192845,-0.007555114,0.04727369,-0.05454199
0.911114,0.1554286,0.399345,-0.02528182,0.01915726,0.0136127,-0.02408277,-0.007845714,-0.008303324
0.8941048,0.1829367,0.3972364,-0.04221586,0.0465906,0.01139032,-0.01683408,-0.08363631,0.05553703
0.8932749,0.1740378,0.3936812,-0.04296745,0.03761151,0.007717922,-0.01906831,-0.1010033,0.06564623
0.9052858,0.1517675,0.3891912,-0.03087376,0.01525422,0.003107396,-0.02054356,-0.09108915,0.09216769
0.8937535,0.1459978,0.3851005,-0.04231731,0.009390196,-0.001106995,-0.008191696,-0.07001745,0.1316821
0.8976552,0.1423648,0.3838687,-0.03831957,0.005655446,-0.002464911,0.009779875,-0.03747897,0.1602123
0.9267148,0.1460467,0.383103,-0.009155645,0.009228524,-0.003358744,0.03322146,0.0550109,0.1489407
0.9617479,0.157546,0.3775284,0.02599021,0.02061241,-0.009062753,0.02948511,0.1439941,0.09073164
0.9899777,0.1621805,0.3778095,0.05433974,0.02512488,-0.008911591,0.0256946,0.1295025,0.07800556
0.9760087,0.1630379,0.3813399,0.04049503,0.02585324,-0.005510952,0.04584401,0.04093546,0.0771311
0.9643039,0.1566228,0.3811679,0.02891616,0.01930184,-0.005811674,0.04487592,-0.04729049,0.05828567
0.9583686,0.1452485,0.3949958,0.02310606,0.007783615,0.007889047,0.04440683,-0.04896625,0.03758913
0.9269593,0.1355752,0.4085047,-0.008180263,-0.002040798,0.02127229,0.0511768,-0.02964897,0.02424637
0.9338499,0.1362728,0.3951295,-0.001169502,-0.00150085,0.007772752,0.02844747,-0.07528256,0.04284052
0.9505675,0.1466145,0.3809695,0.01566519,0.00867757,-0.006510786,-0.003100025,-0.1112303,0.01720514
0.9369598,0.1401702,0.3889389,0.002171204,0.002065011,0.001336133,-0.02501678,-0.1372481,-0.04054912
0.9398147,0.1411483,0.4092953,0.00513605,0.002870408,0.02157128,-0.01378324,-0.1381169,-0.06676012
0.9344813,0.1657283,0.4275495,-9.141655e-05,0.02727397,0.03970497,0.03316027,-0.09667024,-0.03143697
0.9246803,0.1716549,0.4247711,-0.009790685,0.03302013,0.0368057,0.06926935,-0.09967637,0.04638128
0.9337585,0.1426222,0.4002059,-0.0006147696,0.003802677,0.01211791,0.07318233,-0.09336228,0.02811226
0.9277575,0.09796913,0.3710829,-0.006521622,-0.04103938,-0.01713001,0.03595909,-0.0519145,-0.019882
0.921399,0.09528719,0.3529379,-0.0127894,-0.04391283,-0.03540176,0.006556781,-0.01601795,-0.01669969
0.9179449,0.1231237,0.3693432,-0.01615562,-0.01626794,-0.01912336,0.02233106,0.0295358,-0.01517242
0.9113935,0.1239721,0.3919044,-0.02262148,-0.01560918,0.003312197,0.02304848,-0.02101974,0.02234593
0.931708,0.1292546,0.3784583,-0.002222739,-0.01051307,-0.01025733,0.007351422,-0.09325605,0.02382293
0.9602403,0.1401469,0.3760024,0.02639272,0.0001970358,-0.01283407,-0.004440013,-0.03508896,-0.01317663
0.9692682,0.1412829,0.3865047,0.03550186,0.00115545,-0.002449345,-0.01813676,0.01827503,-0.04882323
0.9581647,0.139671,0.3787303,0.02447643,-0.0006291655,-0.01033751,-0.003318198,0.06533083,-0.13788
0.9334281,0.1266356,0.3896039,-0.0001867597,-0.01383215,0.0004263646,0.01786301,0.1233757,-0.1572416
0.9109438,0.1287263,0.3984273,-0.0226026,-0.01190362,0.00914432,0.01555306,0.04045065,-0.09606718
0.8972344,0.1424702,0.3859187,-0.03624783,0.001684216,-0.00346548,0.01425102,-0.06129104,-0.03409755
0.8923138,0.1600181,0.3825501,-0.04110698,0.01908211,-0.006931332,0.01386406,-0.04577096,0.05202365
0.9013682,0.1742371,0.3805904,-0.03199196,0.03315684,-0.008983969,0.000776621,-0.0389645,0.07831403
0.9242047,0.1559192,0.3789189,-0.009094189,0.01469906,-0.01074385,-0.01570775,-0.05266924,0.05795264
0.9278651,0.1426141,0.3765722,-0.005370954,0.00125767,-0.01317388,-0.02127959,-0.01719302,0.08388661
0.9170352,0.1440745,0.3706946,-0.01613602,0.002584752,-0.01912936,-0.008377154,0.03182279,0.1267834
0.9304367,0.1383638,0.3664758,-0.002667604,-0.003256256,-0.02341986,0.008822414,0.08674455,0.1566325
0.9430865,0.1408523,0.3679318,0.01005114,-0.0008947871,-0.02202854,0.008776154,0.1201876,0.158849
0.9554162,0.1446679,0.3872669,0.02245135,0.002797149,-0.002750458,0.005098111,0.08896067,0.1354702
0.9708318,0.1453801,0.4043229,0.03793794,0.003389095,0.01425631,0.0005125917,0.05433985,0.1117753
0.9708379,0.141973,0.4071121,0.03801365,-0.0001348956,0.01700343,-0.02291454,0.05755896,0.100477
0.9933306,0.1355549,0.4062186,0.06057256,-0.006666501,0.01607386,-0.04520036,0.1349509,0.1029177
1.001531,0.1388038,0.3978527,0.06883349,-0.003527456,0.007676981,-0.05646,0.2814839,0.1111165
0.9386867,0.1454647,0.3900756,0.006040804,0.00302743,-0.0001270767,-0.06420022,0.3121331,0.1192029
0.8639992,0.1501828,0.395827,-0.06860426,0.007643391,0.00560101,-0.06893706,0.1632375,0.116264
0.8558022,0.1460748,0.4065611,-0.07676638,0.003436855,0.01631492,-0.09488579,-0.00371049,0.09397243
0.9173948,0.1288027,0.4031294,-0.01514313,-0.01393023,0.01286551,-0.1134252,-0.1154383,0.04885441
0.9675674,0.114331,0.4016503,0.03505813,-0.02849317,0.01137036,-0.04512429,-0.1741927,-0.01293039
0.96422,0.1120794,0.4046656,0.03173726,-0.03083112,0.0143705,0.03938446,-0.1238911,-0.04465902
0.9259466,0.1023041,0.3851402,-0.0065126,-0.04068653,-0.005169617,0.01511329,-0.04959165,-0.02970804
0.8847024,0.07848218,0.3666899,-0.04773673,-0.06458065,-0.02363448,-0.02916116,-0.1014778,-0.03571835
0.8879376,0.07619507,0.3641583,-0.04448345,-0.06692972,-0.02617972,-0.01895922,-0.1327759,-0.05930665
0.91231,0.08377889,0.3723662,-0.02009292,-0.05939498,-0.01798341,-0.01362387,-0.06166422,-0.03204268
0.9261869,0.07216444,0.397321,-0.00619634,-0.07104315,0.006962613,0.01755585,-0.05494033,-0.002657228
0.9370723,0.07301709,0.4170146,0.004710821,-0.07020643,0.02665029,0.05084992,-0.07820341,-0.009639442
0.9382104,0.08337122,0.407912,0.005872807,-0.05984823,0.01754381,0.03572805,-0.07550528,-0.01338251
0.9441691,0.09534406,0.3800022,0.01185695,-0.04784947,-0.0103688,0.03328316,-0.058366,-0.01353544
0.9476418,0.1211772,0.3716068,0.01535608,-0.02196749,-0.01876619,0.0262608,0.001946277,0.009640241
0.9385281,0.125677,0.3779348,0.006269056,-0.01739598,-0.01243892,0.01135151,0.02151609,0.0556664
0.9381102,0.1243351,0.375528,0.005877366,-0.01864397,-0.0148444,0.02051747,0.008245145,0.07417105
0.9343278,0.138421,0.3802599,0.002120351,-0.004442809,-0.01010875,0.02041731,-0.01288387,0.0722892
0.9286731,0.1382885,0.3874197,-0.003509954,-0.004440202,-0.002942331,0.02520105,-0.06689986,0.07606388
0.9396129,0.1421947,0.3918961,0.007453258,-0.0003803094,0.001543871,0.03177347,-0.07371314,0.07925344
0.9536637,0.1389037,0.3898247,0.02152613,-0.003500836,-0.0005150325,0.02356046,-0.03629916,0.06884861
