accx,accy,accz,body_accx,body_accy,body_accz,body_gyrox,body_gyroy,body_gyroz
0.776373,0.5095389,0.3856282,0.00266524,-0.04544793,-0.02123679,-0.05368587,-0.0568026,0.1819188
0.7773201,0.5124885,0.3831614,0.003965019,-0.04269766,-0.02293286,-0.05639069,-0.06071396,0.1796557
0.7792005,0.5123767,0.3827286,0.00617176,-0.04292669,-0.02259018,-0.06021723,-0.06053263,0.1754959
0.7793585,0.5127701,0.3827917,0.006630674,-0.04257191,-0.02174812,-0.05904193,-0.05597797,0.1713513
0.7791072,0.5125158,0.3810167,0.006655422,-0.04278948,-0.02274193,-0.05799378,-0.0463549,0.1726389
0.7791454,0.5121183,0.3791129,0.006945647,-0.04307832,-0.02386353,-0.06074347,-0.04357087,0.1769333
0.7791725,0.5130077,0.377267,0.007201433,-0.0420117,-0.02492705,-0.06054239,-0.04212043,0.1736067
0.7792079,0.5127007,0.3772723,0.007442898,-0.04207616,-0.02414031,-0.05845563,-0.03709233,0.1723242
0.7791044,0.5155399,0.3792955,0.00752342,-0.03893239,-0.02133719,-0.05615512,-0.03792305,0.1748937
0.7786732,0.5197399,0.382042,0.007254953,-0.03436893,-0.01781342,-0.0551637,-0.04470235,0.1771782
0.7770248,0.520617,0.3858559,0.005748922,-0.03307298,-0.01322565,-0.05664484,-0.05386966,0.1848461
0.7768187,0.5197736,0.3851137,0.005665312,-0.03344542,-0.01319857,-0.05542547,-0.05671507,0.1858481
0.7800786,0.5167309,0.3803643,0.009028742,-0.0359685,-0.01718419,-0.05504418,-0.05091563,0.1813844
0.781856,0.5128072,0.3785048,0.01089135,-0.03932708,-0.0182864,-0.05701997,-0.05100559,0.1813241
0.7815667,0.5087387,0.3765691,0.01066965,-0.04278774,-0.01947198,-0.05746638,-0.05920074,0.1746337
0.782368,0.5059063,0.374145,0.01152133,-0.04497228,-0.0211536,-0.06116169,-0.06507321,0.1644088
0.7819549,0.5066781,0.3737307,0.0111421,-0.04351506,-0.02083366,-0.06350386,-0.0636566,0.1612963
0.7815393,0.5076426,0.3752667,0.01074428,-0.04182993,-0.01857184,-0.06065366,-0.05998295,0.1624871
0.7820535,0.5080383,0.3796342,0.01126076,-0.04068076,-0.01348752,-0.06007878,-0.05999936,0.1632708
0.7799318,0.5098432,0.3818029,0.009126346,-0.03809179,-0.01061125,-0.05892146,-0.05824382,0.1631398
0.7785135,0.5109424,0.3825677,0.00768102,-0.03618025,-0.009149016,-0.05696294,-0.05961968,0.1642415
0.7796429,0.5109347,0.3828341,0.008769707,-0.03534979,-0.008195775,-0.05748321,-0.06448302,0.1639091
0.7810132,0.5130527,0.3788357,0.01008624,-0.03237015,-0.01151864,-0.05711363,-0.05768656,0.1620121
0.7824895,0.5142416,0.3787596,0.01149643,-0.03029834,-0.01093097,-0.05781,-0.05038052,0.1582054
0.7819173,0.5128068,0.3826963,0.01084623,-0.0308313,-0.0063428,-0.05724193,-0.04946412,0.1513655
0.7806635,0.5124155,0.3831027,0.009502983,-0.03030419,-0.005297534,-0.05215721,-0.04602602,0.1514812
0.7807368,0.5098102,0.3793085,0.009476175,-0.03197655,-0.008466138,-0.0478716,-0.04620248,0.1586219
0.7812717,0.5085999,0.3726878,0.009900547,-0.03224132,-0.01447471,-0.04716904,-0.04588823,0.162087
0.7821742,0.5111008,0.3704872,0.01068293,-0.02878431,-0.01607677,-0.04744981,-0.04025881,0.1587473
0.7811729,0.5111094,0.3710521,0.009552221,-0.02781081,-0.01492691,-0.04506851,-0.03471627,0.1544493
0.7801175,0.5129747,0.3696494,0.008358683,-0.02497365,-0.01575805,-0.04494044,-0.03180063,0.1573258
0.7816092,0.514056,0.3725617,0.009704161,-0.0229152,-0.01228737,-0.04955507,-0.03446834,0.1586532
0.7819981,0.5122034,0.3766706,0.009939153,-0.0237874,-0.007633071,-0.05328526,-0.03580029,0.1538518
0.7800687,0.5129335,0.3751997,0.007848786,-0.02207514,-0.00857175,-0.05370051,-0.03430348,0.1526194
0.7788858,0.5118815,0.374033,0.006498206,-0.02214489,-0.009219221,-0.04970373,-0.03714633,0.1517833
0.7813654,0.5105122,0.3756836,0.008804015,-0.02253351,-0.007062707,-0.04929652,-0.03936447,0.1501434
0.7855771,0.5095651,0.3756892,0.01283635,-0.02250289,-0.006564231,-0.05109846,-0.03604737,0.1486711
0.7867014,0.5080072,0.3781145,0.01377598,-0.02308726,-0.003659274,-0.04922704,-0.02808713,0.1431585
0.7849342,0.5090038,0.3814858,0.01181914,-0.02112252,0.000178303,-0.05531828,-0.02064999,0.1392094
0.7833281,0.508948,0.3770835,0.01001862,-0.02021681,-0.003771281,-0.05949882,-0.02046912,0.1395954
0.7831325,0.5097792,0.3732361,0.009624131,-0.01843167,-0.007179447,-0.05362035,-0.02494707,0.1396102
0.7830819,0.5105933,0.3761636,0.00937046,-0.0166724,-0.003826441,-0.05211043,-0.02954901,0.138395
0.7813478,0.5097976,0.3774624,0.007429569,-0.01653262,-0.00211552,-0.05342631,-0.03076385,0.1384072
0.7792789,0.511992,0.3764397,0.005150637,-0.01341345,-0.002739726,-0.05526313,-0.02629111,0.1379105
0.7796019,0.5124015,0.3756771,0.005260587,-0.01209095,-0.003117201,-0.05593422,-0.02339407,0.1363045
0.7812834,0.5129635,0.3722011,0.006726808,-0.01062867,-0.006221505,-0.05379155,-0.02181128,0.1360804
0.7815902,0.5138801,0.3702002,0.006816451,-0.008825477,-0.007863882,-0.05188135,-0.01507569,0.1336963
0.7818021,0.5080713,0.3755826,0.006809572,-0.01376213,-0.002135903,-0.04761428,-0.01329096,0.1320668
0.7823506,0.5046737,0.3793638,0.007138257,-0.01630305,0.001978336,-0.04682534,-0.02051843,0.1328895
0.7815242,0.510366,0.3756229,0.006091093,-0.009769752,-0.001442251,-0.04805343,-0.02508523,0.1316304
0.780978,0.5173248,0.3729217,0.005323778,-0.001986354,-0.00383562,-0.0462992,-0.02132393,0.1323064
0.7805627,0.517699,0.373849,0.004687126,-0.0008046745,-0.002612901,-0.04607421,-0.01088598,0.1333157
0.7799856,0.5152826,0.3746922,0.003888865,-0.002431481,-0.00148636,-0.04354944,0.006230624,0.1313136
0.7800071,0.5153323,0.3750868,0.003689852,-0.001610893,-0.0008203529,-0.04049365,0.02864469,0.1289867
0.7786657,0.5134745,0.3755225,0.002128897,-0.002717194,-0.0001249635,-0.04104908,0.03447939,0.1269888
0.7777629,0.5132019,0.3771896,0.001007799,-0.00225814,0.001790167,-0.04070656,0.01193071,0.1262289
0.7771456,0.5148251,0.382035,0.0001739875,7.631501e-05,0.006872129,-0.03777201,-0.01419321,0.1265208
0.7758431,0.5128086,0.3884965,-0.001342793,-0.001249732,0.0135587,-0.0343592,-0.02736297,0.1273102
0.7779345,0.5111881,0.3913092,0.0005369024,-0.002200788,0.01658458,-0.03418497,-0.02898712,0.1277548
0.7810741,0.5087878,0.3885827,0.003467812,-0.003952938,0.01405904,-0.03702036,-0.02667615,0.1274152
0.7820502,0.5070914,0.3854567,0.004238551,-0.005022484,0.01112127,-0.03939216,-0.02302577,0.1245531
0.7804059,0.5107392,0.3872327,0.002392217,-0.0007692289,0.01307251,-0.03821616,-0.01667712,0.1183069
0.7771461,0.5163388,0.3901134,-0.001065985,0.005414436,0.01611526,-0.03564336,-0.02305555,0.1145519
0.7776637,0.5210678,0.3880848,-0.0007429471,0.01070609,0.01423534,-0.0344513,-0.03280427,0.1163483
0.7795963,0.520349,0.3788938,0.0009991177,0.01052799,0.005179445,-0.03054677,-0.02720791,0.1200713
0.78076,0.5153393,0.3688495,0.001976671,0.006036811,-0.004743064,-0.02672954,-0.02164769,0.1209796
0.7827946,0.5103582,0.3728642,0.003829476,0.001551778,-0.0006193955,-0.02533291,-0.01835618,0.1197617
0.7820229,0.5081717,0.3800325,0.002880446,-0.0001611248,0.006645778,-0.02351225,-0.01487988,0.1181609
0.7817458,0.5114052,0.3750471,0.00243057,0.003523872,0.001745509,-0.0251636,-0.01427845,0.1153539
0.7842515,0.5117617,0.3739017,0.004767859,0.004310057,0.0006740746,-0.0299971,-0.006848751,0.1142424
0.784685,0.510419,0.3761604,0.005037318,0.003375291,0.002996038,-0.03376048,-2.76825e-05,0.1134355
0.7827165,0.5126926,0.374284,0.002909129,0.006035431,0.001172771,-0.03425912,0.0001859007,0.1108736
0.779442,0.5121311,0.3764862,-0.0005207934,0.005839421,0.0034184,-0.03384655,-0.005215905,0.107137
0.7783549,0.5106672,0.3776911,-0.001758999,0.004719998,0.004657403,-0.03645742,-0.01785618,0.10303
0.7799668,0.5094261,0.3776038,-0.0002937863,0.003802849,0.004595412,-0.03757483,-0.01983983,0.1031718
0.7809099,0.5094335,0.3794356,0.0005071478,0.004113985,0.006444047,-0.03787577,-0.01418946,0.1040236
0.7823189,0.5123577,0.3825082,0.00177857,0.007322153,0.009525186,-0.03859408,-0.01626706,0.1042151
0.7823765,0.5117138,0.3880612,0.001703185,0.006942802,0.01507858,-0.03711212,-0.01587046,0.1040373
0.7811823,0.5081074,0.3867021,0.0003805802,0.003581769,0.01371172,-0.03870203,-0.01466234,0.09716347
0.7815144,0.5050231,0.3826206,0.0005888051,0.0007243294,0.009614204,-0.04012141,-0.01468097,0.09450401
0.7809077,0.5083761,0.3811399,-0.0001373166,0.004286089,0.008109393,-0.03817995,-0.01154056,0.100223
0.7803811,0.514611,0.376701,-0.0007788225,0.01071227,0.003638473,-0.03575055,-0.01178831,0.101743
0.7806644,0.5123966,0.3797131,-0.0006059352,0.008672002,0.006610799,-0.03111767,-0.01123044,0.1003992
0.7800224,0.5113583,0.3852121,-0.001353746,0.007791106,0.01206283,-0.02813116,-0.01026577,0.09723808
0.7787605,0.512525,0.3815637,-0.002717042,0.009098803,0.008360338,-0.02701198,-0.01497936,0.09331801
0.7759448,0.509275,0.379418,-0.005629548,0.005973624,0.006153655,-0.02924546,-0.0229038,0.0928514
0.774872,0.5096145,0.3794911,-0.006794326,0.006422463,0.006159178,-0.03458403,-0.03163764,0.09086248
0.7780802,0.5110599,0.3797732,-0.003673229,0.00796202,0.006367375,-0.03422236,-0.03079789,0.08818781
0.7818469,0.5109747,0.3833587,1.140443e-05,0.007956242,0.009872994,-0.03496196,-0.0218528,0.08753587
0.7828496,0.5116899,0.3851088,0.0009371719,0.008736737,0.01153755,-0.03728265,-0.01901969,0.0886858
0.7805554,0.5116606,0.3864924,-0.001429203,0.008758901,0.01282985,-0.035451,-0.02035413,0.09223326
0.7773664,0.5128486,0.3886677,-0.004685554,0.00998503,0.01490831,-0.03645641,-0.02508829,0.09089817
0.7741059,0.5131563,0.3891599,-0.008008618,0.01031775,0.01529793,-0.0361637,-0.03509558,0.08597998
0.7739838,0.5137571,0.3909593,-0.008188499,0.01093102,0.01698917,-0.03314182,-0.04777462,0.08632912
0.7762895,0.5156739,0.3925269,-0.005935397,0.01284798,0.01844258,-0.03127831,-0.06810262,0.08882381
0.775078,0.5127198,0.3919667,-0.007194266,0.009881894,0.0177623,-0.02790054,-0.08202717,0.09209479
0.777729,0.5095411,0.3879863,-0.004585356,0.00667962,0.01365557,-0.02615876,-0.06649546,0.09617496
0.7837707,0.5103672,0.3809702,0.001419556,0.00747099,0.006507035,-0.02649562,-0.03910807,0.09621438
0.7845973,0.5099258,0.3778997,0.002214564,0.006984027,0.003298311,-0.02966179,-0.0260413,0.09121443
0.78423,0.5091853,0.3766684,0.001820297,0.006187972,0.001923436,-0.03477654,-0.02168538,0.08219519
0.7812222,0.5102135,0.3763496,-0.001209972,0.007150892,0.001456284,-0.03437863,-0.0166015,0.07678234
0.7775335,0.5104986,0.3807111,-0.004916929,0.007361776,0.005665372,-0.03330393,-0.01696393,0.07650145
0.7784781,0.5103888,0.3813866,-0.00398654,0.007169027,0.0061849,-0.03446776,-0.02648627,0.07509511
0.7789075,0.5108923,0.3796702,-0.003567412,0.007581582,0.004309383,-0.02968611,-0.03370337,0.07761902
0.7789884,0.5118663,0.3807935,-0.003492864,0.008456879,0.005270849,-0.02178368,-0.03580842,0.08179107
0.7798591,0.5130996,0.3786068,-0.002624641,0.009584331,0.002919972,-0.01910483,-0.04021567,0.08507644
0.7807808,0.5121762,0.3769874,-0.00170162,0.00854812,0.001134418,-0.02241119,-0.04161876,0.0883855
0.7822828,0.5102642,0.3771527,-0.0001948406,0.006516778,0.00113218,-0.02699872,-0.04018422,0.0803189
0.7813724,0.5096304,0.3732473,-0.001097101,0.005757588,-0.002941746,-0.02782916,-0.0388408,0.07104892
0.7799781,0.5093254,0.3695461,-0.002480113,0.005321475,-0.006811786,-0.02607385,-0.03516784,0.07366067
0.7824266,0.5101833,0.3693264,-1.736011e-05,0.006043135,-0.007199901,-0.02377605,-0.03130939,0.07361446
0.787033,0.5107331,0.3673964,0.00460602,0.00645193,-0.009297217,-0.02108281,-0.01920626,0.06929481
0.7899785,0.5102644,0.3630532,0.007570799,0.005837846,-0.01380569,-0.02098161,-0.001653928,0.06856022
0.7890169,0.5080539,0.3673742,0.006630365,0.00347815,-0.009647197,-0.02304592,0.001983528,0.06537858
0.7862674,0.5040753,0.3740455,0.003903388,-0.0006531003,-0.003134678,-0.02491698,-0.01029435,0.060914
0.7849764,0.5051177,0.3702338,0.002635811,0.0002337967,-0.00710103,-0.02561929,-0.02272714,0.06071567
0.7817605,0.5067437,0.3702441,-0.0005560789,0.001702049,-0.007240666,-0.02086343,-0.02309148,0.06073935
0.7776284,0.5053968,0.3749716,-0.00466377,0.0001956673,-0.002658231,-0.01403346,-0.02079854,0.06251023
0.7792099,0.509289,0.3749082,-0.003057316,0.003927221,-0.002861381,-0.01539529,-0.02409706,0.06562078
0.7824051,0.5120733,0.3752714,0.0001633753,0.006550096,-0.002632403,-0.02073304,-0.02941638,0.06335495
0.7845852,0.508259,0.3741056,0.002369329,0.002573847,-0.003926877,-0.02225545,-0.03405589,0.06080557
0.7868216,0.5059296,0.3742487,0.004631993,8.228671e-05,-0.00390679,-0.02176334,-0.03245932,0.05992585
0.7843461,0.5077772,0.377779,0.002182751,0.001767794,-0.0004936568,-0.01805787,-0.03181262,0.05830754
0.7813328,0.5092537,0.3791333,-0.0008043846,0.003082662,0.0007492219,-0.0132792,-0.03682044,0.06227155
0.7827221,0.5076127,0.3804655,0.0006108067,0.00128084,0.001975706,-0.01000504,-0.03991663,0.0687156
0.7829413,0.5063221,0.3796814,0.0008555847,-0.000169526,0.001091337,-0.007580001,-0.04365557,0.06825409
0.7815039,0.5056835,0.3748466,-0.0005567283,-0.0009664484,-0.003838265,-0.01122201,-0.04613783,0.06522539
0.7825268,0.5058059,0.3699165,0.0004908747,-0.001000597,-0.0088579,-0.01475233,-0.04360347,0.06494659
0.785786,0.5083376,0.3689511,0.003774269,0.001376509,-0.009907392,-0.01374205,-0.0351801,0.06305304
0.7884516,0.5094597,0.3685787,0.006463366,0.00234644,-0.01035808,-0.01468092,-0.009842386,0.05960653
0.7871925,0.5104592,0.3639494,0.005226832,0.003196253,-0.01505962,-0.01525903,0.02178331,0.05488149
0.7831895,0.5104127,0.3657611,0.001245165,0.003002641,-0.01331359,-0.01794892,0.02516717,0.04619138
0.7817229,0.5088057,0.3713748,-0.0002012608,0.001251277,-0.007758727,-0.02137939,0.00653239,0.04117679
0.7845538,0.5111185,0.3704245,0.002648377,0.003422408,-0.008760786,-0.01920429,0.001312214,0.0447817
0.7882289,0.5109821,0.3701245,0.0063408,0.003147052,-0.009105325,-0.01523644,0.004902014,0.04872695
0.7880385,0.5068748,0.3693927,0.006166159,-0.001096332,-0.009874406,-0.01199334,0.002290197,0.04697326
0.7865346,0.5049727,0.3692467,0.004676368,-0.003131452,-0.01005039,-0.01807391,0.0002895797,0.04365678
0.7870271,0.5050943,0.3737468,0.005180921,-0.003139766,-0.00557296,-0.02699418,-0.0007873978,0.04069062
0.785569,0.5080598,0.3774855,0.003732765,-0.0003006228,-0.001849617,-0.02107002,0.0007921987,0.03541785
0.7838036,0.5116193,0.3804984,0.001975133,0.003136068,0.00115481,-0.01632852,0.004647183,0.0358361
0.783625,0.5144309,0.3796808,0.001802025,0.005828448,0.000335374,-0.01944048,0.004256307,0.04495969
0.7836502,0.5131927,0.3776267,0.001830595,0.00447452,-0.001714559,-0.01629129,0.003993653,0.04808809
0.7855355,0.5089507,0.3755834,0.003717079,0.0001201438,-0.003748038,-0.01317545,0.004577478,0.04258238
0.7856843,0.5105723,0.3683705,0.003865016,0.001632667,-0.01094571,-0.01241893,0.004828111,0.03932418
0.7849679,0.5101819,0.3677067,0.003145556,0.00113636,-0.01158902,-0.0123135,0.005777533,0.03707517
0.785887,0.5071056,0.3705106,0.004059356,-0.002042547,-0.008759227,-0.01582459,0.004622268,0.03587197
0.7849535,0.507166,0.3700704,0.003118519,-0.002081482,-0.009168067,-0.01778646,0.003569134,0.04086942
0.7844994,0.5037508,0.3750478,0.002654817,-0.005592479,-0.004153857,-0.01903388,0.003876331,0.04264599
0.783874,0.5041104,0.3749977,0.002017622,-0.00532507,-0.004161801,-0.01685466,0.004161699,0.03883896
0.782796,0.5087889,0.3728314,0.0009257739,-0.0007348242,-0.006281017,-0.01106995,0.004407786,0.03607236
0.7837987,0.5100322,0.378366,0.001912642,0.0004242412,-0.0006945326,-0.01165572,0.005285267,0.03459769
0.784326,0.5104304,0.3776517,0.002422314,0.0007420916,-0.001352494,-0.01344216,0.008997497,0.03683673
0.7858006,0.5085505,0.3733542,0.003877433,-0.001214209,-0.005589567,-0.0141011,0.01397969,0.03604493
0.7867053,0.5069696,0.3719247,0.004760876,-0.002867723,-0.006954763,-0.01499747,0.01612207,0.03308551
0.7859199,0.50614,0.3718018,0.003952415,-0.00376604,-0.007009758,-0.01330779,0.01517648,0.034697
0.7871244,0.5079815,0.3758723,0.005132009,-0.001989245,-0.002867872,-0.01477899,0.01591538,0.03294644
0.7871024,0.5131548,0.3768572,0.005083199,0.003123099,-0.001808255,-0.01423934,0.01807328,0.0335318
0.783726,0.5101734,0.3751868,0.001678164,8.466721e-05,-0.003400776,-0.01143113,0.01709724,0.03551824
0.7799138,0.5069745,0.3755779,-0.002164572,-0.003167604,-0.002929109,-0.01341518,0.01365061,0.0289593
0.7799836,0.5082551,0.3771739,-0.0021269,-0.001936889,-0.001250179,-0.01336676,0.003569525,0.02433698
0.782501,0.5054226,0.3804871,0.0003570653,-0.004815545,0.002148214,-0.01318943,-0.007287834,0.02418609
0.782756,0.5058249,0.37921,0.0005774698,-0.004455799,0.0009579996,-0.01384349,-0.0002484625,0.02380731
0.7833303,0.5069392,0.3776405,0.001116201,-0.003380385,-0.0005232448,-0.01199926,0.0124957,0.02229068
0.7828229,0.504848,0.3802065,0.0005723712,-0.005506712,0.002131995,-0.01044358,0.01289964,0.02058023
0.7811235,0.5062926,0.3805862,-0.001164067,-0.004093434,0.002601556,-0.005201577,0.01095031,0.02270828
0.7821841,0.5097151,0.3806733,-0.0001410645,-0.0006984541,0.002778678,0.000376225,0.006449999,0.02572719
0.7821465,0.513778,0.3792367,-0.0002166537,0.003340786,0.001431854,-0.001400421,0.0003211227,0.03046853
0.7815816,0.5140998,0.3765883,-0.0008197636,0.003642264,-0.001127251,-0.004289939,0.004807595,0.03275408
0.7822507,0.5087205,0.3750355,-0.000188957,-0.001754086,-0.002591412,-0.002830896,0.01168474,0.02540327
0.7817985,0.505468,0.3728529,-0.000679322,-0.005020734,-0.004686225,-0.004634018,0.01446362,0.02014287
0.7817471,0.5063604,0.3734311,-0.0007687548,-0.004139487,-0.004021068,-0.008978455,0.0122169,0.02166001
0.7811792,0.5086491,0.3742595,-0.001374382,-0.001859127,-0.003106596,-0.007993849,0.006371533,0.02247607
0.7801222,0.5103001,0.374154,-0.00246859,-0.0002134659,-0.003126661,-0.00886583,0.008481753,0.02200775
0.7805758,0.511108,0.3750672,-0.002051722,0.0005917438,-0.002129002,-0.01044599,0.008394656,0.02121425
0.780529,0.5120157,0.3736554,-0.002134333,0.001499438,-0.003457015,-0.007623098,0.003089324,0.02091596
0.7791847,0.5124196,0.3742915,-0.003513579,0.001905552,-0.002738121,-0.007513287,0.004662076,0.02304023
0.777136,0.5109331,0.3812105,-0.005596059,0.0004234189,0.004262847,-0.007467899,0.0008651215,0.02551778
0.7763016,0.5088176,0.3857408,-0.006462838,-0.001685908,0.008873973,-0.005024278,-0.004908335,0.02262263
0.7792087,0.5096642,0.378976,-0.003586532,-0.0008313359,0.002188396,-0.002755772,-5.743512e-06,0.01701259
0.7825839,0.5102811,0.3716814,-0.0002402948,-0.0002048792,-0.005028713,-0.0006145656,0.004161453,0.01513327
0.7823188,0.5091975,0.3759716,-0.0005323979,-0.001277387,-0.0006630233,-0.002446952,0.003885975,0.01569794
0.7814246,0.5092232,0.3813899,-0.001451708,-0.001239106,0.00482888,-0.00695537,-0.0004308117,0.01647321
0.7820175,0.5062573,0.3837095,-0.0008820805,-0.004191041,0.007219994,-0.005359236,-0.01063769,0.0154727
0.7811129,0.5033198,0.3861877,-0.001808148,-0.007113298,0.009767228,0.002646167,-0.01632069,0.01461179
0.7802302,0.5068963,0.3834979,-0.002710373,-0.003519971,0.007143737,0.006714479,-0.01231667,0.01664227
0.7815683,0.5106976,0.3795353,-0.00139002,0.0002996569,0.003244193,0.005873447,-0.008974334,0.01873168
0.7823151,0.509922,0.3765425,-0.0006590391,-0.0004560609,0.0003110071,0.006682031,-0.01074455,0.0203907
0.7819206,0.5088,0.3721319,-0.001067418,-0.001556714,-0.004043396,0.008052329,-0.01097503,0.01941756
0.781816,0.5083228,0.370514,-0.001184201,-0.002011371,-0.005608261,0.007534523,-0.01168551,0.01703445
0.7820232,0.5061975,0.3702859,-0.0009873714,-0.004112832,-0.00578628,0.004262483,-0.01402634,0.01708736
0.7819795,0.5052238,0.3710118,-0.001039793,-0.005061531,-0.005012854,-0.0001640838,-0.0129853,0.01547413
0.7818413,0.5042465,0.3713762,-0.001184963,-0.006012541,-0.0046032,-0.002152497,-0.01286877,0.01431529
0.7820362,0.5016929,0.3716092,-0.000995468,-0.008538312,-0.004326909,-0.001154297,-0.01329745,0.01488144
0.7820972,0.5028997,0.3793942,-0.000938228,-0.007302197,0.003499722,0.0005108395,-0.008998247,0.01286524
0.782969,0.5045407,0.3849872,-6.864688e-05,-0.005629992,0.009132477,-0.001879379,-0.002776924,0.01080401
0.7845876,0.5048307,0.3792266,0.001549098,-0.005306926,0.003409773,-0.008333786,0.003654145,0.009697517
0.7846624,0.5078495,0.3735521,0.001624334,-0.00225308,-0.00222896,-0.01500532,0.01151686,0.01020107
0.7828754,0.51115,0.3730296,-0.0001610956,0.001084412,-0.002717952,-0.01828311,0.01593019,0.01096256
0.7809499,0.5150303,0.367426,-0.00208392,0.0050034,-0.008290085,-0.01561406,0.008285288,0.008793415
0.7800321,0.5165597,0.3599455,-0.002998141,0.006572778,-0.01574061,-0.01490198,-0.0009316095,0.006178814
0.7790334,0.5144546,0.3677498,-0.003992136,0.004508463,-0.007907402,-0.01901704,0.001099862,0.002421628
0.779033,0.5151497,0.3756305,-0.003986674,0.005244793,1.65789e-06,-0.02125543,-0.0001864946,0.0004135024
0.7819144,0.5143095,0.3710939,-0.001098258,0.0044458,-0.004506801,-0.02277819,-0.006276475,0.002263769
0.7846045,0.5103698,0.3719868,0.00160005,0.0005469062,-0.003586006,-0.02180753,-0.006982464,0.0008560969
0.7841734,0.5093472,0.3748008,0.001178228,-0.0004353405,-0.0007441753,-0.02063111,-0.009577494,-0.002001316
0.7813883,0.5104374,0.3767642,-0.001596513,0.0006944934,0.001247042,-0.0250022,-0.006862383,-0.001786608
0.7809945,0.5117188,0.3817521,-0.001979147,0.002014792,0.006262618,-0.02595295,-0.0002401437,0.003712946
0.7833003,0.5109883,0.3809464,0.0003387487,0.001322308,0.0054842,-0.01756399,-0.008682675,0.01159084
0.7835018,0.5093852,0.3790411,0.0005530926,-0.000243626,0.003605452,-0.003222732,-0.01865876,0.009452765
0.784584,0.5076043,0.377534,0.001648823,-0.001988499,0.002123961,0.006483403,-0.01589765,0.005922611
0.7844436,0.5037639,0.3737524,0.001522509,-0.005793742,-0.001633103,0.004585487,-0.004400683,0.01029496
0.7803312,0.5034493,0.3744684,-0.002575398,-0.006074043,-0.000893618,-0.0005443837,0.008412872,0.009247233
0.779994,0.5056872,0.3760036,-0.002897778,-0.003802401,0.0006640354,-0.004646554,0.005794481,0.006038428
0.7804372,0.5055923,0.3750137,-0.002439309,-0.003864006,-0.0003044251,-0.00527133,-0.00251083,0.005355253
0.7804295,0.5079029,0.3775354,-0.00243123,-0.001520196,0.002237617,-0.003581423,-0.007136703,0.003280586
0.7836526,0.5114189,0.3795938,0.0008081776,0.002028701,0.004315284,-0.005206184,-0.02080408,0.005798264
0.7838346,0.5116327,0.3745736,0.001006938,0.002275182,-0.0006866938,-0.004954101,-0.02550146,0.006718376
0.7830317,0.512261,0.3701992,0.0002211488,0.002935652,-0.005044219,-0.005051776,-0.02106285,0.005897999
0.7844734,0.5133046,0.3716356,0.001680167,0.004010871,-0.003591851,-0.006851741,-0.02610449,0.01029455
0.7849198,0.5120344,0.3728095,0.002144083,0.002771489,-0.002402851,-0.002945883,-0.02293873,0.009563303
0.7846572,0.5119718,0.3717154,0.001898976,0.002738574,-0.003482477,1.392364e-05,-0.01301584,0.006882625
0.7836324,0.5112772,0.3706713,0.0008915839,0.002072576,-0.004512522,-0.002549866,-0.007706964,0.007672514
0.783134,0.5075739,0.3705056,0.0004101951,-0.00160342,-0.004664521,-0.006700746,-0.004378405,0.004963039
0.783685,0.5043492,0.3710154,0.0009780133,-0.004802115,-0.004140931,-0.01032413,-0.004070257,-4.331304e-05
0.7851217,0.5008897,0.370967,0.002431051,-0.008236572,-0.004175538,-0.009417548,0.004311421,-0.005358922
0.7863954,0.5027999,0.3711051,0.003720608,-0.006302201,-0.004023322,-0.005822371,0.01018459,-0.003383425
0.7838603,0.5077873,0.3740248,0.001200653,-0.001291036,-0.001089015,-0.004097212,0.0004577623,0.002630829
0.7799617,0.5043633,0.3776624,-0.002683511,-0.004691528,0.002563698,-0.004486556,-0.01185967,-6.44246e-05
0.7792532,0.5038605,0.3784317,-0.003378205,-0.005170876,0.003348416,-0.006961849,-0.02261708,-0.001150443
0.7808828,0.5107371,0.3765246,-0.001735402,0.001729135,0.001456972,-0.007667702,-0.02660855,0.0001448041
0.7810144,0.5135992,0.3721907,-0.001591057,0.004614714,-0.00286121,-0.004088218,-0.02570308,0.0002730165
0.7802084,0.5130202,0.3689891,-0.002384722,0.004058961,-0.006047151,0.0009169422,-0.02289039,0.005587666
0.7816379,0.5115786,0.3731655,-0.0009429645,0.002640329,-0.001854799,0.005971035,-0.01689336,0.004191093
0.7823775,0.5109462,0.3781642,-0.0001914579,0.002030201,0.003160064,0.004370965,-0.01752273,0.001045693
0.7820928,0.5078869,0.372801,-0.0004643133,-0.001007519,-0.00218682,-0.001656114,-0.01585299,0.006593668
0.7837849,0.5037524,0.3669895,0.001239404,-0.005121219,-0.007981712,-5.694419e-05,-0.006106518,0.007012609
0.7852768,0.5068543,0.3678892,0.002742731,-0.001999126,-0.007064973,-0.0007717893,0.003602426,0.004678189
0.7849017,0.5091097,0.3650896,0.002378723,0.0002760097,-0.009846975,-0.005320612,0.01108921,0.003622795
0.7845373,0.5086487,0.3639788,0.002024929,-0.0001657427,-0.01093908,-0.004320504,0.01358191,-0.001632957
0.7859344,0.5104648,0.3678904,0.00343213,0.001669132,-0.007007461,-0.004798774,0.01718734,-0.006672797
0.7874195,0.5100079,0.3697552,0.004926553,0.001230469,-0.005120939,-0.0006697687,0.016669,-0.01169102
0.7876121,0.5111597,0.3764287,0.005127536,0.002399936,0.001576082,0.004472897,0.01217706,-0.0151526
0.7876018,0.5138452,0.3810202,0.00512452,0.005102354,0.006192775,-0.0008066913,0.01898141,-0.01314076
0.7873605,0.5141783,0.3727119,0.004889304,0.005451445,-0.002088877,-0.004608525,0.02936123,-0.009790982
0.7875181,0.5153537,0.365569,0.005051354,0.006641709,-0.009204018,-0.005662034,0.04059123,-0.009405581
0.7869107,0.5141396,0.3668544,0.004446855,0.005441058,-0.007889691,-0.006255322,0.04212341,-0.01035554
0.7833862,0.509556,0.3706498,0.0009234443,0.0008693105,-0.004063863,-0.006054359,0.02168992,-0.006154911
0.7792047,0.5074629,0.3761489,-0.003258695,-0.001213621,0.001467227,-0.00758393,0.006252559,-0.002936543
0.7785221,0.5091562,0.3803137,-0.003943443,0.0004881811,0.005665439,-0.004609744,0.004323395,-0.005386215
0.7814907,0.5108465,0.3792625,-0.0009783655,0.002185484,0.004648591,-0.0002386881,0.009817427,-0.003355544
0.7824582,0.5107697,0.3772342,-1.548496e-05,0.002114173,0.002655421,0.0004515378,0.01609375,-0.002006278
0.7805849,0.5101242,0.3761516,-0.001894398,0.001472708,0.001608292,-0.002130252,0.00895748,-0.004663793
0.779425,0.5080706,0.3743326,-0.003060603,-0.0005783495,-0.0001751915,-0.005063936,0.004084776,-0.003438931
0.7788284,0.5074001,0.3749116,-0.00366418,-0.001247741,0.0004393422,-0.002236577,0.004458893,-0.003647082
0.7792062,0.5093289,0.3763341,-0.003293781,0.0006808243,0.001897142,0.00265109,0.006445832,-0.003096893
0.7800718,0.509151,0.3753424,-0.002435606,0.0005015891,0.0009405058,0.005666141,0.01357091,-0.0005288325
0.7826668,0.5094693,0.3748683,0.0001518822,0.0008173913,0.0005009242,0.005546365,0.008738209,-0.005414929
0.7868819,0.510481,0.3751262,0.004359501,0.001825553,0.0007928833,0.004043377,0.004402498,-0.008592144
0.7862382,0.5091421,0.3758619,0.003708402,0.0004820496,0.001561939,0.006483958,0.0082239,-0.00299197
0.7826177,0.5097734,0.3766536,8.02492e-05,0.001107812,0.002386316,0.007307645,0.006490609,0.001259347
0.7818411,0.5101299,0.374873,-0.0007041242,0.00145772,0.0006374338,0.004806832,0.008311484,-0.0002267701
0.7835252,0.5089822,0.371925,0.0009718656,0.0003024996,-0.002279746,0.003601249,0.009951036,-0.001370838
0.7855613,0.5092344,0.370083,0.002999829,0.0005463491,-0.004091814,0.003735698,0.007034191,0.001087046
0.7849122,0.5081552,0.3712914,0.002342275,-0.0005420401,-0.002854326,0.006832044,0.004207636,0.0001393717
0.7840813,0.5092555,0.37501,0.001502594,0.0005482915,0.0008926293,0.007989869,0.001400094,-0.003935505
0.7850209,0.5123684,0.3764,0.002433014,0.003650585,0.002310461,0.004641247,0.005362972,-0.00751289
0.7835911,0.512343,0.3730213,0.0009937109,0.003613811,-0.001041202,0.002006306,0.009757405,-0.01110189
0.7818902,0.5106816,0.3683335,-0.0007172197,0.001940255,-0.005702749,-0.0006364953,0.008315458,-0.009346314
0.7819427,0.5077614,0.3693369,-0.0006751346,-0.0009928774,-0.004673687,-0.0006764515,0.008138501,-0.007684807
0.7814271,0.5060037,0.3735776,-0.001201447,-0.002764311,-0.0004076887,0.0004986673,0.008787108,-0.009970041
0.7803071,0.5055855,0.3755515,-0.002332381,-0.003196857,0.001591125,-0.003724426,0.008578202,-0.009151846
0.7786274,0.5050314,0.3772334,-0.004023027,-0.003765609,0.003297615,-0.00551621,0.01122823,-0.009702056
0.7787889,0.5059806,0.3764831,-0.003872361,-0.002831141,0.002571279,-0.00112004,0.01533508,-0.01236798
0.7798049,0.5055462,0.3765608,-0.002866898,-0.003280179,0.002672241,0.001376924,0.01661293,-0.0120099
0.7787991,0.5053888,0.3815873,-0.003882689,-0.003451949,0.007721142,0.0003851151,0.01566608,-0.007247007
0.7791176,0.5068942,0.3843724,-0.00357352,-0.001960457,0.01052743,0.0002961757,0.01271244,-0.0005636287
0.77985,0.506915,0.3840605,-0.002849535,-0.001952903,0.01023517,0.002868823,0.01063881,-0.001784218
0.7807641,0.5074527,0.384554,-0.001942955,-0.001427749,0.01074625,0.003734556,0.009971898,-0.005082968
0.7836069,0.5087064,0.3859484,0.0008934193,-0.0001858094,0.01215569,0.001552358,0.005313603,-0.003929946
0.7838091,0.5095468,0.3829129,0.001090148,0.0006436817,0.009132365,0.0009356977,0.001517273,-0.008297483
0.7826859,0.5075501,0.3766597,-3.748935e-05,-0.001363257,0.002888015,0.004197544,0.001486291,-0.01106326
0.7826635,0.5042627,0.3772932,-6.358489e-05,-0.004660022,0.003527022,0.00796791,0.001154262,-0.005700173
0.7818488,0.5065775,0.378648,-0.0008812189,-0.002353668,0.004884024,0.007363009,0.0001130527,-0.003198768
0.7827971,0.5089345,0.3774231,6.496913e-05,-4.172158e-06,0.003657959,0.007346913,-0.001680496,-0.005110711
0.7848344,0.507948,0.3799272,0.002100901,-0.0009972004,0.006157598,0.01008083,-0.002265945,-0.006489723
0.784735,0.5088913,0.3810906,0.002000683,-5.933196e-05,0.007313209,0.008249452,-0.002665025,-0.00597427
0.7835395,0.5101674,0.3805251,0.0008048005,0.001212257,0.006736564,0.003662736,-0.004604184,-0.007667275
0.7821888,0.5114152,0.3804954,-0.0005458089,0.002456357,0.006692249,-0.0006311945,-0.00515764,-0.01167103
0.7815748,0.5116199,0.3800788,-0.001159323,0.002658222,0.006257526,-0.004151957,0.001695996,-0.01194033
0.7820384,0.5103054,0.3790419,-0.0006949446,0.001341267,0.005198942,-0.003998137,0.013777,-0.01196409
0.782049,0.510479,0.3769843,-0.000683202,0.001512975,0.003116095,-0.0004762101,0.01701663,-0.01258456
0.7818036,0.5096217,0.3778115,-0.0009271333,0.0006540799,0.003914716,0.003718844,0.01433171,-0.009707476
0.7820201,0.5097484,0.3792332,-0.0007086739,0.000779414,0.005304531,0.001801048,0.0119332,-0.006563129
0.7819545,0.5129816,0.3787752,-0.0007718883,0.004011462,0.004811387,-0.0008170316,0.006941832,-0.005466477
0.7820591,0.5140787,0.3785776,-0.0006645831,0.005107468,0.004575605,0.005233176,0.00839337,-0.005088031
0.7829083,0.5121388,0.3775472,0.0001877064,0.003166256,0.003503893,0.007895829,0.01153803,-0.004667946
0.7833857,0.5092042,0.3784522,0.0006685944,0.0002299972,0.004364758,0.003075615,0.008466903,-0.005598858
0.7818351,0.5083013,0.379913,-0.0008781957,-0.0006750108,0.005778569,-0.0009665129,0.008729917,-0.006112422
0.7779198,0.5090512,0.3789078,-0.00478939,7.246084e-05,0.004723772,-0.001975408,0.008418518,-0.005398666
0.7752528,0.5096701,0.3790609,-0.007451742,0.0006886661,0.004824583,0.001380602,0.004122273,-0.006414653
0.7769555,0.5116456,0.3785059,-0.005743747,0.002661011,0.004214698,0.004606705,0.002262112,-0.00699762
0.7805666,0.5104614,0.3745081,-0.002126537,0.001473325,0.0001596368,0.00630551,0.001397455,-0.008329632
0.7823159,0.5078972,0.3723762,-0.0003700258,-0.001094786,-0.002031799,0.007044333,0.001959599,-0.01047433
0.7805302,0.5094376,0.3788355,-0.002147407,0.0004413271,0.00436614,0.004932341,0.003047792,-0.009718194
0.7784423,0.5100103,0.3865028,-0.004226098,0.00100937,0.01197029,0.00526612,0.003158158,-0.009744289
0.78087,0.5094319,0.3839204,-0.00178801,0.0004259161,0.009323049,0.006529758,0.005079047,-0.01023311
0.7831714,0.5089515,0.3823027,0.0005248527,-5.981843e-05,0.007638545,0.005099597,0.005760701,-0.009096319
0.7814053,0.5080426,0.3846416,-0.001228788,-0.0009743985,0.00990855,0.004611692,0.003513587,-0.008448224
0.7807591,0.5093103,0.3757087,-0.001861609,0.0002873508,0.0009044597,0.004139026,0.0004959002,-0.007690211
0.780771,0.5101259,0.3674877,-0.001835266,0.001096779,-0.007389674,0.003469078,-0.00144548,-0.007018983
0.7804489,0.5096465,0.3732029,-0.002142084,0.0006110527,-0.001749194,0.002967923,-0.002253577,-0.006262326
0.7828307,0.5096688,0.3786544,0.0002558942,0.0006267505,0.003626425,0.0002442743,-0.004950666,-0.005478485
0.7847869,0.5097236,0.3804106,0.002228996,0.0006747224,0.005305925,-0.001773799,-0.007993303,-0.006044679
0.7849447,0.5098066,0.3855911,0.002404476,0.0007507629,0.01040887,-0.0008353522,-0.01100614,-0.005994739
0.7843819,0.5096186,0.3875612,0.001859828,0.0005555089,0.01230041,-0.000136102,-0.0151196,-0.005099392
0.7827135,0.5103011,0.3790501,0.0002097704,0.001230616,0.003709566,-0.0003656014,-0.01851718,-0.005256668
0.7816198,0.5124528,0.3700505,-0.0008653805,0.003374619,-0.005370924,-0.0001406247,-0.02140974,-0.005729615
0.7816647,0.5136943,0.372202,-0.0008018195,0.004608116,-0.003301253,-3.93629e-05,-0.02218848,-0.007693805
0.7822475,0.5096969,0.3782095,-0.0002002829,0.0006022321,0.00262383,-0.0005240377,-0.02215944,-0.01017238
0.781953,0.5039789,0.3796086,-0.0004759862,-0.005124692,0.003940428,-0.001050306,-0.02287864,-0.008467456
0.7816629,0.5050593,0.3785941,-0.0007472912,-0.004053509,0.002843226,-0.001515333,-0.02228156,-0.005242178
0.782274,0.5070413,0.376981,-0.0001173473,-0.002080889,0.001147412,-0.001339444,-0.02118297,-0.003872935
0.7817724,0.5065789,0.3768567,-0.0006001725,-0.002552543,0.0009404543,0.0008057267,-0.01582686,-0.004605196
0.7824189,0.5089771,0.3774518,6.500594e-05,-0.0001634416,0.001453179,0.002018249,-0.007600478,-0.00875655
0.7848585,0.5091093,0.3762196,0.002523148,-3.995134e-05,0.0001389536,0.0002723481,-0.007123376,-0.01172545
0.7866545,0.5082975,0.3746882,0.004337494,-0.0008601402,-0.001473856,-0.0002480086,-0.01421003,-0.01079548
0.7860852,0.5105537,0.3731595,0.003786043,0.001387981,-0.003083219,5.422506e-05,-0.0208529,-0.009466548
0.782772,0.5089471,0.3757034,0.000490107,-0.0002263004,-0.0006189348,0.0008970929,-0.02139476,-0.007798216
0.7813239,0.5046458,0.3841184,-0.0009413679,-0.004535004,0.00771768,0.004780932,-0.01881776,-0.004981916
0.7822921,0.5021781,0.3873907,4.261233e-05,-0.007009538,0.01091273,0.006870733,-0.02157904,-0.00367846
0.7838278,0.5030417,0.3775129,0.001593394,-0.00615211,0.0009586608,0.006370691,-0.02127937,-0.004876845
0.785368,0.5071937,0.3660694,0.003147915,-0.002005343,-0.01056034,0.005319286,-0.009302369,-0.005322453
0.7847128,0.5101735,0.3690366,0.002506233,0.000970302,-0.00766747,0.002682654,-0.0006742127,-0.006827041
0.7842749,0.5128838,0.3725153,0.002080869,0.003677625,-0.004261462,0.001897219,-0.001998244,-0.009325009
0.7840846,0.5115738,0.3697541,0.001902062,0.002365586,-0.007093185,0.003524494,-0.005704074,-0.005680718
0.7829177,0.5059423,0.3804164,0.0007455885,-0.003267307,0.003500834,0.006163591,-0.009324097,-0.001803503
0.783626,0.5066905,0.388173,0.001463069,-0.002519672,0.01119165,0.006453151,-0.008340957,-0.00400411
0.7860594,0.5075204,0.3799478,0.003904592,-0.001689617,0.002902786,0.00313273,-4.145411e-05,-0.004759135
0.7900779,0.5039597,0.3765363,0.007930058,-0.005249356,-0.0005705732,0.003445719,0.006711602,-0.003629634
0.7915705,0.4996255,0.3782548,0.009428056,-0.009581463,0.001087954,0.003084695,-0.006699926,-0.006028769
0.7838599,0.4954474,0.3798524,0.001721069,-0.01375632,0.002627349,-0.002584447,-0.03424634,-0.01292792
0.7741365,0.5060859,0.3810319,-0.008000559,-0.003112789,0.00375032,-0.005037546,-0.03961108,-0.01630209
0.7747879,0.5250581,0.3784775,-0.007348948,0.01586635,0.001140939,-0.002575426,-0.01129653,0.000808956
0.7830017,0.5280154,0.3708446,0.0008638608,0.01883196,-0.006545273,0.002686125,0.02394347,0.02560337
0.7890166,0.5169789,0.3620729,0.006876768,0.007804391,-0.01536859,0.007650548,0.02914699,0.02175093
0.7897168,0.5033971,0.3649581,0.007573867,-0.005768581,-0.01253265,0.007218445,0.009424336,-0.002163571
0.786185,0.4955295,0.3712191,0.004037704,-0.01362745,-0.006318001,0.00454344,-0.001796862,-0.01555562
0.7834726,0.4942672,0.3710143,0.001319469,-0.01488075,-0.006565883,0.002926739,-0.008674697,-0.01637306
0.7830748,0.4943378,0.3733764,0.0009143205,-0.01480028,-0.004243331,0.0005667777,-0.01348558,-0.01460315
0.7821325,0.4963361,0.3739582,-3.67681e-05,-0.01279048,-0.003697394,0.00167957,-0.01433401,-0.01702357
0.7817808,0.5007083,0.3733076,-0.0003985851,-0.008404704,-0.004380182,0.004971779,-0.02308063,-0.01376517
0.7811456,0.5086313,0.377226,-0.001045034,-0.0004657661,-0.0004902171,0.0008005006,-0.02720932,-0.005493701
0.7816029,0.5168982,0.3773619,-0.0006000734,0.00781947,-0.0003790554,-0.001368168,-0.02311374,-0.003518009
0.7850877,0.5205382,0.3751328,0.002871379,0.01147981,-0.00262935,0.006670592,-0.01818927,0.002327268
0.7871213,0.5223808,0.3758248,0.004890843,0.01334416,-0.001955255,0.01135795,-0.009986444,0.003668858
0.787318,0.5212718,0.3743636,0.005072385,0.01225742,-0.003430958,0.00791375,0.001935672,0.0007046783
0.7882149,0.5136872,0.3707615,0.005953086,0.004695038,-0.007044269,0.0040958,0.0134505,0.005310992
0.789457,0.5009643,0.3689138,0.007177629,-0.008006146,-0.008899882,0.003618909,0.0142376,0.001899981
0.7888134,0.4937659,0.3689215,0.006515083,-0.01518336,-0.008896622,0.00207708,0.01500126,-0.002366726
0.7874906,0.4996029,0.3701369,0.005171715,-0.009325223,-0.007681915,0.001315666,0.0173667,-0.007222864
0.7876898,0.5043687,0.3705644,0.005348511,-0.004537697,-0.007251275,0.004944445,0.009810633,-0.01646572
0.7872518,0.5037818,0.3716892,0.004886329,-0.005102213,-0.006119376,0.003892759,0.007964035,-0.01365905
0.7875029,0.5072506,0.3747241,0.005111236,-0.001609961,-0.003073323,0.001283325,0.01014127,-0.01438268
0.7870778,0.5105426,0.3764336,0.004658001,0.001706335,-0.001348764,0.0006492164,0.01120519,-0.01677968
0.7835174,0.512659,0.376506,0.001067515,0.003847896,-0.001257712,-0.001085345,0.01590998,-0.00933727
0.7816875,0.5128938,0.3724165,-0.0007943537,0.004108334,-0.005324976,0.001295066,0.0159655,-0.006506329
0.7845031,0.5094695,0.3673023,0.001987603,0.0007100652,-0.01041355,0.001601838,0.01437023,-0.005108278
0.7893553,0.5095507,0.365917,0.006804535,0.0008173395,-0.01176989,0.001811928,0.008413591,-0.00501689
0.7891318,0.5068501,0.3649234,0.006544259,-0.001857296,-0.0127307,0.005269318,0.0005065183,-0.005165294
0.7853354,0.5014786,0.3691139,0.002709323,-0.007202853,-0.008503685,0.002436816,0.000152872,-0.002337573
0.7847729,0.5031482,0.3737229,0.002106704,-0.005507216,-0.003853999,0.0004047157,-0.003098051,-0.005949563
0.7861367,0.5034404,0.3717687,0.003428828,-0.005188761,-0.005763538,0.0001927458,-0.006842383,-0.008164127
0.7883669,0.503445,0.3721716,0.005615876,-0.005157375,-0.00531216,-0.0001112275,-0.004458537,-0.004729909
0.7878592,0.5054899,0.3723478,0.005063428,-0.003084941,-0.005083802,0.003133338,-0.001824345,-0.003123426
0.7869227,0.5033812,0.3708856,0.004080713,-0.005165512,-0.006490203,0.002477835,4.810033e-05,-0.003878015
0.7900352,0.5040418,0.3710266,0.007145371,-0.004475865,-0.006289955,0.004398586,-7.072833e-05,-0.006601214
0.7904639,0.5050884,0.3703796,0.007524715,-0.003399328,-0.006874334,0.008970342,-0.001624583,-0.007563628
0.7888897,0.5045867,0.3711563,0.00589944,-0.003870105,-0.006031614,0.005277473,0.0003040409,-0.006813935
0.7870156,0.5081127,0.370875,0.003972422,-0.0003122318,-0.0062438,0.002743495,0.006975582,-0.007692227
0.7851341,0.5086129,0.3704624,0.002036353,0.0002208049,-0.00658417,0.002794089,0.0131576,-0.01033389
0.7867877,0.5061895,0.3718598,0.003633669,-0.002168884,-0.005111486,-0.0006053598,0.01389912,-0.01238898
0.788069,0.5052003,0.3731356,0.00485717,-0.003123698,-0.003757608,-0.001844094,0.01216185,-0.01140714
0.7887113,0.5057163,0.3762938,0.005440177,-0.002572586,-0.0005185917,-0.001895251,0.01044212,-0.01328739
0.7876687,0.5087845,0.3772603,0.004336793,0.0005313593,0.0005309916,-0.006919115,0.006375852,-0.01645915
0.784739,0.5102955,0.3770172,0.001344883,0.002078747,0.0003731141,-0.01109876,0.004414245,-0.01316185
0.7849298,0.5100482,0.3768585,0.001472241,0.001868158,0.0003011517,-0.004482191,0.003207767,-0.007416053
0.7832241,0.5105937,0.3739294,-0.0002980485,0.002450491,-0.002539977,0.003446224,-0.005159765,-0.00132142
0.7808771,0.5119907,0.3745134,-0.00271055,0.003884333,-0.001867042,0.003021832,-0.00893884,0.002056679
0.7834955,0.5121449,0.3750356,-0.0001582103,0.004075052,-0.001255251,0.004903003,-0.005145152,-0.0002357694
0.7857195,0.5086515,0.3720386,0.00199948,0.0006175783,-0.004161972,0.007436953,-0.003669573,-0.003973662
0.7863126,0.5044767,0.3710614,0.00252609,-0.003522021,-0.005048549,0.005093284,-0.001411787,-0.01273401
0.786387,0.4998945,0.3696143,0.002533859,-0.008069732,-0.006404694,0.009158865,-0.0007496648,-0.02041441
0.7857712,0.4977146,0.3712355,0.001851535,-0.01021565,-0.004692109,0.01628764,0.001765691,-0.01682559
0.7864051,0.499494,0.3748865,0.002418967,-0.008402281,-0.0009493873,0.02039377,0.01047939,-0.01100308
0.787132,0.4998398,0.3698064,0.003079538,-0.008022146,-0.005937635,0.02544633,0.02411678,-0.006754552
0.7873641,0.5029798,0.3623491,0.003245409,-0.004847286,-0.0133027,0.02358992,0.0454219,-0.006025901
0.7867139,0.5085382,0.3600756,0.002529267,0.0007467126,-0.01548358,0.01703709,0.05211299,-0.008578132
0.7846915,0.5126337,0.3606846,0.0004411151,0.004878598,-0.01478117,0.01227804,0.04167897,-0.004057193
0.7840083,0.5177025,0.3619139,-0.0003076029,0.009984084,-0.01345713,0.003916488,0.03756932,-0.0001484678
0.7832172,0.517826,0.3624187,-0.001163739,0.01014428,-0.0128559,-0.002378679,0.02831689,-0.001204483
0.7812679,0.5161041,0.3689876,-0.003177383,0.008458408,-0.006188715,-0.003733159,0.01821419,0.0004446757
0.781382,0.5176964,0.3774125,-0.00312682,0.01008549,0.002336528,-0.003955974,0.01778486,-0.001185645
0.7806448,0.5137911,0.3748507,-0.003926364,0.006213348,-0.0001232953,-0.003743825,0.006645071,-0.005034507
0.7784887,0.5071115,0.3716793,-0.00614342,-0.0004350105,-0.003191427,-0.006851717,-0.002456617,-0.00466677
0.7800413,0.5042022,0.3746611,-0.004650043,-0.003315223,-0.0001053472,-0.01028402,-9.642653e-05,-0.00225576
0.7828449,0.5032134,0.3750993,-0.001903633,-0.004276949,0.0004378159,-0.01239133,-0.003771633,-0.001690914
0.7840674,0.5027133,0.3763418,-0.0007361523,-0.004751603,0.001785628,-0.01421449,-0.0002194583,-0.003300294
0.7838167,0.5000149,0.378127,-0.001039595,-0.007426081,0.003676123,-0.01274349,0.008972985,-0.002208089
0.7797966,0.4967512,0.3731433,-0.005110098,-0.01066684,-0.001202668,-0.008554409,0.006242217,-0.004032142
0.7777049,0.4956328,0.3700217,-0.007249727,-0.01176287,-0.004220159,-0.0006245711,0.003176253,-0.006859188
0.7808769,0.497168,0.3769854,-0.004122914,-0.01020532,0.002846829,0.006941489,-0.0008846213,-0.001631713
0.7812309,0.5000193,0.3850838,-0.003811273,-0.007331272,0.01104748,0.008975076,-0.009086219,0.0003067368
0.7808033,0.499821,0.385912,-0.004278094,-0.007505963,0.01197615,0.01089632,-0.007265205,-0.002128872
0.7830511,0.5015156,0.3834344,-0.002066435,-0.005786725,0.009596773,0.01280842,-0.003356278,-0.003436922
0.7836696,0.5053032,0.3819001,-0.001480947,-0.001973306,0.008157646,0.01327568,-0.003781318,-0.005098244
0.7849254,0.5049116,0.3790348,-0.0002550453,-0.002337647,0.005384115,0.01467487,0.006792303,-0.004016027
0.7853574,0.5057385,0.3767391,0.0001500657,-0.001482384,0.003176397,0.01189337,0.01853806,-0.004601223
0.7841877,0.507713,0.3750249,-0.00104365,0.000521763,0.001546152,0.005779667,0.01376941,-0.004560966
0.7859207,0.5103346,0.3699272,0.0006680949,0.003174005,-0.003471729,0.004424583,0.005828053,-0.001889274
0.7860054,0.5149617,0.367922,0.0007341315,0.00783246,-0.005400976,0.005464576,0.0030737,-0.001130379
0.7831301,0.514376,0.3692912,-0.002157281,0.007278559,-0.003959384,0.004237217,0.001714425,0.001398083
0.781314,0.5121068,0.3673429,-0.003987189,0.005040963,-0.005838731,-0.0008665597,0.004460893,0.001322276
0.7815181,0.5100258,0.365362,-0.00379447,0.002991093,-0.007753737,-0.007503258,0.006606829,-0.002347746
0.782588,0.5054453,0.3625938,-0.002733495,-0.001559074,-0.0104586,-0.007867142,0.005007418,-0.003423951
0.7817074,0.5062058,0.3604438,-0.003620692,-0.0007690209,-0.01254745,-0.006163959,0.002038666,-0.003411968
0.7816862,0.5083028,0.3666308,-0.003645914,0.00135675,-0.006300867,-0.008827313,-0.002975996,-0.003716461
0.7824398,0.5061824,0.3772434,-0.002893856,-0.0007357487,0.004370051,-0.00929164,-0.00407845,-0.006399367
0.7815347,0.5066584,0.3824073,-0.003798068,-0.0002327535,0.009590956,-0.005695131,-0.001626439,-0.008823257
0.7820735,0.5064961,0.3774887,-0.003255907,-0.0003689486,0.004727811,-0.002311236,-0.0003904629,-0.005164799
0.7821066,0.5035813,0.3726653,-0.003217068,-0.003258432,-4.212087e-05,0.0001575227,0.004923117,-0.001352236
0.7816186,0.5028319,0.3773008,-0.003696858,-0.003983167,0.004644779,0.002323272,0.008904352,-0.00379292
0.7824396,0.5009271,0.3793438,-0.002865202,-0.005863959,0.006736875,0.003464083,0.005941799,-0.00685364
0.7830205,0.4990891,0.377067,-0.002271311,-0.007678321,0.004506756,0.004728761,0.004215979,-0.00842393
0.785377,0.5005994,0.3798414,0.0001004945,-0.006144436,0.007325013,0.007663279,0.003336358,-0.01139744
0.7865737,0.5019416,0.3813982,0.001314642,-0.004778427,0.008922728,0.007523168,0.0005007424,-0.01233445
0.7841037,0.5034483,0.3798882,-0.001136102,-0.00324744,0.007450453,0.005805764,-0.001260456,-0.01238591
0.7826622,0.5049368,0.3782748,-0.002556557,-0.001734199,0.005871161,0.007722301,-0.003297131,-0.01243538
0.7834599,0.5056138,0.3732848,-0.001736102,-0.00103185,0.0009115008,0.008368969,-0.006723628,-0.008913577
0.7845757,0.506173,0.3663695,-0.0005961455,-0.0004467888,-0.005976994,0.00747644,-0.007107008,-0.006619535
0.7847785,0.5061156,0.3620677,-0.000367722,-0.0004778011,-0.0102554,0.005291232,-0.003282015,-0.007274298
0.7847706,0.5071773,0.3631216,-0.0003486406,0.0006106072,-0.009180839,0.0004524639,-0.001272524,-0.006864371
0.7847561,0.5073663,0.3633268,-0.0003350505,0.0008265158,-0.008957132,-0.001151181,-0.004496416,-0.005427058
0.7845751,0.5063901,0.361572,-0.0004870138,-0.0001225561,-0.0106951,-0.001428966,-0.008115313,-0.005127805
0.7850638,0.5070524,0.3697909,3.163087e-05,0.0005669278,-0.002460285,-0.001914843,-0.006192476,-0.005787832
0.7853668,0.5061296,0.3787214,0.0003652675,-0.0003287134,0.006485304,-0.001836035,-0.004407423,-0.004727025
0.7856053,0.5049718,0.3752276,0.0006350639,-0.001459503,0.003005847,-0.003538608,-0.006191739,-0.004612088
0.7857876,0.5059602,0.3735379,0.0008489857,-0.000444231,0.001329562,-0.002851967,-0.003131809,-0.005640445
0.7867897,0.5064648,0.377733,0.001883015,8.710024e-05,0.005536932,-0.002559394,0.004854884,-0.005316408
0.7881191,0.5069305,0.3764236,0.003244475,0.0005792403,0.004238762,-0.003569754,0.01323025,-0.006231201
0.7864412,0.5060988,0.3736066,0.001598432,-0.0002262596,0.001431534,-0.001354024,0.01442907,-0.006084212
0.7854854,0.50426,0.3734065,0.000674264,-0.002039097,0.001239848,-0.0005506571,0.008079454,-0.005680643
0.7865009,0.5050304,0.3729374,0.00172089,-0.001243177,0.0007776556,-0.001145538,0.007345752,-0.006233282
0.7861661,0.5068331,0.3775067,0.0014166,0.0005848287,0.005352507,-0.002350218,0.006975063,-0.00260169
0.7869466,0.5074813,0.3845293,0.002226986,0.001257906,0.01237914,-0.004544714,0.003754635,0.0005062249
0.788102,0.5077413,0.3840717,0.003411419,0.001542386,0.01192362,-0.004311183,0.003890153,-0.0009082117
0.7881512,0.5084755,0.3808178,0.003488666,0.002300563,0.008669587,-0.0006548963,0.00250581,-0.002519358
0.7883726,0.5079106,0.3788814,0.003736913,0.001759015,0.006730266,0.006328374,0.002994784,-0.002750109
0.788268,0.5044444,0.374576,0.003657879,-0.001684605,0.002419224,0.009012678,0.002898246,-0.002365145
0.7888698,0.5017821,0.3725483,0.004283686,-0.004325108,0.0003829935,0.004038807,0.0003213318,-0.003096693
0.7889134,0.5024799,0.3724575,0.004349615,-0.003606104,0.0002809539,-0.0005021338,0.001834409,-0.00609622
0.7868296,0.503386,0.3667428,0.00228644,-0.002679206,-0.005447534,-0.002407575,0.0003491926,-0.009398944
0.7855671,0.5029008,0.3651173,0.001042501,-0.003143955,-0.007088945,-0.002945832,-0.002385813,-0.008629898
0.7860732,0.5047057,0.3758309,0.001565386,-0.001318799,0.003607088,-0.002139624,-0.002721997,-0.006168188
0.785987,0.5086366,0.3839477,0.001493962,0.002632234,0.01170472,0.0002088946,-0.003902837,-0.005548528
0.784197,0.5107877,0.3804731,-0.00028306,0.004803196,0.008209382,0.004591346,-0.005781231,-0.00336977
0.7831075,0.5123543,0.3760858,-0.001361357,0.006389218,0.00379939,0.007905186,-0.01348635,-0.002902465
0.7850252,0.5129915,0.3758837,0.0005658774,0.007045136,0.003572593,0.006221794,-0.0205112,-0.003854643
0.7869747,0.510939,0.3727491,0.002523254,0.005010273,0.0004112151,0.002820342,-0.02019696,-0.001419872
0.7861438,0.5063034,0.3693881,0.001698826,0.0003910068,-0.002978348,0.002622274,-0.01754012,0.0002654952
0.7856572,0.5009837,0.3709918,0.001217045,-0.004913756,-0.001404969,0.001756116,-0.0148185,0.002828582
0.7864755,0.5023856,0.371064,0.002038672,-0.003498159,-0.001364335,0.0001451826,-0.01596716,0.00505844
0.7860474,0.5070741,0.3695376,0.001612338,0.00120294,-0.00292343,0.0008017464,-0.01689036,0.002937181
0.7864644,0.5073084,0.3695674,0.002029661,0.00144897,-0.002927121,-0.0001920767,-0.01369222,0.002940692
0.7890474,0.5091349,0.3706927,0.004611385,0.003286249,-0.001835773,-0.001783008,-0.01088613,0.004097457
0.7905632,0.5122937,0.3740017,0.006124416,0.00645479,0.001438972,-0.001318037,-0.008687505,0.004799374
0.788839,0.512054,0.3756666,0.004395814,0.006223656,0.00306944,0.0007039344,-0.009185929,0.0050885
0.7862536,0.5086383,0.3732335,0.001804049,0.002815024,0.000601819,0.002560036,-0.01168521,0.0001753956
0.7867211,0.5028129,0.3683747,0.002263437,-0.00300494,-0.004291524,0.0007274048,-0.01226914,-0.002897976
0.7875841,0.5019723,0.3644427,0.003116602,-0.003841565,-0.008257996,-0.001318214,-0.008546828,-0.0006697989
0.7879471,0.505342,0.3648132,0.003467829,-0.000469064,-0.007921486,-0.001388048,-0.0005497335,-0.001005954
0.7896733,0.5058834,0.3665684,0.005180568,7.402868e-05,-0.006199377,-0.003966599,0.002389559,-0.006616196
0.7885446,0.5059988,0.3688595,0.004036474,0.0001900923,-0.003939973,-0.008626111,-0.0007091111,-0.01193844
0.7865388,0.5071741,0.3729892,0.002013485,0.001365199,0.0001596145,-0.01021887,-0.002477149,-0.008529905
0.7860176,0.508851,0.3749776,0.001473175,0.003040916,0.002119468,-0.004509021,-0.001946029,-0.00358128
0.7846623,0.5084324,0.375224,9.698399e-05,0.002620332,0.002338801,0.003124444,0.001667726,-0.004764363
0.7848152,0.5058258,0.3780299,0.0002274741,1.070699e-05,0.005119123,0.002344479,0.00183099,-0.005049312
0.7847438,0.5054117,0.3794887,0.0001320444,-0.0004073893,0.0065535,-0.002535064,-0.005596432,-0.005148474
0.7844395,0.5052447,0.3764067,-0.0001974648,-0.0005793112,0.003447942,-0.002846343,-0.01036755,-0.005729557
0.7851445,0.5048516,0.3743668,0.0004812125,-0.0009780282,0.001385148,0.0008496881,-0.008834212,-0.004386074
0.7845787,0.5048576,0.3765595,-0.0001120201,-0.0009784278,0.003555371,0.008496584,-0.004931861,-0.003587756
0.7856704,0.5044646,0.3780579,0.0009514519,-0.001378302,0.005031719,0.01244594,0.001350309,-0.001986397
0.7867809,0.5042848,0.3732229,0.002033048,-0.001565446,0.0001749581,0.005113266,0.01021153,-0.002527457
0.7867489,0.5028431,0.3693875,0.001971319,-0.003014826,-0.003682103,-0.001277588,0.01434192,-0.006822161
0.7878933,0.5025613,0.3740149,0.003085469,-0.00330438,0.0009239134,0.0003614743,0.009159927,-0.009661714
0.7873729,0.5030398,0.3781433,0.002534091,-0.002833709,0.005031204,0.002665268,0.00239706,-0.009957373
0.7867411,0.5028202,0.3772984,0.001870659,-0.003060758,0.004165414,0.003329005,-0.00607259,-0.00622094
0.7874728,0.5049999,0.3766191,0.002570162,-0.0008882617,0.003465341,0.004089154,-0.01147783,0.0009632114
0.7872331,0.5069243,0.3767198,0.002297545,0.001029446,0.00354524,0.004881377,-0.004941167,0.005793342
0.7851585,0.5070976,0.3747472,0.0001895289,0.001196463,0.00155151,0.004923066,-0.002751523,0.003450526
0.7845892,0.5060437,0.3737683,-0.0004138181,0.0001366802,0.0005513254,0.003753818,-0.005222916,-0.0005696151
0.789647,0.5049744,0.3799938,0.004609571,-0.0009382179,0.006755162,0.002526409,-0.001825375,0.001647028
0.7927437,0.5061678,0.3841232,0.007671403,0.0002500219,0.01086258,0.004799166,-0.002183733,0.001042291
0.7887534,0.5073709,0.3751302,0.003645712,0.00144821,0.001846844,0.007510654,-0.001972892,-0.002126586
0.785431,0.5086893,0.365248,0.0002871483,0.002762026,-0.008058902,0.005360775,0.0005893214,0.0003092418
0.7869247,0.5084323,0.3664029,0.001744044,0.002500592,-0.006928113,0.002736401,0.0005851162,-0.0001624926
0.7892299,0.506277,0.3689988,0.004011915,0.000340977,-0.004356543,-0.0004861326,0.00405239,-0.001573407
0.7887572,0.5071226,0.3699779,0.003501208,0.001182229,-0.003401527,-0.00502221,0.009132954,-0.002365483
0.787838,0.5089192,0.3753188,0.002543349,0.002974369,0.001915678,-0.004638443,0.01315894,-0.007531761
0.7870897,0.5095303,0.3757013,0.001755872,0.003580916,0.00227497,-0.002136535,0.01056744,-0.008764771
0.7855653,0.5093715,0.3733233,0.0001916175,0.003417212,-0.000125739,0.0001996297,0.004142497,-0.008188982
0.7854141,0.5077696,0.3765917,1.139667e-07,0.001810051,0.003120427,0.004108059,0.006011912,-0.008966801
0.7860694,0.5052782,0.3761754,0.0006146913,-0.0006870954,0.002682245,0.004000407,0.006705037,-0.00471358
0.7864626,0.5030806,0.374234,0.0009670004,-0.00289097,0.0007191317,0.002019746,0.005428207,-0.0007285647
0.7860083,0.5026593,0.3711183,0.0004716254,-0.003318828,-0.002417876,0.003239957,0.008789656,-0.003791144
0.7858572,0.5026236,0.3654925,0.0002794248,-0.003361276,-0.00806479,0.001186996,0.00709358,-0.007688485
0.7866807,0.5033411,0.3676513,0.001061846,-0.002650455,-0.005926369,-0.002362499,0.005170242,-0.005139773
0.7869273,0.5065763,0.3689722,0.001267525,0.0005782167,-0.004624872,-0.001810696,0.006246254,-0.001913821
0.7886471,0.5118993,0.3677195,0.002946487,0.005895026,-0.005895847,-0.001652836,0.002737241,-0.0003475625
0.7895246,0.5156073,0.3713932,0.003783304,0.009596752,-0.002238877,-0.001733226,0.0001498763,0.00255405
0.7884474,0.5123996,0.37273,0.00266544,0.00638259,-0.0009172898,-0.00127928,-0.001372458,0.003024319
0.7892184,0.5080369,0.3731586,0.003395927,0.002012781,-0.0005021844,-0.001657299,-0.006498639,0.00415331
0.7900342,0.5056852,0.3756006,0.004171099,-0.0003467126,0.001927805,-0.001146629,-0.01040574,0.006548632
0.7912476,0.5028488,0.3777215,0.005343731,-0.003191746,0.004038089,-0.0008052823,-0.00894708,0.005778223
0.7919121,0.5043406,0.3739709,0.005967245,-0.001709083,0.0002781673,-0.0005594912,-0.005823041,0.003387649
0.7896053,0.5058579,0.3663007,0.003619042,-0.0002014401,-0.0074002,-0.0003815295,-0.004303786,0.0003724641
0.787961,0.5046451,0.3674074,0.001932882,-0.001424112,-0.006300565,-0.0002861659,0.0002540382,-0.00111718
0.7870539,0.504278,0.3685613,0.0009834226,-0.001801394,-0.005152141,0.0006456566,0.004352513,-0.003959693
0.7858085,0.5021137,0.3669276,-0.0003047298,-0.003975857,-0.006789744,0.000479517,0.002928992,-0.007802471
0.7858074,0.502626,0.3723291,-0.0003488676,-0.003473552,-0.001390218,0.001482959,0.001149035,-0.006250732
0.7864012,0.5054679,0.3750469,0.0002017089,-0.0006414406,0.001327457,0.006284804,2.943211e-05,-0.004028849
0.7861262,0.5054863,0.3733204,-0.0001164708,-0.0006324415,-0.0003973301,0.009887397,0.00192653,-0.001230196
0.7860469,0.5060262,0.3735466,-0.0002388537,-0.000101447,-0.0001677891,0.00623118,0.006961765,0.004493025
0.7872527,0.506374,0.3746462,0.0009241792,0.0002378998,0.0009367007,0.001739851,0.008527824,0.008887033
0.787509,0.5069387,0.3739891,0.001137941,0.0007945222,0.000285932,0.006086351,0.004514647,0.01244337
0.7866035,0.5078609,0.3676794,0.0001902236,0.001709101,-0.006016221,0.009414097,-0.003936984,0.0126478
0.7862102,0.5083447,0.3616896,-0.0002448757,0.002185663,-0.01199706,0.006206134,-0.0123652,0.00973728
0.7876831,0.5113522,0.3633413,0.00118673,0.005186042,-0.01033481,0.004587741,-0.0168824,0.007530363
0.7897836,0.5118238,0.3668003,0.003246502,0.00565063,-0.006863288,0.001949101,-0.0134137,0.005540901
0.7889259,0.5094612,0.3677687,0.002348558,0.003280703,-0.005879987,-0.0004060848,-0.004863172,0.004844783
0.7883862,0.5070535,0.3711651,0.00176906,0.0008654208,-0.002466305,0.001311861,-0.003011187,0.003316654
0.7891752,0.5031523,0.373968,0.002518623,-0.003043889,0.0003562953,0.001994538,-0.006279155,0.002494274
0.7878072,0.5051543,0.3726324,0.001111607,-0.001050262,-0.0009573803,0.001743997,-0.008241266,0.003449366
0.7871452,0.5085234,0.3717872,0.0004110218,0.002310113,-0.001778621,0.000358111,-0.005477561,0.001962881
0.787438,0.504048,0.3679195,0.0006655766,-0.002174128,-0.005620407,-0.001101895,0.001459071,0.002626696
0.7865928,0.5004342,0.365285,-0.0002174391,-0.005796837,-0.008227074,0.001017791,0.004283931,0.004078836
0.7862214,0.5001613,0.366757,-0.000626093,-0.006078575,-0.006725304,0.004163528,0.003509121,0.002754246
0.7880952,0.5012934,0.363811,0.001211035,-0.00495497,-0.009639174,0.007187898,-0.0005242212,0.002651298
0.791468,0.5036924,0.3638688,0.004547669,-0.002563719,-0.009546946,0.007757066,-0.006190124,-0.0001089399
0.792334,0.5019534,0.3666735,0.005378091,-0.004309725,-0.006705278,0.00400451,-0.006626207,-0.004644826
0.7913612,0.5009527,0.3680059,0.004370105,-0.005316349,-0.005333203,0.001476144,-0.008089361,-0.004616962
0.7912998,0.5046297,0.3724015,0.004273684,-0.001644174,-0.0008952324,0.003172056,-0.01351668,-0.003240174
0.7903527,0.5063035,0.3710738,0.003291504,2.607937e-05,-0.002178083,0.004470659,-0.01570614,-0.003840552
0.789863,0.5056412,0.3672332,0.002766763,-0.00063853,-0.005971329,0.001673252,-0.0086331,-0.006230013
0.7913127,0.506321,0.3659201,0.004181235,4.015696e-05,-0.007234874,0.0005713967,0.003904694,-0.008158064
0.7915359,0.5109795,0.3598117,0.004368971,0.00469851,-0.01329142,0.004621219,0.01274258,-0.004933754
0.7911985,0.5155666,0.3572552,0.003995849,0.009286448,-0.01579345,0.007318802,0.02063642,-0.0004612494
0.7917491,0.5131575,0.3621073,0.004510278,0.00687854,-0.01088391,0.003193647,0.02337849,-0.001815957
0.7898925,0.5102548,0.367097,0.002617031,0.003977184,-0.005833639,-0.008605995,0.01867761,-0.004042951
0.7879605,0.5113982,0.3692893,0.0006478277,0.005121667,-0.003577612,-0.01870316,0.01958017,-0.003943994
0.7887466,0.5110595,0.3687367,0.001396329,0.004783563,-0.004063291,-0.01633348,0.02348426,-0.00389886
0.7871402,0.5098885,0.3720903,-0.0002481542,0.003612443,-0.0006399032,-0.009670391,0.02257878,-0.002425817
0.7843602,0.5097427,0.3772312,-0.003066436,0.003465716,0.004573351,-0.00611867,0.01350052,-0.001926938
0.7846419,0.5089711,0.376683,-0.00282314,0.002692124,0.004099538,-0.0004416764,0.001471425,-0.002028266
0.7858292,0.507164,0.3758596,-0.001674076,0.0008819912,0.003352228,0.0003408822,0.003333501,-0.001054537
0.786727,0.5048263,0.3767806,-0.0008141432,-0.001459724,0.004350288,-0.004844446,0.008518799,-0.003314449
0.7879067,0.5050161,0.3762537,0.000328156,-0.001274928,0.003900984,-0.003740288,0.00855729,-0.004125717
0.7893041,0.5058403,0.376303,0.001688772,-0.0004564992,0.004027944,-0.001766942,0.01553321,-0.0009731015
0.78922,0.5025044,0.3762238,0.001568532,-0.003798987,0.004026177,0.002205088,0.01624835,0.0008356377
0.7884155,0.500541,0.3747844,0.0007284088,-0.005769305,0.002663412,0.01005098,0.009627994,0.003305521
0.7889217,0.5024795,0.3745748,0.001199591,-0.003838038,0.002529402,0.009873443,0.004562557,0.004006427
0.7875647,0.5035634,0.3751417,-0.0001918857,-0.002761347,0.003170516,0.01150384,-0.006999978,0.002136849
0.7842819,0.504549,0.3735983,-0.003508409,-0.00178265,0.001699885,0.01513931,-0.008828294,0.003630939
0.78247,0.505723,0.3697207,-0.005353404,-0.0006152146,-0.00210682,0.01037453,-0.001493869,0.003391266
0.7822238,0.5049999,0.3651314,-0.005631589,-0.001344479,-0.00662694,0.00595564,-0.003960653,-8.062487e-05
0.7821489,0.5039094,0.3630223,-0.00573721,-0.002440656,-0.0086685,0.001353295,-0.007127157,-0.003970977
0.7821576,0.5060132,0.3658204,-0.005757647,-0.000342028,-0.005804246,-0.0002226329,-0.01032541,-0.007647209
0.7845058,0.5090699,0.3694737,-0.003436683,0.002710004,-0.00208596,0.004245847,-0.01064153,-0.002334729
0.7862652,0.5091021,0.3715902,-0.001702542,0.002738099,9.463773e-05,0.003876721,-0.004641793,0.003583209
0.7844519,0.508358,0.3744671,-0.003539066,0.001990243,0.003034552,0.0005139907,-0.004083487,-0.0029341
0.7843649,0.5057103,0.3741567,-0.00364715,-0.0006610048,0.002785996,-0.005084191,-0.003226061,-0.007101786
0.7861529,0.5028396,0.3714796,-0.001877937,-0.003535111,0.0001693142,-0.01064082,0.001561536,-0.003451399
0.7862086,0.5041103,0.371202,-0.001838847,-0.002267448,-4.932071e-05,-0.007697039,0.006556742,-0.003249013
0.7860778,0.5037953,0.3690562,-0.00198406,-0.002585197,-0.002137905,-0.004997119,0.007401381,-0.003840912
0.7861468,0.5019828,0.3679017,-0.001927133,-0.004399925,-0.003236651,-0.004661817,0.001147675,-0.0004414491
0.7862255,0.5034298,0.3701771,-0.001858443,-0.002954399,-0.0009069883,-0.0003877682,-7.983622e-05,0.002029895
0.7870674,0.5057291,0.36957,-0.00102441,-0.0006558277,-0.001461356,0.0003789724,0.001239557,0.0008280891
0.787746,0.5074642,0.3688174,-0.0003515137,0.001079273,-0.002162563,-0.0005566751,0.0002325825,9.228376e-05
0.7874105,0.507757,0.3685732,-0.0006908137,0.001372891,-0.002356703,0.00200304,0.001804051,0.002427697
0.7864432,0.5081462,0.3658247,-0.001660059,0.001763575,-0.005056379,0.0006370443,0.004128448,0.004800168
0.7858984,0.510271,0.3646177,-0.00220491,0.003890253,-0.006215714,-0.002699504,0.01173332,0.005607346
0.7860647,0.5089224,0.3648378,-0.002036881,0.002543949,-0.005948785,-0.003845105,0.01697599,0.005425572
0.7856775,0.5058248,0.3627939,-0.002420569,-0.0005511757,-0.007946537,-0.004639592,0.01213265,0.00278325
0.7834013,0.5068095,0.3615636,-0.004691593,0.0004359689,-0.009130986,-0.002777139,0.006611089,-0.001072799
0.7816183,0.5071419,0.3681022,-0.006467528,0.0007709737,-0.002546582,-1.294817e-05,0.002323242,-0.00156206
0.7847192,0.5044112,0.3760596,-0.003357752,-0.001957147,0.005456753,0.002022686,0.001093341,-0.0005813044
0.7894939,0.5015651,0.3742841,0.001427832,-0.004800574,0.003727031,0.001806874,-0.0001393468,-0.003699956
0.79032,0.4996606,0.3719952,0.002266638,-0.006702261,0.001483572,-0.001647933,-0.004830243,-0.006971159
0.7900634,0.501342,0.3746136,0.002024389,-0.005017463,0.00414672,-0.001534339,-0.006210453,-0.004949598
0.7904041,0.5039145,0.373801,0.002380735,-0.002440918,0.003378075,0.001193212,-0.005271033,-0.0008594619
0.7892139,0.5031668,0.3738436,0.001207349,-0.003183778,0.003463402,0.00303482,-6.800155e-07,0.001369604
0.7883942,0.5044796,0.3758265,0.0004052774,-0.001865157,0.005487821,0.0031879,0.007882856,-0.002415821
0.7880762,0.5092943,0.3736434,0.0001056518,0.002956281,0.00334468,0.001473216,0.006350743,-0.008248073
0.7874126,0.5110221,0.3723562,-0.0005388509,0.004691677,0.002095575,0.00277915,0.00349923,-0.005542463
0.788295,0.5107858,0.3732108,0.000363079,0.004463499,0.00298641,0.002182269,0.007341996,-0.0007065349
0.7891641,0.5112185,0.3735858,0.001252113,0.004904624,0.003395657,-0.0008399701,0.01120647,-0.0002762615
0.7876514,0.5093541,0.3736456,-0.0002403845,0.003048682,0.003487548,-0.0007607309,0.02022399,0.0001615641
0.7852252,0.5073847,0.3713469,-0.002646035,0.001087512,0.001218827,-0.00137172,0.02686311,-0.0004719488
0.7840446,0.5051599,0.3695457,-0.003805933,-0.001129405,-0.0005547234,0.0003810492,0.01654132,-0.0003068016
0.7838267,0.5014214,0.3699704,-0.004002779,-0.004860272,-0.0001045536,0.004626793,0.003805066,0.001206004
0.783618,0.5031714,0.3703365,-0.004190098,-0.003102894,0.0002849494,0.008447493,-0.007704013,0.002368237
0.7854252,0.5083865,0.3704122,-0.002360917,0.002119618,0.0003819766,0.01104545,-0.01736242,0.006661193
0.7897005,0.5098197,0.3707636,0.001936953,0.003560236,0.0007528092,0.006971133,-2.894472e-05,0.009414942
0.7921998,0.506856,0.3723466,0.004459268,0.0006037314,0.002353413,0.0009776942,0.02661621,0.007093088
0.7915446,0.5006369,0.3732823,0.00382729,-0.005608301,0.003304778,-0.005180738,0.02511763,0.00381888
0.7902288,0.498864,0.3742203,0.002534731,-0.007374304,0.004256516,-0.00980279,0.01520443,-0.0001051403
0.7881766,0.5025322,0.3764812,0.0005055754,-0.003698988,0.006529121,-0.003475792,0.01161716,-0.004722011
0.7859035,0.5032867,0.3772631,-0.001744936,-0.002936989,0.007320433,0.00214626,0.0007320524,-0.006612078
0.785821,0.5026763,0.3766163,-0.001805173,-0.003539291,0.006680778,-0.000816387,-0.00744958,-0.00475926
0.7863591,0.5023896,0.3758222,-0.001245124,-0.003817241,0.005891209,0.0006928957,-0.01076915,-0.003661608
0.786206,0.5007213,0.3767058,-0.001376593,-0.005475995,0.006776478,0.005417862,-0.01246224,-0.000278884
0.7869708,0.498786,0.3776776,-0.0005904143,-0.007400791,0.00774721,0.006166762,-0.007462369,0.007484317
0.7878434,0.4980865,0.3765713,0.0003032784,-0.008088648,0.006636624,0.006982983,-0.008780126,0.008039572
0.7875548,0.5000607,0.3737989,3.551885e-05,-0.006101318,0.003856909,0.007348594,-0.01067918,0.001654038
0.7878424,0.5014691,0.369285,0.0003436083,-0.004678063,-0.0006675645,0.005581944,-0.006802593,-0.00123122
0.7902961,0.5022302,0.3700304,0.002817455,-0.003900458,6.435037e-05,0.005554199,-0.006032653,0.000945577
0.7926804,0.5042827,0.3720556,0.005221316,-0.001829563,0.002073214,0.005967718,0.001646905,0.002407322
0.7927838,0.5070152,0.3680378,0.005343593,0.0009231545,-0.001963436,0.006006174,0.007529732,-0.002558695
0.792264,0.5109724,0.3675182,0.00484167,0.004902104,-0.002504221,0.006127401,0.005226431,-0.006308478
0.7905725,0.5105446,0.3689111,0.003166959,0.004497314,-0.001134468,0.002393025,0.007725008,-0.002975749
0.7870675,0.5083814,0.3688404,-0.0003227012,0.002358186,-0.00122998,-0.001933343,0.009605287,-0.0004909522
0.7869023,0.5104374,0.3694429,-0.0004739286,0.004438765,-0.0006538662,-0.003089673,0.01066633,-0.001260327
0.7891953,0.5098717,0.367663,0.001831701,0.003897984,-0.002461245,-0.004646606,0.01148002,-0.001711941
0.7888763,0.5088839,0.3695221,0.001524119,0.002935117,-0.0006306244,-0.005467631,0.009363468,-0.001355521
0.7887675,0.5095015,0.3729454,0.001425365,0.003577415,0.002763449,-0.004252844,0.007539172,-0.0007939853
0.7891434,0.5075356,0.3735174,0.001809935,0.001635861,0.003305486,-0.004379026,0.005583788,0.001922471
0.7884206,0.5072743,0.3759179,0.001094561,0.00139823,0.005675298,-0.004539886,0.006865874,0.003697202
0.7881812,0.5068595,0.3755007,0.0008612204,0.001006394,0.005226699,-0.003682434,0.005773681,-0.001750957
0.7868722,0.5045485,0.3751468,-0.000443014,-0.001282425,0.004840377,-0.004086217,0.004524364,-0.005353657
0.7857917,0.5035303,0.3783293,-0.001519934,-0.002279244,0.007989502,-0.00431713,0.01087386,-0.001502128
0.7862397,0.5012202,0.3779172,-0.001069407,-0.004568572,0.007542771,-0.006564777,0.01124444,5.123755e-05
0.7868079,0.4995063,0.3774086,-0.0004997524,-0.006262284,0.00699825,-0.009576848,0.006973643,-0.0009808653
0.7874061,0.5007467,0.3781833,9.905497e-05,-0.005001946,0.007735338,-0.004856145,0.005186254,-0.0009411686
0.787214,0.5020974,0.3774669,-9.317003e-05,-0.003631248,0.006979606,0.001287812,0.00189092,-0.001244823
0.787685,0.5027557,0.3766613,0.0003769199,-0.002952893,0.006132801,0.001511576,-0.0008240933,-0.0007198929
0.7878918,0.5045856,0.3715837,0.0005821628,-0.001102711,0.001011999,0.001358065,-0.003570793,0.002125157
0.7879271,0.5074107,0.3659539,0.0006152945,0.001742983,-0.004662764,0.001327046,-0.0003715194,0.004086573
0.7895556,0.5065254,0.3675333,0.002240964,0.0008784467,-0.003129914,-0.001259964,0.005554124,-0.0007372565
0.7887264,0.5028776,0.3693478,0.001408262,-0.002748465,-0.001363079,-0.005298144,0.005769597,-0.007191426
0.7873768,0.5012329,0.3681,5.44813e-05,-0.004372207,-0.002659311,-0.007711217,0.009922278,-0.008004268
0.7866614,0.5040028,0.3715861,-0.0006658093,-0.001581184,0.0007778944,-0.006403298,0.01051922,-0.007081174
0.7841592,0.5100004,0.37627,-0.003173334,0.004437701,0.005412458,-0.003831916,0.002856394,-0.004224728
0.7828132,0.5115714,0.3751329,-0.004525164,0.006030092,0.004225852,-0.002971372,-0.002703457,-0.001006833
0.7815771,0.5104655,0.3744154,-0.005767188,0.00494527,0.003458408,-0.00344913,-0.01030548,-0.001941793
0.7816845,0.5106772,0.3754819,-0.005665646,0.005177577,0.004474564,-0.003412649,-0.01529984,-0.001408104
0.783315,0.5084804,0.3742567,-0.004040649,0.003000581,0.003198679,-0.00303559,-0.01423102,-0.0005037965
0.7825085,0.5058089,0.3728309,-0.00485191,0.0003478411,0.001721613,-0.003055976,-0.01535818,-0.001162329
0.7829959,0.5025205,0.3723086,-0.004368534,-0.002922879,0.001147695,-0.002743806,-0.01948729,0.001509862
0.7854005,0.5006852,0.3735328,-0.001966871,-0.004741472,0.002320023,-0.001123397,-0.02661455,0.002823218
0.7863311,0.5021054,0.3755712,-0.001038053,-0.003305348,0.004306126,0.00276108,-0.03232762,0.003168235
0.7845308,0.5012726,0.3779826,-0.002839125,-0.004122801,0.006665036,0.007132193,-0.03188474,0.005968924
0.7824396,0.5018315,0.3798566,-0.004929884,-0.003548815,0.008486205,0.008897784,-0.02976073,0.006239107
0.7848864,0.5029378,0.3777025,-0.002481318,-0.002427729,0.00627859,0.00802345,-0.0292913,0.005591535
0.7881384,0.5013762,0.3762099,0.0007737567,-0.003974545,0.004731793,0.004885941,-0.02691284,0.007786707
0.7890941,0.5022751,0.3731414,0.001733775,-0.003060879,0.001608139,0.0006083097,-0.02293999,0.00837756
0.7884223,0.5025403,0.3673572,0.001067412,-0.002780691,-0.004231806,-0.0006846632,-0.02226378,0.001682419
0.7866861,0.5030258,0.3699405,-0.0006623815,-0.002279792,-0.001704923,0.0008728915,-0.02071749,-0.003088213
0.7875537,0.507021,0.3715126,0.000212533,0.001731017,-0.0001894116,0.001084315,-0.01716107,0.0004798183
0.7885057,0.5089162,0.3644181,0.001172613,0.003642162,-0.00734042,8.500243e-05,-0.01539558,0.001875011
0.7892735,0.5077354,0.3611653,0.001949082,0.002477424,-0.01064924,-0.003275871,-0.01247994,0.001387701
0.7913682,0.506062,0.3633807,0.004053008,0.0008199428,-0.008489019,-0.008741699,-0.009619476,-0.0004619247
0.7902877,0.5059589,0.3655525,0.002982087,0.0007326244,-0.006370817,-0.00937619,-0.009999107,-0.006931706
0.7902251,0.5058582,0.3640089,0.002929084,0.0006474259,-0.007966071,-0.008293324,-0.01115328,-0.01097951
0.7910919,0.5050931,0.360467,0.003805469,-0.0001025886,-0.01155725,-0.009691988,-0.009476487,-0.008499539
0.7885348,0.5068287,0.3616053,0.001257587,0.001647772,-0.01046547,-0.007449733,-0.004216304,-0.002812198
0.7883216,0.5073278,0.3709632,0.00105313,0.002161163,-0.001150843,-0.004816556,0.002195349,-0.001659177
0.7875961,0.5067739,0.3798123,0.0003359776,0.001620986,0.007658258,-0.0041822,0.004391,-0.001642919
0.7850142,0.5081253,0.3693224,-0.002238072,0.002985506,-0.002868345,-0.001681024,0.001410578,-0.001582213
0.7862599,0.5077162,0.356377,-0.0009850113,0.002588802,-0.01584751,-0.001740857,0.0007610218,-0.005597645
0.7866722,0.5048747,0.3632031,-0.0005656957,-0.0002411686,-0.009051777,-0.00237543,0.001852844,-0.002707497
0.7868924,0.5019976,0.3649777,-0.0003387796,-0.003107515,-0.007303888,-0.0003601399,0.005266368,0.001767468
0.7898753,0.5039794,0.3598513,0.002650577,-0.001115807,-0.01245302,-0.000213637,0.01403344,0.001838181
0.7908256,0.5068639,0.3635133,0.003606944,0.001777918,-0.008809479,0.0007467257,0.01901568,0.004561448
0.7896849,0.5029656,0.3619989,0.00247178,-0.002111789,-0.01033778,0.003619213,0.01870678,0.003163087
0.7874364,0.5001247,0.3610172,0.0002282213,-0.004944636,-0.01132856,0.005993706,0.003911336,-0.0002225308
0.7853747,0.5009192,0.3693782,-0.00182909,-0.004142446,-0.002971759,0.008497445,-0.02000303,-0.001521264
0.7858779,0.5021872,0.3739804,-0.001322201,-0.002866906,0.001631192,0.00693088,-0.0156735,0.0004913475
0.7865547,0.5063322,0.3728824,-0.0006421065,0.001285612,0.0005385803,0.002430154,-0.002128575,0.00798624
0.7863097,0.5092147,0.3709315,-0.0008841733,0.004175538,-0.001402709,0.001549192,-0.006845092,0.00900919
0.7880958,0.5073377,0.3715455,0.0009044144,0.002305876,-0.000775033,0.003248575,-0.008444492,0.004505404
0.79184,0.5033437,0.3693419,0.004650811,-0.001680997,-0.002961278,0.005472905,-0.01118154,0.002869182
0.7940611,0.5019445,0.359859,0.006873559,-0.003073449,-0.0124233,0.005566447,-0.01103245,0.00462638
0.7945657,0.5034591,0.3537687,0.007379122,-0.001552268,-0.01848905,0.003930201,-0.003424499,0.007501868
0.7933852,0.5050759,0.3568284,0.006198595,7.110461e-05,-0.01540072,0.004028359,-0.009630147,0.004124734
0.7906543,0.5087038,0.3633643,0.003466385,0.003705391,-0.008831772,0.001926669,-0.009677756,0.0002285756
0.7899862,0.5108778,0.3621298,0.00279544,0.005885621,-0.01002851,-0.002620027,0.003970307,-0.002186044
0.7912286,0.509462,0.359679,0.004033633,0.00447568,-0.01243681,-0.009751692,0.01454819,-0.00709561
0.7920316,0.5091224,0.3653834,0.00483072,0.004141141,-0.006684918,-0.01648663,0.02478134,-0.005452665
0.7917613,0.5080191,0.3661026,0.004552977,0.003042219,-0.005913466,-0.01253241,0.02686809,-0.00124008
0.7906455,0.5052455,0.3685811,0.003427894,0.0002719156,-0.003378023,-0.009160266,0.02047719,-0.001173259
0.7883188,0.5041176,0.376169,0.001090082,-0.000853606,0.00427131,-0.01258557,0.01358742,-0.001070079
0.7851882,0.5039215,0.3723586,-0.002053301,-0.001048272,0.0005261997,-0.01109905,0.01619174,-0.0009282732
0.7864057,0.5020919,0.3685188,-0.0008501423,-0.002877242,-0.003244851,-0.009778283,0.02326899,-0.0002263194
0.788837,0.4999016,0.3718131,0.001565356,-0.005067574,0.0001212261,-0.008882471,0.01754073,-0.0006749687
0.7870262,0.5000581,0.3709709,-0.0002623891,-0.004911461,-0.0006465733,-0.004553078,0.01778397,-0.003269799
0.78717,0.5022593,0.3691278,-0.0001366558,-0.002710791,-0.002413013,-0.002825587,0.0209925,-0.004516461
0.7876137,0.5051886,0.3701218,0.0002878987,0.0002180427,-0.001340267,-0.0006459043,0.01654482,-0.00374608
0.7843018,0.5062102,0.3719404,-0.003043867,0.001239236,0.000558734,0.003052485,0.01740577,-0.0006765447
0.7826846,0.50536,0.3770944,-0.004681657,0.0003887517,0.005794468,0.006998828,0.006759998,0.005556418
0.784243,0.5054475,0.3796945,-0.003144259,0.000476109,0.00847718,0.01248205,-0.002036996,0.01231469
0.7889899,0.504808,0.3717684,0.001581561,-0.0001636216,0.0006340331,0.01462151,0.01713906,0.01173468
0.7931246,0.5010352,0.3651893,0.005695158,-0.003936573,-0.005862333,0.01106749,0.03869977,0.005878011
0.7902417,0.4973991,0.3681025,0.002791018,-0.007572602,-0.002866644,0.003905566,0.03712587,0.002744164
0.7844323,0.4997235,0.3709831,-0.003039879,-0.005247765,9.619903e-05,-0.0006405684,0.01654045,-0.0006675349
0.7816204,0.5054207,0.3724329,-0.005873331,0.0004505211,0.001627668,0.0001033795,-0.003122163,-0.0006002523
0.7832735,0.5088751,0.3761013,-0.004241751,0.003906742,0.005377168,-0.0006042967,-0.01067978,0.002638061
0.7884786,0.510262,0.3755526,0.0009422743,0.005296029,0.004908407,-0.002915873,-0.00261258,0.001097166
0.7917273,0.5075268,0.3718074,0.004170461,0.002563579,0.001241898,-0.004469941,0.006776833,0.00130162
0.789841,0.5028578,0.3718426,0.002263994,-0.002102542,0.001354077,-0.006570193,0.005328003,-0.0002913795
0.7865256,0.501603,0.3705104,-0.00107128,-0.003354395,9.692326e-05,-0.007104948,0.006905026,-0.007451194
0.7839974,0.50216,0.3712341,-0.003618969,-0.002794285,0.0008938504,-0.007666671,1.414786e-05,-0.01173941
0.7822793,0.5041456,0.3767123,-0.005356149,-0.0008052595,0.006443146,-0.0101055,-0.01250619,-0.01341706
0.782537,0.5064259,0.3756595,-0.005116802,0.001478876,0.005459121,-0.01125417,-0.009843493,-0.008908734
0.7821347,0.5089495,0.3737241,-0.005536503,0.004006552,0.003589896,-0.01111097,-0.005775502,-0.002212795
0.7814952,0.5120592,0.3757498,-0.006192114,0.007120454,0.005678997,-0.01004596,-0.003627221,-0.002123021
0.7832873,0.5093511,0.3749698,-0.004414724,0.004416423,0.004959333,-0.007633936,-0.004172439,-0.003888458
0.783605,0.5048079,0.3744584,-0.004110026,-0.0001230724,0.004505076,-0.003523392,-0.006071224,-0.005039551
0.783624,0.5044367,0.3746527,-0.004102283,-0.0004911735,0.004753016,0.00163266,0.001088775,-0.003882275
0.7862427,0.5031106,0.3738929,-0.001492884,-0.001814651,0.004043297,0.003471016,0.006533561,-0.002643454
0.787959,0.5022396,0.3743989,0.0002160387,-0.002683386,0.00459579,0.004735171,0.006302815,-0.0007690669
0.786993,0.5034453,0.3752317,-0.0007555468,-0.001475631,0.00547125,0.004719383,0.002820161,0.002786107
0.7852934,0.5044746,0.377415,-0.002458897,-0.0004444937,0.007693454,-4.415694e-05,-0.002235114,-0.0007269464
0.7866609,0.506061,0.3802041,-0.001093347,0.001143593,0.01051729,0.0008834138,-0.004127245,-0.003689657
0.7893305,0.5056879,0.3783355,0.001575907,0.0007721004,0.008679221,0.003160436,-0.003825304,-0.001891767
0.7905035,0.5041382,0.3757181,0.002750088,-0.0007761466,0.006087802,0.0008341249,-0.0004164665,-0.002716601
0.7907107,0.5047232,0.3763401,0.002959802,-0.0001897989,0.006731018,0.001925769,0.0001407065,-0.001979547
0.7885028,0.506771,0.3745926,0.0007555535,0.001859108,0.005000183,0.0002300979,-0.002694241,-0.000704042
0.7864183,0.5091332,0.3726169,-0.001324389,0.004222304,0.003036284,-0.0004909966,-0.004318484,-0.0006108642
0.7843806,0.5086118,0.3727283,-0.003356652,0.00370167,0.003154948,0.002033895,-0.008042526,0.0001551743
0.7830638,0.5062909,0.370782,-0.004667173,0.001380939,0.001211455,-0.00345845,-0.009655575,0.001437204
0.7856124,0.5052943,0.3685841,-0.002111257,0.0003840584,-0.0009878778,-0.005559971,-0.008698681,0.002381167
0.7863175,0.503647,0.3683552,-0.001397783,-0.00126415,-0.001222206,-0.002191971,-0.007364487,-0.000232174
0.787409,0.5037136,0.3716668,-0.0002967908,-0.001198956,0.002080358,-0.004534025,-0.002058247,-0.002981156
0.7901658,0.5050927,0.3759468,0.002470405,0.0001783248,0.006347932,-0.006866011,0.004079235,-0.005593059
0.7886543,0.5047949,0.375456,0.0009701946,-0.0001216592,0.005841435,-0.007106103,0.005564577,-0.007378237
0.7884488,0.50667,0.3741262,0.0007766937,0.001750848,0.00449257,-0.005583519,0.003174021,-0.004987254
0.7894685,0.5077241,0.3744411,0.001808941,0.002802096,0.004785151,-0.0007265906,0.002996993,-0.002534118
0.7885026,0.5060215,0.3734212,0.0008559612,0.001096224,0.003739699,0.00254695,0.004180073,0.001328521
0.7889922,0.5051653,0.3734016,0.001358813,0.0002362294,0.003691503,0.00150181,0.003898183,0.00170742
0.7886442,0.5030312,0.3747711,0.00102421,-0.001902044,0.005029333,-0.002826539,0.004131469,-0.001473756
0.7872554,0.5029003,0.3742123,-0.0003512079,-0.002037438,0.004435885,-0.004600239,0.002553064,0.001204523
0.7871824,0.5050396,0.3733029,-0.0004107096,9.694951e-05,0.003488905,-0.001967203,0.002203118,0.001081833
0.7876809,0.5042666,0.3728744,0.0001012121,-0.0006809868,0.003020114,-0.0009906198,0.004313799,0.0008024994
0.7880043,0.5047078,0.3697447,0.0004379925,-0.0002449321,-0.0001523802,8.467841e-05,0.002913088,0.004346451
0.7886422,0.5062122,0.3651989,0.001089145,0.001254319,-0.004743504,0.0006851961,-0.0012788,0.001579164
0.7890353,0.5054536,0.3647744,0.001495318,0.0004904078,-0.005215165,-0.001126596,-0.006163608,-0.0002794562
0.7859683,0.5050033,0.3687809,-0.001558789,3.477614e-05,-0.001257334,-7.492202e-05,-0.007021876,0.0009670786
0.7837285,0.5037985,0.3715715,-0.003786027,-0.001175419,0.001483542,-0.0002126467,-0.005422991,0.002062
0.7862474,0.501074,0.3732724,-0.001254693,-0.003905428,0.003133877,-0.001593982,-0.009695083,0.003035426
0.7883812,0.4999778,0.376802,0.0008915527,-0.005006926,0.006612132,-0.0003875847,-0.01314101,-0.001023501
0.7892514,0.5004734,0.3786918,0.001774055,-0.004516345,0.008449694,-0.001288525,-0.01137035,-0.004447545
0.7898115,0.5018002,0.37745,0.002346267,-0.003193932,0.007154717,-0.001718131,-0.00846004,-0.005645359
0.7920436,0.5042488,0.3755703,0.004590226,-0.0007491045,0.005220571,-0.0004747071,-0.002457685,-0.004025044
0.7951061,0.5053142,0.3750625,0.007664063,0.0003133779,0.004657153,0.001324079,0.005415595,0.0001018175
0.791274,0.5063541,0.3766649,0.003842502,0.001351079,0.006202742,0.00361977,0.009416294,-0.002476139
0.7864292,0.5090925,0.3784398,-0.000992783,0.004088004,0.007919399,0.0002129163,0.006991372,-0.003529759
0.7876911,0.5075885,0.3782395,0.000277668,0.00258292,0.007659455,-0.003783778,0.005353292,-0.0004457994
0.7877989,0.5039631,0.3779063,0.0003928438,-0.001043247,0.007265086,-0.001859848,0.006300953,-0.00030079
0.7869856,0.5044143,0.3785026,-0.0004138863,-0.0005924427,0.007798538,-0.001094964,0.003312412,0.002327054
0.7882821,0.5059893,0.3754165,0.000888118,0.0009823158,0.004647814,-0.002988316,0.002734364,0.004083227
0.7887914,0.5073838,0.3710553,0.001402131,0.002376768,0.0002203479,-0.00369921,0.002101453,0.002977424
0.7892347,0.5073788,0.3699813,0.001849258,0.002371833,-0.0009215267,-0.003952147,-0.002278696,0.003242221
0.7889163,0.506115,0.3679934,0.001533718,0.001108086,-0.002978583,-0.004026356,0.0006605511,0.002060133
0.7884698,0.5063796,0.3660334,0.001089146,0.00137271,-0.005008467,-0.00353925,0.003823081,-0.00236082
0.7893556,0.5054088,0.3669782,0.001975923,0.0004016892,-0.004134155,-0.002833667,0.00157374,-0.007001016
0.788696,0.5050427,0.369632,0.001316269,3.529221e-05,-0.001550646,-0.001916435,0.0005090794,-0.004403645
0.7887163,0.5061771,0.3717001,0.001335663,0.001169082,0.0004473359,-0.001582684,-0.002408091,-0.0005794204
0.788937,0.5050575,0.3708621,0.001554404,4.874178e-05,-0.0004601229,-0.0008817055,-0.006810672,-0.00408111
0.7863421,0.5045806,0.3708247,-0.001043393,-0.0004290593,-0.0005663301,-0.000188526,-0.009816813,-0.005156391
0.7839864,0.5042401,0.3728984,-0.003402904,-0.0007706841,0.001439476,-0.0009083616,-0.0105243,-0.002922415
0.7828116,0.5036726,0.3744231,-0.004582188,-0.001339436,0.002897207,-5.391758e-05,-0.01276802,0.0002821379
0.7843423,0.5047986,0.3757676,-0.003056412,-0.000214856,0.004175748,0.002264018,-0.01975185,0.006396083
0.786431,0.5049301,0.3772737,-0.0009728207,-8.468683e-05,0.005616742,0.00447273,-0.02205196,0.006133795
0.7864862,0.505629,0.3773805,-0.000922865,0.0006127799,0.005659175,0.00562315,-0.02015642,0.00276875
0.788923,0.5065568,0.3748211,0.001508653,0.001539216,0.003036014,0.004673294,-0.01942841,0.003105932
0.7911133,0.5077109,0.3727614,0.00369366,0.002691768,0.0009131427,0.004807518,-0.01474639,0.0001983365
0.7902193,0.5102492,0.3702981,0.002794297,0.005228355,-0.001612796,0.003679386,-0.01075445,-0.001215151
0.7888757,0.5074637,0.3675366,0.001445057,0.002440799,-0.004436178,0.001177561,-0.01440119,0.002318183
0.7877829,0.5038007,0.372223,0.0003462758,-0.001224718,0.000189185,0.00148416,-0.01726492,0.004200841
0.7875198,0.5056926,0.3769789,7.685945e-05,0.0006641597,0.004885256,0.0003131562,-0.01076814,0.005226671
0.7884003,0.5052153,0.3726809,0.0009506527,0.0001833236,0.000528497,-0.0006061829,-0.002194051,0.004498478
0.7902715,0.5032451,0.3684352,0.002814916,-0.001790747,-0.003774853,0.0001866187,-8.62826e-05,0.003126235
0.790453,0.5038504,0.366665,0.002989146,-0.001189655,-0.005601374,-0.001010884,-0.002149886,0.004117816
0.7890912,0.5017352,0.3635222,0.001619511,-0.003309316,-0.008798996,-0.0004361981,-0.006650484,0.004267782
0.7887934,0.4991934,0.3632387,0.001313467,-0.005855704,-0.009135317,0.0001907869,-0.01493349,0.00512177
0.7887152,0.5016715,0.3647438,0.001226402,-0.00338192,-0.007680704,-5.12434e-05,-0.02187159,0.00668813
0.7890597,0.5039385,0.365049,0.001561564,-0.001118955,-0.007423196,0.001701154,-0.01497267,0.008175101
0.7889089,0.5025613,0.3680864,0.001400853,-0.00249964,-0.004430392,0.001191543,-0.004267925,0.01026544
0.7888622,0.5025661,0.3710724,0.001343736,-0.002497799,-0.001485731,-0.0003738609,-0.008494233,0.006224914
0.7900448,0.5041302,0.3704965,0.002515236,-0.000935992,-0.00209958,-0.001305159,-0.01054125,0.0002474468
0.7903709,0.5044019,0.3693417,0.002829775,-0.000665784,-0.003289024,-0.002096583,-0.006918562,0.001276653
0.7907622,0.5047438,0.3660825,0.003208734,-0.0003247677,-0.006579585,-0.0008663679,-0.0108065,0.002956634
0.7919845,0.5040563,0.3638044,0.004418048,-0.001012459,-0.008885659,-0.0007287226,-0.009998236,0.002474564
0.7935004,0.5022233,0.3656847,0.005920044,-0.002844982,-0.007029597,-0.000279465,-0.008685111,0.002981985
0.7933176,0.5030384,0.3647078,0.005722407,-0.00202867,-0.008026988,0.0009173446,-0.01207913,0.003820081
0.7913542,0.5058913,0.3629346,0.003742977,0.0008262043,-0.00981666,-0.0001138866,-0.01228305,0.006349956
0.7907923,0.5072201,0.3643047,0.003163731,0.00215777,-0.008458751,0.001382602,-0.01602249,0.008364772
0.7902297,0.5052106,0.3639682,0.00258247,0.0001516191,-0.008803064,0.003106845,-0.0190535,0.006981224
0.79104,0.5023035,0.3633874,0.003372681,-0.002751595,-0.009387203,0.002440249,-0.0177913,0.005795693
0.7931596,0.5024551,0.3622551,0.00547094,-0.0025956,-0.01051799,0.00354244,-0.0145823,0.002859581
0.7918438,0.5035814,0.3577425,0.004132383,-0.001464273,-0.01502422,0.002671224,-0.007588019,-0.001637147
0.789527,0.5043116,0.3578065,0.001791323,-0.0007283682,-0.01494868,0.0001444928,-0.003830498,2.513418e-05
0.7889122,0.5059191,0.3639887,0.001150851,0.0008853672,-0.008749392,-1.929993e-07,0.0008284189,0.002006955
0.7913622,0.505049,0.3648441,0.003573741,2.217456e-05,-0.007871305,0.0001597264,0.00666783,-0.0009614318
0.7943827,0.5032707,0.3613182,0.006565769,-0.001748704,-0.01136893,-0.0002509829,0.008729638,-0.001878374
0.7928444,0.5043975,0.3618629,0.004997592,-0.0006140598,-0.01079013,-0.003050046,0.01578181,-0.00216044
0.7915485,0.5042653,0.3622401,0.003670367,-0.000737893,-0.01037321,-0.005730264,0.01909082,-0.003013354
0.7919662,0.5026734,0.3645809,0.004055118,-0.002320973,-0.007986961,-0.002917189,0.01442022,-0.001909588
0.7913335,0.501904,0.3703278,0.003388001,-0.00308102,-0.002188918,-1.771214e-05,0.01249878,-0.0002400874
0.7917805,0.5009477,0.3683452,0.00379901,-0.004027381,-0.004115083,-0.0005447187,0.009477211,0.001556484
0.7918051,0.5013616,0.3669125,0.003786074,-0.003602838,-0.005486271,0.0001527746,0.00917702,-0.001643124
0.7910513,0.5018811,0.3711655,0.002993338,-0.003071922,-0.001167121,0.0001240894,0.01149414,-0.007808654
0.7897414,0.5019609,0.3708807,0.001643037,-0.002979868,-0.001381413,-0.00406429,0.006773006,-0.007676665
0.7864738,0.5032055,0.3705703,-0.001666313,-0.001722063,-0.001617284,-0.006422351,0.003324353,-0.002826048
0.7854729,0.5029268,0.3702361,-0.002710133,-0.001986658,-0.001873448,-0.002395154,0.003712709,0.001548729
0.7873447,0.5024007,0.36868,-0.0008819856,-0.002497606,-0.003348411,0.002156402,0.004897577,0.001055942
0.7876666,0.5030709,0.370528,-0.0006043692,-0.001811361,-0.001416512,0.001820033,0.009397713,-0.0005994973
0.7865062,0.5026927,0.3729838,-0.001809393,-0.002172577,0.001125731,0.001982628,0.01152563,0.001219728
0.7866712,0.5026859,0.3744801,-0.001689175,-0.002161378,0.002710598,0.005275568,0.00914516,-0.0005261245
0.7905408,0.5027672,0.3685731,0.002135672,-0.002061232,-0.003106222,0.004326703,0.004294703,-0.001871737
0.7944391,0.5017385,0.3605772,0.005989367,-0.003070131,-0.01101059,0.002279934,0.001403574,0.00168435
0.7925524,0.5011848,0.3638326,0.004058185,-0.003603147,-0.007662471,0.002828433,0.004535682,0.0004520345
0.7905419,0.5012967,0.3665462,0.002003181,-0.00346946,-0.004854701,0.00141634,0.005256103,-0.002867867
0.793057,0.5015278,0.3643603,0.004473545,-0.0032156,-0.006944987,0.003415637,0.002298276,-0.002439111
0.793093,0.5013682,0.3665419,0.004464851,-0.003351461,-0.004666591,0.00500377,0.002681528,-0.00315212
0.7898707,0.5014666,0.3673144,0.001197489,-0.00322811,-0.003795964,0.001302905,0.004447141,-0.004137255
0.78922,0.5024183,0.3658906,0.0005016092,-0.002250458,-0.005120588,0.0002468583,0.008351697,-0.005616561
0.7930311,0.5029664,0.3661256,0.004267372,-0.001675257,-0.004785417,-0.00154252,0.01425103,-0.009078798
0.7971123,0.5030573,0.3649536,0.008303059,-0.001556169,-0.005856364,-0.001685958,0.01303969,-0.007836381
0.7930847,0.5037206,0.3647949,0.004229547,-0.0008637655,-0.005913066,0.001671435,0.00729954,-0.00573021
0.786985,0.5051534,0.3652638,-0.001916411,0.000599143,-0.005341437,0.000479259,0.005723046,-0.007716376
0.7882017,0.504982,0.3652014,-0.0007462878,0.0004584493,-0.005300345,-0.001154367,0.004774529,-0.006211774
0.7894047,0.5027616,0.3680853,0.0004098208,-0.001730537,-0.002312334,-0.002677993,0.005484732,-0.002885042
0.7890629,0.50236,0.3689195,2.123008e-05,-0.002100344,-0.001373512,-0.003805426,0.009534661,-0.002491517
0.7908101,0.5030564,0.3673559,0.001721659,-0.001371586,-0.002832147,-0.003068272,0.009814404,-0.003625494
0.7918482,0.5027029,0.368626,0.002713235,-0.001692245,-0.001456897,-0.003369816,0.008580722,-0.004763831
0.7911399,0.5029156,0.3705491,0.001958445,-0.00144647,0.0005712079,-0.0004326555,0.007473597,-0.005387284
0.7895785,0.5037401,0.373742,0.0003508452,-0.0005883674,0.00386876,0.002777719,0.003084492,-0.006644031
0.7900397,0.504386,0.3757566,0.0007660785,9.126544e-05,0.005987278,0.004058885,0.0002713461,-0.003060791
0.7899294,0.5041249,0.3721171,0.0006100739,-0.0001358956,0.002450451,0.005430853,0.001328017,0.00302025
0.7882278,0.5030519,0.3695569,-0.001136848,-0.001174814,-8.529304e-06,0.003713297,0.004291433,0.004035848
0.7899485,0.5026128,0.3710228,0.0005390529,-0.001579755,0.0015567,0.002440186,0.007316735,0.00328355
0.7908528,0.5027117,0.3712239,0.001399136,-0.001446785,0.001855142,0.002914292,0.007481442,-5.516355e-05
0.789761,0.5028647,0.3704577,0.00026374,-0.001259684,0.001184011,0.002781708,0.006513331,-0.002619138
0.7897048,0.5027884,0.3700452,0.00016449,-0.001302002,0.0008642555,0.001759987,0.006172637,-0.002863462
0.7892858,0.5025084,0.3675655,-0.000296735,-0.001548036,-0.001525241,0.0006205771,0.004240692,-0.005188608
0.7895406,0.5019793,0.3669744,-8.339534e-05,-0.00204323,-0.002028735,0.001516982,0.002322172,-0.005756261
0.7889943,0.501614,0.3698732,-0.0006703932,-0.002374709,0.0009552291,0.001309216,0.004091649,-0.007555209
0.7883596,0.5044628,0.3669104,-0.001344753,0.0005078422,-0.001925081,-0.0005644394,0.006663822,-0.008375069
0.7892908,0.5093403,0.3625781,-0.0004522909,0.005418956,-0.006177323,-0.002415729,0.008173052,-0.004181003
0.788478,0.510681,0.365262,-0.001302787,0.006792894,-0.003415776,-0.003709898,0.01051063,-0.001103921
0.7868898,0.509062,0.3666756,-0.002927418,0.005206444,-0.001926795,-0.001605246,0.009442551,0.001387153
0.7858476,0.507742,0.3686457,-0.00400483,0.003917903,0.0001165881,0.00142378,0.005979581,0.00229459
0.7857079,0.5066843,0.3735927,-0.004178237,0.002890393,0.005134766,0.002976235,0.006069075,0.00182688
0.7865623,0.5058829,0.3761399,-0.003355883,0.002117764,0.007750821,0.001770677,0.007350891,0.001131885
0.7859965,0.5035591,0.3779538,-0.003951906,-0.0001787991,0.009630848,-0.002991509,0.01116009,0.0002316998
0.7860673,0.4988098,0.3718297,-0.00390936,-0.004902337,0.003569959,-0.00632809,0.01663066,0.001295218
0.7873513,0.4964045,0.36475,-0.00265155,-0.007283332,-0.003449913,-0.005924439,0.01511304,-8.872943e-05
0.7877008,0.4967394,0.3690062,-0.002326121,-0.006925101,0.0008629125,-0.001608162,0.01028315,-0.0008037263
0.7885446,0.4994283,0.370774,-0.001504098,-0.004213685,0.002684165,0.002963092,0.007836857,0.0004672705
0.7890948,0.5063916,0.3707806,-0.0009734679,0.002771798,0.002741013,0.002862206,0.005092711,-0.001218891
0.7886969,0.5082071,0.3747813,-0.00138879,0.004608891,0.006788723,0.00153068,0.004145821,-0.0006376422
0.7880163,0.5032408,0.3769984,-0.002084652,-0.0003362729,0.009049555,-0.0004991779,0.004535355,0.003394338
0.787138,0.5024193,0.3783559,-0.00297617,-0.001137379,0.01044704,-0.002489188,0.003546249,0.006995786
0.7876655,0.5046674,0.3759239,-0.002459655,0.001130375,0.008051212,0.0009204886,0.005168555,0.005647093
0.7884054,0.5058263,0.3738592,-0.001728675,0.002308232,0.006018287,0.005222724,0.006784244,0.001117545
0.7880822,0.5040741,0.3747962,-0.002058714,0.0005741915,0.006982825,0.003763608,0.005044332,0.001515265
0.7874374,0.5013618,0.3713945,-0.002708237,-0.002120778,0.003604045,0.0005191296,0.004002867,0.001956942
0.7868117,0.5019682,0.3689016,-0.003336655,-0.001497921,0.001129739,-0.000289705,0.001982704,-0.001189674
0.7859818,0.5006352,0.3727858,-0.004167156,-0.002815064,0.005028112,-0.0002524958,-0.002173649,-0.001644344
0.7847192,0.4995693,0.3762224,-0.005428123,-0.00386566,0.008474644,0.001018532,-0.005853153,0.0001247881
0.787319,0.503381,0.3724621,-0.002824657,-3.916375e-05,0.004719882,0.001083913,-0.006431189,-0.0008557819
0.7921796,0.5056692,0.3691167,0.002041873,0.002263507,0.001375779,-0.002561314,-0.001229086,-0.002781831
0.7918114,0.5048243,0.373021,0.001681706,0.001432752,0.005277263,-0.00464772,0.006149159,-0.003347835
0.7891996,0.502797,0.3757667,-0.0009202533,-0.0005809787,0.008015928,-0.005148796,0.01147684,-0.004969663
0.7877162,0.5026231,0.3743315,-0.002392149,-0.0007418043,0.006569704,-0.004009406,0.01020979,-0.003439923
0.7869505,0.5049884,0.3700975,-0.003144661,0.001636143,0.00232056,-0.0008522146,0.004369591,-0.0003495415
0.787756,0.5059233,0.3679169,-0.002324513,0.002583056,0.0001208538,-0.00200543,0.003229328,-0.001718929
0.7877801,0.505541,0.3721838,-0.002284178,0.002212221,0.004364857,-0.003787604,0.003809883,-0.002708364
0.7881097,0.5046126,0.3729082,-0.001936797,0.001294566,0.005062834,-0.002586148,0.004490891,-0.004173972
0.7890692,0.5049506,0.3705508,-0.0009581765,0.001642569,0.002675689,-0.001582,0.005171366,-0.004602344
0.7870856,0.5068617,0.3717714,-0.002921106,0.003562782,0.003863082,-0.0002703375,0.002553283,-0.0008793011
0.7856781,0.5068819,0.3743071,-0.004306656,0.003591093,0.006362486,-0.0004716614,0.002996403,0.0007768636
0.7879267,0.5051143,0.378447,-0.002034781,0.001830659,0.01046302,-0.001279746,0.003897683,0.001935545
0.7897315,0.5035193,0.3787165,-0.0002053445,0.0002415847,0.0106899,-0.001001675,0.002073356,0.002935259
0.7887137,0.5038308,0.3764422,-0.001197315,0.0005579033,0.00836963,-0.0007743271,0.00157963,0.002491805
0.7875709,0.5037605,0.3771298,-0.002313077,0.0004913709,0.00900779,0.0003868236,-0.001359848,0.003658852
0.7875829,0.5021431,0.374412,-0.00227305,-0.00112331,0.006237006,0.00103385,-0.002942713,0.004521983
0.7873238,0.5030905,0.3724477,-0.002503065,-0.0001741391,0.004216129,0.001299528,0.0002816304,0.004127949
0.7875313,0.5047736,0.3747189,-0.002265403,0.001509793,0.006427475,0.001391155,7.656826e-05,-0.001131759
0.7878371,0.5055524,0.3762321,-0.001928563,0.002288577,0.007877402,-0.0004424093,-0.004671577,-0.007490339
0.7881617,0.5073158,0.3784119,-0.001572043,0.004051096,0.009990814,-0.0009302074,-0.00682688,-0.002837871
0.7893203,0.5076441,0.3781525,-0.0003806157,0.004377614,0.009661683,0.001176882,-0.00615166,0.003048392
0.7889885,0.5054309,0.3760704,-0.000678837,0.002161435,0.007506463,0.001850688,-0.008317446,0.0001725364
0.7880173,0.5050724,0.3758304,-0.001615836,0.001798771,0.007190045,0.000279536,-0.01210541,0.000102901
0.7864955,0.5089038,0.3727818,-0.003102896,0.005624767,0.004061878,-0.0006765633,-0.01544089,0.004849407
0.7845105,0.5098375,0.3695918,-0.005052592,0.006551827,0.0007891264,-0.0001591673,-0.01915175,0.007472447
0.7879116,0.5048661,0.3704863,-0.001615605,0.001572268,0.001598088,0.0005595137,-0.02042755,0.007235163
0.7919675,0.5016152,0.3703707,0.002476781,-0.001688367,0.001394606,0.000831036,-0.01891249,0.004083685
0.7893531,0.5032439,0.3679526,-0.0001006469,-7.067863e-05,-0.001113486,0.001317583,-0.01749393,0.003038571
0.7881056,0.5053216,0.3675792,-0.001310792,0.001994627,-0.001578536,0.002682314,-0.01534069,0.004809517
0.79132,0.5030589,0.369354,0.001941041,-0.0002816223,0.0001034514,0.003875526,-0.01344705,0.004080942
0.7916876,0.499101,0.3723818,0.002346072,-0.004254034,0.003037431,0.003441313,-0.01551243,0.004033754
0.7888192,0.497019,0.376619,-0.0004849496,-0.006351513,0.00718015,0.0008501169,-0.0162336,0.002871032
0.7868487,0.4979964,0.3773674,-0.002418362,-0.005389948,0.007833547,-0.001640903,-0.01264364,-0.0003910056
0.788425,0.5017139,0.376174,-0.000805317,-0.001688545,0.006544464,-0.001044872,-0.007280166,0.00198712
0.7916231,0.5010566,0.3762437,0.002429309,-0.002361738,0.006517679,0.0005522993,-0.001254974,0.003458261
0.7919726,0.5006325,0.3717992,0.002814792,-0.002801425,0.001976101,-0.0001984203,-0.00160636,-0.001278548
0.7915264,0.5035988,0.3649964,0.002404033,0.0001496481,-0.004924489,-0.002430779,-0.0007954955,-0.003570548
0.791784,0.5021325,0.3606432,0.002696145,-0.001331353,-0.009375524,-0.00413087,0.005200267,-0.001786364
0.7913287,0.5018233,0.3600307,0.002274453,-0.001654791,-0.01008549,-0.003953321,-0.001043287,0.0001799374
0.7909081,0.5019046,0.3632584,0.001886366,-0.001587042,-0.00695419,-0.00113428,-0.009092785,0.0005746526
0.789984,0.5013314,0.3617039,0.0009935644,-0.002173072,-0.008603265,0.002383928,-0.005958477,0.001416927
0.790055,0.503914,0.3604346,0.001094544,0.0003974671,-0.009964888,0.003957306,-0.004692774,0.002684824
0.790683,0.5022382,0.3676173,0.001751091,-0.001289663,-0.002871736,0.0007505177,-0.003033556,0.0004859327
0.7899924,0.5004376,0.3711047,0.001087751,-0.003100703,0.0005293146,-0.004214864,-0.00018292,-0.001681379
0.7903247,0.5004504,0.3694438,0.001445783,-0.003097518,-0.00121464,-0.00214537,-0.007267745,-0.000532001
0.7900735,0.5001931,0.3696656,0.00121891,-0.003363453,-0.001072546,0.001330238,-0.01489811,0.002272037
0.7882559,0.5036113,0.3695815,-0.0005759522,4.727372e-05,-0.001233086,0.0005451253,-0.01235544,0.004196859
0.7873329,0.5048599,0.3685524,-0.001477639,0.001289533,-0.002335296,0.001502617,-0.01066199,0.003310227
0.7882655,0.504811,0.3683167,-0.0005251208,0.001235261,-0.002640559,0.001453215,-0.01270434,0.002864459
0.7909788,0.5022517,0.3693683,0.002206872,-0.001328473,-0.001655126,0.001030029,-0.007273891,0.002039166
0.7932449,0.4954008,0.3694232,0.00449031,-0.008182855,-0.001662914,0.001480254,0.00102361,-0.0001116745
0.7942269,0.4958104,0.3691646,0.00548816,-0.007775656,-0.001980657,-0.000895559,0.003319001,-0.0004408127
0.7914274,0.5010491,0.3688936,0.00270296,-0.002537991,-0.00230718,-0.0009224837,-0.002231014,-0.003111664
0.7870686,0.5037916,0.3668527,-0.001643165,0.0002050721,-0.004400199,-0.0006046722,-0.01042226,-0.005051145
0.7890945,0.5030455,0.3665253,0.000393617,-0.0005391082,-0.004776077,-0.001407044,-0.007047494,-0.0001088099
0.7917654,0.4999725,0.3686016,0.003073949,-0.00360863,-0.00274446,-0.0003928415,-0.002157469,0.001045425
0.7912813,0.4999043,0.372153,0.002597615,-0.003672083,0.0007658326,-0.001635077,-0.003263213,-0.001874737
0.7921626,0.5007918,0.3718632,0.003485135,-0.002778222,0.0004386095,-0.001701168,0.002296188,0.001821717
0.7911947,0.5033062,0.3670431,0.00252177,-0.0002560521,-0.004415449,0.0005653557,0.002343798,0.003364316
0.789179,0.5066968,0.3668727,0.0005089186,0.003143775,-0.004616391,0.001620953,-0.003216725,0.0001363532
0.7870996,0.5038682,0.3651464,-0.001569351,0.0003256266,-0.006369751,0.001985412,-0.005078258,0.0008070341
0.7849364,0.5014728,0.3631915,-0.003732841,-0.002058229,-0.008348229,0.002256607,-0.01146059,0.001516804
0.7867694,0.5031771,0.369749,-0.001901461,-0.0003413953,-0.00181049,0.005008316,-0.01210131,0.004266818
0.7883191,0.503003,0.3748194,-0.000354441,-0.0005019929,0.003243858,0.005638017,-0.009571474,0.008432263
0.7889558,0.5020815,0.3753273,0.0002787464,-0.001409104,0.003739248,0.002132927,-0.01269039,0.006390728
0.7904852,0.5011519,0.3721242,0.001803699,-0.002323586,0.000526784,0.0007389088,-0.01214274,0.003556368
0.7899926,0.4996815,0.3684029,0.001305936,-0.003777987,-0.003201087,0.00129062,-0.01223423,-0.0005231345
0.790414,0.5005366,0.3687817,0.001721309,-0.002906106,-0.002826161,0.00272098,-0.009824321,-0.005699804
0.7906711,0.5021849,0.3650852,0.001971538,-0.001239988,-0.006523808,0.003504117,-6.411856e-05,-0.003179619
0.7907134,0.501287,0.3608747,0.00200619,-0.002119285,-0.0107327,0.002612073,0.00741102,0.0003846595
0.7925506,0.5011874,0.3630212,0.003834845,-0.002199311,-0.008581521,-5.794749e-05,0.007825338,-0.001316776
0.7924789,0.5027396,0.3667696,0.003753741,-0.0006268045,-0.004825363,-0.003387618,0.00515596,-0.001605048
0.7930032,0.5027989,0.3688819,0.004267503,-0.0005462643,-0.00270201,-0.0009467623,0.007746933,-0.001273226
0.7937701,0.5026744,0.3680257,0.005022833,-0.0006488294,-0.003543927,0.002212187,0.007974685,-0.002515237
0.7934192,0.5019089,0.3667918,0.004659055,-0.001391671,-0.004760339,0.0006329194,0.004518677,-0.001529698
0.7945868,0.5009371,0.3665487,0.005812383,-0.002340206,-0.004982966,0.001115097,0.003445658,-0.001911296
0.7928705,0.5020542,0.3662528,0.004080389,-0.00119928,-0.005255262,0.001406685,-0.00110057,-0.003525677
0.7906142,0.5041177,0.3650178,0.001806749,0.0008886072,-0.006463722,-0.001335345,0.00456079,-0.002540803
0.792045,0.5055608,0.3633851,0.003218696,0.002356526,-0.008066789,-0.002710222,0.01598414,-0.002633208
0.7928262,0.5024029,0.3650149,0.003979416,-0.0007763239,-0.006404247,-0.002774371,0.01493664,-0.00200865
0.7930309,0.498195,0.3677362,0.004162071,-0.004958805,-0.00364706,-0.002709469,0.01431816,-0.001098392
0.7927604,0.5010204,0.3684419,0.003867884,-0.0021079,-0.002902439,-0.002650946,0.01393766,-0.00243266
0.7901887,0.506282,0.3680995,0.001270883,0.003179573,-0.003202923,-0.002117646,0.01237985,-0.002728879
0.7884495,0.5091967,0.3669436,-0.0004951644,0.006120212,-0.004314192,-0.001285202,0.01518771,-0.002902345
0.7904513,0.5091767,0.3637379,0.001478416,0.006126054,-0.007472527,-0.0007561112,0.01450183,-0.001697021
0.7925444,0.5073606,0.3602802,0.003541908,0.004335296,-0.01088026,0.001108707,0.01222056,0.0008645042
0.7905591,0.5079751,0.3635134,0.001525913,0.004974336,-0.007594313,0.003826749,0.008191166,0.002208125
0.7885856,0.5058607,0.3690458,-0.0004795011,0.002883449,-0.002006351,0.005512467,0.005921178,0.002611187
0.7890059,0.5006195,0.3683238,-9.210579e-05,-0.002335395,-0.002670077,0.004669055,0.009230652,0.0006700591
0.7891802,0.5000889,0.366752,4.844262e-05,-0.002844877,-0.004180995,0.00124911,0.009016774,-0.001499285
0.7906267,0.5003581,0.3649762,0.001460409,-0.00255564,-0.005893555,-0.0008523049,0.01224049,-0.002860296
0.7918324,0.5011802,0.3615395,0.002631039,-0.00171437,-0.009264683,-0.0007116866,0.01731745,-0.00270296
0.7890233,0.5056489,0.365234,-0.0002136764,0.002772654,-0.005502271,-0.000710264,0.0140386,-0.001505282
0.7863733,0.5079349,0.3740359,-0.002899768,0.005076146,0.003369756,-0.0009875439,0.01081555,-0.002717228
0.7873886,0.5069387,0.3782802,-0.001920757,0.004096354,0.007686154,-0.0007515884,0.008051978,-0.002490795
0.7881095,0.5051935,0.3768545,-0.001236279,0.00236649,0.006334055,-0.0004178468,0.006523244,-0.003470923
0.7872706,0.5036644,0.3725422,-0.00211136,0.0008514102,0.002096001,-0.001080875,0.005161578,-0.006149386
0.7885484,0.5020342,0.3696272,-0.0008694617,-0.0007662248,-0.0007443059,-0.001266017,-0.001276282,-0.003435389
0.7907276,0.500363,0.3686983,0.001274359,-0.002425955,-0.001598482,-0.000399374,0.0002558987,-0.002319248
0.792458,0.4990111,0.3679199,0.002969831,-0.003767613,-0.00230237,0.0001248637,0.006020809,-0.003327341
0.7954565,0.4969632,0.3680849,0.00593394,-0.005806177,-0.002063043,0.0002539817,0.006189635,-0.001429607
0.796011,0.4977608,0.3702262,0.006454223,-0.004999878,0.000152359,0.0001392228,0.007226338,-0.002558446
0.792521,0.5013596,0.3760924,0.002930188,-0.001392645,0.006092063,0.001486186,0.004602085,-0.005168628
0.7890206,0.5044991,0.3800114,-0.0006043349,0.001754996,0.01008377,0.00279478,0.002738722,-0.005064719
0.7883166,0.5058885,0.3739412,-0.00134248,0.003152307,0.004085029,0.001800443,0.004876838,-0.00333716
0.7901273,0.5039896,0.366245,0.0004342617,0.001260914,-0.003541495,0.00161403,0.00371131,-0.001358609
0.7904903,0.503088,0.3674102,0.0007633872,0.000366557,-0.002308293,0.001703194,0.007630947,-0.003293534
0.7891664,0.5029983,0.3700981,-0.0005940648,0.0002835793,0.0004456358,-0.0005378937,0.01210924,-0.005351534
0.7886906,0.5032959,0.3711118,-0.001103172,0.0005873493,0.001523683,-0.003637966,0.009968626,-8.794873e-05
0.7887715,0.5059418,0.3763668,-0.001055031,0.003239036,0.006841139,-0.004544332,0.01028906,0.00407343
0.7887218,0.5056819,0.3770276,-0.001137035,0.002984314,0.007562144,-0.003412478,0.01069217,0.001446289
0.7870431,0.5050626,0.373375,-0.002847374,0.002369546,0.003967364,-0.003134831,0.008345415,0.0005305957
0.7854594,0.504894,0.3755775,-0.004461882,0.002204681,0.00622488,-0.0005419577,0.004265749,0.001984614
0.7860841,0.5026109,0.3763742,-0.003866967,-7.554217e-05,0.007073648,0.002841655,-0.0005424378,0.001474955
0.7869082,0.5026324,0.3751805,-0.003071345,-5.198766e-05,0.005928661,0.00104418,-0.0003486105,0.0001962208
0.7888143,0.5028799,0.3735301,-0.001192491,0.0001967579,0.004323614,0.0005356419,0.00140694,-0.0005590338
0.7919685,0.5026664,0.3692841,0.001936028,-1.63103e-05,0.0001193604,0.002111196,0.001007885,-0.0001327571
0.7920085,0.5026049,0.3704142,0.001951671,-7.798449e-05,0.001287585,0.001792728,0.001894095,0.002051795
0.7892859,0.5007661,0.3720094,-0.0007939331,-0.001917621,0.002917408,0.002902419,0.002480882,0.004290982
0.7884371,0.4999867,0.369965,-0.001664452,-0.002698403,0.0009042958,0.001727846,0.002198629,0.003309301
0.7891529,0.5018819,0.3710178,-0.0009692092,-0.0008049724,0.001984976,0.0003078474,0.003896376,-0.0005403884
0.7896258,0.5054282,0.3717118,-0.0005154613,0.002739216,0.002703638,0.002141086,0.004178461,-0.003443364
0.789691,0.5063061,0.3730023,-0.0004681611,0.003614796,0.00401555,0.001584801,0.00215336,-0.003907202
0.7886523,0.5047047,0.375835,-0.001523558,0.002010533,0.006866332,0.001032315,0.001698311,-0.002941911
0.7885986,0.50393,0.3730755,-0.001592618,0.001232557,0.004121688,0.0004462774,0.0007176603,-0.0001147862
0.7892649,0.5024691,0.3691283,-0.000940366,-0.0002321863,0.0001860054,-0.0013621,-0.001563561,0.002843689
0.7886983,0.5034688,0.369598,-0.001519672,0.0007631126,0.0006639068,-0.00336472,-0.00319567,0.002221147
0.7888569,0.5061228,0.3713369,-0.001372469,0.003412174,0.002407928,-0.005852537,-0.003119981,0.0006263998
0.7892274,0.5062796,0.3727332,-0.001012049,0.003563447,0.003806324,-0.004025823,-0.002509125,-0.001248004
0.7896121,0.5064135,0.3726652,-0.0006361932,0.003691159,0.003737512,-0.002740116,-0.005782038,-0.003445561
0.7902964,0.5062255,0.3731567,4.068958e-05,0.003496253,0.00422534,-0.002210326,-0.01024394,-0.001646614
0.7882276,0.5060532,0.3768347,-0.002034412,0.003315988,0.007896809,0.001250683,-0.01298317,0.0004997205
0.7849064,0.5065291,0.378947,-0.00536062,0.003783018,0.009999503,0.002013742,-0.01662528,0.002792632
0.784145,0.5058856,0.3776219,-0.006125568,0.00312959,0.008661522,0.003328409,-0.02263327,0.008916497
0.7854328,0.5055421,0.374722,-0.004839903,0.002774893,0.005745498,0.002804438,-0.02778953,0.01367803
0.7878894,0.5054479,0.3711856,-0.002383774,0.002668434,0.002189534,0.002276165,-0.0251445,0.01507702
0.7916657,0.5047877,0.3717954,0.001393888,0.00199473,0.002776371,0.004928306,-0.02040565,0.01335001
0.794588,0.5021979,0.3750734,0.004319086,-0.0006097941,0.006028215,0.001768874,-0.01861774,0.009477079
0.7954987,0.4986965,0.374622,0.005234164,-0.004127039,0.00554748,0.0002487899,-0.01473536,0.004421896
0.7955875,0.4999934,0.3720161,0.005328324,-0.002846815,0.00290916,-0.001752782,-0.01287927,-0.001148675
0.7930792,0.5027339,0.3689811,0.002826044,-0.0001235367,-0.0001613132,-0.004956929,-0.01336272,0.0002678861
0.7896468,0.5025171,0.3664426,-0.0005999088,-0.0003580514,-0.002737945,-1.311799e-06,-0.01290551,0.004145482
0.7901075,0.502135,0.3650203,-0.0001323289,-0.0007582189,-0.004200778,-0.0006182249,-0.01176773,0.002018404
0.9729545,0.2085355,0.2353017,0.005086961,0.01348423,-0.02565383,-0.1081234,0.01595311,-0.2337882
0.9700376,0.2193927,0.2353562,0.001367197,0.02441286,-0.02346189,-0.1129779,0.03598731,-0.2408639
0.9667702,0.2169314,0.2346718,-0.002675148,0.02199813,-0.02206451,-0.1223038,0.03584699,-0.2351229
0.9706799,0.2148564,0.2426714,0.0004877549,0.01994534,-0.01203944,-0.1262181,0.02621074,-0.2234189
0.9673788,0.2076746,0.2550244,-0.003532082,0.0127621,0.002282067,-0.1044267,0.02469032,-0.2254929
0.9681046,0.1990943,0.2625843,-0.003496803,0.004157496,0.01175264,-0.08428022,0.005676893,-0.2243693
0.9727839,0.2074595,0.2579819,0.0005200471,0.01247696,0.009001596,-0.0901155,-0.007966715,-0.2289808
0.9717118,0.2118896,0.2449823,-0.001186518,0.01684082,-0.002206999,-0.09337266,0.001814243,-0.236137
0.9768526,0.21051,0.2354908,0.003347523,0.01537558,-0.009968436,-0.08486633,0.009267295,-0.2339877
0.98306,0.2135564,0.2278928,0.008975484,0.01831778,-0.0158975,-0.08437848,0.0316073,-0.2376125
0.9864791,0.2125934,0.2255539,0.01184162,0.01723276,-0.01662809,-0.08595641,0.05890848,-0.2391058
0.983185,0.2140114,0.2331685,0.008020271,0.01851149,-0.007464902,-0.08312046,0.06847523,-0.2383674
0.9673574,0.2190871,0.2474113,-0.00830973,0.02343162,0.008267218,-0.08964083,0.0748664,-0.2438668
0.9579362,0.2234946,0.2583947,-0.01820885,0.02766753,0.02068087,-0.0947891,0.06713589,-0.2404802
0.9577104,0.2257536,0.2518086,-0.01888808,0.02973934,0.01546578,-0.09350855,0.04601906,-0.2318327
0.9617576,0.2264564,0.244024,-0.01526934,0.03023958,0.008992684,-0.09460101,0.03330946,-0.2244772
0.9679754,0.2285397,0.2501591,-0.0094548,0.03210497,0.01637968,-0.09148359,0.03110761,-0.2124229
0.9680743,0.225614,0.254909,-0.009734194,0.02894617,0.02232217,-0.09163711,0.0342707,-0.2061935
0.9669522,0.2197026,0.2578605,-0.01120982,0.02278684,0.02640703,-0.09191671,0.03320594,-0.205702
0.9630468,0.2168751,0.2597247,-0.0154441,0.01969678,0.02934515,-0.08723342,0.02505414,-0.1997649
0.9584381,0.2188225,0.2568117,-0.02035733,0.02136771,0.02744675,-0.08667812,0.01148775,-0.1949436
0.959325,0.2229275,0.2558565,-0.0197506,0.02518313,0.02744698,-0.08402176,-0.006527992,-0.1907038
0.9634823,0.2229482,0.2536007,-0.01584919,0.02490147,0.02608748,-0.08212727,-0.0186241,-0.1854395
0.9706574,0.2234636,0.2517243,-0.008905906,0.02510231,0.02504886,-0.08243167,-0.02150309,-0.1827408
0.9706056,0.2221849,0.251039,-0.009165786,0.02349731,0.02514345,-0.08150494,-0.01755382,-0.1773425
0.9669566,0.218709,0.2469364,-0.01299977,0.01968399,0.02176358,-0.08095257,-0.007666448,-0.1763509
0.9654585,0.2208674,0.2466693,-0.01466047,0.02149435,0.02216312,-0.07831265,-0.002936924,-0.1758031
0.9582599,0.223047,0.2442354,-0.02199961,0.02331589,0.02034068,-0.07855798,-0.01033016,-0.1668613
0.9578153,0.2239284,0.2376201,-0.02256298,0.02382973,0.01428314,-0.07928278,-0.02133961,-0.1623912
0.9659673,0.2240303,0.2385168,-0.01450823,0.02355519,0.01568519,-0.08008651,-0.02208907,-0.1613447
0.9693138,0.2229283,0.2402032,-0.01123777,0.02206835,0.01782631,-0.08033704,-0.01096814,-0.1590813
0.9677163,0.2244245,0.2405716,-0.01289082,0.02317165,0.01860014,-0.07582094,-0.004347717,-0.1547631
0.9659147,0.2244784,0.2427733,-0.01472802,0.02282517,0.02115969,-0.07734692,-0.009259517,-0.1490522
0.9695806,0.2226732,0.2414494,-0.01107853,0.02061257,0.02014754,-0.08215738,-0.01263085,-0.1494408
0.9721505,0.2212664,0.2408117,-0.008506473,0.01879179,0.01977678,-0.08503546,-0.003279983,-0.148954
0.9693474,0.2221968,0.2409137,-0.01128978,0.01930227,0.02010251,-0.08505154,0.008370908,-0.1487324
0.9691185,0.2235072,0.2389894,-0.01148194,0.02018747,0.01836015,-0.07915703,0.01000686,-0.1512775
0.9696351,0.2202378,0.2391684,-0.01091242,0.01648801,0.01868094,-0.07560725,0.008622123,-0.147121
0.9693461,0.2198659,0.2391386,-0.01113319,0.01568185,0.01875429,-0.07248765,0.006555431,-0.1447596
0.9690334,0.2191352,0.2409823,-0.01136303,0.01451336,0.020664,-0.07475475,0.004416965,-0.1505962
0.9665962,0.2148726,0.2467892,-0.01370337,0.009810066,0.02650137,-0.08122434,0.003175053,-0.1551359
0.964606,0.2168444,0.2495264,-0.01558328,0.01133907,0.02923464,-0.07503614,-0.006857417,-0.1521063
0.9650864,0.2177952,0.2487363,-0.01497992,0.01184572,0.02840731,-0.07024597,-0.01831742,-0.1461136
0.9667201,0.2175159,0.2463361,-0.01321084,0.01112183,0.02593781,-0.07046813,-0.01484001,-0.1411453
0.9673314,0.2206233,0.245637,-0.01245243,0.01378465,0.0251383,-0.0649438,-0.003882971,-0.1351697
0.9693295,0.2189374,0.2500212,-0.01029604,0.01165476,0.02939218,-0.06280665,-0.0009271422,-0.1323884
0.9728043,0.2161599,0.256022,-0.00665254,0.008434584,0.03523394,-0.06169447,-0.003015309,-0.1307521
0.9722385,0.2150522,0.2591273,-0.007039787,0.006885883,0.03815223,-0.06154487,-0.005165928,-0.1269938
0.9696248,0.2148168,0.252393,-0.009466067,0.006212064,0.03120368,-0.06534042,-0.007859127,-0.1248345
0.9673414,0.2168387,0.2425717,-0.01155389,0.00779869,0.02114176,-0.06466707,-0.007904685,-0.1225977
0.9660565,0.2171067,0.2421074,-0.01263549,0.007635094,0.02041163,-0.06277166,-0.009195289,-0.1230234
0.9684253,0.2189889,0.2435438,-0.01005642,0.009089854,0.02155853,-0.06162978,-0.009163699,-0.1222592
0.9721585,0.2238352,0.2436947,-0.006106365,0.01351349,0.02139759,-0.06005484,-0.008891707,-0.1148157
0.973432,0.2260244,0.2466599,-0.004610057,0.01528489,0.0240299,-0.06280268,-0.02000819,-0.1093275
0.9686314,0.2251837,0.247944,-0.009182769,0.01403128,0.02496153,-0.0659458,-0.03329275,-0.1048602
0.9632721,0.2236575,0.2403215,-0.01430944,0.01209723,0.01696788,-0.06660088,-0.03603314,-0.09944135
0.9673157,0.2215945,0.2280426,-0.01002909,0.009631422,0.004300757,-0.06747541,-0.02447009,-0.09832874
0.97339,0.2172463,0.2257875,-0.003714364,0.004885793,0.001642035,-0.06551279,-0.0004811886,-0.1012803
0.9757993,0.2151291,0.2265242,-0.001061346,0.002376652,0.001961697,-0.05967832,0.02450679,-0.1058536
0.9781823,0.2158791,0.2227886,0.001567828,0.002740793,-0.002202405,-0.0546276,0.03776787,-0.1087243
0.9747724,0.2146811,0.2271671,-0.001594263,0.00116353,0.001738212,-0.05048157,0.0357518,-0.1117019
0.9705019,0.2154985,0.2331882,-0.005616049,0.001608653,0.007313784,-0.04674585,0.03420114,-0.1153022
0.9752298,0.2166825,0.2320137,-0.0006392258,0.002427712,0.005687796,-0.04631011,0.03893105,-0.1168419
0.9773278,0.2162497,0.2321278,0.001707382,0.001637786,0.005345695,-0.04560091,0.04344117,-0.1151202
0.9711011,0.2170604,0.2359559,-0.004271577,0.002099478,0.00871432,-0.04262435,0.04745,-0.1083088
0.964272,0.2151686,0.2421796,-0.01085442,-0.0001328748,0.01447622,-0.04330384,0.03935504,-0.1049973
0.9607706,0.212985,0.2449857,-0.01411117,-0.002648468,0.01681905,-0.04745748,0.02527806,-0.1065413
0.9628045,0.2127423,0.2373382,-0.01183415,-0.003214149,0.008707561,-0.04989457,0.02561467,-0.1060297
0.9653862,0.2139301,0.2301917,-0.009010881,-0.002339936,0.001097047,-0.04853262,0.03147125,-0.1073062
0.9663097,0.2181913,0.2333975,-0.007847285,0.001617364,0.003839716,-0.04604572,0.03658502,-0.1069016
0.9696578,0.2214489,0.2363341,-0.004260781,0.004580848,0.006315126,-0.04653313,0.04421272,-0.1051212
0.9726604,0.2243634,0.2371694,-0.001021561,0.007210935,0.006692008,-0.04723676,0.04534668,-0.1051679
0.974177,0.2243335,0.2435658,0.0007293651,0.00690613,0.01263348,-0.04596205,0.04139395,-0.09887197
0.973151,0.2201248,0.2462733,-6.502497e-05,0.002431826,0.01488999,-0.0441763,0.03603907,-0.0929456
0.9684417,0.2190355,0.2437003,-0.004545729,0.001086046,0.01187032,-0.04136542,0.02749846,-0.092539
0.9656512,0.2177003,0.2453819,-0.007110983,-0.0004967007,0.01310962,-0.0410157,0.02457545,-0.08880544
0.9662897,0.2175548,0.2468499,-0.006250694,-0.0008806787,0.01414013,-0.04255269,0.02261379,-0.08502668
0.9672491,0.2199482,0.2465648,-0.005073018,0.001283319,0.01342244,-0.04222625,0.01700331,-0.08608886
0.9666008,0.2196306,0.2456881,-0.005506609,0.0007453079,0.01211808,-0.04175143,0.02092373,-0.08623186
0.9662482,0.2222098,0.242163,-0.005648115,0.00311291,0.008170524,-0.03887276,0.02409248,-0.08172274
0.9671709,0.2252754,0.2421998,-0.00451796,0.005975707,0.007790303,-0.03697547,0.02001785,-0.07853331
0.9667883,0.2262262,0.2441353,-0.004696673,0.006732002,0.009314486,-0.03919738,0.01887865,-0.07982581
0.9688448,0.2293887,0.2421087,-0.002440145,0.009708123,0.006882538,-0.03841915,0.008580582,-0.07933334
0.9730676,0.230184,0.2400904,0.001978844,0.01032443,0.00446526,-0.03645561,-0.003633251,-0.07238581
0.9736909,0.2304444,0.2386368,0.002794344,0.01041282,0.002619236,-0.03362547,-6.159838e-05,-0.05731454
0.9701788,0.2311853,0.2401057,-0.0005300844,0.01098814,0.003702808,-0.03005664,0.003719899,-0.04315181
0.9637691,0.2240396,0.2494245,-0.006756645,0.003682652,0.01264361,-0.03467018,0.001756145,-0.04424946
0.9611402,0.2120608,0.2554665,-0.009206959,-0.008450298,0.01831494,-0.03906293,0.001474704,-0.05486966
0.9644131,0.2066376,0.2468507,-0.005759981,-0.01402191,0.009335596,-0.0327148,0.001389333,-0.06503194
0.9685981,0.2073997,0.2378819,-0.00140504,-0.01340215,1.038642e-05,-0.02632531,0.006509384,-0.07615029
0.9730241,0.2091305,0.2434186,0.003186679,-0.01180682,0.005197789,-0.0271932,0.01998995,-0.08060313
0.974513,0.2144797,0.248206,0.004836988,-0.006585764,0.00964327,-0.03106563,0.03051155,-0.07423679
0.9718908,0.2197199,0.2440781,0.002371515,-0.001466093,0.005180976,-0.03486231,0.03130703,-0.06711846
0.9689984,0.2206837,0.2437078,-0.0003690219,-0.000615364,0.004483703,-0.03501771,0.02886881,-0.06141863
0.9672848,0.2206571,0.2420669,-0.001935897,-0.0007474723,0.00252343,-0.03310073,0.02803009,-0.06072209
0.9664073,0.2180252,0.2406086,-0.0026716,-0.003477692,0.0007533829,-0.03621241,0.02803394,-0.06635402
0.9641067,0.2163923,0.2472903,-0.00483534,-0.005201857,0.007131313,-0.03723336,0.02575098,-0.06514455
0.9616235,0.2202571,0.2485625,-0.007186398,-0.001421266,0.00810767,-0.02810488,0.01997041,-0.05559578
0.9634791,0.2234372,0.246654,-0.005203055,0.00168151,0.005911096,-0.0200322,0.01341074,-0.04623788
0.9667193,0.2214386,0.2465693,-0.001839442,-0.0003877557,0.005545921,-0.02094931,0.0102932,-0.04180582
0.9664711,0.2185639,0.2425724,-0.001968154,-0.003326867,0.001276225,-0.02139099,0.01226964,-0.04179212
0.9648362,0.2185656,0.2423026,-0.003487626,-0.003383347,0.0007413046,-0.01795733,0.01249002,-0.04477566
0.964524,0.2172713,0.2440061,-0.003688187,-0.004729881,0.002187319,-0.02087017,0.01165629,-0.05096523
0.9688114,0.2165476,0.243406,0.0007072072,-0.005499835,0.001337597,-0.02437878,0.01738703,-0.04951932
0.9746729,0.2183519,0.2431283,0.006672917,-0.003735988,0.0008180634,-0.02110635,0.02504974,-0.04685981
0.9731188,0.2183278,0.2394352,0.005219149,-0.003794631,-0.003109065,-0.02214926,0.02802837,-0.05347905
0.9699375,0.2203666,0.2370639,0.002134113,-0.001784753,-0.005706315,-0.02518336,0.02488915,-0.05061745
0.9679134,0.2223564,0.2433144,0.0002019695,0.0001815295,0.0003264436,-0.02529368,0.01968745,-0.04361112
0.964093,0.221893,0.2509191,-0.003530679,-0.0003002061,0.007721729,-0.02509527,0.01391005,-0.04299956
0.9675631,0.2242087,0.2509079,2.299047e-05,0.002002076,0.007509162,-0.02216205,0.006883266,-0.03903414
0.971277,0.2249249,0.248538,0.003816478,0.002709311,0.004945712,-0.02113456,0.008507641,-0.0375703
0.9666835,0.2262913,0.248249,-0.0007015579,0.004070853,0.004470454,-0.02136311,0.01392372,-0.03588107
0.9645462,0.230423,0.2472438,-0.002767262,0.008201333,0.003286082,-0.02065562,0.01256859,-0.03455026
0.9637432,0.2274645,0.2475061,-0.003502434,0.005244604,0.003376133,-0.02305389,0.01266543,-0.03732964
0.9620047,0.2223241,0.2457362,-0.00517669,0.0001085322,0.00144069,-0.02504029,0.0128108,-0.03383808
0.9643405,0.2210052,0.2417161,-0.002780005,-0.001203911,-0.002738456,-0.02511564,0.01036068,-0.03309847
0.9663024,0.2187337,0.2416892,-0.0007601635,-0.003466894,-0.002917759,-0.02248556,0.00978888,-0.0360541
0.966469,0.2188895,0.2419461,-0.0005384946,-0.003300603,-0.002806752,-0.01667702,0.008199555,-0.03533934
0.9684229,0.2203576,0.2435315,0.001467778,-0.001820071,-0.001360606,-0.01226785,0.01023124,-0.03434283
0.9703112,0.2189139,0.2475165,0.003405702,-0.003249458,0.002491743,-0.009947648,0.01806618,-0.02841482
0.9694867,0.219031,0.2487459,0.002627996,-0.003116092,0.00359502,-0.009649059,0.02333591,-0.02246804
0.9689234,0.2181035,0.2505914,0.002108637,-0.004025564,0.005320636,-0.01332996,0.01854358,-0.02141787
0.9699011,0.2163347,0.2513931,0.003127422,-0.005774458,0.006008249,-0.01961866,0.007223369,-0.02625397
0.9689685,0.220499,0.2472592,0.002232918,-0.001588319,0.001765876,-0.02229528,0.004848068,-0.03428439
0.9674563,0.2246252,0.2429379,0.0007559454,0.002561624,-0.002658736,-0.02001573,0.007361188,-0.03172349
0.9661077,0.2238737,0.2433477,-0.0005603834,0.001835367,-0.002347094,-0.01786269,0.00554954,-0.02622222
0.9641998,0.2231159,0.2499322,-0.002438864,0.00110433,0.004144223,-0.01501684,0.005477855,-0.02488092
0.9629785,0.223802,0.2547315,-0.003633246,0.001818221,0.008855313,-0.01109484,0.005633263,-0.02099523
0.9624213,0.2232265,0.2519704,-0.004165807,0.001271501,0.006010515,-0.01253056,0.007226109,-0.01930721
0.9657438,0.2206507,0.2465031,-0.0008207274,-0.001274882,0.0004636358,-0.01786687,0.01171312,-0.02077604
0.9706155,0.2188153,0.2432188,0.004071658,-0.003080275,-0.00289645,-0.0197847,0.0143023,-0.02430887
0.9710838,0.2191286,0.2438847,0.004558717,-0.002736497,-0.002302524,-0.01947215,0.01443849,-0.02779864
0.9688517,0.2204357,0.244275,0.002343477,-0.001398291,-0.001980331,-0.01860949,0.01254039,-0.02683235
0.9663641,0.2220398,0.2425042,-0.0001292283,0.0002374538,-0.00381541,-0.01830129,0.01174191,-0.02322981
