accx,accy,accz,body_accx,body_accy,body_accz,body_gyrox,body_gyroy,body_gyroz
0.8193228,0.4002746,0.4368086,0.01128398,-0.02410192,-0.008913963,0.01410164,-0.08758497,0.1375094
0.82152,0.4020759,0.4381747,0.01332403,-0.02138389,-0.00682844,0.009915613,-0.09081975,0.1301386
0.8210249,0.3985973,0.4411349,0.01266328,-0.02394635,-0.003160348,0.008455863,-0.09087998,0.1301953
0.8181918,0.4068952,0.4429788,0.009656392,-0.01473402,-0.0006206602,0.004682851,-0.1020429,0.1324739
0.8151468,0.4122578,0.4359003,0.006429962,-0.008460339,-0.007016624,0.004037628,-0.1010174,0.1268
0.8138518,0.410758,0.4294104,0.004946694,-0.009053914,-0.01283775,0.004823606,-0.09224583,0.1278577
0.8128253,0.4122052,0.4324182,0.003725566,-0.006707009,-0.00917534,0.00368932,-0.09125215,0.1228405
0.8147074,0.4130986,0.4338586,0.005407568,-0.004921925,-0.007094662,-0.001188246,-0.08906318,0.1160854
0.8146848,0.4159466,0.4263488,0.005180012,-0.00119196,-0.01397889,-0.01217548,-0.09636428,0.119276
0.8166653,0.4125771,0.4217604,0.006951447,-0.003690751,-0.01795638,-0.01969027,-0.1093701,0.1191123
0.821469,0.4062969,0.4272553,0.01154238,-0.00911273,-0.01186522,-0.03035962,-0.1147994,0.1148414
0.8189578,0.4074958,0.4341069,0.008815194,-0.007069356,-0.004431705,-0.04413868,-0.1074814,0.1036809
0.8168018,0.4094344,0.4404244,0.006440333,-0.004301006,0.002453087,-0.04352678,-0.09477699,0.09221497
0.8157741,0.4107979,0.4449203,0.005191305,-0.002123256,0.007501265,-0.03882468,-0.09267851,0.09772801
0.8097023,0.4053791,0.4435671,-0.001103854,-0.00674427,0.006684746,-0.03682536,-0.08846977,0.1098555
0.8055107,0.3983675,0.4429032,-0.005520037,-0.0129753,0.006541259,-0.03048655,-0.08768636,0.1175772
0.8078069,0.4013173,0.4452599,-0.003449012,-0.009262519,0.009401471,-0.02977185,-0.0926116,0.1217234
0.8160745,0.4013601,0.4451238,0.004593795,-0.008474679,0.009751332,-0.02766143,-0.08249601,0.1180611
0.8216384,0.3969104,0.4454289,0.009933765,-0.01219741,0.01052446,-0.0139026,-0.0767218,0.1122655
0.8192688,0.3980988,0.447808,0.007341364,-0.01030032,0.01335306,-0.006160333,-0.07992608,0.1126608
0.8157752,0.4042985,0.444728,0.003626133,-0.003410301,0.01070351,-0.004609091,-0.07815254,0.1164209
0.8148096,0.4114103,0.4413899,0.00244047,0.004373196,0.007776505,-0.004736974,-0.07771777,0.1245157
0.8153249,0.4121479,0.4433395,0.002737509,0.005763436,0.01011756,-0.009853692,-0.078762,0.1303997
0.8156932,0.40736,0.439251,0.002889591,0.001608416,0.006400789,-0.006691826,-0.08591751,0.1268318
0.81703,0.4061302,0.4248372,0.004012576,0.0009913698,-0.007660852,-0.003008236,-0.09595945,0.1213702
0.8186552,0.4062183,0.4141344,0.005426566,0.001671802,-0.01803066,-0.004004789,-0.0956588,0.1140944
0.8185049,0.4002557,0.4255183,0.00506792,-0.003719124,-0.0063318,0.002436143,-0.08290854,0.1103627
0.8195854,0.3907322,0.4411596,0.00594289,-0.01269153,0.009607216,0.00637382,-0.06787647,0.1097952
0.8200416,0.3886863,0.4372465,0.006196474,-0.01420661,0.005975048,0.007440571,-0.06681048,0.1035562
0.8139831,0.4021528,0.4375461,-6.157606e-05,-0.0002288479,0.006539,0.001485636,-0.07403545,0.1041163
0.8071967,0.4177455,0.4396594,-0.007044253,0.01585573,0.008900176,-0.01631657,-0.07939105,0.1061488
0.8105028,0.4195537,0.4295269,-0.003930829,0.01813609,-0.001000685,-0.02235339,-0.08919116,0.1008812
0.8159339,0.4180648,0.4315771,0.001311735,0.01709916,0.001265101,-0.02330906,-0.09374607,0.09740385
0.8174697,0.4191305,0.4309915,0.00266344,0.01859589,0.0008796273,-0.03570724,-0.06306851,0.09338191
0.8254105,0.4112668,0.425918,0.01042464,0.01114173,-0.00400866,-0.0509425,-0.007821068,0.09736133
0.8263423,0.399227,0.4523151,0.01118111,-0.0005102597,0.02255934,-0.05568767,-0.009661976,0.10491
0.8123374,0.3987106,0.4763291,-0.002995045,-0.0006602549,0.04672967,-0.02884343,-0.1089076,0.0996708
0.8117926,0.4130366,0.460539,-0.003707071,0.01401092,0.03108059,-0.003063694,-0.1855119,0.09768681
0.8245811,0.4211816,0.4314715,0.008918507,0.02248015,0.002137724,-0.02783961,-0.09957621,0.1018588
0.8345271,0.3910832,0.4159867,0.01870559,-0.007314892,-0.0132388,-0.05305012,0.03506385,0.09923009
0.8430917,0.359462,0.4201385,0.02711494,-0.03865314,-0.008994095,-0.04431465,0.03637954,0.09250954
0.8236357,0.3855575,0.4325254,0.007506423,-0.01229353,0.0034716,-0.04583973,-0.02638049,0.08522513
0.7934292,0.4127485,0.441181,-0.02285017,0.01514427,0.01219285,-0.03789508,-0.07658221,0.08473994
0.8091967,0.3996142,0.4503695,-0.007230096,0.002240337,0.0214342,-0.001754089,-0.1075847,0.08707906
0.8224875,0.3981448,0.4537356,0.005916758,0.0009850061,0.02484021,0.007100614,-0.08136428,0.083219
0.8080902,0.3986371,0.4482443,-0.008620681,0.001675681,0.01937581,-0.002882518,-0.06288591,0.08411035
0.8148784,0.3887067,0.448943,-0.001968616,-0.008071645,0.02008796,-0.001839306,-0.05151144,0.08803465
0.8163307,0.3953074,0.4466359,-0.0006481353,-0.001302291,0.01778084,-0.005834384,-0.02284364,0.08953519
0.8090062,0.3981673,0.44248,-0.008099992,0.001712514,0.01361155,-0.00305822,-0.04104232,0.09718388
0.8142275,0.39654,0.4481541,-0.003001339,0.0002269856,0.01925887,0.008285708,-0.05328728,0.1032792
0.8099736,0.401823,0.4433833,-0.00737286,0.005639219,0.01444827,0.01371398,-0.05747254,0.1001589
0.8111725,0.4040527,0.4385511,-0.006286295,0.007985925,0.009563413,0.01520475,-0.08214894,0.09512057
0.8152078,0.4097177,0.4399627,-0.002357939,0.01375586,0.0109099,0.01129679,-0.0748875,0.0928074
0.8122737,0.4091923,0.4337831,-0.005393403,0.01332349,0.004653351,0.007474162,-0.07310727,0.09094199
0.8170587,0.4041507,0.4366448,-0.0007040405,0.008362826,0.007426879,0.003055494,-0.07903474,0.0893951
0.8162251,0.4087779,0.4397664,-0.00162765,0.01305914,0.01044983,-0.0002429148,-0.0784403,0.0919995
0.8149652,0.4099828,0.4376766,-0.002971949,0.01432128,0.008251479,0.0002165974,-0.09543371,0.09198413
0.8181238,0.4097871,0.4380134,0.0001077835,0.01417098,0.008470279,-0.005016939,-0.09315709,0.08797989
0.8192195,0.4078581,0.4335528,0.001129999,0.01227556,0.003883013,-0.009636232,-0.07287931,0.08580372
0.8228174,0.3995364,0.4336842,0.004659572,0.003975852,0.003879625,-0.01450294,-0.05446492,0.08349751
0.8163723,0.3996944,0.4343192,-0.001848969,0.004144508,0.004372446,-0.01657606,-0.04999396,0.08611469
0.8091057,0.4008508,0.4365546,-0.009174326,0.005300794,0.006458936,-0.006420924,-0.06352333,0.09191722
0.8136255,0.3969805,0.447454,-0.004708591,0.00142013,0.0172033,-0.001357025,-0.06369183,0.09303461
0.8160475,0.3972968,0.4521143,-0.002335752,0.001716455,0.02170276,-0.0005265881,-0.06296968,0.09232556
0.8162465,0.3971166,0.4494942,-0.002181136,0.001507245,0.01891576,0.006289223,-0.06713786,0.09160285
0.8155049,0.3970643,0.4444365,-0.002962357,0.001417704,0.01368523,0.01218615,-0.06546301,0.09085204
0.8134277,0.3976726,0.4416622,-0.005074599,0.00198108,0.01073206,0.01351911,-0.07145088,0.08894029
0.8163675,0.3972409,0.441423,-0.002165226,0.001497258,0.01030836,0.01007535,-0.07457418,0.08676484
0.819194,0.4002229,0.4396479,0.0006353009,0.004420722,0.008343336,0.01025044,-0.07353182,0.08575408
0.8161332,0.4020336,0.4402055,-0.002447048,0.006166688,0.008706152,0.01298873,-0.07565956,0.08487722
0.8140947,0.4005323,0.4387564,-0.004503089,0.004595059,0.007057732,0.01457171,-0.0778856,0.08533245
0.8164319,0.3993228,0.4348633,-0.002179313,0.003309772,0.002961397,0.01681371,-0.07873987,0.08496439
0.819001,0.3988019,0.4324305,0.0003802828,0.00270816,0.0003220553,0.0113247,-0.07252703,0.08362818
0.8213899,0.39791,0.4330889,0.002763296,0.001731046,0.0007711172,0.005182976,-0.06655102,0.0807138
0.8204863,0.3964743,0.4361994,0.00185722,0.0002059704,0.003670387,0.00401306,-0.06360634,0.07373679
0.8174836,0.3980702,0.4356738,-0.001144791,0.001708909,0.002932126,0.0008805801,-0.06167777,0.06885035
0.8191562,0.4011824,0.4344114,0.00053121,0.004725008,0.001456241,-0.0006910661,-0.06188919,0.06695118
0.8211405,0.4031372,0.4323199,0.002521563,0.006580893,-0.0008490151,-0.0001559847,-0.05982859,0.06586094
0.8216371,0.4027115,0.4293385,0.003026501,0.006053515,-0.004043877,-8.923955e-05,-0.06085592,0.06951066
0.8227516,0.3998362,0.4294816,0.004151226,0.003074124,-0.004113178,-0.002756521,-0.06047032,0.07264718
0.8221052,0.3997089,0.4301524,0.003516745,0.002840516,-0.003653154,-0.007065435,-0.05108276,0.07013837
0.8220402,0.3987855,0.43143,0.003464986,0.00180885,-0.002583933,-0.00849839,-0.04539264,0.06833572
0.8225014,0.3975009,0.4303746,0.003940355,0.0004144203,-0.003844877,-0.006211806,-0.04882229,0.06809618
0.8219987,0.399579,0.4298703,0.003452504,0.002381345,-0.004551255,-0.001973445,-0.05429938,0.0658341
0.8223191,0.3983908,0.431572,0.003788106,0.001081,-0.003047678,-0.001310477,-0.05993813,0.06410461
0.8222522,0.3979399,0.4300303,0.003736606,0.0005172498,-0.00478316,-0.000630031,-0.06037611,0.06326357
0.8222887,0.3985151,0.4314977,0.003788392,0.000979356,-0.003504645,0.001758816,-0.05315955,0.06199169
0.8232486,0.3962982,0.4316912,0.00476314,-0.001350739,-0.003494866,0.0006135374,-0.0517175,0.06151301
0.8236043,0.3975294,0.4258904,0.005133174,-0.0002324579,-0.009473949,-0.0009330232,-0.05088873,0.05963631
0.8228647,0.398525,0.4229665,0.004407088,0.000650847,-0.01257003,-0.00275909,-0.04604567,0.05706066
0.8217645,0.3981347,0.4254866,0.003319363,0.0001490328,-0.01021563,-0.0002869505,-0.05050267,0.05633882
0.8221519,0.3979184,0.4295253,0.003718053,-0.0001776289,-0.00633557,0.004619097,-0.05162046,0.05458174
0.8225492,0.3951146,0.4266051,0.004125189,-0.003090527,-0.009406965,0.001177898,-0.04789011,0.05294601
0.8223003,0.396158,0.4230047,0.003884818,-0.002154543,-0.0131508,-0.001543022,-0.04755586,0.05077436
0.824451,0.4007121,0.4250399,0.006042325,0.002293919,-0.01125089,-0.001091553,-0.04168156,0.04584042
0.8274276,0.402339,0.4265415,0.009023963,0.003817296,-0.009876081,-0.002502268,-0.03906557,0.04455877
0.8276451,0.4013716,0.429797,0.009244469,0.002748255,-0.006738568,-0.002324525,-0.04000997,0.04525698
0.8241584,0.4003332,0.4274716,0.005758452,0.001610328,-0.009172973,-0.004760647,-0.03846735,0.04370004
0.8213856,0.3991608,0.4219608,0.002983813,0.0003403844,-0.01478385,-0.008440795,-0.03788419,0.04278288
0.8247354,0.3963292,0.4231125,0.006329192,-0.002586646,-0.01372293,-0.009997252,-0.03295413,0.04079417
0.8278018,0.3966275,0.4221564,0.009388418,-0.002381564,-0.01476017,-0.009585751,-0.02649406,0.03905081
0.8250964,0.398255,0.4275417,0.006673099,-0.0008447473,-0.009446362,-0.005679591,-0.02158524,0.03767376
0.8232511,0.3965998,0.4372489,0.004814746,-0.002588068,0.0001992513,-0.005284179,-0.01699217,0.034651
0.8238451,0.3971899,0.4336124,0.005392782,-0.002083346,-0.003489393,-0.008288905,-0.01335002,0.03341416
0.8236493,0.3977036,0.4321542,0.005177804,-0.001652016,-0.004990398,-0.00949639,-0.007636617,0.03076137
0.8244696,0.3966552,0.4394212,0.005975946,-0.00277992,0.002242462,-0.009894942,-0.002217108,0.02835646
0.8250926,0.3977625,0.440403,0.006573793,-0.00174888,0.003198384,-0.00987291,-0.003636482,0.03084511
0.8229403,0.3984294,0.4351746,0.004393148,-0.00115504,-0.002048082,-0.01159564,-0.01231436,0.03145847
0.8206919,0.4006288,0.4291553,0.002113328,0.0009745238,-0.008078326,-0.01100446,-0.01630317,0.03267888
0.8206403,0.4030877,0.4288048,0.002027451,0.003366857,-0.00843284,-0.009175364,-0.01070336,0.03546864
0.8219635,0.4017024,0.4355084,0.003313627,0.001918024,-0.001726432,-0.01245288,-0.006874906,0.03181102
0.8225271,0.4001452,0.4385,0.003837653,0.0003001293,0.001274477,-0.0135411,-0.01157883,0.02965038
0.8221398,0.4002376,0.4349497,0.003408254,0.0003347316,-0.002260368,-0.01129935,-0.02092621,0.03249812
0.8221983,0.4026846,0.4317487,0.003422297,0.002726558,-0.005440305,-0.009271873,-0.02504888,0.03331265
0.8222512,0.4050226,0.4322934,0.003428556,0.005011965,-0.004869044,-0.007641725,-0.02186952,0.03362005
0.8213173,0.4033531,0.43279,0.002445781,0.003292304,-0.004340775,-0.009416123,-0.01819297,0.03325697
0.8177708,0.402006,0.4326909,-0.001151412,0.001897067,-0.004403307,-0.01082352,-0.01812074,0.03456476
0.8144178,0.4028278,0.4374815,-0.004556854,0.002672689,0.0004286477,-0.01067992,-0.01816461,0.03755101
0.817642,0.4020804,0.4401139,-0.00138651,0.001880998,0.003106582,-0.01118031,-0.01421692,0.03495454
0.8221672,0.4008284,0.4349886,0.003083963,0.000586393,-0.001969199,-0.01221417,-0.01281195,0.03048448
0.8209163,0.4014283,0.4275863,0.001777469,0.001145278,-0.009318579,-0.01445755,-0.0151868,0.02791663
0.8201374,0.4016462,0.4220897,0.0009424371,0.001323714,-0.01475885,-0.01339039,-0.0173194,0.0268524
0.8214684,0.4007619,0.424701,0.002216669,0.0004014362,-0.01208773,-0.008786044,-0.01739792,0.02719844
0.820415,0.3997276,0.4288979,0.001106057,-0.0006692734,-0.007827252,-0.006765163,-0.01387798,0.02482931
0.8196003,0.3981052,0.4301246,0.0002339237,-0.002326736,-0.006533199,-0.00905059,-0.01361585,0.0234591
0.8186507,0.3982572,0.4338754,-0.0007732899,-0.00220823,-0.002711359,-0.01096519,-0.01803366,0.02537907
0.8173242,0.39918,0.4309977,-0.002157425,-0.001317244,-0.005514408,-0.008185284,-0.02074073,0.02536822
0.8183283,0.3984869,0.4278932,-0.001210778,-0.002040615,-0.008540947,-0.006308348,-0.01494526,0.02586296
0.8187453,0.3994372,0.4321121,-0.0008506765,-0.001118776,-0.004240894,-0.008120521,-0.006479998,0.02612005
0.8203863,0.4010955,0.4309942,0.0007339809,0.000512831,-0.005274649,-0.009739875,-0.009457654,0.02226239
0.8233616,0.402494,0.4311267,0.003653737,0.001886291,-0.005055089,-0.01135159,-0.01274992,0.02099021
0.8223798,0.4049264,0.4320408,0.002617121,0.00429523,-0.004051236,-0.0110742,-0.01227197,0.02353628
0.8215781,0.4037288,0.4287941,0.001761211,0.003075544,-0.00720577,-0.009015544,-0.01664341,0.02490202
0.8225017,0.3987823,0.4324301,0.002631259,-0.001891823,-0.003475154,-0.008663951,-0.01704734,0.02492936
0.8212594,0.395164,0.4337672,0.001336144,-0.005529834,-0.002041394,-0.008119761,-0.01571816,0.02081045
0.8203663,0.3942276,0.4324326,0.000390804,-0.006484668,-0.003277429,-0.00696089,-0.0163712,0.01776142
0.8213225,0.394756,0.4356382,0.001295502,-0.005973163,2.838736e-05,-0.005831254,-0.01523931,0.01838577
0.8226985,0.3947168,0.4353878,0.002620638,-0.006027445,-0.0001204107,-0.004092255,-0.0151572,0.01341261
0.8240357,0.3959951,0.4372143,0.00390775,-0.004762267,0.001808498,-0.004364657,-0.0143617,0.0123284
0.8240767,0.3984865,0.4388494,0.00389934,-0.002281771,0.003546635,-0.006351137,-0.01392469,0.01671584
0.8240792,0.3989857,0.4382895,0.003852939,-0.001791299,0.003089812,-0.008629442,-0.01331325,0.01582241
0.8250872,0.4004711,0.4414687,0.004812422,-0.0003125123,0.006371696,-0.01262085,-0.009959778,0.01601784
0.8234492,0.4022555,0.4396406,0.003126175,0.001467533,0.004645497,-0.01693659,-0.007735471,0.00966945
0.8212001,0.4017979,0.4352401,0.0008291083,0.001007323,0.000345556,-0.02203209,-0.0006763724,-0.003222649
0.8223297,0.4006274,0.4308735,0.001910913,-0.0001639055,-0.003922172,-0.0313852,0.02372285,-0.009525781
0.821905,0.3966368,0.4278251,0.001438785,-0.004153572,-0.006873328,-0.03997383,0.04599252,-0.01840087
0.8182312,0.3930778,0.4338427,-0.002282161,-0.007710064,-0.0007601118,-0.03840254,0.02420716,-0.02722877
0.8168436,0.3942249,0.4390636,-0.003716555,-0.006558691,0.004554788,-0.0316185,-0.004184457,-0.02729059
0.8216339,0.3950983,0.4392369,0.001027743,-0.005679027,0.004820342,-0.02966353,0.01458477,-0.02797215
0.8258806,0.3948579,0.4399205,0.005229124,-0.005911017,0.005593957,-0.02861877,0.02293603,-0.03354565
0.8182516,0.398585,0.4429344,-0.002444482,-0.002173261,0.008695477,-0.02624988,0.007267086,-0.03413856
0.8103761,0.4049789,0.4464407,-0.01036378,0.004233603,0.01228626,-0.02607577,0.01684536,-0.03014635
0.8150113,0.4068814,0.4409947,-0.005771201,0.006150991,0.006921374,-0.02564943,0.03151016,-0.02999828
0.8162263,0.4047491,0.4361779,-0.004597289,0.004035135,0.002181812,-0.02155992,0.03952429,-0.02256679
0.8094496,0.4035652,0.4457607,-0.01141315,0.002868856,0.01183764,-0.01169806,0.02694746,-0.01209792
0.8077974,0.4023886,0.4529205,-0.01310235,0.001710863,0.01906609,-0.004450801,-0.00322067,-0.007120124
0.810974,0.4014981,0.4445112,-0.009959987,0.0008394904,0.01072027,-0.007454165,0.001814749,-0.0003098019
0.8136331,0.4013362,0.4328843,-0.007331827,0.0006971474,-0.0008485482,-0.008748782,0.008693473,-0.002165918
0.8124633,0.4002858,0.43027,-0.008528981,-0.0003332638,-0.003410278,-0.005125361,-0.004989871,-0.002089067
0.809765,0.3997768,0.4381349,-0.01125088,-0.0008220344,0.00450189,-0.005582147,-0.006815979,0.00817893
0.8102054,0.4002018,0.4465783,-0.01082992,-0.0003766494,0.01298742,-0.007595304,-0.01327557,0.009018595
0.8112715,0.4009158,0.4436531,-0.009778932,0.0003578623,0.01009901,-0.007954422,-0.01416308,0.006727649
0.8127937,0.4020296,0.4407012,-0.008267113,0.001492288,0.007178506,-0.006539234,-0.009387144,0.00634302
0.811889,0.4032501,0.4447699,-0.009177401,0.00273332,0.01127287,-0.002977792,-0.01579056,0.004818881
0.8081258,0.4046974,0.4425506,-0.01294125,0.004201058,0.009073353,-0.002894755,-0.0119667,0.004874017
0.8081802,0.4053971,0.4402034,-0.01288222,0.00492073,0.006740132,-0.005831264,-0.008653317,0.002829001
0.8086469,0.4054085,0.4407577,-0.0124056,0.004951357,0.007302391,-0.006010978,-0.009898454,0.002891484
0.8093204,0.405437,0.4382568,-0.01171646,0.004998244,0.004803502,-0.004729751,-0.009771764,0.005971245
0.8121754,0.4040841,0.4419399,-0.008839985,0.003662552,0.008482822,0.0005019468,-0.01642239,0.007259963
0.8129738,0.4038425,0.4459743,-0.008014272,0.003436882,0.01250763,0.006670231,-0.01421603,0.004859651
0.8135425,0.406128,0.444262,-0.00741251,0.005736756,0.01077996,0.00132782,-0.01016517,0.001417223
0.8138017,0.4062208,0.4427291,-0.007114513,0.005842251,0.009225684,-0.005198651,-0.01184766,0.003079864
0.813019,0.4058046,0.4398487,-0.007852798,0.005436934,0.00631794,-0.0003535298,-0.008889714,0.00462253
0.8128876,0.4074927,0.4374077,-0.00793447,0.007133849,0.003843791,0.00152226,-0.00851432,0.005018331
0.8147986,0.4071792,0.4365366,-0.005968355,0.006826912,0.00293392,-0.001608639,-0.006129996,0.007692029
0.8177663,0.4064271,0.4359941,-0.002940499,0.006078893,0.002347411,-0.0004614773,-0.001205755,0.006468203
0.8159256,0.4074796,0.4344849,-0.004716213,0.007132936,0.0007893158,-0.002746584,-0.002528673,0.003381517
0.8141778,0.4078018,0.4342301,-0.006394568,0.007453829,0.0004810848,-0.006535513,-0.002177877,0.001015201
0.8153636,0.4078639,0.4381805,-0.005135005,0.007511623,0.004373924,-0.005171363,0.00112192,-0.0009382588
0.8125288,0.4060319,0.4412578,-0.007892061,0.005672234,0.007389941,-0.004628473,0.001728358,0.004726565
0.8100407,0.4029596,0.4440041,-0.01029847,0.00258943,0.01007123,-0.003752586,0.002325356,0.01098477
0.811294,0.40397,0.4440115,-0.008959626,0.003586208,0.01001014,-0.001618837,0.004111348,0.007560237
0.8123876,0.4049468,0.4425867,-0.007776674,0.004546215,0.008513042,-0.001780596,0.002944938,0.005358899
0.8127462,0.4033928,0.4455835,-0.007325052,0.002972453,0.01143391,-0.002346644,0.0002634262,0.007700425
0.8133958,0.4033939,0.4445739,-0.006578782,0.002950978,0.01034459,-0.001978969,-8.788247e-05,0.00609796
0.8142112,0.402941,0.4435359,-0.005663337,0.002472642,0.009223109,-0.0009828825,0.001890222,0.004061161
0.8137232,0.4035398,0.4452629,-0.006048139,0.003043331,0.01086284,-0.0008087296,0.004990745,0.003357834
0.8128436,0.4067145,0.4429494,-0.006821445,0.006187386,0.008458296,-0.002858542,0.004634187,0.002123686
0.8123706,0.4074188,0.4433681,-0.007185274,0.006858476,0.008782097,-0.004751163,0.002889906,0.002588793
0.8123073,0.4066211,0.4467279,-0.007136844,0.006025015,0.01204339,-0.002078584,0.002699269,0.0008079682
0.8127411,0.4060535,0.4512573,-0.006588682,0.005419034,0.01647049,0.0007869563,0.001691583,-0.002430136
0.8124021,0.4052442,0.4529659,-0.006810899,0.004568763,0.01807287,-0.003280562,0.003842185,-0.001865366
0.8124277,0.404294,0.4440832,-0.006666256,0.003575071,0.009079799,-0.006953329,0.00685092,-0.001217445
0.8126656,0.3994303,0.4364767,-0.006307196,-0.00133464,0.001358776,-0.005102018,0.00801706,-0.002835454
0.8123416,0.3941818,0.4383365,-0.006508146,-0.006631258,0.003100166,-0.003038435,0.0098678,-0.004349082
0.8124045,0.3983369,0.4412531,-0.006320254,-0.002526056,0.005894847,-0.002737851,0.008168938,-0.0045747
0.811617,0.407937,0.4438544,-0.006981196,0.007022871,0.00837111,-0.002775598,0.004218288,-0.005049051
0.8109384,0.4121089,0.4493864,-0.007531589,0.01114241,0.01377507,-0.001745685,3.506545e-05,-0.005987409
0.8119983,0.4106448,0.4499625,-0.006342044,0.009624502,0.01422025,-0.002071711,-0.002683605,-0.006965338
0.8129012,0.4083696,0.4448924,-0.005308267,0.007293922,0.009016255,-0.003219571,-0.0008890799,-0.007824466
0.8125378,0.4069284,0.4449011,-0.005539429,0.005795595,0.008887914,-0.002606718,-0.00210569,-0.001537734
0.8122662,0.4053649,0.4446903,-0.005677891,0.004173054,0.008537269,-0.003314509,-0.004008897,0.006033178
0.8126702,0.40437,0.4435026,-0.005139732,0.003117277,0.007206871,-0.003474772,0.000928339,0.001823817
0.8124966,0.4044441,0.4449008,-0.005178568,0.003128887,0.008459816,-0.002941201,0.00651255,-0.003876672
0.812196,0.4033587,0.4421845,-0.005343763,0.001979391,0.005595825,-0.004831324,0.01094551,-0.003329988
0.8117624,0.4072924,0.4429924,-0.005641525,0.005847458,0.006253877,-0.004789859,0.01436324,-0.0004693825
0.8107401,0.4135187,0.4453943,-0.006527713,0.0120068,0.008503923,-0.003704347,0.01126192,0.003536138
0.811186,0.408862,0.4407696,-0.005945389,0.007281667,0.003725737,-0.004806082,0.007359136,0.001548345
0.8122889,0.4034667,0.4395071,-0.004705929,0.001816228,0.002308165,-0.006259819,0.0123206,-0.003355963
0.8125616,0.4034032,0.4413468,-0.004296699,0.001680945,0.003991649,-0.00898705,0.01649895,-0.00324503
0.8121203,0.4011791,0.4410401,-0.004601484,-0.0006163126,0.003527897,-0.01037052,0.01258293,-0.004256012
0.8096902,0.4010038,0.4434292,-0.0068953,-0.0008658098,0.005759468,-0.006911365,0.01150341,-0.004733678
0.8078526,0.4013722,0.4483768,-0.008596939,-0.0005725057,0.01054919,-0.004282577,0.01281934,-0.002729735
0.8099343,0.4023752,0.4508386,-0.006379426,0.0003548724,0.01285288,-0.004999101,0.01168302,-0.003090069
0.8119539,0.4069906,0.4494153,-0.004224322,0.004894359,0.01127098,-0.003099807,0.009853124,-0.001612192
0.8102022,0.4078601,0.447798,-0.005840753,0.005687741,0.009494634,0.000279237,0.002857037,-0.001318049
0.809285,0.4063858,0.448416,-0.00662316,0.004137021,0.009952913,-0.0002367785,-0.00237087,-0.006305225
0.811868,0.4069973,0.4482593,-0.003905696,0.004672037,0.009635875,-0.0008198422,0.004654052,-0.009727101
0.8131334,0.4078451,0.4464564,-0.002506318,0.005442972,0.007672079,0.0009742625,0.01126833,-0.008086761
0.8124118,0.410178,0.4472081,-0.003094568,0.007698674,0.008262128,0.002677734,0.006384471,-0.004327546
0.8123693,0.4128965,0.4477449,-0.003004556,0.01033961,0.00863688,0.004874408,0.002531391,-0.003823002
0.8125677,0.4120773,0.4466282,-0.002674521,0.009442254,0.007357543,0.004394312,0.005133685,-0.002254851
0.8121946,0.410817,0.4475687,-0.002917216,0.008102937,0.00813499,0.001558505,0.003797898,0.002209283
0.8106235,0.4110962,0.4474124,-0.004359027,0.008302041,0.007815277,0.001429137,0.0001430537,0.002273109
0.8092136,0.408199,0.447641,-0.005641026,0.005323637,0.007880219,-0.0002659972,-0.0009089593,-8.171756e-05
0.8095577,0.4061981,0.4478608,-0.005170239,0.003240408,0.007936185,-0.00383774,0.001954834,-0.002274215
0.8100336,0.4089818,0.4440443,-0.004568944,0.005940554,0.003955624,-0.005086726,0.007880188,-0.001700964
0.8096173,0.4100628,0.4425977,-0.004861144,0.006937011,0.002345056,-0.003733559,0.008295753,-2.547823e-05
0.8097736,0.4079615,0.4463347,-0.004582039,0.00475001,0.00591831,-0.0003894541,0.005364413,-0.002071434
0.8108201,0.4059278,0.4512363,-0.00341406,0.002629654,0.01065659,-0.001251728,0.004117171,-0.002344225
0.8109046,0.4059501,0.4532253,-0.003209348,0.002564357,0.01248263,-0.002356464,0.003705929,-0.002287353
0.8094049,0.4060553,0.4526346,-0.004590269,0.00258118,0.01172932,0.0005780398,0.004907182,-0.002364859
0.8078999,0.405818,0.4528598,-0.005977819,0.002254836,0.01179205,-7.27748e-05,0.003922434,1.231364e-06
0.8093042,0.4075849,0.4527484,-0.004457436,0.003932317,0.01151806,0.0005941183,0.001641661,0.0001268219
0.8119911,0.4069739,0.4523639,-0.001655718,0.003231631,0.01097079,0.002600327,0.0002097801,-0.0003128789
0.8113945,0.4054142,0.4509503,-0.002138982,0.001581958,0.009394021,0.001337871,0.0001229919,-0.003082674
0.8105481,0.4058587,0.4485735,-0.002873359,0.001936357,0.006853769,0.003247118,0.002529443,-0.006522083
0.811411,0.4053873,0.4500365,-0.001900087,0.00137499,0.008152874,0.005244354,0.003201335,-0.004480054
0.8114927,0.4065366,0.4550095,-0.001709692,0.002434489,0.01296174,0.004246641,0.004058736,-0.002304852
0.8123658,0.4074526,0.4583623,-0.0007295179,0.00326109,0.01615,0.0008205731,0.006849699,-0.001065858
0.8131516,0.4062923,0.4559582,0.0001615617,0.002011785,0.01358078,-0.003485269,0.008096089,-0.001915801
0.8116348,0.4052969,0.449809,-0.001251925,0.0009278273,0.007265654,-0.001884782,0.005410006,-0.004683944
0.8092867,0.4035849,0.4458787,-0.00349876,-0.0008720407,0.003168543,0.001587354,0.001198545,-0.003814943
0.8061374,0.4038966,0.4464957,-0.006548838,-0.0006473329,0.003618146,0.003468035,0.002945082,-0.005378573
0.8045698,0.4050765,0.4484538,-0.008019133,0.0004465905,0.005408396,0.005402115,0.00419219,-0.007863244
0.8072311,0.4055729,0.4483733,-0.005262185,0.000858158,0.005160085,0.002967893,0.002200142,-0.003118523
0.80934,0.4075588,0.4510442,-0.003059134,0.002760628,0.007663211,-0.0005511465,0.004393777,0.0008972486
0.8097424,0.4073186,0.4539409,-0.002564099,0.002438247,0.01039242,-0.0004244631,0.004967673,-0.001189343
0.8100243,0.4062956,0.449721,-0.002190868,0.001334516,0.006005262,-0.0004672635,0.002651877,-0.004239573
0.8084181,0.4078623,0.4472498,-0.003707269,0.002821747,0.003366961,0.001058641,-0.00250282,-0.005813124
0.8080583,0.4091062,0.4496021,-0.003978641,0.003987686,0.005552711,0.004789416,-0.007747496,-0.005530923
0.8089566,0.4086224,0.4506616,-0.0029933,0.003427135,0.006446237,0.004318513,0.0006745831,-0.003966058
0.8098476,0.4049591,0.4503883,-0.002016564,-0.0003115714,0.006007689,0.002841572,0.009936044,-0.003669051
0.8118735,0.4032221,0.4490318,9.367621e-05,-0.002122701,0.004486719,0.002987073,0.003957473,-0.003659363
0.8112593,0.4084497,0.4502427,-0.0004375921,0.003032146,0.005534091,0.0007304405,0.0009817356,-0.004285856
0.8107505,0.4108227,0.450875,-0.0008650626,0.005333907,0.006003896,0.0003189692,0.007467028,-0.00959296
0.8124659,0.4075197,0.4470934,0.0009301415,0.00196114,0.002060939,0.00133459,0.009374382,-0.01321143
0.8120467,0.4064326,0.4468065,0.0005890152,0.000805539,0.001614076,-0.000676608,0.008623843,-0.007500435
0.809869,0.4085462,0.447712,-0.00151255,0.002851929,0.002361049,-0.00203133,0.008067131,-0.001172199
0.8076765,0.412492,0.4467389,-0.003630704,0.006731811,0.00123111,-0.002194893,0.005891586,-0.00336342
0.8088029,0.4143845,0.4473781,-0.002431788,0.008559504,0.001715564,-0.002239725,0.007475965,-0.006505277
0.8108037,0.4112997,0.4460934,-0.0003601405,0.00541079,0.0002781532,-0.002497097,0.009824589,-0.004564062
0.8097092,0.4086607,0.4444454,-0.001385687,0.00270852,-0.001520124,-0.003747297,0.009533776,-0.00180408
0.8112528,0.4104691,0.4444357,0.0002251534,0.004454126,-0.001677437,-0.002959164,0.007342592,0.002387964
0.8130015,0.4121492,0.4442091,0.002039404,0.006071886,-0.002048749,-9.126357e-05,0.002705371,0.003473555
0.8096463,0.4108476,0.4450665,-0.001252236,0.004708362,-0.001332871,0.001816989,0.001944532,0.001170755
0.8072288,0.4117926,0.446149,-0.003608026,0.005591562,-0.0003884419,0.00132536,0.001925288,0.004417731
0.8083249,0.413306,0.4476164,-0.002452139,0.007043292,0.0009445419,7.618455e-05,-0.002144251,0.004550274
0.8081012,0.412123,0.4477257,-0.002617714,0.005798493,0.0009231316,0.001112997,-0.003164057,0.001748577
0.8044309,0.4123209,0.446531,-0.00623152,0.005934425,-0.0003985369,0.003125311,-0.002563328,0.004324312
0.8023719,0.4119933,0.4475657,-0.008235355,0.005544476,0.0005129599,0.004691191,-0.004100516,0.004346502
0.8063675,0.4112852,0.4477014,-0.004185809,0.004773609,0.0005294608,0.004611978,-0.006014546,0.003219153
0.8108737,0.4119989,0.4485996,0.0003735188,0.005423996,0.001312201,0.003711623,-0.00712217,0.003427412
0.8104926,0.4104921,0.4506158,4.463976e-05,0.003853402,0.003216834,0.006839578,-0.005873487,0.001461715
0.8105076,0.407664,0.4481844,0.0001108625,0.0009608599,0.0006777053,0.009793723,-0.001726536,0.002596061
0.8126284,0.4047022,0.446609,0.002281992,-0.002065818,-0.001001713,0.009130968,0.002454989,0.009585268
0.8107575,0.4037424,0.4495594,0.0004602122,-0.003090611,0.001848442,0.01099242,-0.001795862,0.0133107
0.8083927,0.4071442,0.4522015,-0.001856708,0.0002461143,0.004393943,0.01288982,-0.008822079,0.008183937
0.8089993,0.4095946,0.4511748,-0.00120345,0.00263177,0.003274186,0.01096322,-0.005464566,0.006771499
0.810184,0.4091412,0.4469632,2.672692e-05,0.002114064,-0.001027197,0.009340347,-0.0006827333,0.01221835
0.8144377,0.4099639,0.443684,0.004324551,0.002872831,-0.004392686,0.005984697,0.002129169,0.0144863
0.8166727,0.411942,0.4425963,0.006602278,0.004787455,-0.005563283,0.001645358,0.004572382,0.01391873
0.8146243,0.4120608,0.4430235,0.004595004,0.004843125,-0.005215352,0.004008242,-0.002985672,0.01265373
0.8150933,0.4087452,0.4441376,0.005103187,0.001464756,-0.004176635,0.008080467,-0.01014554,0.01266426
0.8145222,0.4038845,0.4436766,0.004569097,-0.003458451,-0.004708963,0.009282644,-0.008806177,0.01382003
0.8120074,0.4035169,0.4420613,0.002088936,-0.003887953,-0.006391334,0.01017637,-0.007991463,0.01634206
0.8105968,0.406765,0.4393937,0.0007106111,-0.0007010321,-0.009121761,0.00710232,-0.005782818,0.01913675
0.8089779,0.4074869,0.4369049,-0.0008784156,-3.931303e-05,-0.01166861,0.005015629,-0.003482984,0.01523202
0.8092433,0.4077415,0.4388313,-0.0005855749,0.0001561909,-0.009795319,0.008543867,-0.008455594,0.01295275
0.8113014,0.4086587,0.441588,0.001497797,0.001015512,-0.007086558,0.0107472,-0.017163,0.0168493
0.8138197,0.4083024,0.4401604,0.004039302,0.0006025661,-0.008556558,0.01110459,-0.01986703,0.01845728
0.8144112,0.4086508,0.4400266,0.004651658,0.0008956509,-0.008727119,0.01090825,-0.01807592,0.02009124
0.8115534,0.4101372,0.443234,0.001812469,0.002328025,-0.005550714,0.01006504,-0.02253519,0.0215879
0.8105109,0.411461,0.4458446,0.0007863172,0.003599054,-0.002965446,0.008451086,-0.03058203,0.02156903
0.8111402,0.4101319,0.4472077,0.001429541,0.002218327,-0.001622072,0.007052174,-0.03392286,0.02184725
0.8103808,0.4069709,0.4454803,0.0006819573,-0.0009932668,-0.003363667,0.009471481,-0.03227825,0.02204626
0.8108796,0.4039189,0.4426363,0.001190357,-0.004094657,-0.006216708,0.01025739,-0.02996301,0.02248921
0.8139376,0.3963721,0.4405916,0.004255877,-0.01168945,-0.008265335,0.008798606,-0.0288912,0.01860754
0.8164093,0.3896114,0.4378822,0.006732883,-0.01849638,-0.01097355,0.01167505,-0.02626804,0.01408431
0.8153392,0.3945909,0.4401954,0.005665973,-0.01356061,-0.008653902,0.01279605,-0.0232967,0.01461396
0.8142698,0.4012291,0.445141,0.004597368,-0.00696284,-0.003696598,0.009036923,-0.0182689,0.01222112
0.8143967,0.3994552,0.4447656,0.004722589,-0.008773705,-0.004055102,0.007355076,-0.01217184,0.006279449
0.8139644,0.4000906,0.4391286,0.004286045,-0.008171181,-0.009670071,0.01036301,-0.01284853,0.001515586
0.818053,0.4027962,0.4318052,0.008367815,-0.005494402,-0.01696652,0.01502039,-0.01214788,-0.005232708
0.8240786,0.3998037,0.4317386,0.01438372,-0.008511436,-0.01700089,0.01665395,-0.004337816,-0.01096962
0.8254751,0.3998014,0.4327528,0.01576757,-0.008533834,-0.01594893,0.01640222,-0.0009278914,-0.01098949
0.8244505,0.4024874,0.4290078,0.01472664,-0.005863428,-0.01965013,0.0156167,0.001257967,-0.01096316
0.8230935,0.402384,0.4327729,0.01334935,-0.005977732,-0.01583498,0.01014983,0.01362109,-0.01113611
0.8243439,0.4015093,0.4358588,0.01457501,-0.006858613,-0.01269249,0.003428298,0.02786504,-0.00968666
0.8245157,0.3996062,0.434114,0.01471722,-0.008763271,-0.01437394,-8.942329e-05,0.03428883,-0.01067641
0.8173538,0.4028993,0.4371652,0.007520765,-0.005466911,-0.0112526,-0.004100204,0.03565004,-0.01130566
0.8122243,0.4085889,0.4379239,0.002351532,0.0002304917,-0.01041704,-0.007100692,0.03217718,-0.01161282
0.8160645,0.4077809,0.4376596,0.00614707,-0.000565143,-0.01059797,-0.006880241,0.02885714,-0.01271057
0.8201015,0.4038515,0.4395718,0.01013461,-0.004477911,-0.008595949,-0.01055284,0.0362882,-0.01228548
0.817522,0.4001168,0.4403733,0.007500958,-0.008192042,-0.007698376,-0.01640009,0.04209374,-0.01373286
0.8148519,0.4016589,0.4409188,0.004772176,-0.006625398,-0.007050882,-0.01517819,0.02963747,-0.01533796
0.8140761,0.4040318,0.4398651,0.003933292,-0.004224034,-0.007997045,-0.01195396,0.01817916,-0.01525595
0.8112852,0.3998755,0.4412066,0.00107514,-0.008348034,-0.006542727,-0.0103504,0.02286797,-0.01418031
0.8118391,0.3972988,0.4435164,0.001557962,-0.01088844,-0.004115133,-0.008336467,0.02310677,-0.01119524
0.8108038,0.3959015,0.4467834,0.0004481382,-0.01224557,-0.0007258449,-0.007770684,0.01324062,-0.009200521
0.8064829,0.3932958,0.4537391,-0.003950199,-0.01480693,0.00635613,-0.001700964,0.009260159,-0.008410115
0.8085317,0.3931534,0.4535919,-0.001981336,-0.01490049,0.0063384,0.006276261,0.009648076,-0.01034641
0.8096288,0.3938568,0.4497156,-0.0009661921,-0.01414356,0.002593924,0.004592614,0.008752395,-0.01222082
0.8101135,0.396856,0.4500405,-0.0005648839,-0.01108585,0.003052279,0.001539524,0.01204942,-0.009443548
0.8138922,0.4017195,0.4500351,0.003129202,-0.006158822,0.003181278,0.001564415,0.01585575,-0.008239412
0.8126824,0.4053253,0.4511129,0.001833931,-0.002484485,0.004393743,0.0004324009,0.01066429,-0.007348022
0.8118624,0.4048967,0.4527035,0.0009277505,-0.002839841,0.006118804,0.001472002,0.001289499,-0.007506892
0.8145764,0.4019929,0.4518326,0.003555107,-0.005666173,0.005381431,0.004402202,-0.002036445,-0.01132601
0.8166416,0.4029661,0.4468253,0.005533249,-0.004611399,0.0005062832,0.00483052,0.001386565,-0.01019396
0.819014,0.4033426,0.4384965,0.007818275,-0.004149682,-0.007692222,0.0009452025,0.005212948,-0.01091617
0.8191402,0.4029504,0.4351144,0.007856733,-0.004453158,-0.01094576,-0.003806257,0.005173066,-0.01531018
0.8181174,0.4054406,0.4372814,0.006745659,-0.001871021,-0.008651938,-0.002874081,0.00516553,-0.01292938
0.8182833,0.4058101,0.4389074,0.006822653,-0.001406861,-0.006900483,-0.001835317,0.008798587,-0.01016938
0.8178119,0.4070682,0.439471,0.006261744,-5.145391e-05,-0.006212624,-0.005287282,0.01247133,-0.007951529
0.8174877,0.4077744,0.4402148,0.005847309,0.0007540292,-0.005345708,-0.00440107,0.01341718,-0.007462777
0.8156488,0.4058505,0.4407413,0.00391735,-0.001068992,-0.004697268,-0.003153365,0.01215294,-0.01561009
0.8127742,0.4057564,0.4401023,0.0009511506,-0.00106083,-0.005215322,-0.005252535,0.008666846,-0.02244564
0.8136984,0.4018812,0.440217,0.001783143,-0.004832898,-0.004980796,-0.004270793,0.005123614,-0.0218367
0.8144241,0.3982742,0.4413868,0.002416406,-0.00833601,-0.003692142,-0.00606975,0.007446902,-0.01897077
0.8122789,0.4003357,0.4406206,0.0001786165,-0.006169752,-0.004340742,-0.00848397,0.01177094,-0.01603078
0.8114462,0.4003948,0.439184,-0.0007465593,-0.006005254,-0.005660684,-0.006126337,0.009712598,-0.01268906
0.8107753,0.4001094,0.4385576,-0.001509528,-0.00618448,-0.006171644,-0.005429388,0.009167976,-0.01326582
0.8103422,0.4028574,0.4389605,-0.002034161,-0.003329557,-0.005654256,-0.004953686,0.0115392,-0.01756314
0.8117724,0.4051908,0.4401309,-0.0006945851,-0.0008887728,-0.004370403,-0.004693906,0.01070585,-0.01680217
0.8136065,0.4047653,0.4415258,0.001050012,-0.001206395,-0.002862968,-0.007328788,0.01281938,-0.01625073
0.8140482,0.4025473,0.4466623,0.001403553,-0.003316487,0.002384991,-0.008298207,0.01185348,-0.01752423
0.8109684,0.4010381,0.4511945,-0.001762974,-0.004717777,0.007027318,-0.00391519,0.002243394,-0.01495485
0.8093523,0.4009011,0.4469802,-0.003464332,-0.004747015,0.002921556,0.001825391,-0.004131574,-0.01476157
0.8134361,0.4018181,0.4418108,0.0005361272,-0.003722484,-0.002141375,0.002146734,-0.0018841,-0.01409161
0.8162993,0.4016233,0.4434787,0.003317799,-0.003809995,-0.0003692185,0.002451014,0.001833588,-0.01134425
0.8136687,0.4020405,0.4454608,0.000607715,-0.00328582,0.001714739,0.00432648,-0.0008586503,-0.00925321
0.8111917,0.4042071,0.4452523,-0.001946833,-0.001012694,0.001605662,0.002566639,-0.0005104788,-0.007574352
0.8129202,0.4031022,0.4450588,-0.0002938359,-0.002011631,0.001508888,0.003198149,0.007620414,-0.01100836
0.8139239,0.4004963,0.4434307,0.0006365112,-0.004512412,-2.521736e-05,0.003870012,0.01337311,-0.01514505
0.8133103,0.4001017,0.4435572,-4.835575e-05,-0.004802507,0.000192439,0.001172894,0.01574112,-0.01849889
0.813121,0.4031907,0.4432213,-0.0003065811,-0.001609939,-5.527971e-05,0.001168772,0.01078085,-0.01828183
0.8102751,0.4089971,0.4402132,-0.003219192,0.004299191,-0.002978192,0.001030619,0.001117745,-0.01350799
0.8086586,0.4105223,0.440425,-0.004899995,0.00592585,-0.00268404,0.0001014236,-0.002177469,-0.01454431
0.8092671,0.4076644,0.4403419,-0.004353263,0.003167874,-0.002687606,-0.0006740695,0.006147371,-0.01205021
0.8081622,0.4058236,0.4408484,-0.005517127,0.001424987,-0.002104252,-0.002166426,0.01787462,-0.007284691
0.8093855,0.4046035,0.4426372,-0.004349776,0.0003006163,-0.0002410968,-0.001774148,0.01064324,-0.009834429
0.8121368,0.401377,0.441092,-0.001651314,-0.002832472,-0.001714494,-0.002122328,0.003144532,-0.008732404
0.8128928,0.3986055,0.4417503,-0.0009448594,-0.005512902,-0.0009868139,-0.001852443,0.01192796,-0.007450947
0.8117142,0.4010392,0.441995,-0.002169723,-0.002990487,-0.0006751374,-0.0008427742,0.01096119,-0.007773044
0.8077368,0.4054699,0.4416466,-0.006190217,0.00152687,-0.0009589846,-0.002419999,0.008628428,-0.006632297
0.8043688,0.4093745,0.4448953,-0.009598013,0.005515823,0.002351947,-0.0024924,0.01068777,-0.008606664
0.8055962,0.4104492,0.4463124,-0.008406683,0.006672486,0.003828795,-0.002787457,0.006294586,-0.008832549
0.8090895,0.4053948,0.4468959,-0.004945765,0.001697202,0.00446956,-0.003504706,0.006800618,-0.008708477
0.8105891,0.4028279,0.4481472,-0.00347441,-0.0007934298,0.00577544,-0.001896508,0.008097031,-0.008823998
0.8115029,0.4045343,0.4486209,-0.00258491,0.0009862261,0.006300718,-0.001185496,0.007551317,-0.006785568
0.8130025,0.4042554,0.4467153,-0.001105637,0.0007774571,0.00444361,-0.001060981,0.006352092,-0.003991165
0.8126065,0.404249,0.4453723,-0.001518218,0.0008382607,0.00314576,-0.001932093,0.0006882201,0.0007444964
0.8117119,0.4052453,0.4474827,-0.002425602,0.001898601,0.005297898,-0.0003221815,-0.002129565,9.102153e-05
0.8099682,0.4067145,0.4480462,-0.004178626,0.00342884,0.005899589,0.004551383,-0.004953316,-0.002135756
0.8080171,0.4074147,0.449261,-0.006135483,0.004186986,0.007148887,0.004559085,-0.006678286,-0.0006093808
0.811045,0.4061409,0.4467685,-0.003109925,0.002967722,0.004687105,0.001880956,-0.003084043,-0.007081451
0.8157187,0.4043248,0.4388712,0.001564925,0.001202916,-0.003183299,-0.001346021,0.0006265621,-0.01443043
0.8158617,0.4022031,0.4341176,0.001712384,-0.0008708438,-0.007913675,-0.003482268,0.003594106,-0.01281907
0.8138419,0.4032265,0.4323641,-0.0003001079,0.0001971936,-0.009647202,-0.002567991,0.001236143,-0.01085341
0.8110202,0.4053806,0.4383128,-0.003111763,0.002392835,-0.00368127,-0.005380196,-0.002120107,-0.009197225
0.8070626,0.4042063,0.443028,-0.007056758,0.001256931,0.001049063,-0.006669467,8.500944e-05,-0.005660242
0.8075518,0.4030628,0.4409537,-0.006552249,0.000148861,-0.001012118,-0.003912451,0.0004953761,-0.005007795
0.8096197,0.4020206,0.4439552,-0.004466418,-0.0008609534,0.002000671,-0.003891804,0.00128905,-0.005744831
0.8082176,0.4023737,0.4460641,-0.005847942,-0.0004783213,0.00411903,-0.003139243,0.004760632,-0.003844695
0.8109806,0.4045916,0.4518113,-0.003061516,0.001766461,0.009873868,-0.002293426,0.003813281,-0.00344407
0.8147344,0.404254,0.4594455,0.0007183929,0.00145317,0.01751348,-0.002236835,0.0009910438,-0.00457121
0.8121978,0.4050168,0.4522107,-0.001789665,0.002237809,0.0102815,-0.001665283,0.001234372,-0.004745837
0.8084492,0.407165,0.4442964,-0.005507331,0.004405174,0.002366922,-0.001854668,0.001901329,-0.006628215
0.8066787,0.4070826,0.4458166,-0.007244696,0.004339449,0.003883577,-0.0001967194,0.001683772,-0.006662581
0.8101244,0.4080934,0.4473232,-0.003763579,0.005364315,0.005383469,0.002543119,0.002109676,-0.005376953
0.8144569,0.409518,0.4469086,0.0006066415,0.006800128,0.004959002,0.00525136,0.00252826,-0.005042452
0.8122025,0.4099199,0.4464663,-0.001607938,0.007210406,0.004503658,0.005614562,0.002903687,-0.002783138
0.8107619,0.4104278,0.4458078,-0.003006783,0.007723597,0.003828918,0.003791102,0.002912295,-0.003941205
0.8116469,0.4111837,0.4463432,-0.002078382,0.008481635,0.004344942,0.00391729,-0.0007848026,-0.007182859
0.8108768,0.4104472,0.4480128,-0.00280332,0.007743733,0.005992204,0.001429642,-0.004708284,-0.006549634
0.8120446,0.4057633,0.4465418,-0.001588889,0.003055026,0.004495823,-0.00241105,-0.001559659,-0.005440119
0.8125119,0.4046492,0.4441955,-0.001073607,0.001932457,0.002121126,-0.002917575,0.004511653,-0.005094421
0.8093877,0.4071121,0.4427486,-0.00414849,0.004383468,0.0006429775,-0.001910103,0.005517471,-0.003789405
0.8068291,0.4057378,0.4423298,-0.006656683,0.00299389,0.0001902914,-4.448268e-06,8.30815e-05,-0.00308506
0.8073228,0.4067368,0.4438407,-0.006111287,0.003974423,0.001664922,-0.002158327,-0.004617403,-0.007051867
0.8090138,0.4068861,0.44266,-0.004367364,0.004102163,0.0004457694,-0.005909815,0.002862252,-0.009466157
0.8084412,0.4033115,0.4416041,-0.004885647,0.0005028824,-0.0006504777,-0.004617165,0.01440937,-0.004305826
0.8078312,0.404812,0.4404329,-0.005440023,0.001975922,-0.001863808,-0.001484911,0.01304397,-0.0004486848
0.8087662,0.4071737,0.4357927,-0.004448057,0.004307533,-0.006547465,0.001956771,0.002817942,-0.0007359224
0.8082066,0.4085883,0.434459,-0.004949426,0.005689325,-0.007925482,0.001993208,-0.002699036,-0.003014805
0.8081644,0.4092105,0.4372458,-0.004931979,0.006276262,-0.005183541,0.0007360461,0.007774381,-0.004870268
0.8089994,0.4071979,0.4409068,-0.004036019,0.004225906,-0.001567248,0.003463977,0.02025402,-0.003274836
0.8100274,0.4077568,0.4437394,-0.002945773,0.004744477,0.001221,0.002689872,0.01070925,-0.002601498
0.8126673,0.407064,0.446168,-0.0002425408,0.004008892,0.003605608,0.001035649,0.001362992,-0.002721631
0.8125095,0.4060926,0.4471121,-0.0003358917,0.002992284,0.004506256,0.002477791,0.005578825,-0.002082416
0.8093342,0.4078063,0.4452628,-0.003445891,0.004658416,0.002613788,0.00237777,0.003688542,-0.000221747
0.8077136,0.4065686,0.448532,-0.00500058,0.00337109,0.005840001,0.003155846,0.001865056,0.004688675
0.8080554,0.406748,0.4517035,-0.004592174,0.003498728,0.008968668,0.0007517227,0.0008605797,0.007052142
0.8091611,0.4074959,0.4495955,-0.003419225,0.004192853,0.006817569,-0.003494636,-0.002994571,0.003557574
0.8101421,0.406361,0.451804,-0.002370427,0.00300232,0.008982657,-0.001096905,0.0008268098,-0.002392999
0.8123359,0.4073023,0.4536827,-0.0001081709,0.003886203,0.01081716,0.002073436,0.002372755,-0.003569101
0.812821,0.4069158,0.4518021,0.0004456607,0.00344059,0.008891358,0.003254833,-0.001687849,0.005751084
0.809232,0.4072316,0.4479686,-0.003074394,0.003695654,0.005011375,0.003964263,-0.003898969,0.01436721
0.8075686,0.409999,0.4398065,-0.004668731,0.006400894,-0.003198554,0.003573752,-0.005746519,0.008302391
0.8083491,0.4110618,0.435493,-0.003819172,0.007399968,-0.007561103,0.004349983,-0.00469853,0.001390386
0.8086959,0.4087449,0.438554,-0.003403229,0.005017879,-0.004550007,0.004385445,-0.003124843,0.006708787
0.8092234,0.4046337,0.441044,-0.002806529,0.0008399563,-0.002110177,0.004659728,-0.003441293,0.008923916
0.8099873,0.4050917,0.4401726,-0.001973481,0.001229756,-0.003031754,0.006470871,-0.00519944,0.007981089
0.8109203,0.4066141,0.4407828,-0.0009712537,0.002682817,-0.002471351,0.006727917,-0.008024144,0.0103971
0.8113009,0.4056206,0.4419232,-0.0005216914,0.001619003,-0.001380187,0.007134003,-0.007590873,0.008741611
0.8120885,0.4063224,0.4414021,0.0003345893,0.00224959,-0.001949817,0.006234511,-0.006794967,0.01138475
0.8131886,0.4045484,0.4434872,0.001502995,0.0004036196,8.779295e-05,0.003492776,-0.007906705,0.01522884
0.8141765,0.4024441,0.4437492,0.002558429,-0.001773116,0.0003031921,0.003344433,-0.008917453,0.01151568
0.815844,0.4038054,0.4421592,0.004292597,-0.0004844725,-0.001332289,0.002537563,-0.009565505,0.008298614
0.8153249,0.4033888,0.4431954,0.003838973,-0.0009737326,-0.0003403692,0.001096645,-0.00868287,0.004241956
0.8137329,0.4023601,0.4412904,0.002310981,-0.002074783,-0.002288408,0.003460227,-0.008661645,0.003747945
0.8130396,0.4018254,0.4388424,0.001679981,-0.002681421,-0.004778034,0.004944186,-0.009491108,0.005860237
0.8120656,0.4009511,0.4383411,0.0007664189,-0.00362676,-0.005319482,0.003161363,-0.008669355,0.001845719
0.8124761,0.4005277,0.4384561,0.001235379,-0.00412012,-0.005242844,0.002128791,-0.008950148,0.0008385124
0.8127801,0.400099,0.4426144,0.001595796,-0.00461734,-0.001120932,0.002240467,-0.01051245,0.002016093
0.8122271,0.4016837,0.4452817,0.001097183,-0.003099501,0.001512202,0.001433218,-0.01071215,0.001511229
0.8131595,0.4035381,0.4434988,0.002081698,-0.001309967,-0.0003028447,-0.0004141147,-0.009987917,0.002203084
0.8152127,0.4026566,0.444788,0.004184825,-0.002254301,0.0009561689,-0.001382871,-0.007869185,0.001082828
0.8173641,0.4015242,0.4484793,0.006383715,-0.003447192,0.004619168,-7.120331e-05,-0.003921787,0.0007630103
0.8167574,0.4013386,0.4481316,0.005821905,-0.003690887,0.004244912,0.002250321,-0.000323085,6.869955e-05
0.8140003,0.4016716,0.4430737,0.003106847,-0.003413537,-0.0008381784,0.003707018,0.0008116021,-0.001215982
0.8127688,0.4032048,0.4385276,0.001914445,-0.001933209,-0.005408034,0.004973081,-0.0009162361,0.0002235543
0.8123546,0.4045912,0.4397584,0.001536391,-0.0005968926,-0.004199579,0.004264459,-0.004430793,-0.0005387969
0.8132958,0.4030515,0.4415335,0.002510665,-0.002183871,-0.002445085,-0.001185637,-0.006473816,-0.00226106
0.8145192,0.4006848,0.4402659,0.003764216,-0.004595155,-0.003731697,-0.006273747,0.002472234,-0.003219281
0.8135084,0.4013899,0.4438968,0.002780489,-0.003931596,-0.0001179402,-0.005899177,0.01369013,-0.004720305
0.8130388,0.4034827,0.4482991,0.002335029,-0.001877411,0.004269032,-0.001428328,0.00567537,-0.005757177
0.8133884,0.4042302,0.4454664,0.002705813,-0.001165552,0.001422639,0.002612204,-0.001257652,-0.008762913
0.8139966,0.4048431,0.4406897,0.003332194,-0.000585238,-0.00336633,0.003416129,0.009792,-0.01184722
0.8152174,0.4062488,0.4382669,0.004568145,0.0007907365,-0.005799898,0.000336688,0.01692449,-0.01401575
0.8145366,0.406568,0.4411098,0.003899595,0.001083079,-0.002966279,-0.005058153,0.01722741,-0.01418895
0.8117674,0.4067714,0.4448368,0.001139572,0.00126216,0.0007531847,-0.003564391,0.01160087,-0.01029772
0.8090788,0.4070654,0.4428243,-0.001542687,0.001534208,-0.00126525,-0.0001068913,0.0004399448,-0.009448603
0.8108455,0.4048647,0.4423431,0.000227518,-0.0006860885,-0.001750863,-0.003570672,0.001376493,-0.01047802
0.8135811,0.4035387,0.444382,0.002964077,-0.002029682,0.0002851735,-0.002696608,0.009852992,-0.01018642
0.8095193,0.4042968,0.445532,-0.001099117,-0.001286972,0.001433855,-0.001549189,0.01251077,-0.01277215
0.8072168,0.4042177,0.4488514,-0.003405307,-0.001379507,0.004753154,-0.00399133,0.006438721,-0.01421379
0.8106677,0.4045097,0.4495507,3.994036e-05,-0.001098887,0.005453468,-0.002212698,-0.001638844,-0.01209994
0.8119159,0.4059185,0.4472028,0.001280651,0.0003004331,0.003107287,-0.003398512,0.00232163,-0.008969585
0.8119551,0.4074973,0.4460448,0.00131071,0.0018716,0.00195148,-0.003622046,0.00568219,-0.00674351
0.8125699,0.407228,0.4427963,0.001914744,0.001596405,-0.001294591,-0.0009179718,0.0004745711,-0.003957093
0.8123362,0.4062208,0.4409186,0.00166889,0.0005847303,-0.003169465,-0.0009420194,-0.001252731,0.0003332995
0.8106446,0.4063813,0.4410573,-3.636775e-05,0.0007421057,-0.003027672,0.001535647,-0.00373667,-0.002033567
0.8090205,0.4053073,0.4378608,-0.001675502,-0.000333748,-0.006220639,0.002065467,-0.0004053649,-0.007761932
0.809757,0.4051802,0.4374415,-0.0009551044,-0.0004615534,-0.006635699,0.0007673714,0.007073875,-0.01087788
0.8103363,0.4062567,0.4415224,-0.0003929614,0.0006152847,-0.002549623,0.00158806,-0.0003304466,-0.01699204
0.811455,0.4061443,0.4439712,0.0007077366,0.0005041038,-9.465039e-05,0.001160121,-0.005728904,-0.02152118
0.8144016,0.4072024,0.4435107,0.003635629,0.001564403,-0.0005479106,0.0008266182,-0.0005902966,-0.02465745
0.8161522,0.4072882,0.4422868,0.005366785,0.001653118,-0.00176364,-0.0007404514,-0.0008844488,-0.03107886
0.815985,0.406092,0.4436899,0.005179259,0.0004604074,-0.0003514415,-0.002087793,-0.002878397,-0.03375566
0.8124367,0.4054564,0.4453538,0.001609611,-0.0001710757,0.001322473,-0.001352682,-0.006270698,-0.03274064
0.8077503,0.4037987,0.4466566,-0.003099058,-0.001824357,0.00263605,-0.001767113,-0.0116595,-0.0296253
0.807437,0.4046365,0.4473071,-0.003435472,-0.0009815418,0.003297934,-0.003920891,-0.008193016,-0.02605527
0.8075812,0.4066853,0.4423207,-0.003315029,0.001072664,-0.00167671,-0.008571407,0.001918999,-0.02469748
0.8060495,0.4061686,0.4386715,-0.004870799,0.0005618121,-0.005313867,-0.01229988,0.00714435,-0.0190997
0.8074078,0.406969,0.4401803,-0.003536501,0.001368353,-0.003792573,-0.01011919,4.402185e-05,-0.01326521
0.80844,0.4074686,0.4398377,-0.002528091,0.001874435,-0.004122092,-0.005905897,-0.0104249,-0.0126917
0.809142,0.4066072,0.4385658,-0.001849439,0.001019565,-0.005380327,-0.007090733,-0.008648039,-0.01425481
0.8129444,0.4080276,0.4409826,0.00193025,0.002446489,-0.002948964,-0.01346787,-0.003149305,-0.0211884
0.8162663,0.4082145,0.4488538,0.005230038,0.002639856,0.004937745,-0.02037229,-0.003376172,-0.03904511
0.8208285,0.4049195,0.4570498,0.009770557,-0.000648876,0.0131499,-0.01900325,-0.003191947,-0.06990109
0.8224497,0.4007323,0.4572688,0.01137022,-0.004829966,0.01338529,0.0007148002,-0.003852301,-0.08978735
0.8126229,0.3995584,0.4477973,0.001521394,-0.005997964,0.003929687,0.02242873,-0.00249155,-0.07723206
0.798802,0.4049371,0.4342697,-0.01232185,-0.0006132495,-0.009582765,0.02426113,-2.737073e-05,-0.05286395
0.7933766,0.413259,0.4281894,-0.01776983,0.007714944,-0.01564867,0.01836445,-0.005968112,-0.0323671
0.8004089,0.4199148,0.4346502,-0.01075949,0.01437691,-0.009173606,0.01434038,-0.01029023,-0.02292118
0.8056017,0.4221328,0.4397814,-0.005587324,0.01660057,-0.004027665,0.00556904,-0.008223874,-0.01858815
0.8009575,0.4196235,0.4324561,-0.0102505,0.01409554,-0.01133751,0.003258785,-0.008820015,0.0003482096
0.801177,0.4188943,0.4291624,-0.01004784,0.01336872,-0.01461464,0.007096638,-0.01137943,0.006057043
0.8077345,0.4207794,0.4393014,-0.003504764,0.01525356,-0.004457575,0.004382975,-0.01208532,-0.009619883
0.8169546,0.4190864,0.4495057,0.005703514,0.01355724,0.00576665,0.0107831,-0.01147449,-0.0297849
0.8267442,0.4109552,0.4513566,0.01548361,0.005419068,0.007639099,0.01832484,-0.008260981,-0.07590913
0.8230712,0.4036077,0.4385317,0.011803,-0.001939071,-0.005163033,0.01006005,0.009486972,-0.1013089
0.8067111,0.4104377,0.4218621,-0.004563729,0.004876702,-0.02180874,0.00868239,0.03008508,-0.07037924
0.7927066,0.4235943,0.4201048,-0.01857385,0.0180154,-0.02354047,0.008683289,0.02968328,-0.04364929
0.7908867,0.4306952,0.4245193,-0.02039807,0.02509463,-0.0190979,-0.004579083,0.02457456,-0.02235743
0.7954358,0.436718,0.4288403,-0.01585099,0.03109128,-0.01474567,-0.01637011,0.02032886,0.005315126
0.794244,0.4295476,0.4363837,-0.01704198,0.02388915,-0.007167106,-0.02125522,0.01667329,0.02413168
0.7948266,0.4108534,0.4417233,-0.01645487,0.005156974,-0.00178843,-0.02328931,0.03072629,0.03863004
0.7972809,0.4099314,0.4454898,-0.01399192,0.00419045,0.002021001,-0.02530568,0.03670151,0.03362488
0.7955492,0.4194887,0.4508336,-0.0157103,0.01369695,0.007411247,-0.02125472,0.02599151,0.04076876
0.7997841,0.4246735,0.4546084,-0.01145702,0.01882464,0.01123527,-0.01763213,0.02433762,0.06798569
0.8042665,0.4263536,0.4563289,-0.006950981,0.0204413,0.01300706,-0.01775903,0.02280241,0.06212196
0.8043544,0.4202623,0.4565392,-0.006834141,0.01427982,0.01326973,-0.007890746,0.01515154,0.04496677
0.8058448,0.4153671,0.4518044,-0.005309519,0.009307436,0.008587569,-0.001558,0.006746277,0.03454407
0.8037885,0.4133246,0.4446117,-0.007326517,0.007181076,0.001447141,-0.0019578,0.008154252,0.02933504
0.8028343,0.4126973,0.4418022,-0.008236524,0.006463331,-0.001310796,0.002005903,0.01593556,0.03704844
0.8073579,0.4154165,0.4415174,-0.00366383,0.009085869,-0.001545102,0.007236165,0.01044273,0.02654145
0.8101337,0.414462,0.4408052,-0.000834245,0.008028745,-0.002207686,0.01113268,0.01181831,0.009149112
0.8049388,0.4196899,0.4442166,-0.005971111,0.01314847,0.001252452,0.006120381,0.0151831,0.004357945
0.7984742,0.4257701,0.4486804,-0.01237351,0.01911501,0.00576401,0.002631392,0.001547274,0.009016949
0.8015076,0.4187476,0.4445021,-0.009273982,0.0119732,0.001632144,0.00632245,-0.004416318,0.02302529
0.8031356,0.4144648,0.4391707,-0.007575714,0.007565555,-0.003654085,0.00618586,-0.003206893,0.02235475
0.8017986,0.4167571,0.4405547,-0.008838391,0.009727595,-0.002226301,0.0062331,-0.00463298,0.02670573
0.8054961,0.4159394,0.4415939,-0.00506258,0.008774579,-0.00114456,0.006721344,-0.008304027,0.04050614
0.8056374,0.4114591,0.4424767,-0.004839165,0.00415417,-0.0002204818,0.008013716,-0.009269441,0.03874972
0.8060542,0.4082607,0.4443018,-0.004336714,0.00081121,0.001644725,0.009195099,-0.004272497,0.04645354
0.8099302,0.408091,0.4454281,-0.0003717513,0.0004930945,0.002809793,0.008450586,-0.006772231,0.0505415
0.8098963,0.4071503,0.447971,-0.0003137056,-0.0005990911,0.005390125,0.008576343,-0.00611702,0.04287406
0.8096227,0.4068022,0.4477994,-0.0004928724,-0.001101329,0.005254305,0.006314985,-0.004099455,0.04608428
0.8098695,0.4055876,0.4468682,-0.0001495411,-0.002471926,0.004357036,0.006982428,-0.00990385,0.04301598
0.8094837,0.4033506,0.4503768,-0.0004370537,-0.004866119,0.007897562,0.01102155,-0.009584969,0.03755422
0.8099595,0.4027144,0.4517578,0.000138309,-0.005660047,0.009308122,0.01323888,-0.009070688,0.03421609
0.8094244,0.4037512,0.4486146,-0.0002962094,-0.004780735,0.006191851,0.01372491,-0.007780845,0.02869056
0.8087826,0.4076716,0.4462039,-0.0008369023,-0.001016938,0.003805176,0.01201697,-0.006719608,0.03336715
0.8082319,0.4089209,0.4468129,-0.001286081,7.705079e-05,0.004435089,0.0135286,-0.01007079,0.03664998
0.8083806,0.4072343,0.4465046,-0.001035836,-0.001763019,0.004144666,0.01597917,-0.01106976,0.03657063
0.8104697,0.4063633,0.4424337,0.001154735,-0.002785514,8.852491e-05,0.01723341,-0.01869609,0.03659095
0.8115239,0.4047173,0.4408571,0.002309848,-0.004580392,-0.001476364,0.01822056,-0.02582098,0.0290023
0.8112081,0.4031547,0.442858,0.002094313,-0.006289025,0.0005333512,0.01507474,-0.02530374,0.02471726
0.811123,0.4026104,0.4434029,0.00210836,-0.006975892,0.001084445,0.01351716,-0.02046514,0.02616863
0.8121574,0.4056274,0.4443014,0.003240557,-0.004097738,0.001986642,0.01198918,-0.0100674,0.02583788
0.8138565,0.4081627,0.4491423,0.005035705,-0.001696998,0.006828733,0.008557533,-0.008373297,0.02349951
0.8142524,0.4062912,0.4540605,0.005525558,-0.003698676,0.0117456,0.00989137,-0.01404557,0.02105619
0.814925,0.4049872,0.4500429,0.006289741,-0.005128183,0.007723987,0.0102018,-0.01621364,0.02036471
0.8164321,0.403843,0.4444669,0.007885638,-0.006393052,0.002140919,0.00706028,-0.01406039,0.02011584
0.8168222,0.4036325,0.4469951,0.008361265,-0.006719047,0.004659029,0.006090754,-0.0124192,0.02093566
0.8157795,0.403429,0.4446897,0.007400518,-0.007032686,0.002340509,0.009502249,-0.02171576,0.01930128
0.8147934,0.4004117,0.4392863,0.006492331,-0.01015441,-0.003078872,0.01242325,-0.02851909,0.01529327
0.8153543,0.3993722,0.4419551,0.007126873,-0.01129234,-0.0004286969,0.006785782,-0.02167147,0.01313262
0.8151043,0.4008693,0.4427198,0.006945986,-0.009887205,0.0003151174,0.001739423,-0.01633719,0.01068716
0.8132602,0.4036763,0.4416037,0.005166353,-0.007165556,-0.0008240545,0.006215845,-0.01879436,0.0115521
0.8131748,0.406561,0.4434543,0.005140483,-0.004359335,0.001001656,0.009129517,-0.01873149,0.01220645
0.8176129,0.4052334,0.4414134,0.00963316,-0.005758519,-0.001065744,0.007002745,-0.01205987,0.009342768
0.822827,0.4012666,0.4393681,0.01489664,-0.00979001,-0.003139023,0.008517968,-0.00716331,0.008097822
0.8208385,0.3993924,0.4416028,0.01295194,-0.0117219,-0.0009335506,0.01145399,-0.006459441,0.005280086
0.8167197,0.4006572,0.4430719,0.008870976,-0.01050761,0.0005054561,0.01092369,-0.01269501,0.005353652
0.8171212,0.4022705,0.4418894,0.009304187,-0.008937534,-0.0007078269,0.01011713,-0.01941923,0.007853853
0.8181559,0.4022727,0.4366609,0.01036436,-0.008971025,-0.005967767,0.008009657,-0.0122009,0.005803933
0.8197826,0.4028279,0.4304561,0.01200999,-0.00844417,-0.01220416,0.004036259,-0.006976994,0.003942929
0.8191961,0.4041407,0.4313124,0.01143592,-0.007152328,-0.01137919,0.0009622613,-0.01222791,0.002108603
0.8173627,0.403619,0.435639,0.009608123,-0.007687536,-0.007083005,-0.00235083,-0.01248656,0.00378622
0.8211486,0.4014999,0.436856,0.01339289,-0.009812978,-0.005895073,-0.002940485,-0.007611337,0.007397342
0.8226736,0.3993172,0.436706,0.01490977,-0.01199477,-0.006072279,-0.001009816,-0.005867446,0.003126808
0.8181064,0.3999754,0.4336842,0.01032737,-0.01132833,-0.009119363,-0.001575602,-0.01291136,2.438458e-07
0.8146551,0.4034935,0.4316972,0.006853675,-0.007794837,-0.01112923,-0.001747644,-0.02092401,0.0004667435
0.8153382,0.4042983,0.4340583,0.00750738,-0.006967475,-0.008788273,-0.002161649,-0.01755049,-0.003340807
0.8195909,0.4024248,0.4321372,0.01172376,-0.00881136,-0.01072642,-0.003230331,-0.009652231,-0.006504098
0.8211897,0.4008064,0.4320167,0.01327949,-0.01039337,-0.01086059,-0.0001985864,-0.003477254,-0.007394381
0.8182213,0.4007937,0.4371952,0.01026124,-0.01036291,-0.005691918,0.0008714361,0.001707064,-0.008830695
0.8163269,0.4012192,0.4362037,0.008310314,-0.009887562,-0.006689322,-0.002053665,0.001662649,-0.008571764
0.8198575,0.3993487,0.4335571,0.01177775,-0.01170178,-0.009337893,-0.003251075,0.002774116,-0.005621145
0.8240586,0.4002591,0.4338503,0.01590916,-0.01072854,-0.009042468,-0.003318715,0.008690669,-0.003271284
0.8208365,0.40342,0.4357775,0.01261079,-0.007498394,-0.007108695,-0.002498777,0.006805268,-0.004502041
0.8174652,0.4043277,0.4394334,0.009156766,-0.00651526,-0.003441895,-0.003019746,0.003648385,-0.006093692
0.8166336,0.4045686,0.4384902,0.008236049,-0.006192978,-0.004369941,-0.003836562,0.006314156,-0.005619166
0.8142128,0.4031745,0.4363274,0.005719945,-0.007500089,-0.00651337,-0.002729928,0.004748989,-0.005862202
0.8154868,0.4047052,0.4371192,0.006892891,-0.005877139,-0.005698142,-0.003881855,0.004755328,-0.005863348
0.8171354,0.409252,0.4368724,0.00843491,-0.001233097,-0.005917468,-0.005512405,0.006118486,-0.004783718
0.8180447,0.4103256,0.437388,0.009232493,-5.767837e-05,-0.005370398,-0.007487062,0.004197628,-0.004753594
0.8204986,0.4098701,0.4380098,0.01156978,-0.0004073731,-0.004713313,-0.008968878,0.005366036,-0.004097077
0.8194141,0.4086231,0.4366044,0.01036382,-0.001545084,-0.006079567,-0.006993472,0.00507415,-0.0038167
0.8187228,0.4062564,0.4348284,0.00954642,-0.003799564,-0.007812746,-0.005594894,0.004312843,-0.004767012
0.8191203,0.4033623,0.4332881,0.009813224,-0.006578931,-0.009306623,-0.003438451,0.004921908,-0.004372569
0.8174859,0.4032583,0.4356022,0.008043896,-0.006565797,-0.006942325,-0.00288596,0.004554318,-0.005325978
0.8184724,0.4053859,0.4399731,0.008891427,-0.004318933,-0.002517625,-0.005129499,0.009301537,-0.005394738
0.8211465,0.4038326,0.4393922,0.01142261,-0.005750978,-0.003041271,-0.004516347,0.01338947,-0.001273466
0.8221622,0.4046953,0.4389834,0.01229172,-0.004765236,-0.003389414,-0.005545743,0.01062215,0.0002851523
0.8199869,0.4066691,0.4406384,0.009966148,-0.002666958,-0.001670799,-0.005744581,0.007456851,-0.002599982
0.8165049,0.4047079,0.4375193,0.006330344,-0.00450227,-0.004723591,-0.003139091,0.007674419,-0.005355105
0.8171685,0.4047998,0.4348797,0.006836935,-0.004283493,-0.00729419,-0.003691726,0.005809486,-0.005994961
0.8181786,0.4041563,0.4364602,0.007686944,-0.004799231,-0.005642214,-0.002630276,-0.00284771,-0.006285676
0.8180315,0.4036027,0.4373197,0.007377225,-0.005224435,-0.004708835,-0.001219478,-0.006813777,-0.007773311
0.8212213,0.4044636,0.4375177,0.01040184,-0.004234581,-0.004434613,-0.002308343,-0.001480054,-0.008335876
0.823038,0.4019972,0.4372724,0.01205104,-0.006571693,-0.004601556,-0.002222911,0.001786886,-0.00772401
0.8212254,0.4008496,0.4358033,0.01006879,-0.00758971,-0.005990207,-0.001963975,0.0006407618,-0.006422916
0.8176616,0.4014518,0.4348896,0.006333219,-0.006857601,-0.006821513,0.0008789106,-0.004392373,-0.003556106
0.8147891,0.4010711,0.4353147,0.003287032,-0.007108103,-0.006312099,0.003735131,-0.007665421,-0.002223161
0.8193199,0.3997034,0.4349625,0.007642547,-0.008345432,-0.006578114,-0.0001270361,0.006294313,-0.00764588
0.8234958,0.3987396,0.4341654,0.0116418,-0.009178494,-0.00728711,-0.006071634,0.02374833,-0.01565544
0.8168076,0.4030491,0.4350086,0.004775818,-0.004738043,-0.006354068,-0.007762528,0.01835191,-0.01513076
0.8110152,0.4073042,0.4348549,-0.001195339,-0.0003516246,-0.006416025,-0.006367025,0.006952854,-0.009841181
0.8136043,0.4057456,0.4345307,0.0012144,-0.001778874,-0.00664687,-0.005307687,0.006334844,-0.01052246
0.8148922,0.4050227,0.4361347,0.002322851,-0.002370723,-0.004947774,-0.004716511,0.007724851,-0.011503
0.8140004,0.407874,0.4371406,0.001252,0.0006112675,-0.003845158,-0.005422206,0.01106138,-0.008649994
0.8150618,0.4080928,0.4377869,0.002135164,0.0009599438,-0.003100641,-0.006783256,0.008577933,-0.009015394
0.8143634,0.4036028,0.4379873,0.001259515,-0.00340131,-0.002800859,-0.005634019,0.003115289,-0.008231997
0.8135062,0.4004089,0.4389429,0.0002264173,-0.006467623,-0.001744783,-0.004841413,0.006775058,-0.003075531
0.8141326,0.4028783,0.4411062,0.0006787171,-0.003871988,0.0005198127,-0.005457476,0.006327957,-0.002233255
0.8136884,0.4065489,0.4404176,6.246755e-05,-7.640827e-05,-6.704853e-05,-0.004734493,0.004382069,-0.001670444
0.8141798,0.4056554,0.4395535,0.000384197,-0.0008464343,-0.0008291826,-0.004127567,0.005125309,0.003928773
0.8146592,0.4047321,0.4392855,0.0006966018,-0.00164791,-0.0009952898,-0.00506045,-0.0005033847,0.007268108
0.8142561,0.4047942,0.4358093,0.0001293905,-0.0014658,-0.004369873,-0.007634731,-0.002605499,0.00406568
0.8131232,0.4008772,0.4336669,-0.0011646,-0.005264605,-0.006410994,-0.009579177,-0.002358994,-0.00224098
0.8120392,0.3998742,0.4348402,-0.00240618,-0.006151288,-0.005136864,-0.00670581,-0.004677377,-0.004140615
0.8145589,0.4047532,0.4350554,-4.057979e-05,-0.001157877,-0.004821214,-0.002591677,-0.003942273,-0.003131583
0.8160801,0.4083575,0.4342705,0.001330371,0.002558977,-0.005505927,-0.002383087,-0.0002971347,-0.004157505
0.8150054,0.407459,0.4338565,0.0001093871,0.001771095,-0.005820072,-0.001886478,0.004912713,-0.005154293
0.8152773,0.4056477,0.4339231,0.0002390579,6.805508e-05,-0.005653968,-0.0004708678,0.004159606,-0.005987648
0.8153075,0.4062778,0.4371646,0.0001311683,0.0008039786,-0.002313103,-0.001096507,0.001640128,-0.005085342
0.8152773,0.4037436,0.4425885,-3.301109e-05,-0.001626892,0.003209685,-0.001356939,0.004007788,-0.003705722
0.8156512,0.4017339,0.4424557,0.0002111983,-0.003536034,0.003175269,-0.001825129,0.003435775,-0.00357377
0.816988,0.4054662,0.4387039,0.001422516,0.000294348,-0.0004790085,-0.001570177,0.003508916,-0.001434865
0.8185508,0.4069719,0.4382991,0.002864169,0.001895359,-0.0007875941,-0.0008614823,0.005291151,0.0004142669
0.8170696,0.4070373,0.437858,0.001265884,0.002053369,-0.001133766,-0.00294552,0.005186787,0.00229564
0.8151539,0.4073245,0.4383638,-0.000762642,0.002430256,-0.0005345458,-0.004097922,0.006194456,0.004914259
0.8153011,0.4074253,0.4432433,-0.0007242584,0.002617782,0.00443684,-0.006417946,0.003266591,0.004141324
0.8162576,0.4086278,0.4447746,0.0001276329,0.003903693,0.006058094,-0.01046567,-0.0006877808,0.002478434
0.8169435,0.4065,0.4396259,0.0007129939,0.00185602,0.0009971338,-0.008941533,0.001420214,0.001880044
0.8167235,0.4046835,0.4349471,0.0003965577,0.0001162289,-0.003596188,-0.004256521,0.00283843,0.0003064641
0.8165147,0.4057487,0.4357057,9.542073e-05,0.001254604,-0.002754618,-0.00238478,0.00278577,-0.000359087
0.8167326,0.4054969,0.43794,0.0002248192,0.001072541,-0.0004396702,-0.003624834,0.004081749,-0.001268956
0.8167127,0.4043927,0.4373418,0.0001204212,3.452259e-05,-0.0009595673,-0.002432743,0.003414321,-0.004442555
0.8167557,0.4029718,0.4372205,8.282807e-05,-0.001323521,-0.001004923,0.0001866251,0.003082534,-0.003782904
0.817615,0.4024723,0.4369417,0.0008652843,-0.001763477,-0.001210018,-0.001175086,0.003386123,-0.0004890905
0.818343,0.4025039,0.4359891,0.001520101,-0.001675502,-0.002091157,-0.001189098,0.002084818,0.0004604864
0.8177361,0.4010176,0.4389096,0.0008435723,-0.003108397,0.0008984673,0.0001558935,0.0019277,0.001400917
0.8159632,0.3994548,0.4408021,-0.0009955045,-0.004620627,0.002857922,0.0005107199,0.001975796,-0.0005796276
0.8138926,0.399724,0.4373918,-0.003128778,-0.004303413,-0.0004877806,0.002461101,0.00176115,-0.001268576
0.8134393,0.4006739,0.4340513,-0.003641388,-0.00330769,-0.003766106,0.002417397,0.001328861,0.00339947
0.814133,0.4008318,0.4341365,-0.003003536,-0.003106005,-0.003620988,0.0005555409,-0.001636068,0.004285366
0.8141015,0.4024329,0.4344342,-0.003087293,-0.001462971,-0.003265393,0.001008116,-0.002947246,0.002848856
0.8146224,0.4036668,0.4327562,-0.002614953,-0.0001889154,-0.004887533,0.001941553,-0.001979718,0.0001517536
0.8156793,0.4032547,0.433127,-0.001603063,-0.0005624105,-0.004462491,0.0004596813,-0.002326853,-0.004565383
0.8153582,0.4044765,0.4344275,-0.001965664,0.0006963274,-0.003109349,-0.0003482816,-0.002361756,-0.00419221
0.8151864,0.4044829,0.4355421,-0.002175318,0.0007380521,-0.001943511,0.0005469505,-0.005875621,-0.002359423
0.8165437,0.4036774,0.4379481,-0.0008524594,-3.367848e-05,0.0005125411,-0.0006101347,-0.008935891,-0.002836751
0.8178099,0.4044878,0.4352773,0.0003828041,0.0008088858,-0.00210955,-0.001535818,0.003370233,-0.004926545
0.8176137,0.4041183,0.4315902,0.0001588943,0.0004699458,-0.005749124,-0.001536992,0.01937774,-0.008308735
0.8145246,0.4047239,0.4343304,-0.002954917,0.001104563,-0.002962571,-0.001361565,0.01571274,-0.006456772
0.8115632,0.4081456,0.4376624,-0.00593788,0.004553517,0.0004148684,0.0008986123,-0.003209317,0.002109719
0.8143738,0.4113473,0.4405766,-0.003145765,0.007780819,0.003373526,0.001721746,-0.01526878,0.008262074
0.8184253,0.4109933,0.4427235,0.0008903183,0.007450426,0.005563762,-0.001118611,-0.005675987,0.001826478
0.8183005,0.4080413,0.4411426,0.0007530497,0.00451981,0.004024844,-0.003768616,0.006943784,-0.006518128
0.8178339,0.4061464,0.4393653,0.0002767654,0.002643772,0.002288067,-0.0008258215,0.001083305,-0.002152884
0.8178456,0.4036631,0.4380097,0.0002814428,0.0001768891,0.0009711012,0.002939577,-0.002579799,0.0005940784
0.8161733,0.4036653,0.4375275,-0.001395509,0.0001930247,0.0005258213,0.0004399303,0.0007674289,0.0001055025
0.8147728,0.4079619,0.4380446,-0.002798393,0.004501175,0.001077898,-0.001888719,-0.003132245,0.005705213
0.8150871,0.4088405,0.4351281,-0.002484293,0.005389004,-0.001805337,-0.003105356,-0.001952071,0.003349348
0.8156203,0.407621,0.4333106,-0.001949015,0.004176276,-0.003591367,-0.00486012,-0.001362604,-0.001169972
0.8153399,0.4058479,0.435854,-0.002225285,0.002407426,-0.001018121,-0.004368947,-0.005906908,0.001965537
0.8160247,0.4030373,0.4366722,-0.001534246,-0.0004013629,-0.0001714982,-0.005247716,-0.00360605,-0.000356653
0.8166512,0.4037557,0.4373845,-0.00089948,0.000316405,0.0005677559,-0.005570401,-0.005520264,-0.00388851
0.8135677,0.4027845,0.4386708,-0.003972793,-0.0006576477,0.001879689,-0.004808739,-0.008842565,-0.003486159
0.8096919,0.3994207,0.4386543,-0.007836583,-0.00402629,0.001887455,-0.005457532,-0.006871432,-0.001858636
0.809451,0.4002937,0.4408453,-0.008063337,-0.003159829,0.004101138,-0.003593335,-0.006944705,0.00194272
0.8121317,0.4031849,0.4404317,-0.005366344,-0.0002766943,0.003708732,-0.001888098,-0.006282045,0.001056063
0.8149641,0.4057219,0.4365849,-0.002515318,0.002251013,-0.0001186181,-0.002176258,-0.007147143,0.0008953774
0.8157739,0.4061509,0.43623,-0.001684531,0.002669563,-0.0004557254,-0.001690054,-0.008673938,0.004284937
0.8150618,0.4052639,0.4381865,-0.002373538,0.001770981,0.00151681,-0.000568513,-0.008513992,0.002339349
0.8141893,0.4065351,0.4422122,-0.003220671,0.003029376,0.005556971,0.0007198806,-0.007489073,0.001650576
0.8139313,0.4074011,0.4443915,-0.003451335,0.00388135,0.007749004,0.00028805,-0.004995178,0.003361982
0.8147066,0.4068133,0.4415559,-0.002646705,0.003278357,0.004924207,0.0004609777,-0.008091396,0.002162367
0.8156128,0.4068758,0.4381969,-0.001709353,0.00332438,0.001573761,0.003326702,-0.01340007,0.0004346727
0.8154279,0.4065116,0.4336655,-0.001861223,0.002942491,-0.002951147,0.005549994,-0.01493112,-0.0008258678
0.8149704,0.4038556,0.433638,-0.002284085,0.00026735,-0.002974133,0.005822489,-0.01256417,0.003162898
0.8156241,0.4001661,0.437969,-0.001594114,-0.003442394,0.001359547,0.00516019,-0.008637716,0.008387285
0.8162317,0.3991713,0.4369752,-0.0009487844,-0.004458591,0.0003669163,0.004628689,-0.01031856,0.005806439
0.8169092,0.401087,0.4369248,-0.0002323645,-0.002564898,0.000316102,0.003431282,-0.01073369,0.004301953
0.8178813,0.4038792,0.4384594,0.0007799025,0.0002049063,0.001848839,0.003624473,-0.008848886,0.007934238
0.8180113,0.4070351,0.4365313,0.000950905,0.003338039,-8.244726e-05,0.005444866,-0.0131335,0.009196261
0.8185898,0.4070016,0.4355632,0.001571133,0.003281563,-0.001055024,0.004771361,-0.01686873,0.01021257
0.8198118,0.404503,0.4334907,0.002835343,0.00075955,-0.003133242,0.005000485,-0.01700989,0.01294055
0.8211997,0.4055345,0.4316509,0.004265672,0.001767393,-0.004979586,0.00698753,-0.01622773,0.01476098
0.8211334,0.4062168,0.4331928,0.00424166,0.002425645,-0.003444969,0.008364775,-0.01541286,0.01482118
0.8196945,0.4048787,0.4334481,0.002844659,0.001063044,-0.00319722,0.01039492,-0.01584291,0.01234321
0.8206438,0.4055044,0.4331209,0.003835094,0.001664006,-0.003532256,0.01038988,-0.01436054,0.01187952
0.8205618,0.4038955,0.4323969,0.003793424,3.001608e-05,-0.004264039,0.00765837,-0.01026806,0.01308716
0.8186461,0.4020205,0.4300031,0.001916806,-0.00187032,-0.00666522,0.004066054,-0.006148359,0.01133696
0.8191305,0.4038677,0.4277103,0.002438906,-4.866445e-05,-0.008964926,0.002927409,-0.006316171,0.01069051
0.8183784,0.4046143,0.4259623,0.00172312,0.0006724374,-0.01071884,0.004406903,-0.01039455,0.008603667
0.8180781,0.4035358,0.4282062,0.001457596,-0.0004315475,-0.008479547,0.003017941,-0.01069296,0.00435385
0.8229753,0.4013861,0.4323787,0.006387887,-0.002606625,-0.004309833,0.001669475,-0.006668245,0.004498728
0.8261748,0.3992496,0.4331467,0.009618654,-0.004768209,-0.003542666,0.00135991,-0.002346578,0.002256199
0.8232737,0.3997382,0.4334127,0.006746645,-0.004304254,-0.003275443,0.0006058962,-0.001899881,-0.002232773
0.8210184,0.4004804,0.433529,0.00451801,-0.00358593,-0.003155848,0.00276184,-0.004061024,-0.0008204088
0.8224429,0.3998234,0.4332251,0.005966417,-0.004265825,-0.00345434,0.002422691,-0.001605819,-0.0007246411
0.8224649,0.3998357,0.4344186,0.006009471,-0.004275265,-0.002253435,-0.001823017,0.00338654,-0.005405757
0.8204971,0.4002813,0.4342569,0.004059843,-0.003850111,-0.002405537,-0.004832175,0.00756517,-0.008336559
0.8189658,0.3994736,0.4311452,0.002543587,-0.004676686,-0.005505646,-0.005593378,0.006488102,-0.008090192
0.8175188,0.3981767,0.4282081,0.001108511,-0.005990708,-0.008429132,-0.002447175,-0.000397427,-0.007398914
0.8176074,0.3977623,0.4299587,0.001206124,-0.006420465,-0.006662676,-0.0002108998,0.001368898,-0.008381337
0.8177024,0.4016069,0.4340815,0.001307347,-0.002589017,-0.002521586,-0.002046418,0.01586264,-0.009435947
0.8160698,0.4078708,0.4361618,-0.0003218298,0.003663797,-0.0004206863,-0.002884767,0.02826649,-0.009520686
0.8165153,0.4078261,0.4376508,0.0001246468,0.003610089,0.00109117,-0.002580501,0.01935256,-0.009218661
0.8175272,0.4055472,0.4353449,0.001135009,0.001323883,-0.001189899,-0.003253962,0.004283111,-0.008586076
0.8182007,0.4058484,0.4316283,0.001804806,0.001619336,-0.004879744,-0.005443782,0.009969543,-0.01088259
0.8208505,0.4045707,0.4335193,0.004448745,0.0003373407,-0.002960338,-0.007028441,0.01131582,-0.01285771
0.8203818,0.4054227,0.4342283,0.003972072,0.001186153,-0.00222108,-0.005604983,0.004282643,-0.008027532
0.8176916,0.4073678,0.4334253,0.001271764,0.003129126,-0.002992222,-0.003781101,0.006751714,-0.003547256
0.8179343,0.4058554,0.4354167,0.001502171,0.001615586,-0.000967401,-0.002297527,0.002661768,-0.005499311
0.8183843,0.4035216,0.43486,0.001938013,-0.0007185895,-0.001489159,-0.001616855,0.002256528,-0.008497828
0.8186656,0.4004986,0.434375,0.002203136,-0.003741319,-0.001937827,-0.002750374,0.00758526,-0.009031208
0.8190803,0.400727,0.4360915,0.00259989,-0.003512022,-0.0001837937,-0.002426449,0.005344275,-0.007211642
0.8185416,0.4034882,0.4361721,0.002041394,-0.0007489909,-6.447672e-05,-0.0011976,0.00759294,-0.004436667
0.818549,0.4024897,0.436163,0.002027304,-0.001744721,-3.400244e-05,-0.0009429624,0.008855028,-0.004584111
0.8181955,0.4026134,0.43611,0.00165075,-0.001617513,-4.668094e-05,-0.0004351891,0.01047015,-0.006083884
0.817469,0.4033028,0.4359913,0.0008997149,-0.0009235761,-0.0001244634,0.0002510518,0.01321806,-0.004938166
0.8177272,0.4029045,0.4354025,0.001131862,-0.001316562,-0.0006718682,0.001545609,0.008000426,-0.005103541
0.8182819,0.4066994,0.4311423,0.001659172,0.002484541,-0.004890342,0.001245682,0.006973611,-0.006095805
0.8196245,0.4092704,0.4260554,0.002973215,0.005062462,-0.009935152,-0.001813639,0.007494363,-0.004716835
0.8200785,0.4073598,0.4260924,0.00339745,0.003159297,-0.009855477,-0.00514386,0.007180954,-0.004409003
0.8186977,0.4048501,0.430837,0.001985817,0.0006571966,-0.005067287,-0.006880323,0.0086437,-0.004076371
0.8182506,0.4025646,0.4339566,0.001506654,-0.001620569,-0.001903089,-0.001297464,0.006374553,-0.004120735
0.8163732,0.4016653,0.4339126,-0.0004037712,-0.002511935,-0.001901367,0.007741257,0.005705345,-0.005356645
0.814322,0.4044056,0.4350629,-0.002488929,0.0002363033,-0.0007043231,0.009193122,0.002813581,-0.004666087
0.8164545,0.4086493,0.4375415,-0.0003910298,0.004488141,0.001821736,0.00656813,0.0006360513,-0.004158317
0.8181669,0.4069414,0.4381322,0.001286279,0.002788426,0.002460611,0.003140638,0.005992127,-0.003606882
0.8207282,0.40369,0.436557,0.003812043,-0.0004549725,0.0009338978,-0.001621733,0.00994753,-0.003433721
0.8247841,0.4039421,0.4345966,0.007832064,-0.0001950304,-0.0009778717,-0.00300801,0.01246848,-0.003292012
0.8212763,0.4036492,0.4319606,0.004287844,-0.0004804041,-0.003565309,-0.002802877,0.01332165,-0.001451371
0.8138142,0.407871,0.4309914,-0.003211299,0.003748648,-0.004485924,-0.003743873,0.0112563,-0.002830711
0.8116376,0.4125611,0.4328177,-0.005425551,0.0084456,-0.002611043,-0.003762535,0.009900016,-0.002888794
0.8143137,0.4136033,0.4331583,-0.002787214,0.009494067,-0.002221758,-0.005563372,0.01088234,-0.0008363303
0.8171137,0.4170248,0.4352897,-2.492263e-05,0.01292081,-4.158155e-05,-0.01091395,0.01541863,-0.002501841
0.8160096,0.4134296,0.4391284,-0.001166555,0.009329148,0.003845765,-0.01455132,0.01904073,-0.001457043
0.8145061,0.4044818,0.4390656,-0.002707073,0.0003830674,0.003831326,-0.01364973,0.01870093,0.0005517095
0.8158962,0.4018786,0.4384675,-0.001353476,-0.002220534,0.003281008,-0.009719307,0.01279661,0.0005316181
0.8171956,0.4000727,0.437183,-8.993688e-05,-0.004028775,0.002043563,-0.005092695,0.006058757,0.0001588812
0.8179665,0.3981324,0.4350093,0.0006459468,-0.005973096,-8.415521e-05,-0.003757637,0.00689681,-0.002812123
0.8167191,0.3979771,0.4343737,-0.0006355861,-0.006133603,-0.0006749516,-0.004828743,0.008260246,-0.004137992
0.814389,0.3971349,0.4331863,-0.002998981,-0.006981819,-0.001818592,-0.003856982,0.006139604,-0.003781455
0.8163103,0.3988502,0.4341969,-0.001109887,-0.005273015,-0.0007653797,-0.001432986,0.003869235,-0.001659868
0.8186282,0.4009855,0.4372544,0.001176776,-0.003144257,0.002333534,0.001100054,0.002218265,-0.001443376
0.8187523,0.3998566,0.4379439,0.001270806,-0.004279487,0.003063357,0.002624517,0.007278956,-0.01077467
0.819482,0.4005693,0.4363734,0.001971434,-0.00357282,0.001531796,0.001550208,0.01734543,-0.01687668
0.8172556,0.4050024,0.4320022,-0.0002829922,0.000854868,-0.002801905,0.0006703623,0.01878864,-0.01274374
0.8130627,0.4090204,0.4276365,-0.004503028,0.00486792,-0.007131509,-5.995446e-05,0.007024921,-0.008322363
0.8119725,0.4087767,0.4290642,-0.00561917,0.004619828,-0.005668829,-0.001984415,-0.001995872,-0.008250212
0.813362,0.4057249,0.4339054,-0.004254386,0.001563665,-0.0007935739,-0.001392453,0.005456281,-0.008600414
0.8146905,0.405369,0.4380967,-0.002949015,0.001203542,0.003431019,-0.001615138,0.01231897,-0.0057566
0.8146747,0.4066225,0.4413023,-0.002986258,0.00245278,0.006669127,-0.003049673,0.004926724,-0.004181362
0.8152734,0.4067187,0.4391021,-0.002407311,0.00254454,0.004500171,8.845333e-05,0.001953052,-0.002217297
0.81556,0.405426,0.4356447,-0.002138551,0.001247244,0.001072736,0.0003376753,0.007007173,-0.0002026845
0.81379,0.4033082,0.4384355,-0.003924587,-0.0008755438,0.003891972,-0.005138877,0.006152876,-0.003500405
0.8128212,0.4043835,0.4403579,-0.004907408,0.0001945808,0.005841176,-0.008146188,0.003209666,-0.004590129
0.8126778,0.4065716,0.4425515,-0.005062808,0.002377209,0.008059701,-0.005530574,-0.0006935224,0.001826335
0.8140674,0.4065969,0.4460451,-0.003682961,0.002396756,0.01157616,-0.001497096,-0.004549513,0.00797054
0.8161804,0.4055583,0.4428593,-0.001577576,0.00135211,0.008410548,-0.003219971,-0.003620401,0.003796129
0.8152704,0.4037116,0.4397939,-0.002492783,-0.0005010554,0.005362499,-0.004143334,-0.003515843,-0.001383827
0.8151973,0.4056235,0.4378475,-0.002568847,0.001404088,0.003430443,-0.001483876,-0.001556316,0.001861871
0.8180116,0.4082941,0.4348548,0.000244611,0.004067455,0.0004488625,-0.001870549,0.000930403,0.001428523
0.821107,0.4065561,0.4371413,0.003341319,0.002321788,0.0027435,0.0001013277,-0.0008673145,0.0006055357
0.8232002,0.4061051,0.4383865,0.005437617,0.001862603,0.00399389,0.0008587777,0.001140775,0.004075097
0.8222956,0.4047733,0.4363916,0.004537562,0.0005220016,0.002001182,-0.001202711,0.003603521,0.00263276
0.821815,0.4024692,0.4349875,0.004062721,-0.001791529,0.0005964452,0.0001933771,0.002485525,-1.006413e-05
0.8235997,0.4070631,0.432597,0.005853879,0.002792461,-0.001797259,-0.001021453,0.004309421,0.0003094196
0.8230543,0.4114218,0.4328496,0.005315556,0.007140802,-0.001550466,-0.001638951,0.006919797,0.002302673
0.8194106,0.4078107,0.4349913,0.001678955,0.003518642,0.0005832497,-0.0009320183,0.007139663,0.004395849
0.8143896,0.4041606,0.4374084,-0.00333497,-0.0001433858,0.002990344,-0.002805575,0.007054941,0.006610848
0.812686,0.4042091,0.4417259,-0.005031399,-0.0001075585,0.007295829,-0.0001231942,0.006657624,0.007574163
0.8157602,0.4031861,0.4420616,-0.001950041,-0.001143987,0.007617536,0.001510269,0.005846114,0.00352682
0.8175267,0.4030736,0.4414574,-0.0001759761,-0.00127053,0.006997094,-0.002790929,0.006358245,0.001805613
0.818164,0.4041072,0.4468909,0.0004690813,-0.0002514831,0.01241201,-0.005599063,0.007108583,0.003691339
0.8185306,0.40289,0.4489787,0.0008437009,-0.001483599,0.0144785,-0.00371298,0.007554947,0.004447671
0.8175602,0.4027364,0.4431082,-0.000118409,-0.001652248,0.008583565,0.001219428,0.008751956,0.006344859
0.8181964,0.4030596,0.4379932,0.0005261213,-0.001344374,0.003440864,0.003716004,0.006881809,0.007250389
0.8182864,0.403365,0.4383255,0.0006245089,-0.00105413,0.003742041,0.002617565,0.002004579,0.007511305
0.81748,0.4048183,0.4397445,-0.0001734074,0.0003840258,0.005126775,0.001685638,0.0008627949,0.00657686
0.8174877,0.4042258,0.4384259,-0.0001572413,-0.0002234909,0.003770666,0.002548493,0.005335449,0.004557898
0.8161046,0.4051555,0.4387602,-0.00153186,0.0006914441,0.004064488,0.002733656,0.008077711,0.006048529
0.8155534,0.4076534,0.4396048,-0.002074668,0.003174825,0.00486565,0.001429685,0.003737619,0.007953984
0.8158149,0.4068668,0.4393676,-0.00180465,0.002373765,0.004582179,0.002302971,-0.0003151907,0.009029957
0.8167853,0.4049987,0.4414282,-0.0008255966,0.0004912036,0.006593834,0.003462911,-0.001370101,0.008622574
0.819631,0.4043425,0.4406559,0.002028942,-0.0001793883,0.005769773,0.004308473,-0.003828707,0.00665565
0.8190456,0.405101,0.4386084,0.001452438,0.0005647771,0.003667974,0.004517946,-0.003484687,0.004898289
0.8172162,0.4048134,0.4371751,-0.0003680698,0.0002628212,0.002177824,0.002895517,-0.001162851,0.001638391
0.8182646,0.4034509,0.4317527,0.0006892061,-0.001113973,-0.003303745,0.004048597,-0.003329163,0.003195941
0.8180564,0.4028125,0.4278815,0.00048974,-0.001766544,-0.007236083,0.004392669,-0.007433245,0.007311339
0.8169028,0.4022574,0.4279086,-0.0006552501,-0.002335573,-0.007271607,0.003191649,-0.0103278,0.00651877
0.8165623,0.4018313,0.4343258,-0.000987303,-0.002775227,-0.000917804,0.004087626,-0.01009795,0.006225218
0.8166939,0.39705,0.4438589,-0.0008473708,-0.007569567,0.008551529,0.00377089,-0.006268257,0.003494029
0.8177303,0.3928275,0.4400715,0.0001972449,-0.01180426,0.004699906,0.005370806,-0.006045266,0.00209901
0.8188228,0.3982068,0.4318526,0.001297847,-0.006435998,-0.003583582,0.008521955,-0.01082786,0.009650514
0.8209343,0.4019062,0.4329114,0.003417373,-0.002745992,-0.002589622,0.009003286,-0.0140517,0.01209194
0.8238573,0.3985587,0.4340838,0.006348019,-0.00610115,-0.001482085,0.007625345,-0.01075105,0.006527241
0.8231437,0.3980513,0.4348582,0.005641619,-0.006614271,-0.0007721784,0.005463516,-0.001870144,0.002390508
0.8177897,0.4014578,0.4367585,0.0002939302,-0.003211365,0.001064237,0.005715824,-0.0002042994,0.001822294
0.8136789,0.4073076,0.4375601,-0.003811366,0.00263702,0.00180252,0.006361237,-0.01165068,0.003601204
0.8150581,0.4132378,0.4382838,-0.00242737,0.008567785,0.002463708,0.006567338,-0.02178884,0.003876373
0.8169724,0.4116305,0.4371545,-0.0005090111,0.006962582,0.00127255,0.007952299,-0.01620172,0.00565956
0.8157299,0.4072543,0.4382146,-0.001747906,0.002589742,0.002271651,0.007272974,-0.005363459,0.006802898
0.8163544,0.4067079,0.4372135,-0.001120066,0.002047576,0.001210278,0.007017372,-0.005645686,0.006295054
0.8200096,0.4041944,0.4346229,0.002537962,-0.0004611648,-0.001439788,0.007653677,-0.00817893,0.009563919
0.8225209,0.4029726,0.4398637,0.00505185,-0.001677724,0.003742413,0.006857161,-0.009021979,0.007429335
0.8221297,0.4042568,0.4398947,0.00466273,-0.0003876904,0.003715792,0.007066902,-0.008774363,0.004183321
0.8191671,0.4020744,0.4373996,0.001701457,-0.002563793,0.001163844,0.007442111,-0.005775462,0.007356664
0.8177864,0.4024776,0.4438547,0.0003212851,-0.002153765,0.007562983,0.007024771,-0.01292265,0.007059233
0.8206822,0.4035668,0.4442023,0.003216854,-0.001057131,0.007855175,0.00412777,-0.01965359,0.006707849
0.8233444,0.4020538,0.4363054,0.005877854,-0.002562198,-9.658476e-05,-0.001647859,-0.01485046,0.007754375
0.8218805,0.4031163,0.4296757,0.004411713,-0.001490994,-0.006780871,-0.002868855,-0.009034963,0.006934002
0.8191814,0.4028739,0.4293261,0.001709203,-0.001724081,-0.007184406,0.001619741,-0.006133804,0.007953492
0.8194895,0.4023916,0.4351074,0.00201264,-0.002196347,-0.001455955,0.0052207,-0.01535172,0.008481581
0.821111,0.4032324,0.4398232,0.003628222,-0.001344878,0.003208361,0.007217505,-0.02401765,0.008615333
0.821081,0.4024485,0.4437013,0.00359101,-0.002117338,0.007036112,0.007557643,-0.01363349,0.009188367
0.8196678,0.4027017,0.4405688,0.002169219,-0.001852052,0.003854534,0.005738396,-0.005911581,0.009495025
0.8190161,0.4020036,0.4326017,0.001507473,-0.002537276,-0.00416069,0.006614977,-0.01291063,0.01036087
0.8200647,0.4006839,0.4341204,0.002544742,-0.003843314,-0.002689195,0.008822097,-0.01624282,0.01054704
0.8215371,0.400658,0.4331889,0.004004438,-0.003854739,-0.003666625,0.009133915,-0.01057132,0.00996805
0.8244232,0.3997527,0.4282392,0.006876446,-0.004744641,-0.008660714,0.00929436,-0.006862372,0.007076359
0.8259959,0.3998351,0.4298532,0.008433406,-0.004645775,-0.007089487,0.006619697,-0.00396155,0.004105087
0.824206,0.4006094,0.4275677,0.006626078,-0.003853847,-0.009415482,0.003899712,-0.002637588,0.004952973
0.8231368,0.4016383,0.4256958,0.005537534,-0.002806006,-0.01132546,0.00313227,-0.006172073,0.005154127
0.8219795,0.4033465,0.4307553,0.00435877,-0.001077663,-0.006300924,0.0009730244,-0.005555192,0.002913879
0.8217107,0.4023189,0.4340872,0.004066395,-0.002083915,-0.003000909,0.0007844794,-0.00348041,0.001692409
0.8228202,0.3987449,0.4347372,0.005150207,-0.005635404,-0.002379278,-0.001931002,-0.0009035112,0.0002746504
0.8223257,0.3965335,0.4348019,0.004627914,-0.007822972,-0.002339579,-0.007327903,0.003788293,-0.002902595
0.8238737,0.3983053,0.4367052,0.006145826,-0.00602593,-0.0004580433,-0.00581474,0.003379408,-0.00512291
0.8258829,0.4021644,0.4381876,0.0081228,-0.002140048,0.001005792,-0.001967135,0.004890537,-0.006484757
0.8245419,0.4034832,0.4367735,0.006747207,-0.000792956,-0.0004238778,-0.0009895124,0.009247907,-0.006940797
0.8229491,0.4023269,0.4344622,0.005117383,-0.001919303,-0.002747829,-0.004067014,0.01230636,-0.005531919
0.8219173,0.4008316,0.4307317,0.004046142,-0.00338335,-0.00648826,-0.009748644,0.01780694,-0.006407922
0.8221101,0.399563,0.4302185,0.004197053,-0.004619377,-0.007008472,-0.01189377,0.02081802,-0.007672935
0.8234847,0.3997918,0.4337168,0.005527486,-0.00435659,-0.003514371,-0.0139217,0.02727767,-0.007055258
0.8237538,0.4000087,0.4349609,0.005750007,-0.004104363,-0.0022714,-0.01283125,0.03912408,-0.008480171
0.8230662,0.3980297,0.4322199,0.00501364,-0.006046526,-0.005010542,-0.005411823,0.03790339,-0.007906159
0.8209337,0.396624,0.4295986,0.002829981,-0.007413979,-0.007626984,-0.004780527,0.03207654,-0.004646716
0.8185771,0.3973638,0.4322825,0.0004201646,-0.00663427,-0.004935309,-0.00867124,0.03460082,-0.006709424
0.8191874,0.3983679,0.4344398,0.0009752889,-0.005588617,-0.00276708,-0.01140714,0.0295126,-0.01498751
0.819862,0.3989267,0.4318299,0.001592958,-0.004986403,-0.005363045,-0.01760124,0.0177177,-0.02088431
0.8178605,0.400988,0.4305638,-0.0004668539,-0.002879845,-0.006612086,-0.01873724,0.001137078,-0.01620232
0.8159349,0.407354,0.4311156,-0.002452066,0.003533129,-0.006040295,-0.01459658,-0.02162336,-0.006380674
0.8149125,0.4124969,0.4330506,-0.003534976,0.008724375,-0.00408211,-0.01339573,-0.02339292,0.001730921
0.8151731,0.4069956,0.4360768,-0.00333538,0.003272487,-0.001029698,-0.0132711,-0.006677711,0.008332804
0.8166027,0.3986929,0.4371291,-0.001966988,-0.004980321,5.160695e-05,-0.01002033,0.0007315462,0.00721651
0.8165778,0.397592,0.4391403,-0.002052877,-0.006030966,0.002094518,0.002193846,-0.01041867,0.003374392
0.8157433,0.3961931,0.4411132,-0.00294799,-0.007379093,0.004101418,0.01294052,-0.03229227,0.006528806
0.8158144,0.3961993,0.4367012,-0.002936806,-0.007321594,-0.0002747197,0.009892182,-0.03561168,0.007032256
0.8185811,0.3998719,0.4283943,-0.0002290137,-0.003596827,-0.008544061,0.006941163,-0.01870159,0.004932467
0.8220907,0.3953837,0.4240255,0.003222691,-0.008032041,-0.01287369,0.008990285,-0.002526237,0.001260831
0.82024,0.3898296,0.4298464,0.001315204,-0.01353207,-0.007011691,0.006970948,0.001554648,-0.008725459
0.8181975,0.391258,0.4383597,-0.0007829546,-0.01204831,0.001544782,0.008131481,-0.01097957,-0.009373766
0.8200337,0.395463,0.4350057,0.0009987522,-0.007786235,-0.001764084,0.0139715,-0.01902082,-0.00543338
0.8195619,0.404534,0.42654,0.0004736058,0.001343717,-0.01018287,0.01373154,-0.01878735,-0.009058766
0.818981,0.4096841,0.4227781,-0.0001593858,0.006554526,-0.01389587,0.01170028,-0.018613,-0.008787158
0.8198836,0.4079752,0.4240162,0.0006924337,0.004907624,-0.01260675,0.008249683,-0.01303886,-0.01010753
0.8195918,0.4083683,0.4284278,0.0003511321,0.005363428,-0.00814157,-0.0009139598,-0.00653927,-0.0136832
0.8211882,0.4087618,0.4269965,0.001899332,0.005819898,-0.009516614,-0.006487847,0.007034524,-0.01116258
0.8229665,0.4099751,0.4275533,0.003630705,0.007096032,-0.008900684,-0.00932009,0.01848491,-0.009356449
0.8222135,0.4115079,0.4333489,0.002831954,0.008690952,-0.003043,-0.01238264,0.01428917,-0.005378268
0.8221288,0.4087768,0.4313656,0.002702579,0.006020736,-0.004961349,-0.01268321,0.01333826,-0.0005282253
0.8232953,0.40451,0.4315016,0.003825404,0.001813152,-0.004757726,-0.0130073,0.02092692,-0.003281597
0.8237125,0.4014859,0.4363385,0.004199709,-0.001153599,0.0001493931,-0.01272268,0.02851649,-0.007354702
0.8225365,0.4009644,0.4399418,0.002981526,-0.001619703,0.003825147,-0.0142482,0.03133306,-0.009025731
0.8205849,0.4015112,0.4424931,0.0009883988,-0.001019377,0.00645075,-0.01680945,0.02784358,-0.01195406
0.8185796,0.4014412,0.438771,-0.001057953,-0.001037713,0.002804123,-0.01445727,0.02304502,-0.01366424
0.8166936,0.4010068,0.4387504,-0.002984313,-0.001422259,0.002859847,-0.009633502,0.02079408,-0.01333972
0.8162623,0.3993558,0.4393281,-0.003455236,-0.003025053,0.003514159,-0.005445989,0.02107516,-0.01323779
0.8170473,0.3972824,0.4364032,-0.002708732,-0.005051955,0.0006657711,-0.005550645,0.0183269,-0.01028632
0.817433,0.3970242,0.4430127,-0.002360434,-0.00526504,0.007351377,-0.006142085,0.01256174,-0.008186279
0.8174523,0.3992958,0.4472771,-0.002377201,-0.002949487,0.01169096,-0.001456937,0.009531175,-0.009492199
0.8173421,0.4006522,0.4463753,-0.002521972,-0.001550188,0.01086295,0.002037908,0.009151284,-0.009649043
0.8172731,0.4004313,0.4472544,-0.002624006,-0.0017292,0.01181379,0.005995133,0.0046417,-0.0108451
0.8176417,0.4025556,0.4438392,-0.002286739,0.0004361423,0.008467556,0.009033621,-0.002778084,-0.009543951
0.8180483,0.4050736,0.440621,-0.00190968,0.00299423,0.005315148,0.004333973,-0.001883267,-0.006154915
0.8182433,0.4044892,0.4394857,-0.001742404,0.00244888,0.004242024,0.0024939,0.003184845,-0.007114412
0.8185565,0.4031562,0.4401645,-0.001455004,0.00115378,0.00497941,0.002947915,0.005761861,-0.009023274
0.8205821,0.4026775,0.4400055,0.0005466144,0.0007116281,0.004875086,-0.001818491,0.006437466,-0.01324995
0.8226952,0.4019237,0.4378078,0.002637615,-7.009471e-06,0.002728148,-0.004023887,0.004026786,-0.01476547
0.8197857,0.4052076,0.4403735,-0.0002923475,0.003310592,0.005340669,-0.004291173,0.003423639,-0.007701804
0.8161764,0.4099413,0.4435517,-0.003920477,0.008076567,0.00856152,-0.005524999,0.004339304,-0.003267001
0.8164322,0.4058841,0.4438577,-0.003681864,0.004049908,0.008905856,-0.005439366,0.004480952,-0.003931672
0.8151344,0.4020507,0.4401448,-0.004995166,0.0002450444,0.005226938,-0.00558817,0.005302798,-0.003095244
0.8135877,0.4049104,0.4380672,-0.006555449,0.003131209,0.003178733,-0.005723332,0.007072254,0.0007862257
0.8140837,0.404322,0.442443,-0.006071016,0.00256727,0.007579283,-0.005761342,0.009642894,0.003964861
0.8133305,0.4025925,0.4422796,-0.006833398,0.0008601127,0.007435963,-0.004755052,0.007253899,0.002799587
0.81477,0.4030162,0.4439954,-0.005400629,0.001303978,0.009167221,-0.001643678,0.003687395,-0.0004167361
0.8177289,0.4023277,0.4472536,-0.002445984,0.0006336057,0.01243605,0.001826513,0.004278293,-0.002533885
0.8175864,0.4017987,0.4429746,-0.002589946,0.0001207174,0.008162508,0.00242461,0.004074318,0.0005500318
0.8196343,0.4003531,0.4436548,-0.0005409916,-0.001310786,0.008843075,0.0006088785,0.004280575,0.00253372
0.8227946,0.3997326,0.4426049,0.002622782,-0.001918903,0.007788201,0.001278632,0.002571915,-0.001669224
0.8181826,0.4021006,0.4360695,-0.001983471,0.0004598325,0.001242478,0.001188481,-0.003483251,-0.001286795
0.813223,0.4033414,0.4355726,-0.006935241,0.001709823,0.0007302053,0.0002403654,-0.005697083,-0.0003136326
0.8175138,0.4026211,0.43472,-0.002634479,0.0009972413,-0.0001425101,0.001956951,0.003243534,-0.003286206
0.8215039,0.401674,0.4353926,0.001367661,5.63645e-05,0.0005054694,0.0009658598,0.01467354,-0.003801768
0.8202082,0.401198,0.4391164,8.602024e-05,-0.0004147572,0.004200701,9.141173e-05,0.009375451,-0.004162289
0.81917,0.4017369,0.4399203,-0.0009362653,0.0001276723,0.004972161,0.001531145,-0.006162214,0.00109416
0.8176299,0.4032171,0.4406753,-0.002458782,0.001610264,0.005691045,0.0004033008,-0.01231419,0.008121442
0.8175177,0.4048938,0.4393759,-0.002551859,0.003288075,0.004352029,-0.000709392,-0.002492931,0.005291731
0.8182903,0.4052485,0.4355093,-0.001758712,0.003642702,0.0004423885,-0.00153962,0.01099811,0.003920217
0.8149631,0.4050562,0.4325344,-0.005063767,0.00344903,-0.002578791,-0.002201145,0.003585085,0.006343854
0.8131502,0.4041223,0.4337683,-0.006853028,0.002512381,-0.001393859,-0.001036985,-0.005654215,0.005016617
0.8148933,0.4016859,0.4380897,-0.00508468,7.1796e-05,0.002876138,3.862149e-05,0.0004167466,0.005851005
0.8153475,0.4012317,0.4386212,-0.004603535,-0.0003879567,0.003354159,0.002337901,-0.005535848,0.01020575
0.8135683,0.4027905,0.4385939,-0.006354085,0.001164077,0.003271379,0.003606989,-0.0154487,0.01346566
0.8118006,0.4043388,0.4383887,-0.008091155,0.002704365,0.003008876,0.001697015,-0.01464362,0.01303335
0.8143019,0.4043858,0.4357285,-0.005557213,0.002742087,0.000289807,0.00200686,-0.0105329,0.01025221
0.8190864,0.4009367,0.4361866,-0.0007380261,-0.0007172938,0.0006874695,0.003526159,-0.005388289,0.009653314
0.8212988,0.399064,0.4376092,0.001511111,-0.002601449,0.002048405,0.003589387,-0.009283883,0.01003245
0.8187167,0.4004298,0.4392393,-0.001032573,-0.00124811,0.003615677,0.004248591,-0.01571551,0.01000917
0.8149359,0.4009495,0.441244,-0.004773278,-0.0007415262,0.005556681,0.003279635,-0.01810895,0.01101118
0.8168846,0.4015823,0.4397224,-0.002783071,-0.0001224488,0.003970414,0.0009144279,-0.01585995,0.01181241
0.8185092,0.4015507,0.4376678,-0.001115504,-0.0001683283,0.001850187,0.001150401,-0.007836853,0.01284314
0.8173659,0.4011024,0.4346681,-0.002214625,-0.0006312036,-0.001215962,0.002120006,-0.01097394,0.01423601
0.8187613,0.4012579,0.4320237,-0.0007737855,-0.0004906796,-0.003927409,0.002266826,-0.01609954,0.01396608
0.8189182,0.399512,0.4335315,-0.0005704493,-0.002251768,-0.00248681,0.004025519,-0.01401971,0.01056044
0.8193005,0.3980267,0.43379,-0.0001408386,-0.003752303,-0.00229554,0.005653585,-0.01520523,0.006569081
0.820478,0.3983392,0.4328319,0.00108472,-0.003454958,-0.003320324,0.005286509,-0.01339119,0.007729167
0.8206076,0.3979914,0.4339233,0.001262761,-0.003817523,-0.002295042,0.003841284,-0.0115641,0.009062206
0.8229669,0.3968584,0.4351681,0.00367085,-0.004964877,-0.001115343,0.0009497278,-0.01075537,0.00657932
0.8226831,0.3971569,0.4366463,0.003435786,-0.004679789,0.0002988984,-0.0002352655,-0.007060333,0.00547341
0.8213265,0.3983657,0.4377516,0.002127653,-0.003483558,0.001341548,-0.001465203,-0.003396415,0.0002958106
0.8226908,0.3979251,0.4390659,0.003539796,-0.003935523,0.002594484,-0.004854678,0.002991061,-0.01125961
0.8211955,0.3978927,0.4398581,0.002091589,-0.003978056,0.003326589,-0.002070113,0.004950242,-0.01826813
0.8197352,0.3997242,0.4338431,0.0006772824,-0.002155208,-0.002747272,0.001103058,3.133136e-05,-0.0146452
0.8183265,0.4032045,0.4265845,-0.0006865176,0.001317937,-0.01006331,-0.002424631,-0.00466974,-0.005790916
0.814606,0.40575,0.4303667,-0.00436323,0.003857668,-0.006336948,-0.003320759,-0.005890832,-0.002557837
0.8140248,0.400683,0.4402998,-0.004901803,-0.001213848,0.003542301,-0.001373104,-0.003293221,-0.005634901
0.8154169,0.3959013,0.4439112,-0.003467898,-0.005998914,0.007102088,0.002875899,-0.003169693,-0.00645582
0.8170243,0.4033015,0.4372419,-0.001819492,0.001399123,0.0003829416,0.008646068,-0.005572079,-6.532089e-06
0.8188375,0.4100618,0.4307305,3.397792e-05,0.008158387,-0.006176351,0.008058142,-0.0123663,0.007145528
0.8184836,0.4055717,0.4358656,-0.000280211,0.003668078,-0.001087379,0.008902556,-0.02603647,0.00637867
0.819381,0.4023382,0.4400808,0.0006561353,0.0004350003,0.003083625,0.01451109,-0.03460403,0.007259322
0.8217387,0.4015243,0.4363436,0.00305195,-0.0003780274,-0.000695763,0.01391377,-0.03427324,0.01241146
0.8209873,0.397687,0.4357902,0.002337779,-0.004214135,-0.001289429,0.0131767,-0.03302489,0.01045244
0.8202389,0.4007959,0.4313066,0.001625484,-0.001103556,-0.00581144,0.01612506,-0.03435791,0.005625986
0.821281,0.4066173,0.4233272,0.002702494,0.004720031,-0.01382701,0.01219911,-0.03393734,0.003737032
0.820939,0.4073757,0.4264691,0.002394029,0.005480884,-0.01071884,0.007222089,-0.02792909,0.00561631
0.8214997,0.4100323,0.4308564,0.002986751,0.008140096,-0.00636227,0.006322548,-0.0219876,0.01022609
0.8229936,0.4086598,0.4295695,0.004511187,0.006769959,-0.007676632,0.002697216,-0.02121713,0.01035595
0.8231743,0.4027368,0.4283662,0.004720545,0.0008486777,-0.008903745,0.0009243894,-0.0218249,0.009767847
0.8246143,0.4011642,0.4260815,0.006187415,-0.0007228281,-0.01120847,0.001299632,-0.02072345,0.009863196
0.8256,0.3987352,0.4283015,0.007197703,-0.003151549,-0.00900445,-0.00120111,-0.02077184,0.003114077
0.8247449,0.3971616,0.4323919,0.006364835,-0.004725405,-0.004925763,-0.00316288,-0.01717758,-0.004682977
0.8247735,0.3971968,0.4293267,0.006412928,-0.004690773,-0.007998221,-0.004825189,-0.008620926,-0.007868355
0.8242686,0.3923371,0.427949,0.00592476,-0.009551133,-0.009378715,-0.003826669,-0.007416525,-0.008928377
0.8230277,0.3908749,0.4294841,0.004697632,-0.01101355,-0.007841744,0.00198072,-0.01194803,-0.008091154
0.8226612,0.3949858,0.4283957,0.004341815,-0.006902174,-0.008923679,0.00408067,-0.01284352,-0.006061839
0.822175,0.3964236,0.4282351,0.003863236,-0.005462705,-0.009072982,-0.0006448776,-0.007931123,-0.005659227
0.8219681,0.3950742,0.4263197,0.003660763,-0.006808971,-0.01097232,-0.00401985,-0.002321655,-0.008342878
0.8226042,0.3937409,0.4257139,0.004298187,-0.008137512,-0.01155693,0.001066886,-0.004788378,-0.0111743
0.8236516,0.3955887,0.4301207,0.005343847,-0.006283066,-0.007123951,0.006454938,-0.006804043,-0.01265353
0.8264124,0.4002054,0.4309994,0.008099645,-0.001657669,-0.006213866,0.003534291,-0.00407715,-0.01116951
0.8286917,0.4035701,0.4292669,0.01037084,0.001717895,-0.007909951,0.002503424,-0.004376293,-0.006688975
0.8265633,0.4019127,0.4279659,0.008230824,7.32136e-05,-0.009169468,0.004545603,-0.003873952,-0.00559904
0.8237664,0.3985835,0.4262775,0.005418741,-0.003241388,-0.0108115,0.001870901,-0.004957193,-0.006190733
0.8239612,0.4021205,0.4264345,0.005594672,0.0003117771,-0.01060321,-0.0004501868,-0.007905873,-0.007213037
0.8261683,0.405551,0.4261488,0.007779155,0.003759944,-0.01083266,-0.00156867,-0.00410288,-0.009826445
0.8285556,0.4054827,0.4248786,0.01014028,0.003710644,-0.01204141,-0.003460656,-0.0002245183,-0.009819012
0.8272384,0.408675,0.4222975,0.00879308,0.006922868,-0.01455608,-0.007343352,-0.0005697355,-0.009597797
0.8251357,0.4089333,0.4206807,0.006656392,0.007201593,-0.01610108,-0.01370333,6.780545e-05,-0.003236016
0.8258879,0.4065286,0.4268069,0.007370727,0.004817465,-0.009897803,-0.01457045,0.0005201877,0.006505037
0.8249668,0.4034893,0.4340075,0.006407906,0.001798536,-0.002614564,-0.01415087,0.001865341,0.003701803
0.824578,0.3976314,0.4339099,0.005973449,-0.004039451,-0.002624473,-0.01631171,0.007482496,0.003310376
0.826681,0.3965918,0.4305102,0.008026982,-0.005059584,-0.005931712,-0.01275171,0.01342176,0.00864974
0.8273137,0.3963503,0.4275311,0.008606462,-0.005281756,-0.008813951,-0.008047497,0.01752601,0.000651254
0.8280016,0.39369,0.4238206,0.009237451,-0.007922817,-0.0124233,-0.005998163,0.02636932,-0.007950346
0.8278645,0.3947974,0.4209522,0.009039638,-0.006795813,-0.01518647,-0.005910806,0.03696066,-0.009873688
0.8264332,0.3951495,0.4221469,0.007543745,-0.006423518,-0.01388232,-0.00948342,0.04141677,-0.01625658
0.8266084,0.3969172,0.4229008,0.007650646,-0.004634881,-0.01301459,-0.01519743,0.05438776,-0.01808718
0.964014,0.1705897,0.2896531,0.00197158,0.01363082,-0.006890345,-0.1265069,0.07392324,-0.2415567
0.965315,0.1686285,0.2918915,0.004200228,0.01034822,-0.005413939,-0.1256575,0.06141406,-0.2371317
0.9687166,0.1681658,0.2907058,0.008495123,0.008594822,-0.007340494,-0.1277074,0.05523933,-0.2334946
0.9683186,0.1713997,0.2925874,0.008955739,0.01056957,-0.006177637,-0.1302823,0.05718464,-0.2316039
0.9675438,0.168401,0.2973079,0.009004649,0.006343992,-0.002153092,-0.1296821,0.0560761,-0.2319806
0.9682824,0.1706987,0.301422,0.01053198,0.007447508,0.001288208,-0.1308059,0.0526497,-0.2303548
0.9668173,0.173974,0.2949893,0.009820356,0.00956185,-0.005793931,-0.1300964,0.05455602,-0.2253113
0.9654439,0.1739954,0.286546,0.009165167,0.008455932,-0.01486287,-0.13394,0.05474362,-0.2181082
0.9654413,0.1759449,0.2876951,0.009845766,0.009311933,-0.01431524,-0.1358062,0.05938702,-0.2141346
0.966961,0.1724054,0.2900943,0.01201362,0.004712875,-0.01249279,-0.1319205,0.07285996,-0.2193253
0.9690226,0.1668064,0.294263,0.01468865,-0.001911672,-0.008875612,-0.1304238,0.08221816,-0.2262736
0.9689864,0.1645308,0.2967636,0.01523129,-0.005178552,-0.006901025,-0.1230874,0.08218258,-0.2284993
0.9693139,0.1724625,0.2916239,0.01610314,0.001796459,-0.01254128,-0.1147202,0.07179768,-0.2204246
0.9697062,0.1835972,0.2876929,0.01700557,0.01200917,-0.01694724,-0.1130549,0.06358682,-0.207047
0.9680664,0.1777565,0.2858828,0.01584198,0.005280933,-0.01920655,-0.1155166,0.06601341,-0.207037
0.9670792,0.1730954,0.2815761,0.01529728,-0.0002335965,-0.02393648,-0.1200264,0.06444315,-0.2073705
0.9672,0.178452,0.2775015,0.01582735,0.004303188,-0.02840787,-0.1221532,0.0603604,-0.1961213
0.9676584,0.1761854,0.2790855,0.01666233,0.001250218,-0.02719372,-0.1242188,0.06468718,-0.1921759
0.968532,0.1753915,0.2840336,0.01788022,-0.0002971778,-0.02258809,-0.1223794,0.06928216,-0.1900291
0.9695295,0.1776298,0.2905156,0.01919016,0.001220384,-0.01642102,-0.1178096,0.06704336,-0.185481
0.9690538,0.1755908,0.2988153,0.01899576,-0.001507231,-0.008408828,-0.1177061,0.06760129,-0.1862948
0.9646395,0.1766896,0.2967643,0.01483202,-0.001065321,-0.01072042,-0.1161205,0.07237604,-0.1773012
0.961386,0.177692,0.291704,0.01179911,-0.0006884573,-0.01601519,-0.1156733,0.07196367,-0.1665077
0.9643195,0.1772573,0.2956194,0.01492397,-0.001717919,-0.01230856,-0.1175124,0.07028735,-0.1656496
0.9677529,0.1774934,0.2944469,0.01852047,-0.002046397,-0.01366474,-0.1171739,0.06513522,-0.1609201
0.9685479,0.1757035,0.2909874,0.01945102,-0.004371021,-0.01728356,-0.1163111,0.05734312,-0.1578416
0.969265,0.1757395,0.2877845,0.02027679,-0.00484066,-0.02062185,-0.115662,0.06497291,-0.1595913
0.9681532,0.174091,0.2772614,0.0192474,-0.006966152,-0.03125675,-0.1235248,0.07782229,-0.1607221
0.9654794,0.169946,0.2724166,0.01663051,-0.01155988,-0.0361898,-0.135091,0.07901292,-0.1661825
0.9657887,0.1700024,0.2758446,0.01697188,-0.01192428,-0.03282642,-0.1347894,0.07965095,-0.1677563
0.9666231,0.1685178,0.2791727,0.01781435,-0.01380208,-0.029539,-0.1289522,0.08220682,-0.160078
0.9662305,0.164605,0.2839118,0.01740677,-0.01808076,-0.0248168,-0.1266962,0.0820858,-0.1560328
0.9671334,0.1647736,0.2904491,0.01827223,-0.01825084,-0.01827276,-0.1242273,0.08077291,-0.160712
0.9666191,0.1658633,0.2932325,0.01769909,-0.01747275,-0.01545967,-0.1183906,0.07748711,-0.1637605
0.9661068,0.1652543,0.290092,0.01710718,-0.01836657,-0.01854843,-0.1139823,0.07853189,-0.1587907
0.9662994,0.1660096,0.2887204,0.01720027,-0.01786942,-0.01984686,-0.1116036,0.08341372,-0.1531894
0.9646464,0.1677671,0.2891531,0.01542869,-0.01634381,-0.01932064,-0.1072858,0.08420173,-0.1528352
0.9652023,0.1696086,0.288498,0.01584785,-0.01470828,-0.01986232,-0.1053866,0.08080497,-0.1542484
0.9657481,0.173241,0.2888415,0.01623954,-0.01125641,-0.01938637,-0.1035755,0.07431269,-0.1530727
0.9654971,0.1747316,0.2870138,0.01581803,-0.00992168,-0.02106335,-0.09901347,0.07177,-0.1490788
0.9691404,0.1730315,0.2854255,0.01927513,-0.01175369,-0.02248332,-0.09925739,0.06974728,-0.1448439
0.9713658,0.1731885,0.2861751,0.02129938,-0.01170559,-0.02154837,-0.09995508,0.06011226,-0.1409634
0.968044,0.1720341,0.2869525,0.01776219,-0.0129465,-0.02056929,-0.09731968,0.05547956,-0.1393973
0.9634936,0.1691975,0.2900283,0.01298268,-0.01584797,-0.01727606,-0.09813259,0.05960506,-0.14254
0.9630235,0.1698537,0.2945973,0.01227071,-0.01523571,-0.01247466,-0.09854882,0.06358291,-0.1439293
0.9638706,0.1707325,0.2964472,0.01286408,-0.01438055,-0.01037846,-0.09535,0.06231992,-0.1391456
0.9627737,0.1700137,0.2954617,0.0115024,-0.01510335,-0.01110469,-0.09277396,0.0597044,-0.133281
0.9640233,0.1709639,0.2958178,0.01247713,-0.01413805,-0.01047758,-0.09083705,0.06259037,-0.1308489
0.9646656,0.172221,0.2961953,0.01283524,-0.01284758,-0.009818252,-0.090711,0.06128424,-0.1315346
0.963937,0.172156,0.2950125,0.01181411,-0.01286156,-0.01070943,-0.09097354,0.05586812,-0.1315337
0.9653466,0.1726583,0.294171,0.01292347,-0.01229137,-0.01125059,-0.08911809,0.05461457,-0.1287905
0.9655703,0.1740729,0.2916095,0.01283996,-0.01079278,-0.01350377,-0.08850224,0.05354115,-0.123139
0.9665956,0.1753646,0.290926,0.01355175,-0.00940175,-0.01387188,-0.08836602,0.05305625,-0.1178504
0.9673504,0.1752031,0.2923413,0.0139875,-0.009449486,-0.01213483,-0.08659751,0.0496177,-0.1167782
0.9648958,0.1734633,0.2913676,0.01120886,-0.01106201,-0.01278092,-0.08378658,0.04382928,-0.1145385
0.9642074,0.1723838,0.2914244,0.01019189,-0.01200147,-0.01239143,-0.08150932,0.04098186,-0.1097338
0.9639086,0.1711955,0.2912255,0.009560883,-0.0130376,-0.01225324,-0.08261686,0.03753357,-0.1089088
0.9632729,0.1702799,0.2904094,0.008589781,-0.01378956,-0.01272842,-0.08338824,0.03954614,-0.1114128
0.9634624,0.1712806,0.2911595,0.008441546,-0.01261449,-0.0116341,-0.08038752,0.04346274,-0.1119574
0.9622134,0.1719378,0.2902461,0.006852947,-0.01177271,-0.0122006,-0.07879692,0.03729983,-0.1082133
0.9635041,0.1731763,0.2899762,0.007803006,-0.01033992,-0.01212139,-0.0810627,0.03423303,-0.1040986
0.9664912,0.1742427,0.2921204,0.01044895,-0.009070395,-0.009626399,-0.08268289,0.04374855,-0.1044936
0.9656383,0.1731476,0.2945169,0.009254977,-0.0099541,-0.006877873,-0.08120211,0.05406574,-0.1040878
0.9605498,0.1724944,0.2962544,0.003825829,-0.0103882,-0.004787907,-0.08018247,0.05467322,-0.09889597
0.9552286,0.1712621,0.2943748,-0.001834915,-0.01139455,-0.00631517,-0.08040909,0.04503992,-0.09514284
0.958472,0.1698811,0.2918527,0.001070801,-0.01254322,-0.008485791,-0.07868185,0.03540699,-0.09369966
0.9646464,0.1692881,0.2931946,0.006910041,-0.012898,-0.006793579,-0.07655039,0.03390012,-0.09207564
0.9639237,0.1675747,0.2935723,0.005855309,-0.01436767,-0.006067486,-0.07407004,0.03705875,-0.09065575
0.9634871,0.1680134,0.2919527,0.005090266,-0.01368003,-0.007341018,-0.07001386,0.03897178,-0.08863074
0.9634148,0.1704207,0.290638,0.004693276,-0.01101911,-0.008312305,-0.06978924,0.03788725,-0.08784207
0.9617281,0.171094,0.2881629,0.002686227,-0.01008781,-0.01044701,-0.07294061,0.03773215,-0.08711482
0.9627503,0.1713233,0.2882677,0.003392576,-0.009596687,-0.01000511,-0.07355413,0.04075879,-0.08244209
0.9626483,0.1724786,0.2896444,0.002979746,-0.008176063,-0.008294818,-0.0727511,0.04435858,-0.07829718
0.9621649,0.1741061,0.2875149,0.002190836,-0.006280384,-0.01009439,-0.07165817,0.04525607,-0.08146372
0.9631986,0.1741926,0.285845,0.002924615,-0.00592345,-0.01143802,-0.06989753,0.03800723,-0.08343029
0.9640584,0.1739119,0.2816372,0.003490437,-0.005931938,-0.01532349,-0.06846526,0.02981942,-0.07823396
0.9657071,0.1755312,0.2764659,0.004851158,-0.004039312,-0.02017615,-0.06578204,0.03613313,-0.07864322
0.9646908,0.1752729,0.2823631,0.003553236,-0.004023649,-0.01396385,-0.06380594,0.04422943,-0.07880526
0.9633696,0.174046,0.2911302,0.001956646,-0.004976562,-0.004884844,-0.06565868,0.04163173,-0.07329537
0.9659738,0.1729477,0.2910293,0.004292059,-0.005801452,-0.004677221,-0.06527478,0.04198532,-0.07354972
0.9673627,0.1680144,0.2897766,0.005418615,-0.01046214,-0.005625141,-0.06138143,0.03756276,-0.06983947
0.9664075,0.1651381,0.292007,0.00420781,-0.01306707,-0.003093922,-0.0606911,0.02583355,-0.06466409
0.9655776,0.1670074,0.2946141,0.003128794,-0.01092765,-0.0001903112,-0.06053114,0.02763772,-0.06557436
0.9651384,0.1673627,0.2957204,0.002446983,-0.01030358,0.001207817,-0.05950778,0.02988129,-0.06311822
0.9650284,0.1682486,0.291658,0.002101133,-0.009150198,-0.002567974,-0.0601246,0.02908535,-0.06395828
0.9644532,0.1712091,0.2866934,0.001296701,-0.005923823,-0.007251514,-0.05914448,0.03906289,-0.06505103
0.9634631,0.1728103,0.2878544,8.402635e-05,-0.004058446,-0.005815051,-0.05914457,0.03944461,-0.05990312
0.9628077,0.1747407,0.2897447,-0.0007870658,-0.001865977,-0.00365498,-0.06054813,0.02936042,-0.05669591
0.9624944,0.1770223,0.2936839,-0.001309098,0.0006751131,0.000548199,-0.05926061,0.02506996,-0.05595371
0.9622997,0.1749249,0.3002785,-0.001705548,-0.001165714,0.007400679,-0.05845339,0.02335368,-0.05589072
0.9631313,0.1722694,0.2952712,-0.001068519,-0.003568146,0.002644751,-0.05823246,0.02315616,-0.05397269
0.9652845,0.1735562,0.2880607,0.0008974221,-0.002032069,-0.004321095,-0.05656693,0.02099236,-0.05162373
0.9672775,0.1726113,0.2924386,0.002710279,-0.002731659,0.000294296,-0.05450715,0.01947509,-0.04720906
0.9671486,0.1716579,0.2925143,0.002408321,-0.003444059,0.000600436,-0.05381142,0.02087401,-0.04047227
0.96584,0.1752142,0.2882761,0.000933668,0.0003487479,-0.00341453,-0.05504662,0.02033702,-0.04156327
0.9661488,0.1753196,0.2892944,0.001083131,0.0006858845,-0.002180312,-0.05485207,0.022846,-0.04514248
0.9660177,0.1716054,0.2882979,0.0007995267,-0.002801591,-0.002968005,-0.05347561,0.02430303,-0.04513151
0.9656206,0.1702169,0.2868856,0.0002563781,-0.003968585,-0.00417852,-0.05183311,0.02333061,-0.04318056
0.9665805,0.170701,0.2866964,0.00107678,-0.003268231,-0.004172938,-0.04908071,0.0224985,-0.03946879
0.9664589,0.1711549,0.2882918,0.0008219421,-0.002603476,-0.002389521,-0.04753822,0.01426293,-0.03765894
0.9666452,0.1701942,0.2936629,0.0008813015,-0.003358607,0.003162914,-0.04659902,0.0035391,-0.03369276
0.9659697,0.167644,0.2939458,8.485634e-05,-0.005708631,0.003620506,-0.04537247,-0.002236845,-0.03277147
0.9650837,0.1639484,0.2928951,-0.0009160719,-0.009209279,0.002737771,-0.04348315,0.003821445,-0.04077113
0.9682721,0.1610749,0.2942654,0.002163155,-0.01189291,0.004268972,-0.03940473,0.01432994,-0.04322258
0.9697904,0.1616919,0.2910269,0.003577836,-0.01109073,0.001184335,-0.03644386,0.01216671,-0.03814905
0.9667995,0.1647064,0.2874322,0.0004888401,-0.007895293,-0.002263458,-0.03669902,0.01434012,-0.035869
0.9648952,0.1678551,0.2858712,-0.001508368,-0.004569629,-0.00368462,-0.0379998,0.02424811,-0.03920059
0.968565,0.1683496,0.287255,0.002073521,-0.003902001,-0.002167587,-0.04006055,0.02915832,-0.04326653
0.9720763,0.1683817,0.2903034,0.005501887,-0.003700588,0.001007568,-0.04166203,0.03322873,-0.04185473
0.9670866,0.1711995,0.2880154,0.0004337642,-0.0007173024,-0.001159993,-0.04154463,0.02289342,-0.03871119
0.9635324,0.1714301,0.2846761,-0.003194334,-0.0003250908,-0.00438491,-0.04253312,0.009735063,-0.03493719
0.9666258,0.1708995,0.2829825,-0.0001706582,-0.0006980604,-0.005970014,-0.04186527,0.01551555,-0.02971456
0.9673385,0.171601,0.2824974,0.0004765797,0.0001569484,-0.006351995,-0.03661137,0.01917493,-0.03011746
0.9664833,0.16777,0.2839774,-0.0004399017,-0.003524669,-0.004774036,-0.03435197,0.01843631,-0.03568341
0.9677113,0.1650436,0.2819575,0.0007307267,-0.006105908,-0.006700497,-0.03653231,0.02367057,-0.03787083
0.9694054,0.1652351,0.2797338,0.002371303,-0.005773368,-0.008835078,-0.03760453,0.03010444,-0.03564574
0.969171,0.1643942,0.2809985,0.002086942,-0.006476954,-0.007485078,-0.03623668,0.03593567,-0.03633979
0.9666275,0.1679453,0.2823788,-0.0005029943,-0.002792281,-0.006022804,-0.03349255,0.03541927,-0.03675936
0.964504,0.1726628,0.2844757,-0.002669707,0.00205524,-0.003847047,-0.03068132,0.03113546,-0.02969319
0.9654714,0.1715712,0.285994,-0.00174238,0.001090017,-0.002252493,-0.02725287,0.0273324,-0.02631943
0.968597,0.1714588,0.2872756,0.001346392,0.001100322,-0.0008973381,-0.02736516,0.02404173,-0.03660296
0.9699631,0.1745017,0.2882154,0.00267868,0.004262069,0.0001135358,-0.03240949,0.02672588,-0.04660422
0.9685271,0.1721543,0.2879681,0.00121167,0.002029443,-6.514852e-05,-0.03429873,0.02775022,-0.03817378
0.9638795,0.169237,0.2893288,-0.003464312,-0.000777336,0.001361602,-0.03045778,0.01720655,-0.02254517
0.9597634,0.1714722,0.2896455,-0.007606052,0.001564244,0.001741831,-0.02598698,0.006601503,-0.01723806
0.9628773,0.1710371,0.292116,-0.004515144,0.001231166,0.004273211,-0.02637406,0.006732285,-0.01704595
0.9672419,0.1702497,0.2997014,-0.0001707112,0.0005415145,0.0119167,-0.02503302,0.003797491,-0.01827827
0.9664822,0.1713933,0.3018794,-0.0009477497,0.0017785,0.01414967,-0.01750431,-0.008749261,-0.01648381
0.9646102,0.1706982,0.2949171,-0.002834273,0.001172537,0.007238554,-0.01440908,-0.01508956,-0.01158166
0.9635546,0.1717465,0.288168,-0.003901635,0.002305615,0.000536718,-0.01290379,-0.01518988,-0.01042363
0.9639298,0.1728735,0.2898733,-0.003535611,0.003513126,0.002285125,-0.009054233,-0.01945319,-0.006821541
0.9662557,0.17311,0.292656,-0.001216232,0.003825711,0.005106796,-0.009264537,-0.02472556,-0.00321503
0.9679959,0.1748247,0.2909384,0.0005201631,0.005612034,0.003424039,-0.01134309,-0.02578856,-0.001935724
0.9683471,0.1753449,0.2905982,0.0008700765,0.006199284,0.00311473,-0.01321898,-0.02376896,-0.00210782
0.9678703,0.1745789,0.2858084,0.0003941248,0.00549555,-0.001648153,-0.01293441,-0.01976459,-0.005306078
0.9667786,0.173107,0.2799012,-0.0006945083,0.004081089,-0.007532319,-0.01212254,-0.0169092,-0.0008303766
0.9653331,0.1719369,0.284435,-0.002135094,0.002963601,-0.002978833,-0.01432018,-0.02349029,0.004572475
0.9634401,0.1729383,0.2881833,-0.004021268,0.004012668,0.0007860869,-0.01432761,-0.02986613,0.005799338
0.963709,0.1738125,0.2855364,-0.003743703,0.004929762,-0.001846794,-0.01266924,-0.02480895,0.008929922
0.9664473,0.1713323,0.285605,-0.0009947756,0.002487576,-0.001766757,-0.01221106,-0.02293447,0.007657842
0.968299,0.167243,0.2859224,0.0008692315,-0.001568466,-0.001440197,-0.01180849,-0.0256747,0.007727947
0.9697406,0.1663018,0.2805918,0.002324941,-0.002480952,-0.006763682,-0.01080036,-0.02450926,0.00986173
0.9696412,0.169024,0.2741082,0.002240923,0.0002658965,-0.01324178,-0.009218259,-0.02548312,0.01057148
0.9671207,0.1729136,0.2732518,-0.0002628969,0.004176062,-0.0140938,-0.009294581,-0.03072649,0.01328724
0.9665676,0.1736341,0.2783439,-0.0007982383,0.004913404,-0.008997602,-0.008834167,-0.03945285,0.01325225
0.9690573,0.1689408,0.282194,0.001710002,0.0002331224,-0.005143174,-0.007023982,-0.04345754,0.01299011
0.9727204,0.1650967,0.2796926,0.005392399,-0.003601565,-0.007639665,-0.006868661,-0.03247927,0.009320828
0.9742909,0.1667262,0.2776492,0.006982593,-0.001965961,-0.009677285,-0.009131227,-0.01543858,0.003417308
0.9716707,0.1695646,0.2780096,0.0043822,0.0008754429,-0.009309782,-0.01366271,-0.008037138,0.006952324
0.9702683,0.1703637,0.2765802,0.002999331,0.001674824,-0.01073042,-0.01519,-0.0137204,0.01005616
0.972814,0.170803,0.2793758,0.005564105,0.002111858,-0.007924113,-0.01316112,-0.01902569,0.008503969
0.9740375,0.1692898,0.2831248,0.006805901,0.0005937544,-0.004162143,-0.01253376,-0.01737433,0.009748833
0.9715897,0.1669947,0.2774957,0.004375238,-0.001708571,-0.009775779,-0.01203411,-0.01731481,0.01080128
0.9687316,0.1682132,0.2699093,0.001533098,-0.0004994682,-0.01734404,-0.01256422,-0.0150151,0.01026334
0.9677793,0.1679255,0.2686191,0.0005953387,-0.0007984038,-0.01861307,-0.01649281,-0.009574649,0.00901042
0.9683696,0.1645066,0.2705992,0.001198757,-0.004230337,-0.01660813,-0.01915875,-0.01099016,0.008407054
0.9710557,0.1616238,0.2723558,0.003896612,-0.007127558,-0.01482249,-0.01451688,-0.0131106,0.01034371
0.9744237,0.1601604,0.2721943,0.007274821,-0.008606384,-0.01495024,-0.008803581,-0.01138292,0.01239772
0.9752015,0.1613984,0.2711543,0.008061055,-0.007384202,-0.01595158,-0.01044154,-0.009591422,0.01237453
0.973712,0.1618022,0.2712405,0.006578137,-0.006996265,-0.01582128,-0.01182019,-0.004310739,0.01276998
0.9705201,0.1623485,0.2733301,0.003390683,-0.006465462,-0.01368196,-0.01276049,-2.930031e-06,0.01467902
0.9684076,0.16484,0.2760097,0.001280236,-0.003988555,-0.01094679,-0.01723096,-0.001001109,0.01519094
0.9701298,0.1640008,0.2753151,0.003002282,-0.004841419,-0.01157999,-0.01576401,-0.0001950291,0.01527157
0.9724473,0.1629449,0.2742057,0.005317268,-0.005909811,-0.01262205,-0.0133455,0.005506214,0.01527173
0.9740812,0.1626104,0.2755253,0.006946499,-0.00625528,-0.01122919,-0.01541637,0.01219113,0.01404217
0.9741116,0.1603707,0.2749889,0.006969732,-0.008504172,-0.01168635,-0.01421047,0.01370406,0.0150457
0.9724386,0.1608091,0.2755343,0.005286959,-0.008073098,-0.01105597,-0.01359349,0.01253044,0.01839683
0.9711626,0.1617494,0.279904,0.003998589,-0.007137754,-0.006595515,-0.0136862,0.01403472,0.02108624
0.9688432,0.1603412,0.2826709,0.001664211,-0.008548479,-0.003732262,-0.01195738,0.01428107,0.02141055
0.9692378,0.1593509,0.2800097,0.002041136,-0.009538501,-0.006291987,-0.01272055,0.01425386,0.01837142
0.973098,0.1582016,0.2736461,0.005881257,-0.01068452,-0.01254936,-0.0118662,0.01511523,0.01521454
0.9740004,0.1587308,0.2700592,0.006761082,-0.01014877,-0.01602529,-0.01072399,0.01575716,0.01709883
0.9736989,0.1600431,0.2697522,0.006434469,-0.00882626,-0.01621658,-0.01255456,0.0209187,0.02056336
0.9733945,0.1567656,0.2700215,0.006102356,-0.01208985,-0.0158267,-0.01288439,0.02543575,0.01838728
0.9723073,0.1534296,0.2704188,0.004984766,-0.01540777,-0.01530372,-0.01278095,0.0247462,0.01483209
0.9714144,0.1540672,0.2692572,0.004058913,-0.01474781,-0.01633462,-0.01257678,0.02315629,0.01296193
0.9702189,0.1551216,0.2705882,0.002827723,-0.0136662,-0.01486766,-0.01290064,0.01945798,0.01105361
0.9710835,0.1581544,0.2741233,0.003654198,-0.01060115,-0.01119134,-0.0140729,0.01570202,0.01157711
0.9722722,0.1634973,0.274978,0.004802386,-0.005220812,-0.01019038,-0.01255648,0.01591185,0.01236913
0.9727244,0.164804,0.2739701,0.00521171,-0.003871575,-0.01104701,-0.01164745,0.01742736,0.01371457
0.9736036,0.1614173,0.2696003,0.006045746,-0.007210694,-0.01526083,-0.0127207,0.01730186,0.01461889
0.9726952,0.1594156,0.2650623,0.005089915,-0.00916013,-0.01963812,-0.01325308,0.01845791,0.01218591
0.9734697,0.1601135,0.2662452,0.005814606,-0.008405302,-0.01828974,-0.01312226,0.02160479,0.01181087
0.9742103,0.1614579,0.2688422,0.006503165,-0.006999324,-0.01552236,-0.01163873,0.02096332,0.01349479
0.9720481,0.162726,0.2691617,0.004286657,-0.005665171,-0.01502751,-0.01014056,0.01829114,0.01606312
0.972317,0.160792,0.2710295,0.004499088,-0.007528795,-0.01297943,-0.00761492,0.01458994,0.01812767
0.9732656,0.1577429,0.2726812,0.005388911,-0.01050325,-0.01114277,-0.004584132,0.01136605,0.01638361
0.9738168,0.1580187,0.2710592,0.005879345,-0.01014873,-0.01257518,-0.005238036,0.01357016,0.01193997
0.974897,0.1577377,0.2722975,0.00689671,-0.01034687,-0.01114294,-0.0058461,0.01465472,0.006702308
0.974677,0.1569788,0.2739889,0.00661178,-0.0110188,-0.00925359,-0.004195661,0.01518463,0.005338716
0.9743632,0.1598003,0.2728828,0.006230923,-0.008106073,-0.01015791,-0.003601696,0.01649264,0.004171244
0.9732911,0.1628475,0.2731518,0.00508969,-0.004963748,-0.009683658,-0.00242724,0.01647229,0.001524958
0.9732748,0.1615145,0.2719301,0.005002316,-0.006197571,-0.01069695,-0.001739843,0.02205478,0.0008022748
0.9741732,0.15766,0.2717408,0.005827617,-0.009949419,-0.01067495,-0.00407248,0.0254751,-0.00197017
0.973058,0.1563652,0.2729569,0.004637439,-0.01113799,-0.009244966,-0.005735525,0.02122771,-0.002029259
0.9722052,0.1580544,0.2717107,0.003707888,-0.00933907,-0.01027488,-0.00607339,0.014879,-0.002530572
0.9695311,0.1599207,0.2723133,0.0009552777,-0.007359626,-0.009453777,-0.006600799,0.00843771,-0.005528045
0.9667703,0.1608646,0.2726667,-0.001885375,-0.006299227,-0.008880096,-0.006338838,0.01049669,0.001288455
0.9682187,0.1613927,0.2732291,-0.0005179979,-0.005651494,-0.008095827,-0.004905106,0.01486076,0.007310513
0.9688449,0.161985,0.2771083,2.632388e-05,-0.004936791,-0.003993393,-0.003309493,0.01260695,0.002230855
0.9693959,0.1617075,0.2794199,0.0004950678,-0.005089193,-0.001457753,-0.002688158,0.01457282,-0.0006286462
0.9715798,0.160962,0.2795121,0.002596421,-0.005707346,-0.001141015,-0.0003647579,0.01865559,0.004551147
0.9705442,0.1609326,0.2789459,0.001478259,-0.005607265,-0.001482941,0.002296502,0.0184604,0.008873992
0.9675994,0.1614152,0.2788864,-0.00154901,-0.004993248,-0.001318851,0.001208099,0.0176986,0.009773675
