accx,accy,accz,body_accx,body_accy,body_accz,body_gyrox,body_gyroy,body_gyroz
0.7847101,0.4802637,0.3951442,-0.02866197,0.05488012,-0.04937361,-0.07544918,-0.1242412,0.1534998
0.7875451,0.4781761,0.3949335,-0.02395266,0.04779952,-0.05017248,-0.0760303,-0.1248912,0.1535043
0.7857243,0.4779011,0.3933862,-0.02394173,0.042685,-0.05222607,-0.07361023,-0.1288365,0.1532672
0.7858955,0.4783898,0.3922675,-0.0219818,0.03848719,-0.05377119,-0.07185768,-0.126896,0.15219
0.7864096,0.4792007,0.3933424,-0.01972285,0.03476451,-0.05304469,-0.06926862,-0.1211174,0.148388
0.7855965,0.4776902,0.3909507,-0.01883522,0.02887257,-0.05570873,-0.06801516,-0.110363,0.1497485
0.7843527,0.4752826,0.3897153,-0.01842294,0.02223502,-0.05714226,-0.07090521,-0.09738896,0.1531136
0.7827991,0.4765243,0.3906861,-0.01836558,0.01939755,-0.05629759,-0.07258432,-0.09598228,0.1575398
0.78331,0.4764938,0.3926448,-0.01628886,0.01543785,-0.05439477,-0.0704986,-0.09948437,0.1574285
0.7846028,0.4740496,0.396046,-0.01347552,0.009213308,-0.05098132,-0.06966654,-0.1021248,0.1542604
0.7844693,0.4734027,0.3962117,-0.01213392,0.004933828,-0.05073765,-0.06846825,-0.1044373,0.1561897
0.7829611,0.4733536,0.3940193,-0.01221263,0.001398803,-0.0527886,-0.06807267,-0.1025093,0.1545919
0.7817318,0.4742076,0.3937766,-0.01205778,-0.00108781,-0.05282862,-0.07160436,-0.1012719,0.1548337
0.7836717,0.4754569,0.3950833,-0.008779089,-0.003035096,-0.05126041,-0.07164793,-0.1013856,0.1595962
0.7866138,0.4766228,0.3942331,-0.00454349,-0.004923546,-0.05179253,-0.06991613,-0.1004022,0.1592199
0.7863887,0.4769547,0.3930646,-0.003520157,-0.007505418,-0.05258861,-0.06970344,-0.09891128,0.1590832
0.7856808,0.4757751,0.3935605,-0.00302458,-0.01146017,-0.0516684,-0.06878152,-0.09716623,0.1587777
0.7863966,0.4765605,0.3935012,-0.001150289,-0.01331314,-0.05125368,-0.07000847,-0.0977227,0.1573975
0.786055,0.4766868,0.3948616,-0.0003780056,-0.0156907,-0.04937167,-0.07033682,-0.09921555,0.1564827
0.785627,0.4758814,0.3946492,0.000263437,-0.01886745,-0.04901738,-0.06945673,-0.1001747,0.1546084
0.7845304,0.4768024,0.3928305,0.0001920993,-0.02018759,-0.05022642,-0.06844728,-0.09875487,0.1580266
0.7826094,0.4762518,0.3929857,-0.0007473922,-0.02285152,-0.04942078,-0.06559955,-0.09407695,0.1623738
0.7837372,0.4760601,0.3910165,0.00131867,-0.02503092,-0.05070113,-0.06513114,-0.09162665,0.1633038
0.7864589,0.4758143,0.3896907,0.004935967,-0.0271414,-0.0513016,-0.06510361,-0.09211589,0.1618705
0.7878247,0.4744059,0.390949,0.007155093,-0.03029392,-0.04928353,-0.06437994,-0.09307076,0.155279
0.7868019,0.4752621,0.3932674,0.006943801,-0.03106382,-0.04617302,-0.06540198,-0.09324798,0.1541671
0.7844476,0.4760958,0.3971848,0.005359775,-0.03174062,-0.04143308,-0.06624709,-0.09175702,0.1619383
0.7846656,0.4760527,0.3979303,0.006307209,-0.0331813,-0.03983697,-0.06638605,-0.09047245,0.1668836
0.7862939,0.474888,0.3965009,0.008624825,-0.03563337,-0.04038977,-0.0659956,-0.08971572,0.1641682
0.7879254,0.4733144,0.3958111,0.0109062,-0.03838691,-0.04017932,-0.06638974,-0.09070938,0.1584084
0.7896413,0.4761774,0.395408,0.01323302,-0.03659891,-0.03966063,-0.06507751,-0.09617787,0.1577425
0.7885854,0.4785693,0.3961098,0.01274976,-0.03518008,-0.03801739,-0.06093533,-0.1015058,0.1585166
0.7866456,0.4750266,0.3964286,0.0113448,-0.03959652,-0.03673962,-0.05877575,-0.09930899,0.1587372
0.7859718,0.4722565,0.3979003,0.01116867,-0.04314409,-0.03429346,-0.05999285,-0.09583909,0.1595549
0.7857562,0.4742796,0.3994473,0.01141437,-0.0418048,-0.03175823,-0.0639243,-0.09713076,0.1553976
0.7864172,0.4768252,0.396908,0.01250102,-0.03985221,-0.03329783,-0.06715411,-0.09314213,0.154062
0.7861362,0.4779049,0.3938755,0.01261095,-0.03927761,-0.03532071,-0.06627338,-0.08731447,0.1539427
0.7856421,0.4773685,0.3921658,0.01247379,-0.04023406,-0.03601287,-0.06157878,-0.08791392,0.1485036
0.7855494,0.4756571,0.389929,0.01270489,-0.04228341,-0.0372255,-0.05988117,-0.08705195,0.1481189
0.7842707,0.4757528,0.3880187,0.01171776,-0.04244656,-0.03810657,-0.06356431,-0.08701991,0.1483535
0.7847525,0.4742831,0.3865533,0.01245976,-0.04409878,-0.03853883,-0.06309783,-0.0886243,0.1466957
0.7858499,0.4710529,0.3877501,0.01378692,-0.04743803,-0.03630611,-0.06060359,-0.08728047,0.1483047
0.7853199,0.4733322,0.3917231,0.01345721,-0.04519693,-0.03129572,-0.05902355,-0.08800788,0.1459857
0.7855815,0.4764816,0.3936327,0.01389042,-0.04201759,-0.02834826,-0.05824572,-0.08713491,0.1441085
0.786325,0.4763528,0.3944152,0.01477781,-0.04205112,-0.02652882,-0.06341794,-0.08349804,0.1475171
0.7870527,0.4766244,0.3950396,0.01562264,-0.0416217,-0.02486973,-0.06504586,-0.08148185,0.1495968
0.7869812,0.4762537,0.3944373,0.01564221,-0.04177492,-0.024441,-0.0618974,-0.07941204,0.1496164
0.7868457,0.4760969,0.3957658,0.01557259,-0.0416572,-0.02208644,-0.06132578,-0.07966392,0.1468812
0.788624,0.4757788,0.39635,0.01739249,-0.04164662,-0.02048228,-0.05946688,-0.08056406,0.1413565
0.7893972,0.4744496,0.3936191,0.01818369,-0.04259565,-0.02220055,-0.05879878,-0.08004733,0.1392441
0.7887173,0.4753832,0.3930027,0.01749908,-0.04123287,-0.02181285,-0.06005734,-0.0788032,0.1409687
0.7888017,0.477223,0.3931913,0.01755674,-0.03891769,-0.02062977,-0.06114128,-0.07383788,0.1402537
0.7893715,0.4789355,0.3906201,0.01807854,-0.036686,-0.02221683,-0.06215562,-0.07034292,0.1391458
0.790644,0.4798197,0.388567,0.01928252,-0.03524149,-0.0232971,-0.06018385,-0.07091817,0.1399396
0.7919655,0.4786506,0.3867156,0.02051566,-0.03581188,-0.02418764,-0.0591703,-0.07039135,0.1388237
0.7909086,0.4780234,0.3847634,0.01935128,-0.03580453,-0.02519145,-0.06061307,-0.06925419,0.1390059
0.7882813,0.4765459,0.3854021,0.01659809,-0.03661403,-0.02361721,-0.0608352,-0.06887756,0.1386803
0.786908,0.4739371,0.3868356,0.01508114,-0.03852393,-0.02126144,-0.06172103,-0.06883833,0.1353874
0.7860107,0.4733094,0.3881993,0.01402335,-0.03842393,-0.01898933,-0.06208852,-0.06888452,0.1352303
0.7865625,0.4735271,0.3902873,0.01439872,-0.03745193,-0.01600694,-0.06148045,-0.06965336,0.1361572
0.7883208,0.4737495,0.3917057,0.01596559,-0.03645053,-0.01370884,-0.06288287,-0.07027159,0.1369155
0.7873957,0.4736384,0.3914133,0.01483475,-0.03576019,-0.01313678,-0.06182896,-0.0691847,0.1355525
0.787104,0.4736121,0.38925,0.01432396,-0.03496434,-0.01445148,-0.05812783,-0.06823074,0.1300266
0.7879976,0.4746971,0.3857592,0.01498586,-0.03303848,-0.01710982,-0.05708129,-0.06632839,0.1280265
0.7870103,0.4755419,0.3836257,0.01375513,-0.03133608,-0.01842741,-0.05853354,-0.06364806,0.1282843
0.7866364,0.4768398,0.3848054,0.01312667,-0.02916564,-0.01644842,-0.0605945,-0.06352883,0.1271426
0.7860293,0.4782649,0.3847017,0.01225489,-0.0268551,-0.01576966,-0.05829191,-0.06421255,0.1263891
0.7857296,0.4777551,0.3815167,0.01168108,-0.02646844,-0.01818897,-0.05501219,-0.06482639,0.1266549
0.7865442,0.476071,0.3801348,0.01221306,-0.0272468,-0.01882191,-0.05605619,-0.06603555,0.1259487
0.785913,0.473525,0.3812374,0.01129141,-0.02887973,-0.01698722,-0.05423221,-0.06572341,0.1202263
0.7858478,0.471578,0.3829093,0.01092861,-0.02990773,-0.01459965,-0.05249199,-0.06494955,0.1176177
0.7856496,0.4732102,0.3832826,0.01042666,-0.02735209,-0.01352738,-0.05420784,-0.06507737,0.1198233
0.7852598,0.4762606,0.3824513,0.009727495,-0.02337529,-0.01367611,-0.05391127,-0.06411148,0.1181548
0.7873213,0.4767432,0.3821891,0.01147478,-0.02196477,-0.01327226,-0.05409529,-0.06353089,0.1168912
0.7877298,0.4762628,0.3829986,0.01156482,-0.0215171,-0.01181305,-0.05417954,-0.06359196,0.1145268
0.7853938,0.4767969,0.3847319,0.008906901,-0.02005629,-0.009446454,-0.05320097,-0.06275021,0.1101255
0.7847258,0.4781007,0.3857215,0.00791401,-0.01782851,-0.007839874,-0.05319168,-0.06300007,0.1111743
0.7873161,0.47978,0.3876662,0.01017707,-0.01522916,-0.005294649,-0.05262169,-0.06166954,0.1118305
0.7900042,0.4790283,0.3877193,0.01253615,-0.0150664,-0.004657545,-0.05233836,-0.05685404,0.1110607
0.7890498,0.4766886,0.3848315,0.01125153,-0.01649825,-0.006977992,-0.05019094,-0.05175287,0.1136578
0.7882034,0.4753022,0.3872447,0.01007408,-0.01698481,-0.004014111,-0.04605194,-0.04916295,0.1133742
0.7890258,0.4744705,0.3890692,0.01056489,-0.01692551,-0.001655656,-0.04694615,-0.04944745,0.1099897
0.7872326,0.4753005,0.38993,0.008440029,-0.01521444,-0.0002777481,-0.05297329,-0.04647091,0.1080833
0.7860003,0.4765085,0.3966077,0.006876552,-0.01313611,0.006900072,-0.05664606,-0.04379969,0.1060629
0.7870181,0.478076,0.3980508,0.007563962,-0.0107099,0.008826077,-0.05471415,-0.04972522,0.1035635
0.7861452,0.4800678,0.3938088,0.00636205,-0.007871867,0.005049134,-0.05266286,-0.05387905,0.1034408
0.7855947,0.4791458,0.3915492,0.00548426,-0.007961192,0.003236613,-0.05380834,-0.04910667,0.105798
0.7863231,0.4786946,0.3921754,0.005887682,-0.007593929,0.004291712,-0.05372113,-0.04558969,0.1062863
0.7851722,0.4796447,0.3951854,0.004414386,-0.005840481,0.007712301,-0.05282963,-0.0492187,0.1048776
0.7842504,0.4789439,0.3963761,0.003173251,-0.00575383,0.009295183,-0.05309836,-0.05302703,0.1058943
0.7848544,0.4791119,0.39748,0.003461584,-0.004814985,0.01077279,-0.05084776,-0.05479133,0.107781
0.7846235,0.478848,0.3961583,0.002918895,-0.004325269,0.009806099,-0.04938931,-0.05744507,0.1062136
0.7837048,0.4762541,0.3884687,0.001692789,-0.00618325,0.002452579,-0.05162303,-0.05586325,0.1028359
0.7831406,0.4741485,0.3826617,0.0008260658,-0.007571139,-0.0030369,-0.05112601,-0.05282489,0.1005493
0.7832072,0.4737631,0.3854165,0.0005952196,-0.007257442,1.710914e-05,-0.0465141,-0.05287997,0.09766721
0.7835196,0.4738873,0.3942837,0.0006158176,-0.006452787,0.009165863,-0.0419596,-0.0514803,0.09337768
0.7839802,0.4738498,0.3975624,0.0007906291,-0.005828729,0.01270867,-0.04152493,-0.05103677,0.08887368
0.7871927,0.476272,0.3893129,0.003723531,-0.002763909,0.004705845,-0.04301427,-0.05028716,0.08740331
0.7918969,0.478894,0.3806139,0.008154514,0.0004814615,-0.003763564,-0.04376033,-0.04699428,0.08830112
0.7914698,0.4779381,0.3827586,0.007460686,0.0001295246,-0.001405957,-0.04667563,-0.04651407,0.08539726
0.7857077,0.4783909,0.3882452,0.001438112,0.001166565,0.004277585,-0.04427635,-0.04767805,0.08071316
0.7826392,0.4808961,0.3863771,-0.001884417,0.004236189,0.002591092,-0.03801656,-0.04900354,0.07589575
0.7874359,0.4817056,0.3838994,0.002664832,0.005590026,0.0002801086,-0.03902347,-0.05208916,0.07282899
0.7922319,0.4818611,0.3817457,0.007220033,0.00626943,-0.00172122,-0.04041994,-0.05764334,0.07329196
0.7885515,0.4810122,0.381887,0.003305495,0.005923758,-0.00144127,-0.03891541,-0.06836532,0.0643267
0.7871405,0.4790486,0.3879175,0.001666982,0.004442583,0.004714778,-0.02978472,-0.0912119,0.03837387
0.7954872,0.477769,0.387886,0.009792638,0.003624558,0.004796335,-0.008300237,-0.1308943,-0.00509424
0.799711,0.4767654,0.3867212,0.0138018,0.003061638,0.003732509,0.001952338,-0.1765379,-0.04398424
0.7925531,0.4760278,0.3865551,0.006435111,0.002743996,0.003655594,-0.009714844,-0.1959198,-0.04280302
0.7857659,0.4776475,0.3785478,-0.0005552485,0.004763051,-0.004273753,-0.02532219,-0.1504607,-0.02042369
0.7866957,0.4840808,0.3683841,0.0001770459,0.01157538,-0.01437018,-0.04222985,-0.0635615,0.008663338
0.7835843,0.4940895,0.3608037,-0.003126194,0.02194277,-0.02189276,-0.06390121,-0.008705811,0.05117662
0.7760857,0.4982039,0.3664515,-0.01081066,0.02639494,-0.01619534,-0.07072756,0.0004446547,0.06882224
0.779081,0.4928532,0.3806224,-0.007994949,0.02136083,-0.001981691,-0.06092016,-0.006731509,0.06140124
0.782707,0.4889764,0.3861892,-0.004541701,0.0177787,0.003621886,-0.05756644,-0.02149842,0.05615029
0.7830316,0.4889745,0.3836689,-0.004382802,0.01804945,0.001132722,-0.05371847,-0.05381302,0.03585481
0.7898739,0.4898254,0.3778831,0.002301043,0.01915076,-0.00462729,-0.04484548,-0.09769673,0.008613378
0.7910422,0.4963544,0.3799388,0.003318177,0.02590797,-0.002550711,-0.03903006,-0.1086708,-0.00169738
0.7870396,0.5012446,0.3797034,-0.0008286032,0.0310038,-0.002769788,-0.03313504,-0.0721631,0.01205557
0.7811795,0.4950409,0.3687669,-0.006826003,0.02498307,-0.01369402,-0.04379364,-0.03172282,0.04102627
0.7698074,0.4890106,0.3668825,-0.01832843,0.01911263,-0.01556942,-0.05747374,-0.02340197,0.05443035
0.7701993,0.4930436,0.3682765,-0.01805932,0.02328258,-0.01416875,-0.04904589,-0.02288991,0.05917334
0.7750022,0.4975073,0.3687136,-0.01337118,0.02786046,-0.01372655,-0.04552772,-0.01022131,0.06561234
0.7713359,0.4967229,0.3739838,-0.01714357,0.02716738,-0.008452076,-0.04645193,-0.02163034,0.06299335
0.7755526,0.496308,0.37897,-0.01302389,0.02682097,-0.003461651,-0.03915678,-0.04537743,0.05658237
0.7828518,0.4939094,0.382434,-0.005812199,0.02446833,6.805999e-06,-0.04112899,-0.06207091,0.03236975
0.7834669,0.4921594,0.3782574,-0.005275128,0.02274165,-0.004165051,-0.04522207,-0.0719364,0.01324868
0.7813578,0.4964084,0.3758089,-0.007452975,0.0269919,-0.006608506,-0.04369094,-0.04492882,0.03576287
0.7756162,0.5007987,0.3773986,-0.01325406,0.03136156,-0.005012992,-0.04196795,-0.01938119,0.06345668
0.7728747,0.5027389,0.3736574,-0.01604569,0.03325935,-0.008747645,-0.03846328,-0.01485714,0.07500436
0.773669,0.4971675,0.3749001,-0.01529217,0.02762398,-0.007497201,-0.03899228,-0.003809713,0.07928594
0.7719805,0.4902119,0.3764064,-0.01701172,0.02058286,-0.005981698,-0.04220934,-0.005613507,0.08283558
0.769481,0.4949247,0.3777746,-0.01953242,0.02518934,-0.004602783,-0.04100677,-0.007861036,0.09453092
0.768828,0.4978422,0.3860334,-0.02019646,0.02798014,0.003668527,-0.03479542,-0.01076708,0.09920622
0.7767493,0.4943481,0.3888346,-0.01227565,0.02433947,0.006483877,-0.0212313,-0.02968061,0.08187343
0.7856689,0.494123,0.3856126,-0.003346222,0.02394846,0.003277142,-0.01355103,-0.04456634,0.05448656
0.7832331,0.4940597,0.3836026,-0.005761911,0.02370039,0.001283342,-0.02375102,-0.04719329,0.05005239
0.7817214,0.4976858,0.3844431,-0.007243934,0.02712371,0.002140688,-0.03233095,-0.02697478,0.07219454
0.7847093,0.502463,0.3829117,-0.00421716,0.0316805,0.000626606,-0.02965059,-0.0064323,0.084765
0.7827289,0.4955816,0.3768508,-0.006150069,0.02456148,-0.005416769,-0.02922512,-0.007697306,0.07973111
0.7798257,0.4882529,0.3747904,-0.008997469,0.01697859,-0.007459163,-0.0309601,-0.003845298,0.07723554
0.775506,0.4928441,0.3767697,-0.01325351,0.0212996,-0.005461207,-0.02918354,0.003683078,0.08475775
0.7702375,0.4975385,0.3820866,-0.0184506,0.02570881,-0.000124919,-0.02801477,0.001566316,0.08866445
0.774612,0.4986058,0.3867291,-0.01399697,0.02647654,0.00453778,-0.02735471,-0.002492924,0.08973574
0.7815183,0.4985756,0.3847289,-0.0070038,0.02613295,0.002558337,-0.0231307,-0.01154756,0.09210854
0.7822806,0.4923714,0.3837227,-0.006147108,0.01960205,0.001573323,-0.01654124,-0.02653128,0.07757698
0.7823908,0.4875425,0.3840743,-0.005935463,0.01443382,0.001946337,-0.01325426,-0.031418,0.06268376
0.7819433,0.490222,0.3804726,-0.006275028,0.01676246,-0.001633989,-0.01918243,-0.01981176,0.06574562
0.7835177,0.496716,0.3764539,-0.004586431,0.02289474,-0.005631324,-0.0257336,-0.001571766,0.07002085
0.7846575,0.5035601,0.3759362,-0.003326848,0.02936717,-0.006127642,-0.02175711,0.01046385,0.07241781
0.778051,0.502076,0.378134,-0.009808444,0.02750189,-0.003908038,-0.01641048,0.01203988,0.08081482
0.7729475,0.4970106,0.378653,-0.01478217,0.02204606,-0.003366855,-0.01233036,0.01000259,0.09401933
0.7746357,0.4975693,0.3778758,-0.01295954,0.02220545,-0.00412128,-0.00744742,0.007022218,0.09543996
0.7760575,0.4966435,0.3787697,-0.01139854,0.02087227,-0.003203898,-0.01219639,0.01159844,0.09756811
0.7749279,0.4948613,0.3790672,-0.01238452,0.01867504,-0.002882208,-0.01893737,0.02285273,0.1165193
0.7769093,0.4958684,0.3795886,-0.01025489,0.01926015,-0.002335883,-0.01732521,0.02541199,0.1207685
0.78231,0.4931178,0.3803598,-0.00470169,0.01608136,-0.001538912,-0.01432172,0.01678098,0.1126161
0.785108,0.4867832,0.3751585,-0.001747342,0.009313048,-0.006713709,-0.009507612,-0.001094682,0.1034588
0.7863206,0.4837178,0.3716159,-0.0003749154,0.005809296,-0.01022889,-0.004839659,-0.01421309,0.08283474
0.7837822,0.4870618,0.3802882,-0.002750687,0.008711517,-0.001528095,-0.006123431,-0.01942743,0.06751831
0.7802598,0.4906745,0.3882451,-0.006108157,0.01188009,0.006458496,-0.01276294,-0.02100432,0.06063876
0.7821337,0.4886896,0.3858901,-0.004067508,0.009449419,0.004134219,-0.02350081,-0.01366655,0.06064525
0.7815107,0.488079,0.3846466,-0.00452215,0.008392343,0.002921943,-0.02714017,-0.01114367,0.06666184
0.7798253,0.4894209,0.3872024,-0.006038083,0.009287915,0.005509189,-0.02236514,-0.0080053,0.06733479
0.7817855,0.4866979,0.3843697,-0.003907503,0.006119345,0.002707926,-0.02200265,-0.006673336,0.07012833
0.7822626,0.4861172,0.380076,-0.003259459,0.005094613,-0.001554689,-0.02202776,-0.0173463,0.07160841
0.78261,0.4899643,0.3791551,-0.00274074,0.008500154,-0.002444897,-0.01986889,-0.01656293,0.06575058
0.7854285,0.4919579,0.3792628,0.0002489132,0.0100552,-0.002306879,-0.02045273,-0.01590886,0.05358795
0.788275,0.4885912,0.3809329,0.003266213,0.006253579,-0.0006067994,-0.01919345,-0.01855075,0.03981516
0.786044,0.484132,0.378128,0.001204967,0.001363614,-0.003382025,-0.01754579,-0.01125669,0.04607188
0.7821073,0.486069,0.3751176,-0.002563468,0.002874673,-0.00636307,-0.01950703,-0.01060203,0.05733388
0.782524,0.4872407,0.3800768,-0.001980205,0.003625828,-0.001374519,-0.02134925,-0.009064158,0.05576313
0.7820671,0.4850403,0.3833603,-0.002272479,0.001010907,0.001938239,-0.02078513,-0.00781223,0.05932944
0.7813448,0.4861717,0.3829379,-0.002832432,0.001734563,0.001545023,-0.01661277,-0.01043489,0.05886054
0.7824925,0.4845755,0.3799043,-0.001524735,-0.0002622503,-0.001459487,-0.01011208,-0.00765286,0.05197291
0.782285,0.4825411,0.376366,-0.001574776,-0.00268951,-0.004969025,-0.00721605,-0.01001817,0.05291582
0.7844642,0.4854882,0.3789161,0.0007592596,-0.0001268791,-0.002390309,-0.009361849,-0.01144104,0.05207088
0.7872658,0.4867639,0.3809511,0.003712756,0.0007731668,-0.0003267748,-0.01182401,-0.009669659,0.04983034
0.7863053,0.4860908,0.3803862,0.002900923,-0.0002663697,-0.0008631598,-0.01303278,-0.004874832,0.0478985
0.7863426,0.4857106,0.381031,0.003083313,-0.001003521,-0.0001900295,-0.01386191,0.004784809,0.04357774
0.786877,0.4852978,0.3819101,0.003758968,-0.001763361,0.0007172421,-0.01363541,0.001506012,0.0440388
0.7841113,0.484608,0.3821291,0.001130478,-0.002789965,0.0009642265,-0.01402212,-0.003249048,0.04365351
0.7824979,0.4848759,0.3802173,-0.0003500926,-0.002848565,-0.000919898,-0.01462322,-0.002625986,0.03846299
0.7844964,0.4878221,0.3802591,0.001776833,-0.0002180174,-0.0008507451,-0.01372603,-0.008395414,0.03504225
0.7854549,0.489568,0.3830195,0.002859306,0.00122312,0.001936577,-0.01319522,-0.007302721,0.03594968
0.7853161,0.4890288,0.383673,0.002839898,0.000389984,0.002616461,-0.01184805,-0.003812967,0.03970547
0.7858836,0.4887902,0.3835018,0.003521953,-0.0001315887,0.0024711,-0.01113655,-0.006828183,0.04120639
0.7834615,0.4896004,0.384176,0.00120961,0.0004065091,0.003170278,-0.01568523,-0.005423978,0.03898818
0.7798956,0.490095,0.3840626,-0.0022514,0.000639828,0.003081033,-0.02038845,-0.00402271,0.03664066
0.7801619,0.4891598,0.3804646,-0.00188505,-0.0005459521,-0.0004938707,-0.01849811,-0.00435547,0.03684665
0.7812465,0.4894362,0.377737,-0.000705126,-0.0005094818,-0.003199609,-0.01384035,-0.002211054,0.03728268
0.7812319,0.4891745,0.3853807,-0.0006288873,-0.001000531,0.004464995,-0.01327949,-0.002907177,0.03733606
0.782127,0.4882293,0.3928167,0.000352584,-0.002164715,0.01192075,-0.01523656,-0.003380319,0.03835449
0.7822762,0.4893144,0.3851634,0.0005838896,-0.001288158,0.004285847,-0.01464739,-0.00321033,0.03365495
0.7815549,0.4889107,0.3785598,-5.960716e-05,-0.0018902,-0.002301133,-0.0106399,-0.005468401,0.02803748
0.7822718,0.4883702,0.3838529,0.0007309297,-0.002618781,0.003006779,-0.004900698,-0.004509644,0.03157754
0.7829613,0.4885761,0.3855172,0.001490037,-0.002591015,0.004684262,-0.002239572,-0.00243457,0.03418993
0.7833476,0.4878649,0.3837554,0.001941859,-0.00347035,0.002933813,-0.003548862,-0.0003386819,0.031273
0.7836646,0.4892617,0.3851798,0.002320436,-0.002231944,0.004367551,-0.005468673,0.004215158,0.03006949
0.7832199,0.4900767,0.3837783,0.001933264,-0.001565555,0.002973494,-0.007865228,0.005903205,0.03007847
0.7842595,0.4887544,0.3833682,0.003026393,-0.003027066,0.002568848,-0.007318599,0.005717725,0.0307274
0.7851991,0.4871972,0.3873401,0.004015591,-0.004714051,0.006544078,-0.004280027,0.004440967,0.03175043
0.7841887,0.4853167,0.389273,0.003050764,-0.006715104,0.008478077,-0.003106482,0.0008762559,0.02948843
0.7829289,0.4861374,0.3860789,0.001832596,-0.006005878,0.005282733,-0.002352932,0.001305981,0.02559138
0.7814661,0.4874341,0.3803601,0.0004074585,-0.00481158,-0.000439779,-0.006940156,0.001492903,0.02376577
0.7821879,0.4863776,0.3789113,0.001163016,-0.005961445,-0.001894839,-0.01358209,-0.002369007,0.02304917
0.7851206,0.4860781,0.3809726,0.004125883,-0.006345319,0.0001580463,-0.01072953,-0.001484983,0.02212227
0.7866485,0.4863527,0.3838624,0.005680261,-0.006146438,0.00303745,-0.006961306,-0.0007044334,0.02133566
0.7864057,0.487869,0.3894074,0.005460159,-0.004697088,0.008569976,-0.006823601,-0.003904068,0.02101552
0.7855221,0.4889389,0.3913761,0.004595612,-0.003685644,0.0105241,-0.005048906,-0.003366517,0.02097049
0.7852948,0.4852671,0.3890115,0.004383522,-0.007407634,0.008142712,-0.004237065,-0.005241677,0.02020812
0.7843474,0.4823249,0.3884691,0.003447444,-0.01039192,0.00758085,-0.002928326,-0.009121143,0.01823259
0.7824785,0.4851237,0.3880675,0.001586245,-0.00762713,0.007157046,-0.004923254,-0.005515784,0.01434157
0.7818232,0.4882713,0.3844248,0.0009348958,-0.004505443,0.003489317,-0.010208,-0.001203783,0.009720014
0.7816409,0.4875737,0.3795203,0.0007531942,-0.005221111,-0.001443156,-0.009140175,-0.0005745433,0.00991658
0.7823032,0.4874295,0.3797408,0.001412768,-0.005375859,-0.001253157,-0.008211432,-0.00113437,0.01404651
0.783,0.4897064,0.3813109,0.002103769,-0.003102215,0.0002841105,-0.008645107,-0.001285388,0.01378344
0.7832388,0.4904449,0.3782257,0.002333877,-0.002359885,-0.002835992,-0.006675442,0.003204675,0.0112964
0.783753,0.4891758,0.3779861,0.002836524,-0.003618459,-0.003112102,-0.009190578,0.007579764,0.01165475
0.7828667,0.4866594,0.3825439,0.001936068,-0.006118135,0.001407702,-0.01019914,0.00472488,0.009508997
0.7823739,0.485917,0.3859926,0.001426525,-0.006837677,0.004817372,-0.007976349,-0.0007491623,0.005696695
0.7820164,0.4890567,0.3849583,0.001049799,-0.003669255,0.003742841,-0.007179982,-0.004315395,0.002974988
0.7819769,0.4907893,0.3822022,0.000988904,-0.001902294,0.0009454987,-0.002975546,-0.01045329,-0.005735941
0.7852484,0.488656,0.3845887,0.00423679,-0.003995998,0.003289771,0.003051972,-0.03479746,-0.02939304
0.7877318,0.4864853,0.3898054,0.006694574,-0.0061222,0.008463216,0.01544958,-0.08422822,-0.06838626
0.7862294,0.4878273,0.3902722,0.005164421,-0.004730892,0.008885597,0.0273951,-0.1099073,-0.08633794
0.7793542,0.4902672,0.3775681,-0.001740577,-0.002237147,-0.003864106,0.01100964,-0.06549953,-0.05396663
0.7721293,0.4921991,0.3593326,-0.008997245,-0.0002472731,-0.0221462,-0.01841851,-0.001937639,-0.01346882
0.7733112,0.4949126,0.3605406,-0.007848633,0.002528075,-0.02098504,-0.02320935,0.02130778,0.0009487444
0.7741265,0.4950696,0.3753387,-0.007067399,0.002750145,-0.006232941,-0.01282476,0.0144868,0.002741394
0.770847,0.4957175,0.3816639,-0.01038135,0.003465888,4.774762e-05,-0.008670381,0.001273655,-4.010071e-05
0.7731202,0.4980512,0.3791249,-0.008142308,0.00586966,-0.002534013,-0.008617064,-0.00371339,0.002408264
0.7776981,0.496306,0.3758561,-0.003597854,0.004196201,-0.005843468,-0.008086041,-0.003770282,0.009578383
0.7807501,0.4949311,0.3769159,-0.0005782176,0.002894099,-0.004822367,-0.004544509,-0.004599931,0.0105289
0.782621,0.4952775,0.3725637,0.001261589,0.003313833,-0.009210883,-0.001666223,-0.003542101,0.008989671
0.78165,0.4945075,0.3654509,0.0002606896,0.002617429,-0.01635731,-0.002938387,-0.009351027,0.00217827
0.7827503,0.4960381,0.3717098,0.001332227,0.004221423,-0.01012889,-0.003647657,-0.0118333,-0.004301675
0.7836546,0.4978598,0.3764424,0.002208887,0.006115888,-0.00542311,-0.007258523,-0.005438355,-0.00194681
0.7800888,0.4964267,0.3734025,-0.001383518,0.004754698,-0.008485952,-0.01108828,-0.002842516,-0.0001364848
0.7785001,0.4951,0.3755022,-0.002997665,0.003498493,-0.006405131,-0.006780212,-0.003024765,-0.0003741522
0.7790557,0.4960313,0.3774373,-0.002466483,0.004498557,-0.004484706,-0.002741877,-0.007453641,-0.003238558
0.7795521,0.4958899,0.3769671,-0.001993304,0.004424064,-0.004965508,-0.002389602,-0.008456779,-0.006764703
0.7800001,0.4944013,0.3743446,-0.001567148,0.003000088,-0.007594298,-0.002824003,-0.003549315,-0.003301712
0.7797258,0.4935222,0.3689652,-0.00186182,0.002183185,-0.01297576,-0.008933251,0.001202052,0.002473588
0.7804401,0.4926416,0.3692272,-0.001166557,0.00136232,-0.01271133,-0.01309929,0.007532476,0.003844075
0.781658,0.4944438,0.3738436,3.371308e-05,0.003221555,-0.008087814,-0.005389811,0.003413867,-0.002634232
0.78439,0.5005212,0.3753038,0.002749599,0.009353248,-0.006615491,0.003475505,-0.004444906,-0.01232268
0.7863981,0.5060229,0.3725365,0.004742781,0.01490614,-0.00936578,0.003514,-0.005474138,-0.01402877
0.7843457,0.5044691,0.3695491,0.002676516,0.01339996,-0.01233119,-0.003066092,-0.005758556,-0.00650374
0.7783191,0.49843,0.3717319,-0.003363087,0.007404468,-0.01012137,-0.008770203,0.0006927114,0.004037651
0.771179,0.4953145,0.3772057,-0.01051525,0.004328095,-0.004615292,-0.007117349,0.008135237,0.01390477
0.7736275,0.4928301,0.3810641,-0.008077572,0.001878339,-0.0007196351,-0.006799092,0.0134918,0.02201268
0.7783642,0.4922285,0.3815419,-0.003350269,0.001306768,-0.0001997267,-0.01172892,0.02034255,0.02700765
0.7754461,0.4940162,0.3797928,-0.006275987,0.003120259,-0.001902381,-0.01031729,0.0221125,0.03062804
0.7762028,0.4932855,0.3804565,-0.005525001,0.00241113,-0.001188247,-0.006103632,0.02605376,0.03320696
0.7774522,0.4964672,0.3808866,-0.00427915,0.005610175,-0.0007040964,-0.00623612,0.03099004,0.03471338
0.7765087,0.5001305,0.3778993,-0.005224068,0.009286782,-0.003634028,-0.005920901,0.02830672,0.03763733
0.7794898,0.497284,0.3767866,-0.002242071,0.006449447,-0.004686402,-0.004863718,0.02596434,0.03741702
0.7795559,0.4954783,0.3773873,-0.002172849,0.004648577,-0.004022617,-0.001143301,0.02565874,0.03676185
0.7786403,0.4949379,0.379609,-0.003082984,0.004108673,-0.001735049,0.003244508,0.02465155,0.04030359
0.7794405,0.4939417,0.3810284,-0.002275072,0.003108889,-0.0002474942,0.0002404912,0.02316092,0.03946566
0.7778164,0.4935657,0.3765241,-0.003889316,0.00272506,-0.004681427,-0.003543858,0.01940862,0.03844496
0.7766762,0.4926538,0.3739052,-0.005017518,0.001801519,-0.007228023,-0.004478738,0.01779872,0.042732
0.7764935,0.4922755,0.3763023,-0.005185962,0.001407886,-0.004756819,-0.007786768,0.01955578,0.04451084
0.7780357,0.4923788,0.378804,-0.003627323,0.001492344,-0.002179112,-0.01000126,0.02108048,0.04488399
0.7802454,0.4932088,0.3797043,-0.001398933,0.002300212,-0.001201213,-0.009225711,0.02452582,0.04570276
0.7799653,0.4933482,0.3787719,-0.001658212,0.002414433,-0.002054527,-0.005519228,0.02609406,0.0454912
0.7808764,0.4927257,0.3782802,-0.0007241586,0.001763812,-0.002465971,0.001388208,0.02039655,0.0440473
0.7829385,0.4932056,0.3775965,0.001362767,0.002212905,-0.003068421,0.008227495,0.01268619,0.03933415
0.7842372,0.4930896,0.3775192,0.002687888,0.002063553,-0.00306353,0.01150713,0.007820718,0.03192947
0.7842422,0.4925748,0.3779945,0.00272073,0.001513087,-0.002505385,0.01007648,0.009268629,0.02510806
0.7819603,0.4917466,0.3766081,0.000467748,0.0006470389,-0.00380827,0.0103709,0.01442142,0.0262861
0.7815669,0.491093,0.3767098,0.0001041022,-4.644001e-05,-0.003622682,0.01256672,0.01565275,0.03097738
0.7834314,0.4914353,0.3790924,0.001999011,0.0002542009,-0.001155723,0.01216428,0.01739267,0.03002885
0.7841975,0.4894918,0.3813572,0.002795949,-0.001732362,0.001193647,0.01253819,0.02009105,0.02962409
0.7844715,0.4879253,0.3811681,0.003101104,-0.003343233,0.001089205,0.0116932,0.0177034,0.02819397
0.7847452,0.4902427,0.3806507,0.003405866,-0.001071022,0.0006560857,0.01071539,0.01269651,0.02542423
0.7855785,0.490852,0.3826609,0.004269965,-0.0005076331,0.002750071,0.01205577,0.006845409,0.02564455
0.7857987,0.489056,0.3821515,0.004520509,-0.002349848,0.002323606,0.0111535,0.004537051,0.02166412
0.7844493,0.4867801,0.3803983,0.003200554,-0.00467211,0.0006523393,0.008868611,0.006086064,0.01744291
0.7830585,0.4829371,0.3780531,0.001838257,-0.008561336,-0.001612327,0.006257025,0.00443359,0.01824475
0.7816838,0.4834862,0.3734167,0.000490973,-0.008057861,-0.00616949,0.006275862,0.0005127269,0.0207338
0.7833265,0.4868994,0.3750366,0.002159757,-0.004689107,-0.004471751,0.008667927,-0.00312598,0.02439415
0.7862081,0.4862453,0.3799575,0.005066288,-0.005386218,0.0005258293,0.009243926,-0.0037664,0.02520915
0.7850049,0.4867125,0.3811464,0.003886504,-0.004960249,0.001790191,0.009771116,-0.003685798,0.02197103
0.7841201,0.4879905,0.3827641,0.003023503,-0.003721438,0.003481817,0.009137242,-0.006085374,0.01302355
0.7835463,0.4863864,0.3836192,0.002469817,-0.005362586,0.004409317,0.009214357,-0.005269766,0.002402014
0.782293,0.4857849,0.383125,0.001234806,-0.005998712,0.003985622,0.008722714,-0.0063756,0.004960936
0.7835884,0.4861416,0.3823877,0.002546647,-0.005674087,0.003316571,0.006195741,-0.009122525,0.01360909
0.7843791,0.4860147,0.3805273,0.003352038,-0.005830327,0.001522144,0.007896117,-0.004025588,0.01378333
0.7863017,0.4852055,0.3803742,0.005287361,-0.006665762,0.001432508,0.008544925,0.0002420052,0.01225873
0.7874463,0.4839956,0.3810185,0.006442619,-0.007898836,0.002137597,0.007185443,-0.0002600241,0.01001832
0.7858803,0.4829692,0.3824117,0.004885119,-0.008944982,0.003588948,0.00725705,-9.101519e-05,0.005239369
0.7875302,0.4820469,0.3854682,0.006541227,-0.009883449,0.006700804,0.005705652,-0.0003884954,0.005308331
0.7854488,0.4843078,0.3877258,0.004463467,-0.007634875,0.009010781,0.006328597,-0.002268252,0.0044548
0.7814493,0.4875712,0.3885859,0.0004650827,-0.004379761,0.009919819,0.007931978,-0.004325229,0.001054537
0.7836134,0.4871098,0.3837203,0.00262767,-0.004845348,0.005099527,0.008128449,-0.002231779,0.002574738
0.7828994,0.4865332,0.3746206,0.001909861,-0.005422042,-0.003958617,0.00838758,0.002681475,0.003667946
0.780986,0.4854598,0.3717531,-9.829095e-06,-0.006491515,-0.006788377,0.007344122,0.006925851,0.004684515
0.7825139,0.4822339,0.3749654,0.001509608,-0.009709465,-0.003541764,0.006337104,0.009963985,0.007859901
0.783035,0.4828374,0.379079,0.002020206,-0.009093844,0.0006032206,0.00332003,0.009888216,0.00675698
0.7843341,0.484362,0.3840407,0.003306732,-0.007552845,0.005593513,-0.0005592197,0.01151455,0.005044886
0.7852552,0.48304,0.3862839,0.004213228,-0.00885401,0.007862538,-7.785957e-05,0.01590183,0.006567913
0.7845242,0.4851027,0.3841591,0.003465725,-0.006766163,0.005760484,0.0002042125,0.01683534,0.006556897
0.7850284,0.4871422,0.3832233,0.003951449,-0.004697076,0.004844382,-0.001970155,0.01282679,0.00491858
0.7869743,0.4861094,0.3787054,0.005876918,-0.005696015,0.0003427697,-0.001811079,0.007246264,0.003015104
0.7897804,0.4878311,0.3670718,0.008660521,-0.003936201,-0.01127748,-0.0003768089,0.007025627,-1.358848e-05
0.7904832,0.4894526,0.3637627,0.009338565,-0.002272605,-0.01457605,-0.000126601,0.007865593,-0.002123808
0.7874416,0.4878488,0.3724341,0.006269846,-0.003830588,-0.005895963,-0.0001212529,0.005637987,-0.003142693
0.7852355,0.4856947,0.3787373,0.00403413,-0.005935261,0.0004145136,-0.0006044488,0.008351411,-0.003729159
0.7869514,0.4840622,0.3784926,0.005717722,-0.007514916,0.0001760418,5.395254e-05,0.01147116,-0.003897143
0.7881242,0.4831914,0.3784355,0.006855756,-0.008329507,0.0001241525,0.0007250204,0.01197064,-0.006396776
0.7863159,0.484074,0.3791807,0.005009981,-0.007387385,0.0008735864,-0.001545631,0.01357225,-0.008403295
0.785502,0.4864847,0.3775061,0.004156068,-0.004913811,-0.000797717,-0.001072834,0.01248721,-0.008013607
0.7855995,0.487276,0.3790992,0.004211018,-0.004056357,0.0007977831,0.003020358,0.01004839,-0.008994925
0.7853261,0.4874372,0.3820103,0.003892654,-0.003825965,0.003710494,0.004556087,0.005747614,-0.009219475
0.7862239,0.4880579,0.3801009,0.004743062,-0.003133201,0.001801906,0.00385779,0.002149458,-0.007770473
0.7861218,0.4880411,0.3809581,0.004591272,-0.00307529,0.002658828,0.003121328,0.00353209,-0.006585163
0.7839821,0.4892521,0.3850833,0.002399677,-0.001787214,0.006782829,0.003235092,0.003934452,-0.005252717
0.7832212,0.4888253,0.3881157,0.001584734,-0.002134785,0.009812817,0.003032325,0.004311132,-0.005402596
0.7850567,0.4865695,0.3877973,0.003364354,-0.004309415,0.00949037,0.001454273,0.005163717,-0.006181563
0.7868569,0.4855988,0.3817512,0.005106805,-0.005197291,0.003438537,0.001000836,0.004436167,-0.005821649
0.7864376,0.4840224,0.3780137,0.004628136,-0.00668926,-0.0003067519,0.001384139,0.003055464,-0.005542445
0.7864995,0.4832104,0.3777071,0.004629056,-0.007415342,-0.0006231211,0.00144541,0.001739196,-0.00622973
0.7877544,0.4846306,0.3769001,0.005821374,-0.00590765,-0.001441648,0.001551579,0.005912994,-0.009527661
0.7858315,0.4877567,0.3763426,0.003834258,-0.002692469,-0.002012152,0.00135759,0.01123504,-0.01236717
0.7838861,0.4903199,0.3734443,0.001823167,-3.885983e-05,-0.004924851,0.0008400778,0.01104208,-0.01143623
0.7861621,0.4905297,0.3728107,0.004031987,0.0002624479,-0.005573768,-0.001880111,0.009451445,-0.01169906
0.7884573,0.4918565,0.3740647,0.006258771,0.001681546,-0.004335771,-0.005259849,0.009685226,-0.01213866
0.7884872,0.4919109,0.3714227,0.006219107,0.001828724,-0.006994065,-0.004876693,0.009355268,-0.01069429
0.7853262,0.4888995,0.3711324,0.002987152,-0.001089802,-0.007300572,-0.003111107,0.006697036,-0.01276594
0.7810269,0.4869636,0.3755961,-0.001384265,-0.002933141,-0.002852614,-0.001565112,0.005638662,-0.01495644
0.7819343,0.4862297,0.3800573,-0.0005499475,-0.00357469,0.001593555,7.119694e-05,0.004151198,-0.01475442
0.785423,0.4869223,0.3793368,0.002865023,-0.002790207,0.0008587376,-0.001842781,0.003934685,-0.01631269
0.7865265,0.4871613,0.3737754,0.003894182,-0.002459826,-0.004716162,-0.003300385,0.008366019,-0.01747657
0.7863557,0.4861555,0.3693919,0.003648679,-0.003374792,-0.009112408,-0.001212664,0.008830283,-0.0191198
0.7856414,0.4863556,0.3677288,0.002859301,-0.003084363,-0.01078707,-0.002254755,0.007519081,-0.0213481
0.7852054,0.486269,0.3726099,0.002347947,-0.003081361,-0.005915904,-0.002989966,0.007815392,-0.01844857
0.7847151,0.4877598,0.378817,0.001782016,-0.001501656,0.000283023,-0.001194129,0.01008064,-0.0142883
0.7839691,0.489828,0.3767822,0.0009603927,0.0006547146,-0.00175808,-0.001315395,0.01431166,-0.01283045
0.783269,0.4887226,0.376288,0.0001845911,-0.0003634894,-0.00225661,0.001892991,0.0109473,-0.01063321
0.7817395,0.4887988,0.3797722,-0.001420279,-0.0002012217,0.001225092,0.004691111,0.007908316,-0.01157317
0.7832563,0.4899442,0.3802938,2.157238e-05,0.001029038,0.001745798,0.002172051,0.009269011,-0.01523216
0.7858449,0.4894262,0.3828873,0.002535778,0.0005944584,0.004340058,0.0007447843,0.003250984,-0.01327091
0.7834378,0.4886319,0.3857503,5.513921e-05,-0.0001178875,0.007204955,-0.000511121,-0.002357195,-0.0105659
0.7816792,0.4875247,0.3816859,-0.001776241,-0.001144904,0.003143408,-0.001133032,-0.0002301019,-0.00945811
0.7827095,0.4867398,0.3770944,-0.0008177007,-0.001851421,-0.001444569,-0.0006105056,0.001652951,-0.006157664
0.7843566,0.4868437,0.3776759,0.0007588323,-0.001670815,-0.0008591599,-0.002702055,-0.0001826969,-0.006277684
0.7870736,0.4890549,0.3787165,0.003406544,0.0006153494,0.0001858124,-0.00319036,0.0003869627,-0.008319943
0.7861315,0.4923317,0.3810996,0.002396512,0.003965163,0.002573642,0.001759311,0.003220137,-0.01173748
0.7833163,0.4927601,0.3843172,-0.0004855136,0.004464568,0.005796337,0.006853612,0.003220391,-0.01702453
0.7824392,0.489571,0.381618,-0.001428014,0.00134433,0.003102229,0.004882661,0.003692263,-0.01512199
0.7808859,0.4852101,0.3784992,-0.003045362,-0.002950208,-1.156042e-05,0.001480865,0.003568589,-0.01126342
0.7792562,0.48537,0.3806371,-0.004737482,-0.002726277,0.002131047,0.001805059,0.003546404,-0.008324573
0.7773561,0.4871742,0.3837656,-0.006698127,-0.0008603186,0.005263912,0.0002620634,0.006525573,-0.003532596
0.7770193,0.4855371,0.3855832,-0.007093229,-0.002437813,0.00708543,0.001467012,0.008368091,-0.009047415
0.7793398,0.4860193,0.3858197,-0.004828564,-0.001898117,0.007325017,0.004674773,0.00830063,-0.01837602
0.7810987,0.4871643,0.3852024,-0.003122666,-0.0006976534,0.006709655,0.002747259,0.003852811,-0.01518536
0.7844124,0.4882167,0.3825193,0.0001409784,0.0004083265,0.004027147,0.002163402,0.0009184211,-0.003814708
0.7861778,0.4907291,0.3775688,0.001859207,0.002972417,-0.0009242903,0.001043276,0.007824939,0.004776502
0.7853316,0.4870104,0.3768237,0.0009686598,-0.0006966721,-0.001671791,-0.002631745,0.01330726,-0.001897913
0.7870474,0.4829338,0.3806131,0.002642685,-0.004725725,0.002113856,-0.001478627,0.009297324,-0.01273105
0.7869706,0.4863866,0.3846472,0.002526685,-0.001227189,0.006142785,-7.506863e-05,0.004451675,-0.008511886
0.7867553,0.489728,0.3881414,0.002274492,0.002158091,0.009630514,-0.0003949711,0.005395962,-0.00615701
0.7863273,0.4902099,0.384365,0.001811676,0.002682188,0.005845926,0.000477673,0.006272393,-0.007572001
0.7816219,0.488809,0.3771936,-0.002926541,0.001321553,-0.001335456,-0.0002643828,0.006054831,-0.002923679
0.7814835,0.4866033,0.3806408,-0.003095787,-0.0008457597,0.002099904,0.000269104,0.006982542,-0.003192334
0.7835278,0.4873386,0.387188,-0.001080396,-7.403798e-05,0.008633505,0.001739078,0.00414839,-0.001214239
0.783071,0.4881238,0.3874902,-0.001564004,0.0007458039,0.008920234,0.0016677,0.002371597,-0.001800567
0.7832259,0.4872143,0.3834023,-0.001433903,-0.0001309463,0.004814838,0.005370496,0.003319238,-0.007390592
0.7803736,0.4884449,0.3767284,-0.004309019,0.001130594,-0.001878842,0.01013389,0.002296317,0.002027085
0.7786419,0.4894381,0.3751465,-0.006061279,0.002152935,-0.003482596,0.01086189,0.001964897,0.008721872
0.7809962,0.4886293,0.3780694,-0.003725327,0.001371452,-0.0005832074,0.009341383,0.002626582,0.005359866
0.7826494,0.4889224,0.3816637,-0.002088049,0.001690041,0.002985971,0.007157053,0.00372411,0.006154389
0.7829126,0.4889712,0.3852013,-0.001838406,0.001762414,0.006497101,0.006927531,0.002920417,0.005404625
0.7848777,0.4887611,0.3800816,0.0001155174,0.001574075,0.001349475,0.006420223,0.001034911,0.005783989
0.7888132,0.48902,0.3739839,0.00404217,0.00185286,-0.004777502,0.005953225,-0.0001526699,0.008342522
0.7871192,0.4884311,0.3796511,0.002341328,0.001281887,0.0008592377,0.008586923,-0.003055372,0.01095709
0.7845553,0.4867905,0.3854426,-0.0002276338,-0.0003427441,0.006619278,0.00982836,-0.001775086,0.01147925
0.7869381,0.4837997,0.3841274,0.002151692,-0.003319253,0.005271698,0.01045942,0.002710783,0.008152531
0.7861541,0.4824997,0.3818524,0.001365561,-0.004606614,0.002963132,0.009619227,0.003578642,0.007792023
0.7855583,0.4839897,0.3788378,0.0007689518,-0.003105314,-8.599607e-05,0.008497788,0.001254035,0.007188314
0.7867372,0.4852486,0.3766428,0.001948183,-0.001836178,-0.002316664,0.01244994,-0.002183389,0.007719818
0.7851738,0.4865866,0.3747598,0.0003860139,-0.0004888752,-0.004236005,0.01333612,-0.0005748649,0.009655053
0.7835105,0.4872044,0.3709735,-0.001275238,0.0001373027,-0.008059095,0.01106989,0.001647849,0.00795978
0.7814866,0.4864341,0.3729189,-0.00329627,-0.0006252825,-0.006150586,0.0106169,-0.001358819,0.007306229
0.7823947,0.4859116,0.3769802,-0.002384457,-0.001140704,-0.002125673,0.01040394,-0.002610423,0.006113687
0.7852191,0.485063,0.3761071,0.0004444726,-0.001983024,-0.00303451,0.01220155,-0.00177515,0.004890691
0.7839289,0.4844835,0.3759912,-0.0008402798,-0.002556654,-0.003185238,0.01256607,0.0001743666,0.003399022
0.7835518,0.4849334,0.3739002,-0.001211116,-0.00210125,-0.005309975,0.01215698,-0.0005346635,0.003231027
0.7850645,0.4852762,0.3709344,0.0003085983,-0.00175322,-0.008308076,0.01218152,-0.004960215,0.008855333
0.7864496,0.4851335,0.3724036,0.001701408,-0.00189085,-0.006869581,0.01072347,-0.00308255,0.011344
0.7890096,0.4850379,0.3725576,0.004269765,-0.001981426,-0.006744246,0.01143596,-8.115528e-07,0.01047062
0.78885,0.485543,0.3722411,0.004118852,-0.001471335,-0.007087057,0.01117594,0.001094326,0.00750742
0.788459,0.4850278,0.374176,0.003736673,-0.001981436,-0.005175997,0.009359258,0.001523421,0.004864729
0.7913591,0.4845821,0.3762198,0.006645439,-0.002421814,-0.003153274,0.008875904,-0.005077665,0.007248994
0.7921555,0.4854407,0.378078,0.007450161,-0.001557569,-0.001313271,0.009081897,-0.008145504,0.005045891
0.7908959,0.4839982,0.3783508,0.006198009,-0.002994235,-0.001055987,0.01077479,-0.005094434,0.002650471
0.7891151,0.4827651,0.3774325,0.00442373,-0.004221021,-0.001987028,0.009871846,-0.003954456,0.001569824
0.7867683,0.4828539,0.3775962,0.002082089,-0.004125277,-0.001833424,0.00547407,-0.003803891,-0.002333574
0.7880944,0.4820789,0.3787159,0.003412014,-0.004892742,-0.0007213674,0.002038407,-0.005878065,-0.0005854949
0.7900452,0.4832115,0.3795128,0.005365169,-0.003751693,7.03698e-05,0.00370008,-0.006994708,-0.001045661
0.7894253,0.4836153,0.3796171,0.004746108,-0.003338485,0.0001718456,0.007280054,-0.01260307,-0.00460283
0.7905548,0.4841624,0.3774024,0.005874695,-0.002780889,-0.002043589,0.004803478,-0.01952629,-0.00443846
0.7912882,0.4863453,0.3742317,0.006605346,-0.0005863161,-0.005212934,0.002266726,-0.01134125,-0.004164293
0.7900123,0.485679,0.3712954,0.005324603,-0.001239894,-0.008145789,0.001787801,-0.003735572,-0.002242137
0.7909757,0.4844068,0.3649276,0.006281076,-0.002498355,-0.01450776,0.001293195,-0.008879543,-0.003807927
0.7945758,0.4828766,0.3600086,0.00987182,-0.004013709,-0.01941821,0.005905043,-0.006811681,-0.006613413
0.7971254,0.4820851,0.3615947,0.01240958,-0.004789299,-0.01782036,0.006647966,0.01272208,-0.005440993
0.7954523,0.4806009,0.3677389,0.01072173,-0.006256417,-0.01166035,-0.002268002,0.03036909,-0.006617803
0.7927884,0.4763381,0.3753193,0.008039813,-0.01050078,-0.004059818,-0.009369447,0.02603853,-0.008041302
0.7905165,0.4784091,0.3788658,0.005746556,-0.00840971,-0.0004888134,-0.00484375,0.01721817,-0.01352008
0.7876368,0.4819551,0.3794097,0.002842043,-0.004841707,8.380152e-05,0.00229116,0.01996095,-0.02109794
0.7887331,0.4821,0.3784048,0.003910151,-0.004672746,-0.0008886725,-0.0009830719,0.01571548,-0.01854446
0.789783,0.4858305,0.3770864,0.004928571,-0.0009161646,-0.002171034,-0.001877042,0.006833381,-0.01625784
0.7882673,0.4869095,0.3784003,0.00337839,0.0001909256,-0.0008179711,0.001109924,0.005168689,-0.01690578
0.7900546,0.484602,0.3796216,0.005128023,-0.002086551,0.000445382,-0.0007964372,1.389946e-05,-0.008868943
0.790803,0.4846276,0.380374,0.005835902,-0.002029386,0.001242551,0.0008576511,0.0001730622,-0.002660072
0.7898672,0.48451,0.3775845,0.004856669,-0.002113857,-0.001499982,0.0001104254,0.004887624,-0.004818227
0.790547,0.4833527,0.3714054,0.005490106,-0.003236467,-0.007630007,-0.001808884,0.001697809,-0.002776923
0.7901471,0.4802285,0.3697491,0.005041154,-0.006324661,-0.00923535,0.0001406439,0.005308441,0.002102148
0.7900826,0.4774072,0.3710566,0.004924994,-0.009108366,-0.007874728,-0.002963519,0.008118381,0.001015842
0.7893546,0.4791468,0.3707515,0.004142579,-0.007329654,-0.008124452,-0.003496236,0.004479595,-0.0004428947
0.7875023,0.4833265,0.3688001,0.002233391,-0.003108989,-0.01001819,-0.002650873,0.006243701,-0.0011373
0.7880403,0.4852598,0.3683942,0.002712129,-0.00113289,-0.01036393,-0.002860047,0.004063595,-0.007722988
0.7910585,0.4822146,0.3725172,0.005669039,-0.004133633,-0.006178252,0.002258568,0.001246364,-0.01652966
0.7942433,0.4791115,0.3765393,0.008790382,-0.007190617,-0.002090673,0.001597105,0.002588745,-0.02178886
0.7932779,0.4813344,0.3745684,0.007759408,-0.004919959,-0.003993571,-0.003386002,0.005384492,-0.01868757
0.7910574,0.4847963,0.3694381,0.005471196,-0.001408559,-0.009053565,-0.002488122,0.00749084,-0.01192567
0.7910769,0.4865871,0.3672903,0.005420835,0.0004332706,-0.01112858,-0.0002553537,0.003823402,-0.01488997
0.789914,0.4867281,0.3680588,0.004185904,0.000626663,-0.01028493,-0.002316352,0.005540745,-0.01681072
0.7903322,0.4851272,0.3725599,0.004530163,-0.0009206852,-0.005705998,-0.005448964,0.008092983,-0.01298707
0.7926251,0.4843682,0.3831005,0.006747171,-0.001625233,0.004914947,-0.005713037,0.005873487,-0.01473373
0.793196,0.4836003,0.3921716,0.007240325,-0.002337905,0.01406843,-0.005110087,0.005978197,-0.01263357
0.7933395,0.4843529,0.3897664,0.007304282,-0.001529449,0.01174709,-0.001572148,-0.0003342685,-0.009780493
0.792852,0.4873717,0.3830664,0.006735288,0.001545699,0.005131349,-0.001605827,-0.003540816,-0.01203365
0.7932954,0.4860192,0.3820244,0.007095407,0.0002499409,0.004173366,-0.005963716,0.001263916,-0.01316588
0.7951812,0.4841895,0.3783789,0.008896029,-0.001522902,0.0006111026,-0.003934166,0.001817332,-0.01986908
0.7958765,0.4842241,0.3758411,0.009504176,-0.001431402,-0.001844504,-0.003060596,0.002283418,-0.02288105
0.7952809,0.4809582,0.380185,0.008819502,-0.004640576,0.00258055,-0.003155164,0.002126381,-0.01816195
0.7933298,0.4780631,0.3818312,0.006777188,-0.007478909,0.004306419,-0.00107124,0.00105277,-0.01854366
0.7916029,0.4766537,0.3852896,0.004956978,-0.008831468,0.007842826,-0.001464329,0.0006659927,-0.02030776
0.7898408,0.4803387,0.3853277,0.003099706,-0.005089214,0.007956968,-0.0008654448,0.0009951597,-0.02232544
0.7885695,0.4876171,0.3793557,0.001731375,0.002246744,0.002058446,-0.003576984,0.004631227,-0.02352914
0.7894027,0.4865267,0.3797477,0.002466124,0.001214315,0.002521255,-0.00646598,0.005037386,-0.02172752
0.789014,0.4837235,0.3785987,0.001977605,-0.001530763,0.001440069,-0.004652608,0.004493192,-0.02014272
0.7903905,0.483507,0.3777417,0.003253303,-0.001689128,0.0006479872,-0.004231213,0.006633579,-0.01718425
0.7928095,0.4811799,0.3764874,0.005570782,-0.003958164,-0.0005442668,-0.003678125,0.006567415,-0.01639384
0.7909938,0.4831966,0.3708858,0.003652794,-0.001883633,-0.006086876,-0.003015582,0.003373202,-0.01645366
0.789293,0.4869948,0.3746989,0.001849127,0.001972352,-0.002217389,-0.002697461,-0.0005046626,-0.01445187
0.7864326,0.4877919,0.3771305,-0.001114407,0.002826883,0.0002679645,-0.002083646,0.001702648,-0.01448996
0.7823074,0.4878782,0.3741549,-0.005342938,0.002970123,-0.002656123,-0.001141012,0.004157912,-0.01366997
0.7815491,0.4868957,0.3712675,-0.006204151,0.002043739,-0.005494347,0.002104935,0.001094675,-0.01076288
0.781776,0.4863081,0.3654559,-0.006079189,0.001511211,-0.01125875,0.004649465,-0.0007928879,-0.008295119
0.7822049,0.4843552,0.3730348,-0.005750915,-0.0003877302,-0.003634244,0.005395773,-0.003508329,-0.009012919
0.7826605,0.4822596,0.3817765,-0.005394008,-0.002430573,0.005151761,0.00226157,-0.003328736,-0.01135483
0.7852417,0.4837945,0.3751246,-0.002909209,-0.0008442445,-0.001457193,-0.002413702,0.002772939,-0.009427486
0.7889463,0.4845055,0.3733181,0.0007016655,-8.304835e-05,-0.003222124,0.0001278912,0.005900416,-0.007676108
0.7877001,0.484739,0.3761083,-0.0006356286,0.0001993147,-0.000391663,0.003224699,0.006951599,-0.008035027
0.7866684,0.4860408,0.3738927,-0.0017556,0.001548747,-0.002568129,0.00178251,0.007819506,-0.008134533
0.7881048,0.4860671,0.3702594,-0.0004044614,0.001621358,-0.00616351,0.001710114,0.005363239,-0.008754251
0.7873906,0.4862514,0.3671706,-0.001201023,0.001850402,-0.00921529,0.0009169708,0.0009740042,-0.007676019
0.78726,0.4861042,0.3685053,-0.001410952,0.001746346,-0.007844178,-0.0001173418,-0.001107685,-0.007363601
0.7878177,0.4859354,0.3715287,-0.0009294986,0.001619048,-0.004784541,0.0001143365,0.001733766,-0.00667645
0.7878397,0.4863592,0.3708952,-0.0009806004,0.002082579,-0.005381882,-0.001823625,0.004186415,-0.006235847
0.7901935,0.4859346,0.3704044,0.001303359,0.001695911,-0.00583628,-0.0009602456,0.002731342,-0.01102832
0.7926009,0.4861352,0.3721761,0.003643825,0.001932521,-0.004027832,0.002077756,0.002457828,-0.01174116
0.7914842,0.4858729,0.3750859,0.002463258,0.001704278,-0.001080777,0.0001600844,0.00274718,-0.007878856
0.7893491,0.4841378,0.3788604,0.0002670644,1.205506e-06,0.00273141,-0.001486563,-0.000288052,-0.007549982
0.7888236,0.4829515,0.3773856,-0.0003169273,-0.001155034,0.001294488,-0.001229889,-0.002529008,-0.008061987
0.7898041,0.483043,0.3732899,0.0006076968,-0.001035402,-0.002763119,-0.00273968,-0.0007230198,-0.01050162
0.7914271,0.4839008,0.3758303,0.002177452,-0.0001511838,-0.0001846095,-0.0003796363,0.0001232085,-0.0151342
0.7910017,0.484303,0.378928,0.001701208,0.0002756261,0.002951133,0.003008729,-0.003899104,-0.01829349
0.7886716,0.4856797,0.379103,-0.0006774439,0.001675394,0.003163973,0.000700192,-0.007465429,-0.02124773
0.7876595,0.4868205,0.3773688,-0.001735743,0.002837597,0.00146721,0.0002875514,-0.005417033,-0.02262015
0.7874343,0.4857696,0.3727521,-0.002004902,0.001806311,-0.003112722,0.002292496,-0.001605133,-0.02021067
0.7873432,0.4860455,0.3703341,-0.002137606,0.002100241,-0.005494458,0.001574201,0.0004832077,-0.01788049
0.7876875,0.4867576,0.3710269,-0.001832539,0.002828448,-0.004765975,0.0006299275,0.0001783549,-0.01728475
0.7874261,0.4872338,0.3752871,-0.002130693,0.003319069,-0.0004703479,-0.001156336,-0.002785967,-0.01704173
0.7876181,0.4876554,0.3781968,-0.001973005,0.00375314,0.002474548,-0.001479949,-0.004695719,-0.01709059
0.7885261,0.4848671,0.3750293,-0.001096972,0.0009753697,-0.0006581631,-0.0008417132,-0.004657241,-0.01651721
0.7890378,0.4838815,0.3728123,-0.0006147034,-1.622495e-06,-0.002840769,-0.003436058,-0.003967721,-0.01514433
0.7886992,0.4863065,0.3681729,-0.0009803434,0.002430016,-0.007446189,-0.003558371,-0.002816556,-0.01068857
0.7869103,0.4857779,0.363641,-0.002793946,0.001906345,-0.01194423,-0.001443567,-0.001726853,-0.00587551
0.7859555,0.4832013,0.3682585,-0.003771039,-0.0006671021,-0.007292744,-0.001713208,0.002140245,-0.007376973
0.7878087,0.4815027,0.3720999,-0.001937761,-0.00236431,-0.00341674,-0.003425904,0.004513224,-0.009124753
0.7894947,0.4823809,0.371662,-0.0002693039,-0.001486208,-0.00381945,-0.005038795,0.00148873,-0.007674572
0.7881263,0.4842755,0.3727464,-0.001652893,0.0004068543,-0.002699104,-0.002238441,0.0001097217,-0.007721508
0.7867154,0.4831807,0.3755356,-0.003076701,-0.000690492,0.0001268928,0.002448646,-0.0009102492,-0.007881888
0.7877475,0.483251,0.3785091,-0.002055197,-0.0006239707,0.003137703,0.002813147,-0.003784156,-0.008395819
0.7875334,0.4856843,0.3784773,-0.002277571,0.001804677,0.003143748,0.001868511,-0.005962057,-0.01003864
0.7862345,0.4863205,0.3769235,-0.003582664,0.00243528,0.001627936,0.001970417,-0.008080733,-0.01012218
0.786655,0.486497,0.3765512,-0.003165991,0.002605222,0.001293504,0.002042174,-0.00658398,-0.01211637
0.788606,0.4866718,0.3751128,-0.001216614,0.002772516,-0.0001071641,0.001252925,-0.004160413,-0.01717417
0.7910183,0.4867474,0.3743399,0.001196231,0.002839527,-0.0008427835,-0.002100419,-0.004312132,-0.0167633
0.7894472,0.4862731,0.3773622,-0.0003722611,0.002355598,0.002216306,-0.004725762,-0.002162287,-0.009643414
0.7859746,0.4856756,0.3777166,-0.003840278,0.0017474,0.002607015,-0.003119678,-0.0002302708,-0.003551981
0.7859855,0.4874142,0.3727515,-0.003822982,0.00347412,-0.002322469,-0.0003627962,-0.001628271,-0.003875403
0.7866683,0.4876657,0.3702535,-0.003131896,0.003712739,-0.004785487,0.001886492,-0.004313092,-0.009160928
0.7887001,0.4862833,0.3730111,-0.001089966,0.002316142,-0.001993674,0.003244218,-0.007552696,-0.01345044
0.7909592,0.4866533,0.3760632,0.001181059,0.002670801,0.001092227,0.004059312,-0.008838011,-0.01877749
0.7885648,0.488681,0.371257,-0.001199688,0.004681858,-0.003680821,0.005763553,-0.005715779,-0.02390401
0.7864683,0.4922161,0.3625884,-0.003280989,0.00819908,-0.01231664,0.005450748,-0.002119282,-0.02056444
0.7874516,0.4917754,0.3620843,-0.002280991,0.007739028,-0.01278806,0.005097913,-0.003580153,-0.01689425
0.7869695,0.4881717,0.3713734,-0.002744921,0.004114249,-0.003465923,0.00593393,-0.006036864,-0.0202033
0.7856841,0.4867893,0.381782,-0.004010696,0.002708975,0.006976304,0.002201394,-0.007301524,-0.02219883
0.7869587,0.4853749,0.3786724,-0.002715063,0.001269901,0.003900713,-0.0007924608,-0.01035508,-0.02053986
0.7881539,0.4850534,0.3719126,-0.001497348,0.0009219984,-0.002824958,0.001466131,-0.009870425,-0.01551643
0.7870883,0.487426,0.3720929,-0.002539006,0.00326665,-0.00261049,0.00263438,-0.006076565,-0.008168829
0.7865027,0.4906165,0.3677129,-0.003099279,0.006427626,-0.006956317,0.001775026,-0.004749779,-0.008199719
0.7860707,0.4911185,0.3726975,-0.003504681,0.006898491,-0.001937339,0.00183766,-0.005231476,-0.0111407
0.7858012,0.4892557,0.381443,-0.003746244,0.005002932,0.0068426,0.003676648,-0.007162374,-0.008248781
0.9577309,0.272532,0.1997182,8.823096e-05,0.02469498,-0.05570243,-0.2584608,-0.1129677,-0.3195437
0.9619289,0.2716298,0.1924544,0.00362537,0.02464169,-0.06173438,-0.2523414,-0.1125419,-0.3144979
0.9614508,0.2727537,0.1871841,0.00252014,0.02654389,-0.06575168,-0.2599333,-0.1093961,-0.3105485
0.9583453,0.2719844,0.188125,-0.001179795,0.02648393,-0.06353839,-0.2677494,-0.1027933,-0.3066537
0.9569528,0.2722961,0.1924084,-0.003134633,0.02743762,-0.05796459,-0.2615424,-0.09898628,-0.3046286
0.9556816,0.2734545,0.1937065,-0.0049368,0.02917239,-0.05535996,-0.2565923,-0.1045986,-0.305023
0.9542212,0.2734921,0.1984141,-0.006897494,0.02972261,-0.04933152,-0.2586262,-0.1113024,-0.3044242
0.9541191,0.2741754,0.2046757,-0.00746977,0.03085633,-0.04173683,-0.2534462,-0.1084087,-0.3018963
0.9542258,0.2743971,0.202972,-0.007803566,0.03146802,-0.04209714,-0.2477918,-0.1085056,-0.2972002
0.9551459,0.2765076,0.2018507,-0.007294915,0.0339099,-0.04186706,-0.2484325,-0.1133967,-0.2902538
0.955542,0.2788312,0.2030013,-0.007281847,0.03650773,-0.03935925,-0.2448017,-0.1089141,-0.2825938
0.9536838,0.2792509,0.199796,-0.009495175,0.03714625,-0.04120354,-0.2387717,-0.1054151,-0.2788514
0.9522185,0.278647,0.1977199,-0.01128844,0.03670718,-0.04191664,-0.2338195,-0.1102929,-0.2774949
0.9529326,0.2740008,0.1972899,-0.01087564,0.0321735,-0.04098357,-0.2339716,-0.1103717,-0.2735832
0.9549733,0.269084,0.1927267,-0.009110067,0.02731867,-0.04418502,-0.2416124,-0.1055523,-0.2731304
0.955573,0.2690123,0.1868454,-0.008760035,0.02726027,-0.04870741,-0.2466554,-0.1006777,-0.2740339
0.9538302,0.2716739,0.1902628,-0.01072766,0.02988858,-0.04393515,-0.2471143,-0.09911831,-0.2719111
0.9521317,0.272935,0.2023022,-0.01262687,0.0310718,-0.03054598,-0.2445975,-0.1053868,-0.2694641
0.9521497,0.2719871,0.2088039,-0.01278609,0.03000324,-0.02270098,-0.2441398,-0.1153277,-0.2644965
0.9515637,0.2717821,0.2034386,-0.01352637,0.02963683,-0.02673134,-0.2481517,-0.1242072,-0.2646504
0.9494978,0.2704451,0.1932159,-0.0157242,0.02809937,-0.03562889,-0.2479024,-0.1270146,-0.2677247
0.9521737,0.2678263,0.1925908,-0.01315828,0.02524301,-0.03494029,-0.2468042,-0.1269421,-0.2647928
0.9580573,0.2673413,0.2005094,-0.00736343,0.02448538,-0.0257202,-0.2489786,-0.1296004,-0.2623831
0.9608236,0.2665135,0.2034531,-0.004665349,0.02335187,-0.02148848,-0.2518894,-0.1306833,-0.2603955
0.9617845,0.2647316,0.1988584,-0.003753137,0.02123316,-0.02480994,-0.2530846,-0.1339526,-0.264306
0.9608137,0.264943,0.1897319,-0.004754118,0.02107867,-0.03267899,-0.2517133,-0.1381311,-0.2713147
0.9594805,0.2659627,0.187107,-0.006100049,0.02170535,-0.03406311,-0.2516047,-0.1414998,-0.2683446
0.9581714,0.2659813,0.1908303,-0.007405415,0.02130595,-0.02911626,-0.2489625,-0.1467647,-0.2684906
0.9559709,0.2660391,0.1902644,-0.009586435,0.02092241,-0.02847638,-0.246694,-0.13864,-0.2736893
0.9576637,0.2632004,0.1902762,-0.007859362,0.01762086,-0.02727689,-0.2439804,-0.123367,-0.2724274
0.9610713,0.2575678,0.190392,-0.004403261,0.01150595,-0.02599221,-0.2309897,-0.1163401,-0.2692971
0.9622967,0.2566283,0.1904657,-0.003116115,0.01006656,-0.02476872,-0.2176142,-0.1064451,-0.2656023
0.959657,0.2576674,0.1934681,-0.005681687,0.01059017,-0.02063622,-0.2092341,-0.09944636,-0.26322
0.955759,0.2577119,0.1937315,-0.009494049,0.01010561,-0.01926289,-0.2038847,-0.1004049,-0.2692644
0.9609747,0.2611045,0.1892522,-0.004181831,0.01295752,-0.02265276,-0.2003948,-0.09697782,-0.2790126
0.9684535,0.2651162,0.1825569,0.003403521,0.01641857,-0.02827975,-0.1974674,-0.0874865,-0.2825592
0.9674167,0.2690164,0.1840158,0.002482317,0.01975965,-0.02577361,-0.1999848,-0.07120269,-0.2827157
0.962604,0.273234,0.1893747,-0.002206784,0.02341084,-0.01938861,-0.1996183,-0.05998744,-0.2812769
0.9580556,0.2749359,0.1881384,-0.006624327,0.02454006,-0.01962,-0.1993911,-0.05957262,-0.2746265
0.9591346,0.2771435,0.1897245,-0.005408166,0.02616946,-0.01705039,-0.2059351,-0.0526046,-0.2714404
0.961978,0.28006,0.1921989,-0.002421701,0.02850295,-0.01361412,-0.207364,-0.0454347,-0.2699712
0.9583291,0.2791517,0.1940184,-0.005922272,0.02700744,-0.01085462,-0.2059212,-0.04810689,-0.2600517
0.9531925,0.2757516,0.1992284,-0.01090569,0.02301632,-0.004726924,-0.2032738,-0.0524077,-0.2486796
0.9490928,0.2744045,0.1995991,-0.01484792,0.021075,-0.003461258,-0.2005314,-0.05667905,-0.2382413
0.9513822,0.2751611,0.1996188,-0.01239671,0.02123504,-0.002569885,-0.2005772,-0.05573391,-0.2274213
0.9566912,0.2760415,0.2028054,-0.006921657,0.02151705,0.001464551,-0.1975308,-0.05328719,-0.2232682
0.9525677,0.2766551,0.2028717,-0.01087522,0.02153118,0.002354272,-0.1965524,-0.06158624,-0.2242509
0.9505003,0.2762141,0.2022158,-0.01276898,0.02049031,0.002496824,-0.1958984,-0.068828,-0.222036
0.9525346,0.275361,0.2002579,-0.01055744,0.01903739,0.001311883,-0.1931206,-0.06792355,-0.2171033
0.9504878,0.2748704,0.1975143,-0.01242361,0.0179477,-0.0006844928,-0.1924855,-0.06982257,-0.213969
0.9518095,0.2747982,0.1983451,-0.01091807,0.01727786,0.0008674322,-0.1890592,-0.07324784,-0.2106596
0.9527008,0.2752398,0.1982873,-0.009839842,0.01712381,0.001504669,-0.186335,-0.07811516,-0.2078846
0.9522879,0.2749239,0.1965075,-0.01006291,0.01621487,0.0003937938,-0.1852675,-0.08602508,-0.2057999
0.9534099,0.2748911,0.1975771,-0.008748325,0.01559211,0.002106081,-0.1820863,-0.08630413,-0.203535
0.9513215,0.2750215,0.1993703,-0.01064173,0.01513635,0.004515907,-0.1788411,-0.08367305,-0.2049721
0.9509648,0.273933,0.1998523,-0.01080105,0.01346597,0.005588431,-0.1734279,-0.08910539,-0.2046915
0.9510032,0.2734098,0.1985561,-0.01056332,0.01236567,0.0048567,-0.1689737,-0.09274328,-0.2045554
0.9505705,0.2740826,0.1963297,-0.0107947,0.01246681,0.003168923,-0.1697251,-0.09017529,-0.2079575
0.9537298,0.2763812,0.1977652,-0.007432252,0.01419965,0.0051172,-0.1712106,-0.09037203,-0.2030715
0.954803,0.2788024,0.2014388,-0.006154364,0.01606142,0.009278148,-0.1688482,-0.09436948,-0.1953307
0.9540433,0.2788627,0.2030103,-0.006708119,0.01556884,0.01131151,-0.1666164,-0.09988311,-0.1892466
0.954418,0.278236,0.2008056,-0.006126626,0.01439612,0.009543423,-0.1671054,-0.1047298,-0.1805562
0.9561437,0.2757734,0.1952846,-0.004193343,0.01139471,0.004433829,-0.1649187,-0.1014615,-0.1789836
0.9587269,0.271674,0.1935522,-0.001402409,0.006763795,0.003088124,-0.1638833,-0.09069606,-0.1756029
0.9592992,0.2724629,0.1966497,-0.0006224537,0.007029081,0.006547883,-0.1632394,-0.08049298,-0.1660761
0.9589445,0.2757283,0.19786,-0.0007702748,0.009779146,0.008096719,-0.1572027,-0.07247804,-0.1658337
0.9581851,0.2750322,0.1974169,-0.001323822,0.008576445,0.00796871,-0.154811,-0.07139701,-0.1648014
0.958024,0.2746222,0.1978371,-0.001280671,0.007668829,0.008681069,-0.1551356,-0.07256544,-0.1597675
0.9585209,0.2752691,0.1986526,-0.0005814876,0.007827352,0.009766278,-0.1520871,-0.06156856,-0.158258
0.9572652,0.273622,0.1960056,-0.001637183,0.005701381,0.00736683,-0.1506732,-0.04972826,-0.1527924
0.9566255,0.2725049,0.1894299,-0.002079454,0.004115301,0.001017162,-0.1499419,-0.04673126,-0.1485033
0.9570105,0.2720093,0.1861683,-0.001499926,0.003160917,-0.002039172,-0.1479178,-0.04348514,-0.1478136
0.9569692,0.2720418,0.1883327,-0.00134994,0.002744966,0.0003106219,-0.1456148,-0.0375584,-0.1480827
0.9569575,0.2729419,0.1913794,-0.001173528,0.003207447,0.003523647,-0.1426171,-0.03293423,-0.1530204
0.9565226,0.274271,0.1929864,-0.001423997,0.004109903,0.005279004,-0.1401159,-0.03856154,-0.1556736
0.9552249,0.278269,0.1954185,-0.002540837,0.007692503,0.007841865,-0.1383793,-0.04747086,-0.1540572
0.9534237,0.2794764,0.1979139,-0.004165154,0.008495686,0.0104513,-0.1375323,-0.04905074,-0.1534835
0.9530154,0.2743367,0.1986847,-0.004400366,0.002962922,0.01131957,-0.1370287,-0.05011135,-0.1526732
0.9530067,0.2703149,0.2001279,-0.004239846,-0.001440889,0.01284426,-0.1354222,-0.05164428,-0.147935
0.9527363,0.2701837,0.2002214,-0.004344799,-0.001942696,0.01300356,-0.133399,-0.05581662,-0.142926
0.9552759,0.2697928,0.2005817,-0.001643559,-0.002692651,0.01341422,-0.1314661,-0.06050899,-0.1425687
0.9594476,0.2687156,0.2028973,0.002685896,-0.004117116,0.01576505,-0.1297539,-0.06155332,-0.1405102
0.963143,0.2697189,0.2046187,0.006535096,-0.003449007,0.01750675,-0.1274731,-0.06250124,-0.1370403
0.9637931,0.2697776,0.2079492,0.007334586,-0.003713138,0.02084281,-0.1236561,-0.06082232,-0.1361439
0.9583415,0.2688406,0.2079167,0.0020277,-0.004960452,0.0208012,-0.1208204,-0.06336982,-0.1335744
0.9536019,0.2698968,0.2065486,-0.002572293,-0.004201953,0.01940945,-0.1194867,-0.06932438,-0.1305505
0.9552913,0.2697336,0.2061733,-0.0007482305,-0.004650001,0.01899586,-0.1169394,-0.06659425,-0.1297934
0.9558987,0.2709388,0.1923658,-1.133251e-05,-0.003716848,0.005135915,-0.115089,-0.05602361,-0.1320724
0.9513438,0.2732202,0.1776732,-0.004441489,-0.001694491,-0.009622777,-0.1186084,-0.04542851,-0.1351206
0.9488103,0.2720597,0.1825265,-0.006855221,-0.00310136,-0.004848047,-0.1236204,-0.04826794,-0.1348135
0.951712,0.2723059,0.1898936,-0.003838115,-0.003088766,0.002429331,-0.1214265,-0.05302258,-0.1358284
0.9583631,0.2743306,0.1919322,0.002923977,-0.001285202,0.004368246,-0.1160801,-0.04581328,-0.1413413
0.96473,0.2753395,0.1991824,0.009397644,-0.0004849682,0.01150967,-0.1145811,-0.04473874,-0.1441963
0.9627622,0.2745855,0.1981318,0.007532059,-0.001435682,0.01034162,-0.1139912,-0.04653202,-0.1400441
0.9571337,0.2709972,0.1879354,0.002000979,-0.005208828,1.975284e-05,-0.1133488,-0.04415488,-0.1366319
0.9563796,0.268539,0.187214,0.001339258,-0.007840143,-0.000834489,-0.1119738,-0.0481956,-0.1388412
0.9548762,0.2698497,0.188665,-7.681231e-05,-0.006691,0.0004769414,-0.1100277,-0.05553865,-0.1393501
0.9524305,0.2741014,0.1906929,-0.002440062,-0.002589437,0.002359663,-0.1109327,-0.06309468,-0.1359355
0.9518342,0.2795186,0.1943278,-0.002958647,0.002689008,0.00584442,-0.1108331,-0.0640297,-0.1310635
0.9516661,0.2845879,0.1921846,-0.003053399,0.00763049,0.003546588,-0.1079642,-0.06148172,-0.1244025
0.955066,0.2872125,0.1931463,0.0004155425,0.01013737,0.004349792,-0.1058681,-0.06720722,-0.1186864
0.9576813,0.2847432,0.1924697,0.003095813,0.007559687,0.003511312,-0.1045758,-0.06796215,-0.1141037
0.9543773,0.2808068,0.1894792,-0.000147074,0.003523465,0.0003559931,-0.1029504,-0.0670445,-0.1101071
0.951419,0.277932,0.191327,-0.003048208,0.0005567194,0.002036679,-0.09987584,-0.07394757,-0.1081627
0.9528882,0.2752588,0.1915176,-0.001525645,-0.002200893,0.002058435,-0.09503189,-0.07814771,-0.1059712
0.9551567,0.2742317,0.1929808,0.0007927937,-0.003305209,0.003351414,-0.08608127,-0.07980761,-0.1037542
0.9577568,0.2729251,0.1896137,0.0034395,-0.004681986,-0.0001867414,-0.07795597,-0.06612312,-0.1037643
0.9627705,0.2699748,0.1825166,0.008496335,-0.007695557,-0.007455194,-0.07991914,-0.04159635,-0.1046244
0.9633102,0.2686393,0.1834297,0.009075611,-0.009087423,-0.006713171,-0.08243544,-0.03398564,-0.1027369
0.9596506,0.2697825,0.1856261,0.005451887,-0.007993657,-0.004686819,-0.08010606,-0.02911831,-0.09827975
0.9590561,0.2713472,0.1898193,0.004889173,-0.00647129,-0.0006618898,-0.0804997,-0.02467352,-0.09602744
0.9570254,0.2746872,0.1969686,0.002886216,-0.003166744,0.006321297,-0.07957038,-0.03382933,-0.09540911
0.9548147,0.2795263,0.2016213,0.0006992418,0.00164376,0.01081026,-0.0780756,-0.03756005,-0.096706
0.9564414,0.2794764,0.2008912,0.002345742,0.001571775,0.00991851,-0.07874118,-0.03513853,-0.09894111
0.9565645,0.2755817,0.1968851,0.002484782,-0.002339036,0.005752838,-0.07608843,-0.03720089,-0.09298106
0.9525267,0.273706,0.195857,-0.001540661,-0.004225269,0.004567023,-0.07507554,-0.03962271,-0.08625154
0.9488457,0.274598,0.1904436,-0.005212746,-0.003338323,-0.001002122,-0.07639486,-0.04163997,-0.0902114
0.9525351,0.2781655,0.1837301,-0.001517418,0.0002293655,-0.007869188,-0.07673825,-0.04261625,-0.09379985
0.9577114,0.280248,0.1832105,0.00366202,0.002316895,-0.008539785,-0.07856416,-0.04508116,-0.09289612
0.959621,0.2789458,0.1829955,0.005572088,0.001024223,-0.008902522,-0.07758796,-0.04712873,-0.09274197
0.9653858,0.278376,0.1852442,0.01133486,0.000467952,-0.006797748,-0.07815736,-0.04409515,-0.08860078
0.967787,0.2765952,0.1842621,0.01373104,-0.001295597,-0.007919336,-0.08148419,-0.04031344,-0.08441042
0.9614741,0.2728028,0.17768,0.007409904,-0.005067325,-0.01463611,-0.07816363,-0.03672444,-0.0863512
0.9578426,0.2710376,0.1763425,0.003766637,-0.006808487,-0.01610286,-0.07494283,-0.03597777,-0.08677249
0.9594892,0.2699817,0.1817591,0.005397951,-0.007837226,-0.01080936,-0.07442377,-0.04026373,-0.08277063
0.9606225,0.269163,0.1889008,0.006512524,-0.00862534,-0.003784102,-0.07275306,-0.04544545,-0.07971941
0.9591862,0.2718596,0.187744,0.005053963,-0.005894803,-0.005050431,-0.07326412,-0.04773485,-0.07790327
0.9563986,0.2764899,0.1820597,0.002240557,-0.001227119,-0.01083716,-0.07036804,-0.03503068,-0.07349243
0.9560699,0.2806002,0.1800716,0.00188286,0.002923788,-0.01292057,-0.06446912,-0.01721653,-0.06916212
0.957739,0.2818849,0.1780135,0.003519741,0.004251945,-0.01506641,-0.06573518,-0.02147279,-0.06907198
0.9569115,0.2757735,0.1794938,0.002657095,-0.001813582,-0.01366589,-0.06775261,-0.02585107,-0.06789552
0.956576,0.269802,0.1809785,0.002283696,-0.007737109,-0.01225271,-0.06364807,-0.01359678,-0.06521017
0.958449,0.272929,0.1807234,0.004116181,-0.004560218,-0.01257077,-0.06414055,-0.01200788,-0.06618435
0.9585067,0.2752171,0.1830061,0.004130744,-0.002220134,-0.01034224,-0.06596313,-0.01444094,-0.06653587
0.9591816,0.2729308,0.181736,0.004760229,-0.004452572,-0.01165771,-0.0613512,-0.008371021,-0.06381327
0.9602095,0.2745676,0.1814419,0.005740303,-0.002760141,-0.01198825,-0.06037484,-0.00722866,-0.06171112
0.9591426,0.2767908,0.1816478,0.004623295,-0.0004796298,-0.01180974,-0.05956727,-0.00927173,-0.06069099
0.9580006,0.2761834,0.1759519,0.003428934,-0.001028317,-0.01752401,-0.05652921,-0.01249785,-0.06053926
0.9564293,0.2765171,0.1731282,0.001803171,-0.0006345037,-0.02035686,-0.05683801,-0.0137653,-0.06116585
0.9567942,0.2766119,0.1775644,0.002111592,-0.0004785618,-0.01592032,-0.0552732,-0.01092793,-0.06290725
0.9586115,0.2763551,0.1827863,0.003870601,-0.0006734417,-0.01068843,-0.05539644,-0.009491655,-0.06712156
0.9591063,0.2752776,0.1807334,0.004305476,-0.001688299,-0.01272167,-0.05516879,-0.004743016,-0.06907475
0.9601463,0.2737406,0.1787693,0.00528388,-0.003162219,-0.0146565,-0.05198204,-0.001590795,-0.06684801
0.9594801,0.2769391,0.1832498,0.004554567,9.981679e-05,-0.0101372,-0.05253531,-0.003918028,-0.07017427
0.9575296,0.2795752,0.1832549,0.00253946,0.00279964,-0.01008412,-0.05179004,-0.005787925,-0.0743561
0.9567768,0.2785016,0.1819138,0.001720684,0.001789722,-0.01136816,-0.05137058,-0.007549496,-0.06588179
0.9569194,0.279774,0.1834755,0.001796059,0.003125587,-0.009740527,-0.05304002,-0.005918379,-0.05692785
0.9590884,0.2802497,0.1838334,0.003896703,0.003664181,-0.009308359,-0.05166986,-0.003000138,-0.05720892
0.9602595,0.2802019,0.1842413,0.004998535,0.003678412,-0.008817862,-0.04998454,-0.00187173,-0.05739105
0.9596388,0.2812844,0.182008,0.004307721,0.004821665,-0.0109608,-0.04690406,-0.001731435,-0.05895375
0.9595009,0.2797168,0.1804216,0.004098679,0.003313516,-0.01244936,-0.0429169,-0.004539602,-0.06499174
0.9580869,0.2787167,0.1826589,0.002612777,0.002371012,-0.01010678,-0.04270233,-0.005011048,-0.06899028
0.9552845,0.2777045,0.1856612,-0.0002622435,0.001414595,-0.006992211,-0.04588662,-0.001199441,-0.06666911
0.9551117,0.2771701,0.1868993,-0.000508263,0.0009339114,-0.005635236,-0.04814233,0.002242283,-0.06098295
0.9591446,0.2798168,0.1819862,0.003451083,0.00363221,-0.0104232,-0.04610282,0.002270269,-0.05940082
0.9596349,0.2809886,0.1797193,0.003867669,0.004853447,-0.01255907,-0.04364283,0.0009791669,-0.06316689
0.9568936,0.2824279,0.1856843,0.001052479,0.006339839,-0.006457393,-0.04329967,0.0006427685,-0.06680853
0.958787,0.2834741,0.1887707,0.002872012,0.007430385,-0.003229085,-0.04257747,-0.002282681,-0.06391776
0.9590498,0.2825672,0.1867753,0.003060993,0.006564921,-0.005077712,-0.0419185,-0.002769474,-0.05845392
0.9581089,0.2830179,0.1853492,0.002046336,0.007053952,-0.006352746,-0.04200161,-0.0002438902,-0.05827917
0.9594671,0.2812097,0.187322,0.003330944,0.005280613,-0.004225015,-0.04075928,0.0008009243,-0.05716851
0.9558408,0.2796493,0.1893847,-0.0003688053,0.003751572,-0.002004063,-0.03834049,0.004571353,-0.05449086
0.9527605,0.2794544,0.1894902,-0.003522052,0.00358434,-0.001737386,-0.03689593,0.004180975,-0.05195848
0.9536207,0.2778129,0.190799,-0.002734304,0.001966992,-0.0002650426,-0.03670795,0.0007622117,-0.04730927
0.9533472,0.2770249,0.1898629,-0.003079302,0.001199524,-0.001035761,-0.03698094,0.002548654,-0.04773147
0.9538064,0.2748206,0.1870818,-0.002690334,-0.0009876774,-0.003650324,-0.03580813,0.001653896,-0.04838844
0.9543095,0.277125,0.1861902,-0.00225613,0.001330485,-0.004374491,-0.03321431,0.0009384404,-0.04617012
0.955183,0.2834355,0.1876322,-0.001449819,0.007651687,-0.002764544,-0.03196416,0.001748915,-0.04719631
0.9557807,0.2838674,0.1918247,-0.0009175218,0.008091167,0.001595949,-0.03141348,-0.002409853,-0.04625774
0.9544096,0.2852811,0.192389,-0.002352141,0.009509087,0.002328025,-0.0287453,-0.005051196,-0.04374513
0.9540364,0.2881868,0.1907987,-0.002786781,0.01241553,0.0009047011,-0.02333648,-0.008513184,-0.03728224
0.9543908,0.2888406,0.1903153,-0.002491617,0.01306612,0.0005870261,-0.01794956,-0.01716968,-0.02903086
0.9560512,0.2892907,0.1853922,-0.0008880652,0.01350883,-0.004171945,-0.01735841,-0.02082971,-0.02981872
0.9574259,0.2865703,0.1815774,0.0004320853,0.01077649,-0.007824597,-0.01909784,-0.01606028,-0.02847962
0.9552711,0.2854393,0.1823871,-0.001774834,0.009628754,-0.006854565,-0.01807264,-0.01259058,-0.0250086
0.9515722,0.2865131,0.1822907,-0.005523411,0.01068085,-0.006792528,-0.0190745,-0.01447779,-0.02724162
0.9490597,0.2858531,0.1804593,-0.008083031,0.009994065,-0.008467188,-0.01961213,-0.01532688,-0.02422823
0.9508537,0.2862783,0.1766055,-0.006333244,0.01038734,-0.01216591,-0.01465056,-0.01426411,-0.0198413
0.9532865,0.2860841,0.1722877,-0.003941629,0.01015607,-0.01633016,-0.01308318,-0.01245387,-0.01759097
0.9531751,0.2859643,0.173519,-0.004090852,0.009993816,-0.01494618,-0.0138077,-0.009618755,-0.01533503
0.9556076,0.2865617,0.1801606,-0.00169292,0.01054346,-0.008152639,-0.01386345,-0.008479185,-0.01738869
0.9587965,0.2867208,0.1850384,0.001464726,0.01064959,-0.003123321,-0.01576922,-0.008295665,-0.01703958
0.9587464,0.2879501,0.1866266,0.001386547,0.01182051,-0.001384046,-0.01498054,-0.01133989,-0.01651382
0.9577809,0.2875999,0.1838244,0.0003959982,0.01140659,-0.004035869,-0.01598511,-0.01460324,-0.01620254
0.9573002,0.2869639,0.1798726,-0.0001069788,0.01070147,-0.007838202,-0.01877137,-0.007581332,-0.01052946
0.9559825,0.2871174,0.1814817,-0.001444261,0.01078049,-0.006080665,-0.01822156,0.0007253125,-0.007398859
0.9556544,0.2867405,0.1804069,-0.001789537,0.01032378,-0.007007844,-0.0179032,0.0001809213,-0.005114888
0.9593408,0.2885562,0.1767797,0.001882269,0.01205438,-0.01048841,-0.01673364,0.00447038,-0.008239309
0.9618249,0.2892366,0.1768764,0.004354013,0.01264439,-0.01024586,-0.01781335,0.01650709,-0.01591325
0.958557,0.2867444,0.1780447,0.001075876,0.01005656,-0.008932438,-0.02227874,0.01995247,-0.01062626
0.9555369,0.2855481,0.1832879,-0.001952696,0.008759474,-0.003544573,-0.0237916,0.01658465,-0.004019141
0.9569481,0.2853742,0.1873418,-0.0005481989,0.008479841,0.0006534272,-0.02125481,0.01591464,-0.003437937
0.9576663,0.2824232,0.1878458,0.0001648455,0.005418195,0.001300688,-0.01729357,0.01614903,-0.003025039
0.956325,0.2775415,0.1899067,-0.001180014,0.0004215084,0.003503628,-0.0156601,0.01893695,-0.007932678
0.9563609,0.2771096,0.1889957,-0.001146108,-0.0001295197,0.002732989,-0.01282892,0.01999991,-0.009888669
0.9536755,0.2808754,0.1843018,-0.003832163,0.003513831,-0.00182242,-0.01050855,0.01704753,-0.009103065
0.9498376,0.2836461,0.1790467,-0.007669069,0.006159059,-0.00694132,-0.01205023,0.01906729,-0.01004024
0.9514778,0.2856116,0.1811206,-0.006026278,0.007996404,-0.004733517,-0.0101541,0.01893168,-0.007396246
0.9528643,0.2859525,0.1855987,-0.00463537,0.00820674,-0.0001237017,-0.009227252,0.0128933,-0.006934651
0.9515688,0.2860399,0.1806359,-0.005924441,0.008161164,-0.004957035,-0.00994647,0.01021713,-0.005161779
0.9513614,0.2884303,0.1796605,-0.006123295,0.01041642,-0.005805347,-0.007300313,0.009410842,-0.001211748
0.9519767,0.2889216,0.1835156,-0.005497223,0.01077039,-0.001825265,-0.006996197,0.01042969,-0.001424735
0.9550027,0.2870399,0.1826018,-0.002458005,0.008749255,-0.002616385,-0.007005399,0.01214941,0.0003055499
0.9581429,0.2859715,0.1811058,0.0006976274,0.007539209,-0.003991895,-0.006282028,0.01355352,-0.0001125961
0.9570243,0.2875276,0.1786698,-0.0004033606,0.008951763,-0.006309613,-0.006473419,0.01667828,-0.002153117
0.95516,0.2900218,0.1816077,-0.002248074,0.01130034,-0.003255687,-0.005295008,0.01493701,-0.0001783319
0.954429,0.2888454,0.1873625,-0.002957568,0.009976527,0.00261305,-0.005534246,0.01029455,-0.0004344296
0.9520876,0.288453,0.1869357,-0.005275715,0.009434787,0.002297964,-0.007439236,0.008083485,0.001343903
0.950592,0.2904451,0.1877522,-0.006746197,0.01127573,0.003223687,-0.008335201,0.007769603,0.00327509
0.9517801,0.290209,0.1884537,-0.005531019,0.01088665,0.004031738,-0.005321888,0.006532302,-0.001192204
0.9524456,0.2897984,0.1866217,-0.004836566,0.01032114,0.00230321,-0.001754177,0.002603779,-0.003065281
0.953161,0.2877018,0.1852187,-0.00409005,0.008067842,0.001000439,-0.003143921,0.002812885,-9.786773e-05
0.9544833,0.2850252,0.1847514,-0.002734651,0.005232822,0.0006300214,-0.00355115,0.001781307,0.004228077
0.9545853,0.2864473,0.1895091,-0.002597516,0.00649491,0.005481136,-0.001744488,-0.001433303,0.007177796
0.9552024,0.2883387,0.1913622,-0.001943434,0.008225024,0.007423938,-0.0003641355,0.003099448,0.006164623
0.9572369,0.2891189,0.181793,0.0001297891,0.00884288,-0.002059354,0.001251802,0.01027021,0.00481838
0.9571717,0.2887964,0.1728484,0.0001048765,0.008356864,-0.0109219,-0.0006997945,0.02073258,0.0039833
0.9536633,0.2867892,0.1755213,-0.003361819,0.006185185,-0.008170574,-0.002757717,0.02779233,0.002534967
0.9520783,0.2853144,0.1794866,-0.004903936,0.004545219,-0.004129948,-0.001024808,0.02420592,0.001060177
0.9538691,0.2840258,0.179273,-0.003068943,0.003090752,-0.004270965,-0.0008320142,0.0269256,0.0001752447
0.9545378,0.2821478,0.1865125,-0.002354874,0.001046691,0.003038592,-0.003114272,0.03263944,-0.001060679
0.9541703,0.281368,0.1914161,-0.002675883,0.0001009774,0.008009627,-0.006627452,0.03004032,-0.005001851
0.9540143,0.2823273,0.1895475,-0.002784235,0.000894729,0.00620565,-0.009716565,0.02942621,-0.006385749
0.9540329,0.2832023,0.1971317,-0.002717081,0.001605108,0.01385133,-0.008388592,0.03148344,-0.004643466
0.9526914,0.2841805,0.2017341,-0.004009008,0.002419896,0.01851156,-0.006083653,0.02907809,-0.007340765
0.9487162,0.2854937,0.1946819,-0.007933802,0.0035711,0.01151291,-0.006833833,0.0231427,-0.009377859
0.9461837,0.2858608,0.1891146,-0.01041477,0.003777908,0.005994343,-0.006090243,0.01699365,-0.006385464
0.9469884,0.2879115,0.1877203,-0.00955724,0.005670053,0.00464361,-0.002643842,0.01630085,-0.004061727
0.9478222,0.2904273,0.1882034,-0.008669148,0.00802905,0.00516518,-0.0004692483,0.01595544,0.0003294601
0.9476855,0.2915261,0.1887775,-0.008749772,0.008972938,0.005772565,-0.0006464655,0.007014247,0.007873492
0.9509288,0.294299,0.191937,-0.005448442,0.01159237,0.0089602,-0.001339168,0.003108371,0.01066276
0.9557375,0.2938177,0.1953001,-0.0005798115,0.0109591,0.0123461,0.0004589567,0.00739208,0.01292874
0.9545899,0.2884533,0.1935511,-0.001665636,0.005443955,0.01061448,0.003969258,0.006413504,0.01856458
0.9523718,0.2864399,0.1889496,-0.003820428,0.003280901,0.006024703,0.005804529,0.005455795,0.01921373
0.9535527,0.2874271,0.1853083,-0.002574638,0.004119485,0.002389429,0.00466244,0.005649361,0.01921949
0.9530536,0.2868889,0.1856972,-0.003007596,0.003434074,0.002778718,0.003441756,0.004055965,0.02134964
0.9526932,0.2851501,0.1839442,-0.003300689,0.00154947,0.001020956,0.005078341,0.005771898,0.01562977
0.9557602,0.2828732,0.1863894,-0.0001652146,-0.0008716831,0.00345622,0.005827077,0.006707435,0.005387702
0.9579023,0.2801083,0.1955866,0.00204618,-0.003778981,0.0126388,0.008713681,0.006121318,-0.001188385
0.9563829,0.2807389,0.1945662,0.0005966501,-0.003288473,0.01159894,0.01368055,0.006660496,-0.005694482
0.9539033,0.2873117,0.1950664,-0.001812677,0.003146679,0.01207469,0.00981872,0.006489202,-0.009821327
0.9522429,0.2908314,0.1990746,-0.003402693,0.00653159,0.01605326,0.004324961,0.004583261,-0.005482069
0.9520319,0.2884021,0.1944117,-0.003543242,0.003970061,0.01135529,0.004592302,0.001626499,0.003041575
0.9515392,0.2884695,0.1938422,-0.003965448,0.003908008,0.01074509,0.007554803,0.000335475,-8.606145e-05
0.9499648,0.2903296,0.1949015,-0.005469279,0.005641168,0.01175804,0.01285948,-0.003454435,-0.002409666
0.9531753,0.2930668,0.1926002,-0.002188205,0.00825395,0.009404616,0.01218071,-0.008628376,0.0006585781
0.9574177,0.2971993,0.1877662,0.002124897,0.01226415,0.004512776,0.009094757,-0.006424471,0.0003283652
0.9553161,0.295621,0.1817962,9.377161e-05,0.01056555,-0.001520462,0.01085761,-0.004794485,0.007244484
0.9538294,0.2901777,0.1882312,-0.001322733,0.005003625,0.004846342,0.01340633,-0.01054137,0.01255576
0.9546499,0.2881146,0.1959532,-0.0004325387,0.002823194,0.01249544,0.02015535,-0.01382615,0.01034891
0.9539861,0.2885584,0.191725,-0.001027221,0.003151014,0.008189785,0.02483282,-0.01191949,0.01309537
0.955068,0.288777,0.186683,0.0001230955,0.003255068,0.003065996,0.02264604,-0.009451978,0.01552043
0.9561091,0.2862413,0.1840468,0.001231706,0.0006063415,0.0003438716,0.02160851,-0.006906862,0.01210486
0.9554916,0.2842283,0.1837711,0.0006807965,-0.001518043,-2.153278e-05,0.0185513,-0.004542978,0.002995203
0.9564585,0.2883608,0.1856843,0.001713046,0.00250478,0.001798642,0.0142554,0.0007848101,-0.004463841
0.9571364,0.292057,0.1846186,0.002455097,0.006093208,0.0006372219,0.01275045,0.007368878,-0.001758658
0.9560339,0.2914546,0.1844603,0.001415219,0.005384886,0.0003806928,0.009853276,0.005644756,0.004815185
0.9551827,0.2933005,0.1872578,0.0006249656,0.007126641,0.003078048,0.007362185,0.001541403,0.009916926
0.955126,0.2962657,0.1878476,0.0006275141,0.009989182,0.003566052,0.008621511,0.002732843,0.01448277
0.9533228,0.2950114,0.1882772,-0.001118217,0.008633408,0.003892309,0.01056699,0.00280048,0.01954094
0.9484696,0.2928173,0.1878274,-0.005915779,0.006338991,0.003338063,0.01074492,0.002755649,0.02130804
0.9457389,0.292982,0.1834158,-0.008592457,0.006404116,-0.001179123,0.01232932,0.003839466,0.02117236
0.9466448,0.293129,0.178311,-0.007633843,0.006452334,-0.006390077,0.01309103,0.002378456,0.0234695
0.9474293,0.2929687,0.1757088,-0.006797666,0.006193753,-0.009098597,0.008608912,6.985687e-05,0.0229664
0.9496995,0.2931766,0.178319,-0.004476363,0.006303912,-0.006594281,0.005990794,-0.001877237,0.02425039
0.9525757,0.2927596,0.1806118,-0.001549624,0.005789508,-0.004406229,0.007956938,-8.201514e-05,0.03168283
0.951934,0.2922171,0.1802276,-0.002141185,0.005149974,-0.004893441,0.00917699,0.002154131,0.0361929
0.9523992,0.291433,0.1827758,-0.001626208,0.00426908,-0.002446296,0.008429088,-0.001676647,0.03481031
0.9552777,0.2910871,0.1849305,0.001301503,0.003826728,-0.0003903575,0.008767124,-0.003106631,0.03266806
0.9541574,0.2902269,0.185257,0.0002300099,0.002870335,-0.0001600591,0.01270316,0.002449379,0.03447544
0.9524996,0.28814,0.1840489,-0.00137974,0.0006877137,-0.001461613,0.01521945,0.007256573,0.03638824
0.9531676,0.2886575,0.1834576,-0.0006642482,0.001109953,-0.002143735,0.01304762,0.007285306,0.03617286
0.9533518,0.2892995,0.1845669,-0.0004333852,0.001657426,-0.00112237,0.01094984,0.008364321,0.03617348
0.9572383,0.2875818,0.1823241,0.003498956,-0.0001539448,-0.003449994,0.01215904,0.0125012,0.03133916
0.9608635,0.2876459,0.1834827,0.007169082,-0.0001825156,-0.002373152,0.01292073,0.01253727,0.02488023
0.9569878,0.2893778,0.1864638,0.003337003,0.001457871,0.0005294406,0.01060141,0.01202586,0.02346936
0.953088,0.2907624,0.186647,-0.0005206901,0.002752268,0.0006374414,0.01058179,0.01444139,0.02260666
0.9538651,0.2907534,0.1907516,0.0002969188,0.002654358,0.004670032,0.01312888,0.01411805,0.01946635
0.9538181,0.2906734,0.1925464,0.0002888121,0.002486859,0.006395869,0.01486182,0.009878371,0.01720351
0.9524657,0.2921784,0.1922422,-0.001026298,0.003905763,0.006025404,0.01492939,0.004044778,0.0217922
0.9544901,0.2915328,0.1902557,0.001033785,0.003175345,0.003975107,0.01316381,0.003803908,0.02805732
0.9565655,0.2893569,0.1834136,0.00314326,0.0009159518,-0.002928588,0.01277951,0.00546336,0.02727354
0.9551526,0.2887403,0.1804952,0.001762802,0.0002171661,-0.005906398,0.01197173,0.001680953,0.02856681
0.9542474,0.2882332,0.1777197,0.0008882961,-0.000370619,-0.008738891,0.01129135,-2.26215e-05,0.03193715
0.952951,0.2873336,0.1787953,-0.0003791261,-0.001349314,-0.007717484,0.01299971,-0.002156469,0.02851196
0.9504236,0.285656,0.1844351,-0.002879335,-0.003104453,-0.002128883,0.0141009,-0.004238307,0.02570965
0.9499624,0.2857503,0.1799349,-0.003314912,-0.003085662,-0.00667704,0.01652516,0.0004456429,0.02592714
0.9517099,0.2875697,0.1755674,-0.00154327,-0.001339649,-0.01108899,0.01722188,0.002996523,0.02521366
0.9538978,0.2867096,0.1752601,0.0006675674,-0.00227098,-0.01143701,0.01590778,0.004462033,0.0255226
0.9548743,0.2861314,0.1749196,0.001665808,-0.002917936,-0.01181415,0.01696911,0.007552881,0.02500954
0.9564749,0.2857889,0.1815959,0.00328687,-0.003326628,-0.005169883,0.01502405,0.006968444,0.02166437
0.9578278,0.2853269,0.1869299,0.00465899,-0.003852015,0.0001366898,0.01117201,0.008612351,0.01696606
0.9563844,0.2895599,0.1874755,0.003233277,0.0003203095,0.0006594074,0.008991698,0.01103142,0.0147542
0.955681,0.2937,0.1876456,0.002545931,0.004402694,0.0008109723,0.008256931,0.006678477,0.01723997
0.9548474,0.2941484,0.1866628,0.001726685,0.00479601,-0.0001862824,0.009040945,0.002101959,0.02093839
0.9533973,0.2922522,0.1842579,0.0002893329,0.002847342,-0.002601939,0.008552478,0.004386059,0.02392564
0.9544059,0.2890638,0.177902,0.001308841,-0.0003913644,-0.008965005,0.008963472,0.008250177,0.02389186
0.9542112,0.2900676,0.1745607,0.001123589,0.0005643306,-0.0123097,0.01068152,0.01122236,0.02216532
0.9528728,0.2918297,0.1772012,-0.0002070963,0.002280324,-0.009668643,0.01239606,0.01623921,0.02467744
0.9528288,0.2894539,0.1790398,-0.0002448659,-0.000139456,-0.007825405,0.01389458,0.01685865,0.0286352
0.9527296,0.2884875,0.182011,-0.0003393027,-0.001147948,-0.004845169,0.01231615,0.01288455,0.03137346
0.9537972,0.2889234,0.1844993,0.0007317785,-0.000752203,-0.002343657,0.01072056,0.01193042,0.03043858
0.9543569,0.2888379,0.1829412,0.001293712,-0.0008757907,-0.003884267,0.01020455,0.01394828,0.02540769
0.9529552,0.288728,0.1813993,-0.0001069806,-0.001021932,-0.005404722,0.01081408,0.01678069,0.02563709
0.9518261,0.2867065,0.1818257,-0.001236151,-0.003077658,-0.004953079,0.01314688,0.01680699,0.02778014
0.9524219,0.284747,0.182225,-0.0006415951,-0.005069349,-0.004524631,0.01238813,0.01728861,0.02710609
0.9561851,0.2845398,0.1823383,0.003119501,-0.005306562,-0.004378551,0.01192826,0.02005932,0.02718508
0.9598081,0.2858476,0.1842393,0.006739472,-0.004026393,-0.002441271,0.01351309,0.01881463,0.02478805
0.9588994,0.2875301,0.1847139,0.005826577,-0.002368983,-0.001927043,0.01296017,0.01867716,0.02378289
0.9533345,0.287569,0.1799768,0.0002563013,-0.002352707,-0.006621366,0.01315946,0.02120542,0.02320971
0.9486851,0.2875463,0.177016,-0.004399854,-0.00239545,-0.009536302,0.01381717,0.02308983,0.0184317
0.952974,0.2880177,0.1821463,-0.0001188141,-0.001941466,-0.004357116,0.01305339,0.02709307,0.01699449
0.9577111,0.2900716,0.1868923,0.004609393,9.736713e-05,0.0004407625,0.01193774,0.02749521,0.0179318
0.9533879,0.2926841,0.1850322,0.000276431,0.00269738,-0.001364587,0.009923497,0.02101599,0.01796518
0.9512575,0.2918064,0.185882,-0.001864724,0.001809299,-0.0004576312,0.008207083,0.01571884,0.01781072
0.9536718,0.2903963,0.1903006,0.0005380181,0.000390822,0.004020368,0.007882197,0.01896804,0.01713991
0.952677,0.2884748,0.1894296,-0.000469062,-0.00153727,0.003210478,0.008325901,0.02279391,0.01688806
0.9524017,0.2846157,0.1878331,-0.0007573316,-0.005401201,0.001676419,0.008741915,0.01725942,0.01491244
0.953257,0.2837331,0.1894678,8.453928e-05,-0.006286768,0.003374516,0.009644026,0.01418284,0.01334935
0.9528067,0.2841639,0.1889785,-0.0003795258,-0.005856985,0.002949086,0.01116416,0.01662344,0.01254157
0.9546469,0.2845842,0.1880675,0.001446415,-0.00543562,0.002102155,0.01132504,0.01659377,0.009714404
0.9560494,0.2879548,0.1879099,0.002834375,-0.002061726,0.002008406,0.01053376,0.01797185,0.008315095
0.9544691,0.2895848,0.1860884,0.00123919,-0.0004262085,0.0002504314,0.009733295,0.01812664,0.01035924
0.9527982,0.2902444,0.1846525,-0.0004469199,0.0002411264,-0.00112255,0.008586667,0.01587388,0.01247241
0.9524849,0.2936087,0.1839373,-0.0007757894,0.003615071,-0.001775606,0.007484611,0.01511747,0.009624575
0.9531369,0.2933144,0.1858799,-0.0001396582,0.003332242,0.0002283759,0.007833039,0.01391945,0.006822783
0.9539997,0.2914651,0.1873308,0.0007071703,0.00149566,0.001739769,0.01026341,0.01502792,0.008632564
0.9561477,0.2919417,0.1832637,0.002839015,0.001986259,-0.002267772,0.01135413,0.01802906,0.008557446
0.9571879,0.291339,0.1833317,0.00386286,0.001398426,-0.002141389,0.009570038,0.01811415,0.007915678
0.9541503,0.2921255,0.1882541,0.0008086922,0.002200509,0.002838394,0.007749527,0.01718479,0.008845382
0.9517183,0.2943785,0.19234,-0.001640172,0.004469606,0.006980538,0.007983437,0.01895434,0.01046327
0.952697,0.2981659,0.1964279,-0.0006785782,0.008273313,0.01112312,0.009109066,0.02056516,0.0167509
0.953315,0.3011395,0.1948963,-7.787987e-05,0.01126314,0.009644173,0.009226378,0.01820515,0.02232622
0.9527828,0.2962641,0.1900141,-0.0006272984,0.00640334,0.004812203,0.01081651,0.01483109,0.02098641
0.9545269,0.2898514,0.1865092,0.001099506,5.08652e-06,0.001354749,0.01284367,0.01103949,0.01975311
0.9563954,0.2879469,0.1862631,0.002950819,-0.001885969,0.0011532,0.01215637,0.009120606,0.02077359
0.9551044,0.2887878,0.189046,0.001642523,-0.001032878,0.003977622,0.01140423,0.01085552,0.01901128
0.9540306,0.2906594,0.1869957,0.0005515022,0.0008499732,0.001966045,0.01094296,0.01095458,0.01952997
0.9550076,0.2916067,0.1859229,0.001511105,0.001807442,0.0009289829,0.01078885,0.01296072,0.02350842
0.9565272,0.2945785,0.1842786,0.003013319,0.004788453,-0.0006825999,0.01074066,0.01565684,0.02307821
0.9556633,0.2961168,0.1785156,0.002131766,0.00633489,-0.006415545,0.008387962,0.01177296,0.02077056
0.9528875,0.2911359,0.182687,-0.000661768,0.001360791,-0.002216689,0.006895146,0.008845786,0.02010828
0.9526134,0.2872541,0.1883405,-0.0009537849,-0.002515684,0.003462061,0.008180207,0.009810214,0.01937992
0.9530235,0.2886617,0.1886359,-0.0005617496,-0.001103977,0.003780587,0.008667776,0.008610447,0.01696083
0.953485,0.2899541,0.1902665,-0.0001182363,0.0001912722,0.005431976,0.007961364,0.006937575,0.0136302
0.9547285,0.2892853,0.1897106,0.001107271,-0.0004757239,0.004894567,0.008346809,0.007906365,0.01429128
0.9536964,0.2905607,0.1900019,5.730316e-05,0.0008004688,0.005201874,0.008611841,0.008794555,0.01542467
0.9521871,0.2918313,0.1886374,-0.001469754,0.002071023,0.003850787,0.008487061,0.008888904,0.0148197
0.9513184,0.2915787,0.1865191,-0.002355928,0.001817395,0.00174311,0.009866503,0.01110004,0.0165099
0.9518173,0.2938445,0.1895318,-0.001874278,0.004081147,0.004763826,0.01074057,0.012224,0.01728358
0.9539503,0.2946512,0.1891299,0.0002419711,0.004884813,0.004367277,0.0113952,0.01021737,0.01699309
0.9544797,0.2924596,0.1894743,0.0007550409,0.002688959,0.004714231,0.01242637,0.007164114,0.0182407
0.9558679,0.2914166,0.1932585,0.002127393,0.001640555,0.008498225,0.01278619,0.003899368,0.01847557
0.9571653,0.2925491,0.1933742,0.003409342,0.002766286,0.008610722,0.01468193,0.005713176,0.01380163
0.9564899,0.2952885,0.1951747,0.002718801,0.005497568,0.01040494,0.01424944,0.01138571,0.007967015
0.9569325,0.294347,0.1973434,0.003146431,0.004546623,0.01256393,0.009595653,0.01452097,0.008950394
0.9550344,0.2911673,0.1962301,0.0012334,0.001355929,0.0114373,0.00647039,0.01632165,0.009963327
0.9519811,0.2899438,0.1921033,-0.001834767,0.0001199588,0.007293043,0.006200806,0.01518734,0.005816603
0.9506057,0.2879856,0.1868523,-0.003225118,-0.001852047,0.002020631,0.00935956,0.01080503,0.004096984
0.9473439,0.2885206,0.1890208,-0.00650156,-0.001332176,0.004163607,0.01423389,0.00789127,0.005128926
0.9446704,0.2936866,0.1923792,-0.009189206,0.003817726,0.00749264,0.01587848,0.006473914,0.006256671
0.944869,0.2971845,0.1898434,-0.00900394,0.007298451,0.004923712,0.01442512,0.003801638,0.007532358
0.9478852,0.2965212,0.1868154,-0.005999714,0.006616866,0.001858844,0.01264136,-0.001233431,0.009454849
0.9522724,0.2957694,0.1857108,-0.001623019,0.005845366,0.0007139225,0.01143334,-0.003420127,0.0135534
0.9547236,0.2917502,0.1898475,0.0008194612,0.001804973,0.004806992,0.01083228,-0.001016627,0.01597211
0.9569028,0.2851162,0.1928605,0.002991633,-0.004851685,0.007773298,0.01141349,0.004190139,0.01528607
0.9553929,0.2877673,0.1884356,0.00147609,-0.002224493,0.00329874,0.01175081,0.01133991,0.01809133
0.9510536,0.2908281,0.1854089,-0.002867521,0.0008113549,0.0002194526,0.01250831,0.008941098,0.02243432
0.9535307,0.2867744,0.1865171,-0.0003935215,-0.003268036,0.001272502,0.01460374,0.003500547,0.02037505
0.9554856,0.2875867,0.1890543,0.001559471,-0.002482108,0.00375203,0.01382992,0.008097265,0.01703101
0.9515552,0.2899185,0.1910388,-0.002371687,-0.0001768938,0.005676765,0.01203196,0.008998522,0.01728259
0.9490929,0.2900092,0.1911463,-0.004833757,-0.0001131073,0.005722361,0.01069379,0.008160935,0.01608519
0.9464919,0.2900105,0.1934673,-0.007433221,-0.0001386856,0.007979442,0.007695526,0.009266741,0.01438348
0.9463257,0.2886368,0.1965409,-0.007596568,-0.001539295,0.010987,0.007532729,0.004607463,0.01342727
0.9484684,0.291495,0.1936977,-0.005449257,0.001292077,0.008075478,0.008391147,0.005215708,0.01309365
0.9466052,0.2944745,0.1898163,-0.00730605,0.00424496,0.004123372,0.008377729,0.006514859,0.01509231
0.9475319,0.2927457,0.1915,-0.00637092,0.00248961,0.005734169,0.01118561,0.002108856,0.01629168
0.9508161,0.2922288,0.1903748,-0.003076091,0.001946222,0.004533715,0.01157977,0.00116299,0.01842248
0.9528843,0.2907246,0.1856129,-0.0009950144,0.0004155064,-0.0003054502,0.01040601,-1.364141e-05,0.01890887
0.9564564,0.2875373,0.1858082,0.002592156,-0.002798391,-0.0001891937,0.01202242,-0.0002695525,0.01276254
0.9574735,0.2867974,0.1864442,0.003626215,-0.003564607,0.0003661474,0.01155672,0.002221791,0.008134229
0.9578708,0.2862372,0.1858269,0.00404206,-0.004150898,-0.000332891,0.01191369,0.005999885,0.005961436
0.9581651,0.2860908,0.1867174,0.004356069,-0.004322763,0.0004749004,0.01308468,0.0109089,0.005151295
0.9552081,0.2890834,0.1878981,0.001419751,-0.001354741,0.001572374,0.008487587,0.007975214,0.006330663
0.9526887,0.2914336,0.1907356,-0.001078279,0.0009717498,0.00432626,0.004363038,0.003926576,0.00413163
0.9520594,0.2909225,0.1922884,-0.001685784,0.0004378845,0.005795149,0.003678565,0.007102672,0.004456971
0.952506,0.2907316,0.1913074,-0.001216919,0.0002252112,0.004729936,0.003168047,0.007554856,0.006537202
0.9493743,0.2903723,0.1898048,-0.0043259,-0.0001548919,0.003142943,0.006834623,0.006295652,0.004924393
0.9459136,0.2900611,0.1878911,-0.007763316,-0.0004860753,0.001144473,0.01309903,0.007707455,0.007043316
0.9496955,0.291444,0.1874254,-0.003957442,0.0008777983,0.0005940155,0.01326295,0.00713512,0.008886619
0.9537857,0.2914018,0.1876821,0.0001576219,0.0008174092,0.000766117,0.007863071,0.005776912,0.006421554
0.9551974,0.2889079,0.1890979,0.001594932,-0.001693756,0.002097499,0.004737971,0.004818753,0.005496613
0.9564626,0.2870476,0.190206,0.002886497,-0.003570555,0.003121529,0.004490718,0.002492515,0.005405587
0.9560405,0.2891147,0.1884863,0.002491109,-0.001518931,0.001318374,0.005129807,-0.0004398902,0.005715955
0.9534496,0.2927504,0.1890833,-7.282782e-05,0.002102308,0.001832392,0.006576303,-0.005710209,0.006724394
0.9501349,0.2935955,0.1920574,-0.003360408,0.002933904,0.004724136,0.007175225,-0.01291041,0.007083626
0.9481614,0.294905,0.192513,-0.005306832,0.004230831,0.005098158,0.007597753,-0.02045641,0.004951774
0.9471333,0.2961313,0.1880547,-0.006307537,0.005445011,0.0005587651,0.007001209,-0.02579688,0.002033573
0.9505276,0.2942951,0.1825775,-0.002885512,0.003597234,-0.004998769,0.005715828,-0.02246585,0.002921253
0.954729,0.2940094,0.1845932,0.00134418,0.003299983,-0.003062484,0.005531947,-0.01306812,0.004122394
0.951953,0.2950379,0.1879936,-0.001403119,0.004316987,0.0002598225,0.005516874,-0.002707686,0.006332306
0.9495999,0.293272,0.187032,-0.003727043,0.002539346,-0.0007785502,0.006472145,0.0008328732,0.01316091
0.9494889,0.2913819,0.1877712,-0.00380857,0.0006373218,-0.000114474,0.006771149,-0.004416649,0.01547373
0.9494698,0.2909085,0.1877068,-0.003797694,0.0001516256,-0.0002523514,0.006268261,-0.0009679415,0.00937265
0.9511736,0.2882873,0.1876607,-0.002063429,-0.002482186,-0.0003700504,0.006291863,0.008386168,0.005257661
0.9514582,0.2868664,0.1921525,-0.001747673,-0.003915847,0.004051925,0.006372644,0.01224057,0.006535092
0.9530155,0.2893205,0.1965822,-0.0001588433,-0.001474443,0.008413627,0.007984576,0.01052633,0.003911365
0.9536307,0.2918918,0.1974453,0.0004884396,0.001084333,0.009210204,0.008715997,0.003116356,-0.001796418
0.9514423,0.2975673,0.1926242,-0.001667526,0.006747484,0.004323854,0.007538638,0.003490901,-0.002228976
0.9510639,0.3009698,0.1888233,-0.002013185,0.01013761,0.0004586475,0.006177324,0.001770149,-0.001860975
0.9478981,0.2983764,0.193327,-0.00514609,0.007531458,0.004898904,0.005729322,-0.008416871,-0.001288951
0.9460308,0.2975837,0.1968459,-0.00698002,0.006725224,0.008355181,0.007857951,-0.006567463,0.004730269
0.9494564,0.2934995,0.194349,-0.003520584,0.002626552,0.005796401,0.008878842,-0.005477642,0.01007131
0.9514579,0.2910658,0.1882419,-0.001484712,0.0001772819,-0.0003722585,0.006046211,-0.005888011,0.01245504
0.953545,0.2936137,0.1820099,0.0006374778,0.002708516,-0.00666521,0.002652017,0.0008287844,0.0133488
0.9540738,0.2908934,0.1829372,0.00120184,-2.947761e-05,-0.005798196,0.003521608,7.888103e-05,0.008766089
0.9524727,0.2911869,0.1851581,-0.0003633268,0.0002453336,-0.003636394,0.006965386,0.0003082884,0.003765979
0.952237,0.2934326,0.1809059,-0.0005628219,0.002471423,-0.007946337,0.006505693,0.00450072,0.003354241
0.9508455,0.2942836,0.1794072,-0.001918111,0.003301917,-0.009500754,0.003912776,0.007488185,0.00298123
0.9509918,0.2989736,0.1828833,-0.001735513,0.007970601,-0.006078214,0.002381813,0.01229854,0.00380973
0.9511334,0.2989567,0.1848848,-0.001557475,0.007931262,-0.004127588,0.003257447,0.01136642,0.00694367
0.949152,0.2994017,0.1875951,-0.003502485,0.008352548,-0.001465366,0.007860213,0.008930708,0.008251471
0.9501149,0.3017649,0.18842,-0.002503081,0.01069047,-0.0006855731,0.01129879,0.01071234,0.009908841
0.9501891,0.2948524,0.1869994,-0.002392205,0.003750803,-0.002148387,0.009945524,0.01151955,0.0123226
0.9489789,0.2893628,0.1894307,-0.003565694,-0.001767834,0.0002436507,0.006584182,0.01046312,0.01152003
0.950115,0.2928858,0.1901406,-0.002392607,0.001724184,0.0009169748,0.005903919,0.005382069,0.01074062
0.9502858,0.296148,0.1883368,-0.00218472,0.004953707,-0.0009205283,0.008173996,-0.002303746,0.011594
0.9501795,0.2958057,0.1904523,-0.00225362,0.00457719,0.001163744,0.01013281,-0.004693151,0.01262413
0.9514071,0.2957668,0.1970779,-0.0009884815,0.004502391,0.007760637,0.01029495,-0.001654782,0.01829001
0.9525087,0.2969525,0.2032733,0.0001507987,0.005650514,0.01392933,0.008242876,0.00397511,0.02687327
0.9539603,0.3000116,0.1990942,0.001640204,0.00867038,0.009725113,0.002825324,0.01659956,0.03115983
0.956846,0.3037805,0.1906065,0.004563549,0.0123981,0.001213215,-0.007994909,0.02697047,0.03564575
0.9564245,0.2997824,0.1866773,0.004179468,0.008356692,-0.002739573,-0.01307677,0.0220586,0.04105197
0.950297,0.2911665,0.1819425,-0.001911276,-0.0003047245,-0.007497206,-0.002379276,0.01661553,0.03376744
0.9462372,0.2863141,0.181817,-0.00593505,-0.005204968,-0.007644563,0.005650675,0.01724287,0.0234688
0.9454962,0.2830931,0.1845128,-0.006640481,-0.008475534,-0.004969315,0.001790584,0.01543995,0.02713
0.9469484,0.2825918,0.1827694,-0.005153061,-0.009027686,-0.006731807,0.000750692,0.02016305,0.02522651
0.9510339,0.282439,0.1891421,-0.001032475,-0.009231869,-0.0003763028,0.003368298,0.02755166,0.0131366
0.9527632,0.2809704,0.1983166,0.0007318023,-0.01075181,0.008782851,0.004070773,0.02695089,0.007913895
0.9529291,0.2837047,0.1969054,0.0009326292,-0.008068104,0.007357804,0.008274336,0.02722904,0.002893118
0.9519232,0.288424,0.1933025,-3.865727e-05,-0.003398088,0.003742216,0.01588199,0.02548782,0.0003931104
0.9506974,0.2929023,0.1911453,-0.001230139,0.001032418,0.001573193,0.01973814,0.0165902,0.004473921
0.9515961,0.2930694,0.1929513,-0.000297436,0.001153504,0.003368031,0.01880991,0.007538403,0.003908409
0.9504375,0.2897287,0.1975719,-0.001422438,-0.002231571,0.007977832,0.01576229,0.002713393,0.003359211
0.9499007,0.2913668,0.1983181,-0.001926097,-0.0006361786,0.008713486,0.01289767,0.003942205,0.004615279
0.9519895,0.2910597,0.2004323,0.0001954663,-0.0009841426,0.01081681,0.01052422,0.003989107,0.006379519
0.952862,0.2906873,0.2002113,0.001100316,-0.001395703,0.01058427,0.009055899,0.002585998,0.01352415
0.9513116,0.2946431,0.1950939,-0.0004182556,0.002522773,0.005454206,0.007302472,0.003922061,0.01741584
0.9489511,0.2919914,0.1928695,-0.002747458,-0.0001644955,0.003215744,0.003061262,0.0009175942,0.01563335
0.9499935,0.2904929,0.1914175,-0.001674244,-0.001696768,0.001748267,0.0039351,-0.002723801,0.01690071
0.9506107,0.2927075,0.1906481,-0.001026775,0.0004855974,0.0009617273,0.006790795,-0.003992464,0.02224377
0.9493716,0.2910851,0.1892493,-0.002235957,-0.001167261,-0.0004555344,0.004387703,-0.006294378,0.02520198
0.9503126,0.2917572,0.1854449,-0.001265549,-0.0005239307,-0.004279601,0.005311282,-0.006006021,0.02292395
0.9502296,0.2919526,0.1864093,-0.001319419,-0.0003556262,-0.003335941,0.004866554,-0.004326469,0.02222785
0.9504314,0.2910134,0.1935688,-0.001088991,-0.001320359,0.003802076,0.001526242,-0.002084664,0.02301088
0.9518125,0.291059,0.2016462,0.0003205104,-0.001298622,0.01185739,0.002142146,-0.001155247,0.02075091
0.9524639,0.2888145,0.2039049,0.0009998624,-0.003565281,0.01409297,-0.000710117,-0.008298175,0.01444121
0.9526428,0.2885673,0.1976953,0.001206331,-0.003832917,0.007858845,-0.007835699,-0.01649499,-0.0007824342
0.9488437,0.2891503,0.1902739,-0.002565822,-0.00326846,0.0004112408,-0.01418409,-0.01677863,-0.01472289
0.9468418,0.2887085,0.1919083,-0.004541261,-0.003726988,0.002017617,-0.01046485,-0.0250766,-0.01111023
0.9503015,0.2888578,0.1955327,-0.001055583,-0.003592304,0.005612252,0.001259945,-0.0428628,-0.004778611
0.95136,0.2878772,0.1916308,2.869662e-05,-0.004585408,0.001678973,0.005407947,-0.03958311,-0.008792997
0.9531023,0.2878202,0.1921559,0.001796303,-0.0046527,0.002170959,0.006737456,-0.02177412,-0.00900913
0.9561369,0.2902811,0.1919204,0.004855803,-0.002199865,0.001900843,0.005336044,-0.01307858,-0.007532322
0.956836,0.2938324,0.186805,0.005579184,0.001345684,-0.003250601,0.001269924,-0.01018776,-0.007300851
0.9585359,0.2958414,0.191192,0.007302385,0.003351199,0.001099226,0.004346075,-0.01346085,0.000140817
0.9552029,0.2976498,0.1930595,0.003991457,0.005157942,0.002928463,0.006911168,-0.01389043,0.003640096
0.950743,0.3007298,0.1905713,-0.0004477541,0.008237869,0.0004011136,0.008205019,-0.01047183,0.005244874
0.954171,0.3010993,0.1923332,0.002999322,0.008608313,0.002123115,0.008543613,-0.01450278,0.007999181
0.9548425,0.3008463,0.1910035,0.003688359,0.008356939,0.0007527541,0.005342296,-0.01723083,0.00339913
0.9523766,0.3001286,0.1891534,0.001238314,0.007641047,-0.001138549,0.003877867,-0.02063295,0.003183705
0.9519862,0.2976338,0.1850618,0.0008621244,0.005147693,-0.005271795,0.0003235288,-0.02146663,0.00469484
0.9509043,0.2974217,0.1815561,-0.0002073301,0.004936443,-0.008819286,-0.000229686,-0.01666879,0.003263278
0.951437,0.2933524,0.1834596,0.0003363411,0.0008672456,-0.006957212,0.001944233,-0.0188849,0.003824075
0.9516301,0.2854,0.1818243,0.0005387372,-0.007085939,-0.008633019,-0.0002695101,-0.01610574,-0.0005652016
0.9510729,0.28522,0.1796143,-1.053034e-05,-0.007267401,-0.01088225,0.001381316,-0.006604201,-0.004635865
0.9521696,0.2889458,0.1805737,0.001092761,-0.003543397,-0.009960262,0.001783626,-0.001799553,-0.007985775
0.9539534,0.2898715,0.181429,0.002881644,-0.00261944,-0.009140145,3.739071e-06,-0.003417048,-0.01198563
0.9556494,0.292393,0.1830635,0.004581451,-9.944937e-05,-0.007538017,0.003503236,-0.008202955,-0.008412576
0.9524015,0.2955469,0.1853975,0.001335906,0.003053044,-0.005233343,0.004517868,-0.0003960353,-0.002332242
0.9483284,0.2948089,0.1853608,-0.002736367,0.00231385,-0.005296158,0.004758656,0.005703261,0.0007419209
0.9508953,0.2937056,0.1841896,-0.0001699218,0.001209267,-0.006490158,0.00808147,-0.002472985,0.0003946337
0.9525428,0.2946214,0.1868744,0.001475902,0.00212387,-0.003824676,0.009962086,-0.007211113,0.0007291733
0.9507515,0.293872,0.1890485,-0.0003182779,0.001372972,-0.001666291,0.009622396,-0.009455984,0.002457671
0.9515389,0.2932952,0.1906479,0.0004651455,0.0007945581,-7.923309e-05,0.00838727,-0.005651857,0.003992276
0.9526778,0.2951016,0.1943086,0.001599151,0.002599023,0.003572379,0.007525408,0.004163157,0.01057146
0.9526448,0.2955731,0.1939817,0.001560292,0.003068368,0.003239385,0.004015044,0.006674742,0.01512374
0.9530806,0.2956523,0.1948398,0.001989211,0.003144791,0.004094075,0.001235975,0.003895218,0.01477547
0.952624,0.2962459,0.1984382,0.001524773,0.003735195,0.007691224,0.004674591,0.0001461206,0.01655804
0.9526656,0.295043,0.1962267,0.001557631,0.002528296,0.005480266,0.006345436,0.00157618,0.01862878
0.9530571,0.2929341,0.1929006,0.001939473,0.000414782,0.002156077,0.003085429,0.004981239,0.02024493
0.952512,0.2900207,0.1922875,0.001383711,-0.002504137,0.001545953,0.001374424,0.007920936,0.01966019
0.9530718,0.2885219,0.1899752,0.001931934,-0.004009048,-0.0007626002,0.002994078,0.01398057,0.01675382
0.9537396,0.2892877,0.1883412,0.002587273,-0.003249814,-0.002391945,0.004931976,0.01188324,0.01474389
0.9542463,0.2886905,0.1889927,0.003080538,-0.003853751,-0.001735163,0.005226543,0.007814384,0.01247295
0.9546654,0.2889176,0.1877966,0.003485172,-0.003633399,-0.002925097,0.005170816,0.007997321,0.0107404
0.9548906,0.2901594,0.1882067,0.003694947,-0.002398162,-0.002507978,0.005305105,0.004266743,0.009832157
0.9566657,0.2901871,0.1910592,0.00545347,-0.002376525,0.0003524343,0.005432996,0.004942203,0.008546279
0.9563831,0.2905477,0.1901358,0.00515312,-0.002021656,-0.00056229,0.0049154,0.006957204,0.006631247
0.9540257,0.2901543,0.190548,0.002776624,-0.00242006,-0.0001405566,0.003764129,0.004537258,0.004139716
0.9539211,0.2899505,0.1945609,0.002651607,-0.002628281,0.003882618,0.004160604,0.006098319,0.00215094
0.9542997,0.2900596,0.1954901,0.003008332,-0.002522782,0.004822584,0.004425775,0.01015308,-0.0005667794
0.9541585,0.2902872,0.1919031,0.002843859,-0.002298007,0.001246625,0.004003252,0.01343368,-0.002929235
0.9541522,0.2931199,0.1870046,0.002813024,0.0005328565,-0.003640817,0.005285614,0.01281317,-0.002851507
0.9539618,0.2936597,0.1886084,0.002596627,0.001071679,-0.002025794,0.006332416,0.008933223,-0.003576045
0.9533391,0.2915214,0.1923224,0.001946763,-0.001066775,0.001699598,0.005856935,0.007985924,-0.005971421
0.952439,0.2914219,0.1910531,0.001018141,-0.001165741,0.0004418218,0.004668205,0.008297858,-0.006314771
0.952342,0.2908035,0.1930359,0.0008915803,-0.001782777,0.002436161,0.004175505,0.009563091,-0.004661497
0.9512236,0.2897656,0.1973746,-0.0002575783,-0.002818588,0.006786396,0.005035908,0.01044109,-0.003933659
0.9492891,0.2894011,0.2006453,-0.002223601,-0.003180134,0.01006814,0.004386462,0.007351301,-0.00235075
0.9496375,0.2888605,0.1994832,-0.001907481,-0.003716839,0.008916365,0.0009315839,0.00224325,0.0009662044
0.9494122,0.2898464,0.1908032,-0.002165443,-0.002726024,0.0002455296,-0.002941265,-0.001990099,0.003823857
0.9471471,0.2916001,0.1863132,-0.00446346,-0.000966454,-0.00423656,-0.002802924,-0.0007166571,0.00492228
0.946823,0.2919934,0.1858413,-0.004820311,-0.0005660816,-0.004701808,0.000652513,0.001728645,0.002831474
0.9482555,0.2915261,0.1864786,-0.00342032,-0.001025315,-0.004058755,0.002062771,0.0002503508,0.0007473491
0.9506733,0.2916187,0.1888137,-0.001034272,-0.0009236553,-0.001718555,0.002341783,0.0009518807,-0.0006570199
0.95383,0.2917923,0.186855,0.002091333,-0.0007401834,-0.003672619,0.0009617161,0.001944435,-0.0009999493
0.9533277,0.2915595,0.1873075,0.001558831,-0.0009621176,-0.003215798,-0.002132145,0.003933154,0.002742272
0.9518144,0.291709,0.1882568,1.597801e-05,-0.0008008811,-0.002262276,-0.000690264,0.0106182,0.003143018
0.9529181,0.2922255,0.1869782,0.001090916,-0.0002719838,-0.003536687,0.001913193,0.01364859,-0.00144857
0.951136,0.2942836,0.1898953,-0.00071912,0.001799239,-0.0006152492,0.003306931,0.01293098,-0.005011435
0.9489491,0.2961846,0.1906868,-0.002933348,0.003714043,0.0001808732,0.00728666,0.01431987,-0.005723013
0.9502686,0.2934284,0.1910714,-0.001640267,0.0009718653,0.0005703769,0.006572875,0.01667074,-0.004522177
0.9500271,0.2907696,0.1948955,-0.001907139,-0.001672586,0.004399436,0.00253372,0.01587524,-0.004854216
0.9489781,0.2943555,0.1982257,-0.00298051,0.001927775,0.007734551,0.002098956,0.01028488,-0.001179703
0.9498022,0.2973596,0.1974779,-0.00217956,0.004946425,0.006991418,-0.0009948256,0.005980451,0.003207653
0.9518713,0.295182,0.1930456,-0.0001323714,0.002783212,0.002563091,-0.001510921,0.005024269,0.0009273236
0.9532663,0.2933981,0.1939232,0.001242096,0.001013333,0.003443845,0.002952671,0.005025085,0.00212224
0.9509556,0.2921789,0.1950002,-0.001087987,-0.000192338,0.004522994,0.002992268,0.00584938,0.004388906
0.9490298,0.2910755,0.1915423,-0.003031829,-0.001282587,0.001066152,0.002844205,0.005502908,0.002037939
0.9503842,0.2928276,0.1910987,-0.001694227,0.0004821526,0.0006224882,0.001273895,0.004921095,0.0005986645
0.9511386,0.2937383,0.1895751,-0.0009553322,0.001405059,-0.0009023441,-0.001869075,0.004337919,-0.0008769608
0.9513717,0.2939857,0.1863135,-0.0007363039,0.001664112,-0.004166231,-0.0008308871,0.002276656,-0.001417867
0.951452,0.2968036,0.18709,-0.0006687688,0.004493153,-0.003392801,-0.001385496,0.00204638,0.002449344
0.9501352,0.298602,0.1887665,-0.001996999,0.006301971,-0.00171997,-0.001049724,0.005211503,0.006825465
0.9488366,0.2977278,0.1888321,-0.003305655,0.005437161,-0.001658461,0.0007377031,0.008322386,0.004229678
0.9485363,0.2959715,0.1905731,-0.003614641,0.003689086,7.813595e-05,0.0003545921,0.009306844,0.0006309271
0.9494635,0.295379,0.1911461,-0.002694599,0.003103387,0.0006465724,0.0007468066,0.01043823,0.001638758
0.9500939,0.2960729,0.1892727,-0.002069796,0.00380255,-0.001231559,-0.001485023,0.01036641,-0.004036997
0.948196,0.2958409,0.1906784,-0.003971723,0.003574354,0.0001692182,-0.003752539,0.006454501,-0.01157606
0.9468204,0.2951615,0.1906129,-0.005349671,0.002897114,9.869587e-05,-0.002732263,0.004546352,-0.01149614
0.948999,0.2933023,0.1895219,-0.003171619,0.001038249,-0.0009974004,-0.00151786,0.00782159,-0.0127789
0.9505278,0.2907548,0.1913584,-0.00164157,-0.001510513,0.0008340868,0.0006701751,0.01088378,-0.01434673
0.947639,0.292436,0.1920649,-0.004527257,0.0001679881,0.001535439,0.003600622,0.009111254,-0.007361439
0.9436066,0.2976909,0.1954562,-0.00855467,0.005418571,0.004921473,0.00735566,0.002928688,0.004274584
0.9430754,0.3007245,0.1977613,-0.009078769,0.008446452,0.007221148,0.01099875,-0.003799762,0.01211762
0.9466497,0.2977273,0.1951312,-0.005495061,0.005441945,0.004585113,0.01071912,-0.007178886,0.01461089
0.9499698,0.2933556,0.1922986,-0.002163036,0.001060972,0.001745846,0.005537258,-0.005562073,0.01107548
0.9490538,0.2952428,0.1890242,-0.003064593,0.002937128,-0.001536012,0.0003038213,-0.004207082,0.005401682
0.9486203,0.2978867,0.1898571,-0.003481293,0.005568096,-0.0007113705,-0.00149184,-0.005048268,0.006481055
0.9508546,0.2968776,0.1913598,-0.001227828,0.004544148,0.0007825402,-0.0006397838,-0.001531379,0.008646618
0.9501257,0.2973214,0.1894774,-0.00193536,0.004971162,-0.001109283,0.001865071,0.002871126,0.006507599
0.9502502,0.2966892,0.1904454,-0.001787348,0.004320168,-0.0001511287,0.001393711,0.003534908,0.002108112
0.9550632,0.2932847,0.1902586,0.003051245,0.000894883,-0.0003481737,-0.0009274546,0.003618963,-0.003768725
0.9571792,0.2914706,0.1879736,0.005194384,-0.0009420043,-0.002643768,-0.003044403,0.001918561,-0.006897359
0.9525117,0.2937291,0.1878955,0.0005554599,0.001291928,-0.002732587,-0.00829424,-0.003659175,-0.01158092
0.9461669,0.2970843,0.1907082,-0.005759636,0.00462088,6.932366e-05,-0.0131185,-0.01047425,-0.01282568
0.9470113,0.293826,0.1972724,-0.004884565,0.00133481,0.006622859,-0.01417414,-0.009435426,-0.008700577
0.9520288,0.289647,0.2003234,0.0001647268,-0.002873378,0.009663023,-0.009568603,-0.001968447,-0.01370917
0.9524853,0.2905123,0.1980224,0.00065402,-0.002038622,0.007350719,-0.002185252,0.001913365,-0.01527148
0.9493834,0.2902983,0.1973623,-0.002414143,-0.002284053,0.006678443,0.002017327,0.004116662,-0.01160845
0.944785,0.2910925,0.1966524,-0.006978068,-0.001522107,0.005955408,0.005226069,-0.001996195,-0.01277256
0.9439977,0.2926407,0.1933773,-0.007729991,-6.628345e-06,0.002665911,0.006293076,-0.01164839,-0.008637208
0.9454899,0.29329,0.1907217,-0.006201288,0.0006095968,-5.463806e-06,0.006312241,-0.004647891,-0.007406317
0.9434255,0.2970799,0.1921602,-0.008227973,0.004366244,0.001415888,0.007724043,0.0008900513,-0.006534442
0.9436527,0.3017033,0.1968523,-0.007961574,0.008956075,0.006089658,0.003906885,-0.006407933,-0.0003726764
0.9446127,0.3051761,0.198585,-0.006960847,0.01239473,0.0078027,-0.002185939,-0.007760653,-0.000407533
0.9483631,0.3035916,0.1936046,-0.003167811,0.01077519,0.002801218,-0.002491271,-0.006859951,7.319811e-05
0.9555318,0.2981803,0.1887326,0.004045189,0.005327636,-0.002093431,-0.001322052,-0.007282772,-0.001632385
0.953074,0.2963031,0.1933771,0.001633221,0.00341268,0.002527058,-0.00133806,-0.004794363,-0.005278499
0.9500951,0.2942201,0.1977674,-0.001298754,0.001290365,0.006892003,0.00242292,-0.002716208,-0.003070682
0.9525004,0.2915892,0.191628,0.001154522,-0.001381291,0.0007258808,0.006108276,0.00444068,-0.004162749
0.9509322,0.2899643,0.188719,-0.0003649885,-0.003048213,-0.002211192,0.004088266,0.01103529,-0.004684651
0.9509466,0.2885685,0.192801,-0.0003013438,-0.004486863,0.001841684,0.002302316,0.00703364,-0.004796417
0.950615,0.2934564,0.193521,-0.0005833676,0.0003575247,0.002531399,0.003452334,0.003122182,-0.00828909
0.9464254,0.3010848,0.192039,-0.004723069,0.007942144,0.001018296,0.003313196,0.002302241,-0.006790376
0.9455748,0.3051972,0.1914112,-0.005523574,0.01201031,0.0003584948,0.002692783,-0.002549837,-0.006002533
0.9477422,0.3061198,0.1928987,-0.003305749,0.01288784,0.001813155,0.003269913,-0.006445251,-0.006784588
0.950271,0.3034384,0.1954415,-0.0007262164,0.01016027,0.004322451,0.001836369,-0.006714135,-0.004108408
0.9504911,0.3018389,0.1961358,-0.0004549607,0.008513128,0.004982551,-0.002646185,-0.007162036,-0.00271212
0.9494395,0.3017326,0.1965494,-0.001455304,0.008357298,0.005361168,-0.006092838,-0.005092521,-0.001377533
0.9503021,0.2994036,0.198429,-0.0005412746,0.005976925,0.007204837,-0.004565209,-0.002532533,-0.001065047
0.9496655,0.2978921,0.2017469,-0.001126468,0.004411923,0.01048569,-9.21906e-05,-0.004803706,-0.002523769
0.9474299,0.2985827,0.201309,-0.003310745,0.005046961,0.01000946,0.001938302,-0.005580726,-0.003012036
0.9443073,0.2989795,0.1960897,-0.006382135,0.005386347,0.00475009,0.003078424,-0.0004262812,-0.007899899
0.9421525,0.2983578,0.1928728,-0.008485691,0.004705129,0.001491497,0.004720542,0.003549558,-0.01455573
0.9450061,0.2987524,0.1914174,-0.005580564,0.005038458,-7.450815e-06,0.004039169,0.00132226,-0.01539529
0.9468853,0.299754,0.1900519,-0.003649487,0.005976888,-0.001417867,0.003227865,-0.0005879764,-0.01291566
0.9456567,0.2999953,0.1898649,-0.004825672,0.006153165,-0.001651116,0.003077779,0.002167228,-0.008302358
0.946603,0.3002567,0.1919132,-0.003826401,0.006347726,0.0003500021,0.002284008,0.003032359,-0.002636902
0.9477271,0.2998264,0.1976601,-0.002648757,0.00584867,0.006048894,0.001118039,0.002222434,-0.0008058503
0.9473706,0.2999266,0.2031453,-0.002951228,0.005878419,0.01148529,0.0002279343,0.00364976,-0.0005338315
0.9479222,0.300438,0.203939,-0.00234502,0.006317446,0.01222929,0.001488163,0.005112894,0.001726303
0.949032,0.3006161,0.2069334,-0.001180114,0.006421425,0.01517251,0.002322858,0.006673337,0.002294224
0.9487212,0.3018093,0.2139205,-0.001435477,0.007538766,0.02210657,0.001542438,0.0065265,0.001851683
0.9479286,0.3017111,0.2078346,-0.002172433,0.007362862,0.01596501,0.0006565649,0.004599547,0.00257809
0.9470624,0.3018949,0.1980072,-0.002982755,0.007467065,0.006079,-0.002021077,0.004234467,0.002155554
0.9454359,0.3023064,0.2029731,-0.004553152,0.007797133,0.01098294,-0.002841859,0.002432431,0.001535376
0.9467316,0.2973972,0.2003892,-0.00320116,0.00280461,0.008333665,0.0006900856,2.596561e-05,-0.0001180287
0.9498925,0.2923601,0.1911894,1.61106e-05,-0.002317563,-0.0009348535,0.003654946,0.0006383028,-0.0009318378
0.9494099,0.2935319,0.1948294,-0.0004099123,-0.001232257,0.002633229,0.003533901,0.002017738,0.00163143
0.9454979,0.2956925,0.2014446,-0.004265344,0.0008406708,0.009173642,0.0004672407,0.004396296,0.002762026
0.9420263,0.2963577,0.2061978,-0.007680388,0.001417625,0.01384927,-0.002918751,0.006890854,0.004282001
0.9442346,0.2996659,0.2009035,-0.005415489,0.004637018,0.008474403,-0.003425521,0.004982063,0.005630077
0.9475687,0.3025704,0.1916796,-0.002024527,0.007452214,-0.0008329071,-0.00229486,0.001651817,0.005402714
0.9455875,0.3007066,0.1972048,-0.003948508,0.005498848,0.004606112,-0.0008702532,0.0003644997,0.009553542
0.9463061,0.2973774,0.199338,-0.003172527,0.002079657,0.006650639,0.0001852989,-0.001542882,0.01100332
0.9494395,0.2950215,0.1952785,1.852859e-05,-0.0003666263,0.002500091,-0.001339719,-0.001245923,0.007316875
0.9491337,0.2955599,0.1978834,-0.0002294099,8.122494e-05,0.0050118,-0.003261251,0.0005743021,0.007763889
0.9495234,0.2972929,0.1967365,0.0002181623,0.001723877,0.00376987,-0.001005269,-4.195174e-05,0.007972019
0.9495654,0.2964222,0.1954791,0.0003178142,0.0007631084,0.002415679,0.001181433,0.0006132428,0.005120034
0.9496252,0.2962497,0.197841,0.0004350796,0.0005010219,0.004679162,-0.0004291038,-0.002452791,0.004301061
0.9507168,0.2966744,0.1980905,0.00158358,0.0008367461,0.004829045,-0.0004304307,-0.006433368,0.004730121
0.9495825,0.295623,0.2006004,0.0005056151,-0.0003027925,0.007238054,0.001214085,-0.001231771,0.006034171
0.9488316,0.2956091,0.2017933,-0.0001898058,-0.0004038239,0.008328878,0.001885628,0.001832099,0.007705449
0.945088,0.2960539,0.2001292,-0.003878803,-4.492704e-05,0.00656152,0.003103366,-0.001170498,0.009004159
0.9398989,0.2957936,0.1988504,-0.009014002,-0.0003898809,0.005178263,0.003471648,-0.004763318,0.009750753
0.9434486,0.2961007,0.194645,-0.00541116,-0.0001659497,0.0008674319,0.002424555,-0.008644054,0.005172596
0.9480411,0.297715,0.1931585,-0.0007658608,0.001366705,-0.0007255233,-0.0004291659,-0.007996331,-0.0007347827
0.9469429,0.2991375,0.1953396,-0.00181165,0.00270939,0.001348657,-0.006149943,-0.005697652,6.012805e-05
0.9462029,0.2984067,0.1942723,-0.002499594,0.001900372,0.0001741049,-0.01021914,-0.003363166,0.001858404
0.9463295,0.2965014,0.1946359,-0.002321214,-8.152927e-05,0.0004305135,-0.008678447,0.001469097,0.001104699
0.9481735,0.2954267,0.1976272,-0.0004258993,-0.001231111,0.003314952,-0.00507441,0.003741457,0.001598061
0.9511572,0.2958851,0.1988761,0.002608648,-0.000845722,0.004457372,-0.002212164,0.00381106,0.0007011942
0.9498726,0.2969654,0.1976204,0.001374393,0.000163484,0.003095722,0.001272097,0.002288253,-0.001853776
0.9474293,0.2977666,0.1937657,-0.001019377,0.0008955792,-0.0008643027,0.001612266,-0.0007934265,-0.0006058785
0.9470695,0.299039,0.1930831,-0.001330496,0.00210087,-0.001651368,0.0005463715,0.004225919,0.002421546
0.9456795,0.3006399,0.1979533,-0.002672573,0.003636581,0.003115386,0.003058929,0.009548582,0.002966617
0.9438901,0.3007862,0.2024684,-0.004414978,0.003719637,0.007528171,0.0006635486,-0.0008556239,0.0007443586
0.9434972,0.2994758,0.2032312,-0.004761531,0.002347729,0.008189901,-0.007978264,-0.009431234,-0.002112363
0.9473327,0.2983449,0.2031806,-0.0008803067,0.001156792,0.0080391,-0.01582978,-0.003954877,-0.0005238468
0.9528525,0.2982892,0.2059093,0.004684659,0.001042751,0.01066825,-0.01824152,0.0008064497,0.003424603
0.9517191,0.2990805,0.2070141,0.003595732,0.001777248,0.01167409,-0.01459138,0.001534763,0.004742247
0.9488863,0.2993508,0.2052909,0.0008064992,0.001992242,0.009851928,-0.01350101,-0.002768347,0.003320755
0.947767,0.2975184,0.2007205,-0.0002703553,0.0001060123,0.005182484,-0.007999436,-0.01102947,-0.0001736417
0.9449773,0.2906654,0.1923311,-0.003018825,-0.006799377,-0.003306022,0.002723292,-0.01125528,-0.002377087
0.9462861,0.2836021,0.19135,-0.00166979,-0.01391321,-0.004386374,0.002628461,-0.01009782,-0.002780176
0.948291,0.2871449,0.1946522,0.0003742206,-0.01041876,-0.001182897,0.003799837,-0.0193523,0.0008141504
0.9457604,0.2916421,0.1924505,-0.002118359,-0.005967222,-0.0034825,0.01195984,-0.0265422,0.007177271
0.9456168,0.2897765,0.1936662,-0.002224862,-0.007875272,-0.002363591,0.0149771,-0.02354006,0.004813599
0.9472596,0.2956243,0.1985636,-0.0005459223,-0.002066547,0.002438466,0.01477652,-0.02244891,-0.000670413
0.9479735,0.3022165,0.2025229,0.0002032194,0.004489882,0.006303963,0.01171774,-0.02709913,-0.001080226
0.9485754,0.2986616,0.2041727,0.0008394996,0.0009026089,0.007861484,0.009321988,-0.03140138,-0.001337444
0.9486226,0.2965794,0.2016261,0.0009199619,-0.001208925,0.005223978,0.00926466,-0.03405036,0.001312814
0.9502541,0.2966652,0.199934,0.002583851,-0.001149522,0.003442177,0.008584091,-0.03245657,0.004341434
0.9503402,0.2952929,0.1957203,0.002701032,-0.002545475,-0.0008601565,0.00884479,-0.02592956,0.00476072
0.9474888,0.2958636,0.1907412,-0.0001204397,-0.001995653,-0.005926639,0.003687052,-0.02064166,0.006192533
0.9469096,0.2962208,0.193655,-0.0006710492,-0.001656624,-0.003098671,-0.00122133,-0.01945351,0.005115091
0.9479762,0.2965307,0.195421,0.0004229278,-0.001362254,-0.001416773,0.004167037,-0.02053419,0.00343593
0.9507543,0.2975786,0.1934076,0.003227034,-0.0003271801,-0.003512112,0.01033126,-0.01935436,0.003258273
0.9538481,0.2975165,0.1909034,0.006345428,-0.0003997269,-0.006095973,0.01087795,-0.01390673,0.002911103
0.9519425,0.2978686,0.1840283,0.004462931,-5.559474e-05,-0.01304812,0.007365602,-0.01077823,0.003394788
0.9494845,0.2984718,0.1803026,0.002026225,0.0005417382,-0.01684769,0.003560678,-0.01179393,0.002416204
0.950093,0.2953764,0.1835133,0.002654128,-0.002557427,-0.01370703,0.003413867,-0.01168601,0.000371207
0.9500857,0.2897015,0.1847277,0.002664417,-0.008234003,-0.01255818,0.006153814,-0.007865655,-0.003442271
0.9489501,0.2885925,0.183773,0.001544355,-0.009342529,-0.01357345,0.008103477,-0.003874749,-0.0063463
0.9456698,0.2935649,0.1866321,-0.001722321,-0.004367276,-0.01076926,0.005788662,-0.0041808,-0.003600242
0.9421722,0.2975384,0.1893998,-0.005208146,-0.0003884253,-0.008050707,0.003411951,-0.00405508,-0.002812248
0.9455247,0.296232,0.189733,-0.001845395,-0.001687001,-0.007760472,0.003630516,-0.004534115,-0.004755674
