accx,accy,accz,body_accx,body_accy,body_accz,body_gyrox,body_gyroy,body_gyroz
1.036661,0.007419986,-0.001552654,0.0063781,-0.03643058,-0.01467332,0.1056789,-0.03568059,0.01750628
1.025654,0.004311909,0.004442192,-0.004956597,-0.04062137,-0.01094918,0.1220688,-0.06958691,0.01644186
1.022458,0.0003945429,0.00350211,-0.008461069,-0.04553072,-0.01405751,0.131782,-0.06925652,0.01513036
1.029422,-0.00408881,0.003796678,-0.00178543,-0.05091696,-0.01582954,0.1308687,-0.04594498,0.01856497
1.030183,-0.003740843,-0.01150415,-0.001292923,-0.05138431,-0.03309619,0.1278938,-0.02302379,0.02038633
1.028098,-0.009138715,-0.005377109,-0.003628322,-0.05751143,-0.02883488,0.1119228,-0.01453585,0.01013486
1.030088,-0.005053738,0.0006968631,-0.001870359,-0.0540711,-0.02452728,0.08733567,-0.02167971,0.001919651
1.027998,0.00802872,-0.008383308,-0.004175075,-0.04155029,-0.03527535,0.06449251,-0.006710886,-0.004863535
1.026133,0.01866774,-0.0001245295,-0.00623698,-0.031392,-0.02858706,0.04138059,0.002239798,-0.005016351
1.021823,0.02610376,0.0001876476,-0.01072685,-0.02435842,-0.02974915,0.01918709,-0.009966089,-0.004850288
1.019013,0.02412267,0.0009173681,-0.01370185,-0.02666673,-0.03039887,0.01991129,-0.02032316,-0.01086715
1.022429,0.03432415,0.0105071,-0.01043304,-0.01672053,-0.02209537,0.02593876,-0.0311007,-0.008548483
1.023296,0.04462622,0.01046731,-0.009698232,-0.006605269,-0.02333008,0.01880883,-0.04147706,-0.004153896
1.024804,0.03809168,0.01263796,-0.00830613,-0.01326191,-0.02226516,0.02607745,-0.05196263,0.002520011
1.022251,0.04274028,0.01104208,-0.01095917,-0.008674514,-0.02487987,0.02297089,-0.06042336,0.01370774
1.017417,0.04627253,0.008231604,-0.0158787,-0.00514632,-0.02862452,0.01107285,-0.07970613,0.01334601
1.02182,0.03817921,0.007133126,-0.01154594,-0.01319027,-0.03057475,0.01588204,-0.09607067,0.01178058
1.028159,0.03071546,0.00132969,-0.005261809,-0.02055466,-0.03714962,0.01324281,-0.08387268,0.01919488
1.031591,0.02014428,0.004094133,-0.001871155,-0.03097954,-0.03507828,0.01422114,-0.07482824,0.02348116
1.029828,0.01431079,0.009026692,-0.003662823,-0.03662226,-0.0307625,0.01751291,-0.07157592,0.02807172
1.024058,0.0132703,0.009987933,-0.009447701,-0.03742958,-0.03034386,0.01875043,-0.07083185,0.02983163
1.023262,0.01191177,0.01029033,-0.01024654,-0.0385144,-0.03051218,0.03132978,-0.07817954,0.02543175
1.025558,0.0129993,0.007976818,-0.007941341,-0.03711433,-0.03322685,0.0339527,-0.06253747,0.02845874
1.026734,0.0143055,0.009082385,-0.006744678,-0.03545853,-0.03245522,0.03340019,-0.04827515,0.02963272
1.02566,0.01581699,0.01210304,-0.007787204,-0.03356214,-0.02970357,0.03604482,-0.05945407,0.02742422
1.023058,0.01513412,0.01439372,-0.01034678,-0.03382665,-0.02761936,0.03574644,-0.0696175,0.02874016
1.022807,0.01301309,0.0129925,-0.01054657,-0.03549766,-0.02916697,0.04054053,-0.0779242,0.0220041
1.02293,0.0124918,0.007500377,-0.01036215,-0.03553902,-0.03474786,0.03797464,-0.0791111,0.01655092
1.022556,0.01305739,0.009206305,-0.01066503,-0.03446526,-0.03307538,0.03174898,-0.07595006,0.01471693
1.022532,0.01451771,0.0149452,-0.01060927,-0.03247018,-0.02731688,0.0280152,-0.08584365,0.009073046
1.021881,0.01517677,0.01558901,-0.01117099,-0.03125144,-0.02660273,0.02256309,-0.09330163,0.0101898
1.023294,0.01972012,0.013499,-0.009661112,-0.0261252,-0.02857411,0.02298333,-0.09619631,0.01371132
1.024163,0.02576338,0.01150234,-0.008686917,-0.01947767,-0.03040624,0.02241331,-0.1034666,0.01697915
1.023212,0.02326741,0.008743161,-0.009525089,-0.02135,-0.03295726,0.02065132,-0.1036476,0.02180869
1.023996,0.02079877,0.005513909,-0.008621127,-0.02317762,-0.03593681,0.0222023,-0.1022862,0.01955909
1.024486,0.0248214,0.005466032,-0.008004086,-0.01849849,-0.03569538,0.02090123,-0.1002396,0.01638097
1.025126,0.02528733,0.00662379,-0.007231572,-0.01736246,-0.03421055,0.02226066,-0.09226008,0.01862904
1.025534,0.02086497,0.006291243,-0.006684004,-0.02110296,-0.03418011,0.02693428,-0.09640281,0.02001008
1.025434,0.01560415,0.003753585,-0.006639227,-0.02567184,-0.03632067,0.02916101,-0.1000625,0.02044696
1.026924,0.0113201,-0.0001279195,-0.004998799,-0.02925531,-0.03977269,0.02977747,-0.08749138,0.02105157
1.026343,0.01233191,0.001093307,-0.005425539,-0.02753544,-0.03809118,0.0300932,-0.0801824,0.01918853
1.025051,0.01460543,0.002451235,-0.00655829,-0.02454744,-0.03624369,0.03458531,-0.07990482,0.01849167
1.025127,0.01567184,0.0008993736,-0.006320044,-0.0227612,-0.03727825,0.03981969,-0.07912261,0.01721003
1.024711,0.01925487,0.00341645,-0.006570348,-0.01845414,-0.03421766,0.03762649,-0.0758156,0.0122042
1.025168,0.02024553,0.004983968,-0.00594458,-0.01673648,-0.03208199,0.0340637,-0.07138583,0.01029999
1.025069,0.01946774,0.005144402,-0.005872474,-0.01678557,-0.03133039,0.03275977,-0.07378844,0.008968045
1.024765,0.02230124,0.01041965,-0.006003388,-0.01322292,-0.02544263,0.02988756,-0.07455942,0.007197907
1.025253,0.02391408,0.01366958,-0.005339835,-0.01088177,-0.02156063,0.02811484,-0.07506529,0.009520056
1.024496,0.02114623,0.003957135,-0.0059195,-0.01292341,-0.03062328,0.02732157,-0.08081675,0.01157507
1.02321,0.01813429,-0.007544841,-0.00702667,-0.01521245,-0.04145937,0.02736082,-0.08480599,0.01341959
1.022333,0.01966029,-0.00337259,-0.007724577,-0.01296788,-0.03660637,0.02986958,-0.08714978,0.01323942
1.025772,0.02207829,-0.0007745294,-0.004105925,-0.009836605,-0.0333137,0.02934569,-0.08022916,0.009700109
1.034012,0.02206095,-0.009435043,0.004315097,-0.009146944,-0.04126677,0.02719225,-0.06674604,0.009344723
1.037186,0.02261148,-0.009855798,0.007670449,-0.007896658,-0.04096817,0.02498934,-0.06619938,0.01051455
1.031303,0.02175205,-0.003962842,0.001966726,-0.008064528,-0.03434477,0.0202631,-0.07978854,0.01097265
1.025183,0.0201399,0.001669659,-0.003973937,-0.008994176,-0.02797162,0.02085347,-0.09038838,0.01072747
1.025669,0.01903432,0.005294725,-0.003311329,-0.009427087,-0.02359685,0.02296863,-0.08368182,0.00967206
1.026405,0.0170578,0.003571589,-0.002400046,-0.01074143,-0.02456256,0.02064299,-0.07387169,0.01186876
1.02417,0.01662994,0.004716772,-0.004462384,-0.01051812,-0.0226536,0.02217109,-0.07573605,0.0137073
1.024921,0.01627285,0.001413174,-0.003541168,-0.0102355,-0.02518841,0.02336371,-0.07548972,0.01258628
1.025553,0.0157465,-0.005834224,-0.002740823,-0.01013399,-0.03166317,0.02218621,-0.07418024,0.01290439
1.024456,0.01625791,-0.002126221,-0.003672368,-0.009006909,-0.02717966,0.02395581,-0.07893263,0.01452694
1.025445,0.01918313,0.001258918,-0.002519956,-0.005478519,-0.02301703,0.02488777,-0.07972377,0.01751973
1.025943,0.02405288,0.000538095,-0.001861653,-1.851738e-05,-0.02295932,0.02715922,-0.07716278,0.01989099
1.026587,0.02272722,0.0003279029,-0.001059593,-0.0007673351,-0.02239094,0.03240587,-0.07338986,0.01905132
1.027684,0.02026348,-0.003335291,0.0001921203,-0.002668195,-0.02527646,0.03517506,-0.07021597,0.01866702
1.027636,0.02041399,-0.0034203,0.0002950946,-0.001969218,-0.02458554,0.0320053,-0.07052983,0.01969681
1.027866,0.01596838,-0.001890347,0.0006732107,-0.005881079,-0.02228214,0.02668121,-0.06830134,0.01948506
1.026976,0.01469782,-0.003368764,-7.186816e-05,-0.006632788,-0.02299031,0.02723905,-0.06462797,0.01823389
1.026661,0.01623861,-0.003360138,-0.0002468806,-0.004588117,-0.02221533,0.02677314,-0.06066411,0.01721029
1.02753,0.01452163,-0.006301374,0.0007590939,-0.005816181,-0.02439476,0.02074744,-0.05973405,0.01515705
1.026898,0.0154445,-0.01051039,0.0002601557,-0.004419331,-0.02784704,0.02000654,-0.06062728,0.01326456
1.026818,0.01564635,-0.008506397,0.0003096231,-0.003758404,-0.02509175,0.02142951,-0.05314697,0.01443334
1.026595,0.0148679,-0.003892942,0.0002118596,-0.004092635,-0.01973281,0.0181107,-0.04891671,0.01710498
1.026099,0.01664741,-0.001838462,-0.0001633689,-0.001883698,-0.01693911,0.01684436,-0.05202677,0.01911966
1.02754,0.01622889,-0.002650165,0.001393717,-0.001887538,-0.01701845,0.01768264,-0.0522921,0.01863901
1.027767,0.01396133,-0.003279507,0.00173333,-0.003755117,-0.01692289,0.01678376,-0.05271248,0.01720448
1.025838,0.01250085,-0.002486658,-8.792465e-05,-0.004830169,-0.01541319,0.01822301,-0.05316733,0.0168223
1.025026,0.0155308,-0.002722222,-0.0007960314,-0.001429171,-0.0149405,0.01949513,-0.05209907,0.01504225
1.027469,0.02001175,-0.002847184,0.001746481,0.003408595,-0.01436632,0.01736557,-0.04668873,0.01441207
1.030385,0.01786228,-0.001656806,0.004757404,0.001601772,-0.01248642,0.01469357,-0.037007,0.01518376
1.028779,0.01617256,-0.001197316,0.003242941,0.000240506,-0.01134753,0.009358667,-0.03189115,0.01390155
1.025734,0.01750526,-0.0009971029,0.000283995,0.001887538,-0.01047854,0.006604044,-0.03337353,0.01492194
1.024767,0.01708746,0.000340593,-0.000601033,0.001770052,-0.0084832,0.01228528,-0.03477314,0.01775686
1.024749,0.01799157,0.001364915,-0.0005422317,0.002960565,-0.006812868,0.01647764,-0.03101823,0.01526675
1.026239,0.0167333,-0.0009763248,0.001020401,0.001974893,-0.008520238,0.01360245,-0.0299602,0.01043982
1.026759,0.01405572,-0.00409813,0.001609238,-0.0004437436,-0.01102074,0.01149009,-0.03262154,0.01224023
1.026081,0.01602653,-0.002882332,0.000996839,0.001772569,-0.009196527,0.01398369,-0.03220257,0.01522077
1.026416,0.01853312,-0.002003105,0.001391876,0.004511477,-0.007721994,0.01545782,-0.03281434,0.01201072
1.025431,0.02066077,-0.003423281,0.0004636345,0.00685841,-0.008560201,0.0162947,-0.03485398,0.01231745
1.024636,0.02119471,-0.004214482,-0.0002789649,0.007598651,-0.008782963,0.01742766,-0.03913656,0.01289695
1.025633,0.01758333,-0.01057131,0.0007670419,0.004180656,-0.01458497,0.01599177,-0.04041586,0.007255838
1.027664,0.01582806,-0.01582222,0.002844178,0.002605947,-0.01929459,0.01639162,-0.03298176,0.007460173
1.029673,0.0169261,-0.003945498,0.004893955,0.003871984,-0.006889848,0.01647215,-0.02930285,0.009573958
1.027644,0.0182727,0.00987354,0.002903673,0.005374256,0.007444021,0.01500046,-0.03156351,0.008740446
1.025404,0.02095164,0.006468675,0.0006978705,0.008196789,0.004540425,0.01624579,-0.03473019,0.01023165
1.02745,0.02285912,0.002906189,0.002774716,0.01023589,0.001465061,0.01546096,-0.03829514,0.01003354
1.028103,0.02158546,0.007308563,0.003454702,0.009081953,0.006339898,0.01331779,-0.04113479,0.009849683
1.025315,0.01981177,0.005497995,0.0006902064,0.007416141,0.004986695,0.01181178,-0.04380711,0.01001611
1.022617,0.02009844,0.004078231,-0.0019875,0.007798972,0.004008784,0.01042993,-0.0432524,0.01040132
1.022209,0.01954972,0.005100186,-0.002377949,0.007334898,0.005456749,0.01196528,-0.0416957,0.01255757
1.024926,0.0186597,0.001447771,0.0003525746,0.00651821,0.002214254,0.01413325,-0.03830726,0.01179448
1.027294,0.01905544,0.001824093,0.002732209,0.006976239,0.00298426,0.01557988,-0.03214442,0.01132886
1.025596,0.01769809,0.0002683027,0.001042866,0.005670421,0.00180587,0.01320414,-0.03194077,0.01147518
1.024127,0.01782993,-0.004027227,-0.0004194588,0.005843347,-0.002128487,0.008882368,-0.03317238,0.01012126
1.025342,0.01959975,0.002523267,0.0007992146,0.007644133,0.004767099,0.01158601,-0.03137421,0.01021216
1.02479,0.01945291,0.01051775,0.000249358,0.00751845,0.01309067,0.01601777,-0.0314888,0.01031635
1.022879,0.02014503,0.01315793,-0.001661656,0.008222186,0.01604376,0.01710974,-0.03179242,0.009583421
1.022299,0.01954753,0.01451319,-0.002243699,0.007627019,0.01769534,0.0152187,-0.02904309,0.006257807
1.023709,0.01805642,0.01283382,-0.0008383848,0.00612923,0.01629529,0.009819235,-0.01907677,0.003068801
1.025887,0.01892574,0.007752104,0.001334683,0.006983166,0.01147551,0.007307716,-0.007665685,0.005069466
1.02516,0.01889028,0.00137592,0.0006014128,0.006923953,0.005343723,0.005953964,-0.01106042,0.007835342
1.024363,0.01854528,-4.856987e-05,-0.0002038516,0.006547142,0.004146256,0.005994331,-0.02330052,0.008573406
1.025685,0.01960207,0.002240075,0.001108461,0.007564384,0.006644883,0.01029635,-0.02671867,0.008912203
1.025784,0.02209167,0.001774572,0.001198043,0.01000698,0.0063727,0.009115947,-0.0216848,0.009800249
1.026251,0.02450399,0.003229428,0.001653074,0.01236507,0.008004564,0.007249768,-0.01565498,0.01113501
1.025786,0.02291003,0.007839064,0.001176371,0.01070975,0.01277519,0.008253793,-0.01580055,0.01123173
1.023523,0.02070971,0.009207686,-0.00110048,0.008441072,0.01428898,0.00542551,-0.01824574,0.009958529
1.024673,0.01939029,0.008288328,3.560832e-05,0.007046497,0.01349905,0.006802645,-0.0160866,0.007736179
1.027482,0.01474317,0.009066708,0.002830255,0.002317741,0.01439119,0.009513099,-0.01681555,0.005889144
1.029105,0.0134041,0.01016812,0.004437581,0.0008910014,0.01559079,0.008559554,-0.01169615,0.009059655
1.029608,0.01988481,0.00979128,0.004924509,0.007278539,0.01529666,0.009537926,0.001997884,0.01352894
1.028526,0.02407811,0.00927317,0.003824585,0.01137357,0.0148459,0.007862215,0.01066258,0.008567552
1.027395,0.02231025,0.009892024,0.002675323,0.009502542,0.01551689,0.002476962,0.0228555,-0.001713554
1.026374,0.02231728,0.01202247,0.001635314,0.009401647,0.01768442,-0.006089546,0.03307213,-0.009617728
1.028446,0.02714626,0.0143997,0.003686314,0.01411805,0.02008379,-0.021833,0.03481037,-0.01316683
1.033875,0.02923547,0.01478993,0.009093319,0.01609006,0.0204813,-0.04710313,0.05065502,-0.01020074
1.035762,0.02211137,0.01619962,0.01095749,0.00884409,0.02188342,-0.07389176,0.08655774,-0.008872019
1.034244,0.01573697,0.0188788,0.009415141,0.002343228,0.02454016,-0.09256378,0.1227893,-0.00850822
1.032658,0.02031916,0.02042698,0.007802076,0.006794697,0.02605099,-0.1206982,0.1354,-0.003309339
1.031562,0.02469884,0.02724746,0.006677975,0.01103974,0.03281905,-0.1467826,0.127482,-0.00071147
1.030568,0.02183657,0.03282615,0.005653117,0.008039154,0.03832995,-0.13825,0.1156781,0.001962477
1.024827,0.02329166,0.03151526,-0.0001213106,0.009352448,0.03693542,-0.124344,0.09845018,0.007790849
1.014901,0.02669827,0.03538126,-0.01008363,0.01261391,0.04070137,-0.1151019,0.08808167,0.0106662
1.011422,0.02445023,0.03670222,-0.01359927,0.01021748,0.04190532,-0.09385559,0.08430924,0.004582155
1.015689,0.02464944,0.03455818,-0.009370651,0.01026511,0.03962677,-0.08624002,0.05942783,-0.004870947
1.018873,0.02569472,0.0390206,-0.006225004,0.01115576,0.04393669,-0.08644197,0.02790744,-0.001846877
1.022465,0.02440321,0.03670576,-0.00267114,0.009706622,0.04145094,-0.08346838,0.01900976,2.002126e-05
1.028482,0.0240331,0.02876918,0.003307748,0.009176042,0.0333247,-0.08973913,0.02943299,-0.006137975
1.032213,0.01879602,0.02178723,0.007002157,0.003775819,0.02613435,-0.08823383,0.04766916,-0.002510552
1.03134,0.01309873,0.01791231,0.00609328,-0.002086945,0.02203265,-0.08229815,0.05374225,0.002064031
1.022382,0.01504003,0.02990975,-0.002900895,-0.0003129174,0.0337855,-0.07405137,0.0357748,0.003534201
1.015219,0.01754944,0.04729757,-0.01009949,0.002028014,0.05091133,-0.05206348,0.01080709,0.004167354
1.019798,0.01721963,0.05401787,-0.005555812,0.001529051,0.05735206,-0.03511507,0.003543252,-0.001239537
1.022482,0.0183779,0.04879377,-0.002906275,0.002517921,0.05183021,-0.02286694,0.01096662,-0.002697608
1.019247,0.01968025,0.04390883,-0.006173702,0.003650984,0.04662873,-0.009341975,0.005873942,-0.004576129
1.018878,0.02015696,0.05474932,-0.006573449,0.003958818,0.05713347,0.00380391,-0.01000496,-0.01220722
1.020238,0.02288032,0.06213095,-0.0052431,0.006513947,0.0641597,0.02113989,-0.027716,-0.01302499
1.021177,0.02549424,0.05694458,-0.004331091,0.008960413,0.05859766,0.03210924,-0.04298257,-0.001336346
1.022535,0.02830484,0.05548723,-0.002998201,0.01160432,0.05674376,0.03545705,-0.04077369,0.01121122
1.022731,0.03235111,0.05306451,-0.002825137,0.01548454,0.05390321,0.03529421,-0.04276482,0.005113754
1.021645,0.0330154,0.04995609,-0.003930943,0.01598315,0.05035553,0.0391684,-0.05623949,-0.003800704
1.022376,0.02984051,0.05159117,-0.003217088,0.01264258,0.05152995,0.05083541,-0.0620609,0.0004258952
1.022523,0.02458637,0.05089424,-0.003085763,0.007222547,0.05035115,0.05484908,-0.06782265,0.0004210089
1.021545,0.02305993,0.04659441,-0.004076167,0.005529926,0.04554851,0.05425887,-0.06234393,-0.001321252
1.021722,0.02267036,0.04256231,-0.003909171,0.004974012,0.04099308,0.05529738,-0.04688804,-0.008306457
1.020989,0.01816378,0.04159359,-0.004650144,0.0003011357,0.0394812,0.0542348,-0.04013985,-0.02267118
1.023221,0.02094453,0.04122836,-0.002423088,0.002915938,0.0385538,0.05482495,-0.0342699,-0.02132095
1.026377,0.02623916,0.04110218,0.0007314756,0.008045247,0.03784733,0.05927098,-0.03418799,-0.01779076
1.024165,0.02605523,0.04237055,-0.001480957,0.00769676,0.03851823,0.06480389,-0.03810677,-0.0209582
1.02095,0.02960454,0.04326494,-0.004692637,0.01108229,0.03879887,0.06514738,-0.04635604,-0.01585217
1.018793,0.03257752,0.05026014,-0.006844406,0.01389216,0.04516487,0.06636088,-0.06905469,-0.01261135
1.019211,0.03191636,0.05683835,-0.00641936,0.01306831,0.05109906,0.07052622,-0.08399232,-0.007648328
1.021828,0.03161611,0.04644601,-0.003791722,0.01260556,0.04004837,0.06553665,-0.09156532,0.001221408
1.021585,0.03000321,0.03630495,-0.004022052,0.01083011,0.02923521,0.05314683,-0.1036352,0.00149576
1.020542,0.02861063,0.04606101,-0.005049984,0.009274783,0.03830635,0.04353403,-0.1020204,0.005907683
1.02076,0.02729833,0.05443267,-0.004813932,0.007799474,0.04598121,0.05014484,-0.09783337,0.01341664
1.021792,0.02423176,0.04997543,-0.003760682,0.004569683,0.04081598,0.06626531,-0.1129568,0.01594937
1.025545,0.02157792,0.04639805,1.495686e-05,0.001752554,0.03652001,0.06917762,-0.1238878,0.02371342
1.030444,0.02455424,0.03725712,0.004940399,0.00456576,0.02665066,0.06949013,-0.1110836,0.02782688
1.032727,0.02954946,0.02317625,0.007250404,0.009398275,0.01183268,0.0693712,-0.09508235,0.02420469
1.031823,0.03057993,0.02177724,0.006375701,0.01026651,0.009689475,0.05399978,-0.08638844,0.02441146
1.026701,0.03601824,0.02570026,0.00128377,0.01554294,0.01286311,0.03831204,-0.08268351,0.02817932
1.020384,0.04216583,0.02439813,-0.005002302,0.02152876,0.01080824,0.02957926,-0.08308949,0.03335048
1.023741,0.03889726,0.02070941,-0.001613632,0.01809803,0.006365173,0.02181863,-0.07148229,0.03514983
1.029031,0.0343665,0.01572691,0.003708873,0.01340425,0.000628471,0.01834848,-0.05441881,0.03394011
1.023573,0.03021428,0.01406502,-0.001716321,0.009087856,-0.001785603,0.02140834,-0.0544611,0.03487428
1.021213,0.02362634,0.01576328,-0.004043732,0.002334557,-0.0008356106,0.02690035,-0.06580904,0.03175009
1.023643,0.01961336,0.01545756,-0.001579645,-0.001844743,-0.001883862,0.02900174,-0.07838223,0.02400719
1.024454,0.01787492,0.01489454,-0.0007353982,-0.003749958,-0.003181985,0.04001636,-0.08707043,0.01844562
1.033642,0.01679359,0.01551859,0.008486604,-0.004997922,-0.003283995,0.05720756,-0.07751009,0.01669703
1.045231,0.01716006,0.01866884,0.02010932,-0.004797272,-0.0008492907,0.05574776,-0.03840273,0.01739023
1.045405,0.01942095,0.0324463,0.02031619,-0.002700773,0.01222434,0.03659085,0.02360085,0.02035325
1.027941,0.02261157,0.04881269,0.002882679,0.0003274036,0.02789933,0.0164262,0.05203147,0.02585251
1.009229,0.02286207,0.04587058,-0.01579982,0.0004178009,0.02427831,0.01465835,-0.007996123,0.02986444
1.01668,0.02194902,0.03404648,-0.008322528,-0.0006527545,0.01178756,0.02681392,-0.06926357,0.02977304
1.028524,0.02420156,0.02988923,0.003547397,0.001445134,0.006975957,0.03624419,-0.04786145,0.02876472
1.026442,0.02717884,0.02396808,0.001488972,0.004270768,0.0004131132,0.04578511,-0.02774841,0.03031658
1.026433,0.03217997,0.02127372,0.001502852,0.009123303,-0.002909647,0.03642828,-0.0311446,0.03204141
1.022058,0.03904237,0.0223009,-0.002851107,0.01583996,-0.002496791,0.01750425,-0.01647738,0.03356104
1.018534,0.03876919,0.01783319,-0.006354659,0.01542349,-0.007563938,0.02233977,-0.02424924,0.03756107
1.024858,0.03607146,0.01606865,-1.066817e-05,0.01258437,-0.009912191,0.0234031,-0.04046756,0.03872533
1.029231,0.03899943,0.01191069,0.004380818,0.01537237,-0.01463725,0.01836829,-0.04586296,0.03832436
1.034956,0.03834864,0.01056628,0.01012286,0.01458257,-0.01653114,0.02873242,-0.05998817,0.04277692
1.034268,0.03187652,0.0207581,0.009450604,0.007972008,-0.006870262,0.0336242,-0.05613181,0.04502801
1.026221,0.02771576,0.03074673,0.001418812,0.003673137,0.002606599,0.03740219,-0.05428356,0.031855
1.02609,0.0274729,0.04157604,0.001299799,0.003292519,0.01294343,0.04588338,-0.07529973,0.0015364
1.023838,0.02428354,0.03642761,-0.000941414,-3.408374e-05,0.007321465,0.05569898,-0.09446648,-0.01704051
1.020008,0.01000125,0.02314928,-0.004762254,-0.01445275,-0.006411914,0.09360416,-0.1127403,0.002600272
1.019988,-0.00639311,0.03089044,-0.004775312,-0.03098186,0.000892485,0.1456784,-0.1128854,0.02534565
1.021083,-0.01055087,0.02968753,-0.003674131,-0.03527137,-0.0007289768,0.1599463,-0.08872108,0.01388034
1.024396,0.0009387508,0.01676472,-0.000355036,-0.02390885,-0.01405215,0.1237923,-0.06861912,-0.006152621
1.018171,0.01839717,0.004712856,-0.006575753,-0.006571463,-0.026486,0.07873313,-0.07219674,-0.01592607
1.011443,0.02025766,-0.01142629,-0.01329949,-0.004825212,-0.04298794,0.06955147,-0.09030127,-0.01345702
1.015833,0.0115176,-0.007315937,-0.008905782,-0.01367242,-0.03921993,0.08974777,-0.0864701,-0.0003297277
1.021344,0.007615514,-0.003996482,-0.003390085,-0.01767428,-0.0362209,0.1012683,-0.06034383,-0.004269058
1.026441,0.004582067,-0.01398264,0.001712767,-0.02079962,-0.04650424,0.0760027,-0.03691124,-0.008685226
1.024319,0.009431882,-0.008453628,-0.0004038813,-0.0160332,-0.04124794,0.03922914,-0.04210323,-0.0005153048
1.020185,0.01995084,-0.005380234,-0.004530781,-0.00558866,-0.03842163,0.02737384,-0.05792484,-0.001874517
1.024821,0.02467903,-0.006641121,0.0001129018,-0.0009257995,-0.03990305,0.02180822,-0.03616463,0.01005727
1.024644,0.0275023,-0.001692029,-5.564887e-05,0.001840959,-0.03514726,0.01511173,-0.01439684,0.02570101
1.017087,0.02941308,-0.001148597,-0.007602871,0.003703567,-0.03476942,0.001720524,-0.003236733,0.03175048
1.012552,0.03201895,0.00692613,-0.01212827,0.006268974,-0.02683236,-0.0352624,0.007529067,0.05360189
1.016252,0.03660187,0.02369049,-0.008417205,0.01081842,-0.01017789,-0.06505942,-0.02200143,0.07596823
1.025036,0.0435272,0.04323576,0.0003798889,0.01771639,0.009284407,-0.07156376,-0.06691073,0.09390202
1.032532,0.04474742,0.05696642,0.007890823,0.01891427,0.02295735,-0.07149783,-0.1077511,0.1050751
1.039214,0.02921229,0.04593432,0.01458763,0.003360716,0.01189046,-0.06760055,-0.1188094,0.1029321
1.036126,0.01195489,0.02609339,0.01151609,-0.01391188,-0.007964573,-0.04898229,-0.1056655,0.1025752
1.027164,0.004307262,0.01001817,0.002571126,-0.02157144,-0.02403475,-0.007201341,-0.1289007,0.09920464
1.02917,-5.32312e-05,-0.008087135,0.004592268,-0.02593998,-0.04211645,0.03567514,-0.1253869,0.09809014
1.029504,-0.007063813,-0.01966228,0.004941703,-0.03295376,-0.05364916,0.0550418,-0.09715169,0.09503385
1.024202,-0.01127299,-0.03144527,-0.000345978,-0.03716011,-0.06536996,0.05295543,-0.09244748,0.07936657
1.023932,-0.007961576,-0.03971206,-0.0006030972,-0.03383855,-0.07355333,0.04399279,-0.07002193,0.06506536
1.024839,-0.01115899,-0.03309295,0.0003156405,-0.03701723,-0.06682789,0.03477357,-0.06846036,0.04596468
1.028394,-0.01255296,-0.03261127,0.003882051,-0.0383827,-0.06621536,0.02378657,-0.06998302,0.02471941
1.030159,-0.007734801,-0.03304911,0.005657363,-0.03352516,-0.06649649,0.01893884,-0.04906302,0.01252364
1.030785,-0.009167815,-0.02273001,0.006291399,-0.03490696,-0.05599375,0.01512541,-0.04766236,0.006893859
1.035026,-0.00588211,-0.01931835,0.01054017,-0.03155742,-0.05237085,0.01171614,-0.02906188,0.005941431
1.031649,-0.005056506,-0.01605445,0.007168531,-0.03065477,-0.04886788,0.01512753,-0.01318535,0.0007780902
1.027065,-0.006663533,-0.01217555,0.002588161,-0.03217105,-0.0447221,0.009734308,-0.007423361,-0.004492335
1.026411,-0.0007332963,-0.01511918,0.001935048,-0.02613604,-0.04737136,0.004371151,0.01089587,-0.0135711
1.02537,0.0002957944,-0.01423935,0.0008927921,-0.02498796,-0.04617008,0.00401076,0.007740498,-0.02461336
1.027478,0.001978488,-0.01697593,0.002998026,-0.02317207,-0.04855855,-0.002989171,0.01428633,-0.01750547
1.027164,0.001597066,-0.02147599,0.002678719,-0.02340624,-0.05268426,0.00330681,0.01982335,-0.01460298
1.027593,-0.002785451,-0.01897903,0.003101101,-0.02762763,-0.04978706,0.01619522,0.01025638,-0.0233329
1.03042,-0.002261394,-0.01909438,0.005918901,-0.02692871,-0.04947663,0.01668915,0.01586351,-0.02452287
1.032083,-0.003654824,-0.01989351,0.007569732,-0.02813362,-0.0498249,0.01549387,0.009876647,-0.02762048
1.035539,-0.001424652,-0.01881484,0.01101215,-0.02570137,-0.04827076,0.01220126,0.01415051,-0.02810486
1.03132,0.003752759,-0.01688667,0.006777727,-0.02030853,-0.04584311,0.008853256,0.02293924,-0.02611128
1.024884,0.008689888,-0.01158264,0.0003227208,-0.01514299,-0.0400163,0.006543737,0.008709698,-0.03020192
1.026538,0.01208986,-0.008221056,0.001955469,-0.01150228,-0.03610954,-0.00127486,0.003876662,-0.02783094
1.027026,0.006693334,-0.009894663,0.002418718,-0.01664654,-0.03721669,-0.006714553,-0.001566084,-0.01875156
1.027823,0.004241257,-0.01235592,0.00318937,-0.01883559,-0.03909138,-0.006502937,-0.001005146,-0.01127802
1.029843,0.002718578,-0.01251961,0.005180542,-0.02008508,-0.0386495,-0.006833489,0.005014733,-0.01299125
1.027726,0.0001940594,-0.0126051,0.003033535,-0.02232673,-0.03811145,-0.01307187,-0.001312582,-0.01771755
1.024532,0.002765218,-0.0118985,-0.0001935213,-0.01946345,-0.03676439,-0.0192544,-0.001034734,-0.01432522
1.023232,0.0009119811,-0.008580079,-0.001529532,-0.02101569,-0.03278966,-0.01569697,-0.007466699,-0.01484718
1.026005,0.001855786,-0.006923549,0.001206662,-0.01976243,-0.03046212,-0.008198984,-0.01178797,-0.01685764
1.030931,0.004200252,-0.01012627,0.006095179,-0.0171005,-0.03298038,-0.00305757,-0.004375777,-0.0153563
1.031714,0.001687726,-0.01517224,0.006837484,-0.01928802,-0.03732959,-0.002043128,-0.001560105,-0.01757849
1.02573,0.003253438,-0.01451891,0.0008124865,-0.01739025,-0.03596823,-0.002352432,0.006719522,-0.01409109
1.019823,0.003811268,-0.01264071,-0.005137537,-0.01649381,-0.03337162,-0.0005091593,0.007271475,-0.01002516
1.02181,0.006671856,-0.01548304,-0.003195008,-0.0132886,-0.03548609,-0.002703584,0.005754075,-0.01449506
1.023696,0.0118001,-0.01661421,-0.001353889,-0.007810357,-0.03588082,-0.007642703,0.01448967,-0.01556534
1.021606,0.009687024,-0.01701229,-0.003489348,-0.009568839,-0.0355347,-0.01090637,0.01222587,-0.01079703
1.024537,0.008922314,-0.01663344,-0.0006030952,-0.009975166,-0.03440464,-0.01229275,0.01292039,-0.005991107
1.028889,0.01035729,-0.01702156,0.003702812,-0.008178802,-0.03403532,-0.008935316,0.02222765,-0.005019726
1.029102,0.009547349,-0.01824701,0.003870064,-0.008625077,-0.03449784,-0.007190451,0.02152852,-0.006028877
1.027674,0.009777674,-0.009292201,0.002396249,-0.00802954,-0.02477541,-0.008712032,0.01419639,-0.005007893
1.025683,0.01077027,-0.003101373,0.0003596369,-0.006670871,-0.0178132,-0.006386894,0.00880269,-0.004850006
1.027054,0.01063973,-0.009596627,0.001685004,-0.006435174,-0.02353452,-0.004285034,0.01561832,-0.00427811
1.028114,0.007550092,-0.01288205,0.002700144,-0.009159044,-0.02604462,-0.005343096,0.02455588,-0.003816241
1.023655,0.004918129,-0.01152297,-0.001804834,-0.01142627,-0.02390984,-0.007779202,0.01811288,-0.00533181
1.021118,0.007850971,-0.01306811,-0.004386985,-0.008130142,-0.02467974,-0.009153003,0.01244554,-0.004959612
1.022863,0.0110057,-0.01606497,-0.002686693,-0.004614004,-0.02690268,-0.007597395,0.0144178,-0.00368243
1.026198,0.007690468,-0.01307637,0.000605068,-0.007570198,-0.02314215,-0.007521156,0.0164419,-0.003458544
1.028767,0.004660098,-0.009207156,0.003130918,-0.01024435,-0.01850375,-0.007562922,0.02274724,-0.006901589
1.027584,0.005912574,-0.01265682,0.001905371,-0.008638806,-0.02118775,-0.006927057,0.02837419,-0.01142385
1.025526,0.005889675,-0.01267822,-0.0001946581,-0.008312072,-0.02044781,-0.007951403,0.03153347,-0.009077569
1.024672,0.00712804,-0.008381532,-0.001089899,-0.006727772,-0.01539483,-0.006731976,0.03581489,-0.00696222
1.024859,0.009386529,-0.004438356,-0.000942784,-0.004127354,-0.01070124,-0.004994968,0.03972729,-0.009762051
1.025614,0.00913733,-0.001122304,-0.0002267439,-0.004038983,-0.006641584,-0.004007304,0.04225177,-0.01059324
1.026646,0.009744812,-0.002817319,0.0007671426,-0.003098678,-0.007600866,-0.001769086,0.03781223,-0.01026031
1.028498,0.0102253,-0.002561374,0.002582548,-0.002290501,-0.006618115,-0.001114269,0.03412345,-0.006488677
1.028965,0.01033193,-0.0003267901,0.003013677,-0.001861698,-0.003666653,-0.001650178,0.03752034,0.00156944
1.030185,0.01129559,-0.002094075,0.004197765,-0.0005817603,-0.004727949,-0.001668576,0.0430295,0.002707142
1.03615,0.01020256,-0.004052708,0.01012807,-0.001364762,-0.005992382,-0.0004878159,0.05559126,-0.003473174
1.042427,0.008255629,-0.007956677,0.01637142,-0.00300826,-0.009214694,0.003745609,0.078574,-0.01017967
1.042132,0.008107612,-0.01128815,0.01604152,-0.002859672,-0.0118776,0.003203907,0.1175797,-0.01980928
1.033702,0.008480697,-0.009084363,0.007576046,-0.002196992,-0.009018728,-0.01699952,0.1448054,-0.03203785
1.018156,0.008289379,-0.006406847,-0.008006596,-0.002105879,-0.005699908,-0.04102492,0.1154996,-0.03728854
1.005372,0.008315821,-0.003156556,-0.02082795,-0.001804309,-0.001822479,-0.03822621,0.07103386,-0.0309919
1.013937,0.007667293,0.005625296,-0.01230125,-0.002185132,0.00757181,-0.02996959,0.06369679,-0.02629147
1.032779,0.004701387,0.01397031,0.006503129,-0.004890826,0.01651377,-0.03555961,0.07246749,-0.03049291
1.036198,0.002096659,0.01203058,0.009886185,-0.007242808,0.01515443,-0.03301574,0.08212393,-0.0329212
1.030794,0.004104924,0.006794867,0.004445737,-0.004989132,0.01048145,-0.03291261,0.09046785,-0.03477793
1.025984,0.00693401,0.006882901,-0.0003996426,-0.00192183,0.0111136,-0.03781057,0.0879317,-0.03865513
1.024958,0.005568125,0.005437585,-0.001461156,-0.003056622,0.01019309,-0.02742353,0.08658411,-0.03897541
1.027945,0.005996473,0.004469532,0.001490067,-0.002404276,0.00972994,-0.01793339,0.0929861,-0.04259567
1.025567,0.00954355,0.007088243,-0.0009228379,0.001359716,0.01283318,-0.01243144,0.09779027,-0.05020981
1.025012,0.01210839,0.007613908,-0.001512545,0.004134321,0.01382256,-0.005918599,0.1005777,-0.05638729
1.027159,0.01567795,0.01203081,0.0006007594,0.007906295,0.0186819,-0.006205344,0.1091577,-0.06463061
1.029953,0.01625072,0.01465899,0.00336157,0.008673821,0.02173073,-0.01798665,0.1319881,-0.07281116
1.03677,0.01464038,0.005935256,0.01014578,0.007250201,0.01340533,-0.04650511,0.1564573,-0.0746488
1.030665,0.01744266,0.000682456,0.004008672,0.0102308,0.008528223,-0.05816576,0.166034,-0.06890712
1.0196,0.01919597,0.005820678,-0.007088461,0.0121537,0.01401945,-0.04263187,0.1703665,-0.06495961
1.018528,0.02094917,0.01535181,-0.0081929,0.01406734,0.02388091,-0.03542628,0.1682912,-0.068191
1.01718,0.02859036,0.02468657,-0.009571531,0.02185935,0.03352306,-0.03070848,0.1591287,-0.07133226
1.017922,0.03396964,0.0302361,-0.00885997,0.02737915,0.03935641,-0.02090468,0.1653745,-0.0779838
1.022797,0.03060784,0.03144212,-0.004013487,0.02414673,0.04082177,-0.02120235,0.173424,-0.08428735
1.027469,0.02718657,0.02918193,0.0006310065,0.0208429,0.0387955,-0.03500283,0.1645735,-0.07514505
1.023521,0.02994697,0.03216832,-0.003341938,0.02370813,0.04198955,-0.04585629,0.1522807,-0.06108953
1.011253,0.03070331,0.04682147,-0.01563279,0.02455615,0.05682322,-0.03554205,0.1309625,-0.0563446
1.009193,0.03031228,0.06225047,-0.01771308,0.02424313,0.07240445,-0.02352271,0.1192153,-0.05635764
1.017202,0.0349601,0.06115469,-0.009721354,0.02895477,0.07143101,-0.02506317,0.1398386,-0.05813847
1.026922,0.03988512,0.05568369,-1.555132e-05,0.03392888,0.06605074,-0.02625737,0.1527349,-0.06220435
1.030431,0.04390732,0.06611713,0.003483112,0.03798476,0.07654171,-0.02625525,0.1430202,-0.06466041
1.024699,0.04374913,0.07166515,-0.002256271,0.03784405,0.08211257,-0.03344286,0.1322398,-0.0620005
1.019032,0.04090013,0.0692514,-0.007926818,0.03499552,0.07968539,-0.0485429,0.1200856,-0.05286003
1.01012,0.04211441,0.07499621,-0.01684038,0.03619262,0.08537903,-0.06012418,0.1007153,-0.03664097
1.007141,0.04217852,0.0789573,-0.0198162,0.03622139,0.08924977,-0.05376442,0.07272956,-0.02085912
1.014615,0.04426372,0.08813006,-0.01233535,0.03825261,0.09829157,-0.0348211,0.04872543,-0.0178917
1.014363,0.04946514,0.1007511,-0.01257559,0.04338095,0.1107394,-0.01444419,0.04264038,-0.02401837
1.013376,0.05088154,0.09977107,-0.01354564,0.04470468,0.1095423,-5.848294e-05,0.03975755,-0.02611834
1.015384,0.05262654,0.09723666,-0.01151605,0.04633683,0.1067449,-0.003425071,0.02209554,-0.02469262
1.013945,0.05298491,0.09911336,-0.01292752,0.0465616,0.1083113,-0.006576855,-0.002203334,-0.02030421
1.014144,0.050566,0.09705887,-0.01269553,0.04398786,0.105898,0.001773927,-0.02436515,-0.01142271
1.014289,0.04913103,0.08889936,-0.01251197,0.04237644,0.09733001,-0.001080878,-0.04253156,-0.007828166
1.017398,0.04704603,0.08039897,-0.009358415,0.04009322,0.08837114,0.0007726744,-0.05235949,-0.01019972
1.021203,0.04504247,0.07958695,-0.005502644,0.03786965,0.08705063,0.01079943,-0.05683824,-0.0120297
1.020482,0.04343417,0.07864203,-0.006168152,0.03601974,0.0855477,0.01357621,-0.06021024,-0.01394204
1.022694,0.04185164,0.06852034,-0.003894348,0.03417431,0.07481916,0.03223827,-0.0600397,-0.01544365
1.026207,0.03999102,0.05398053,-0.0003137718,0.03202995,0.05962486,0.05662016,-0.03047884,-0.02478807
1.029615,0.03737837,0.03949414,0.003165626,0.02911331,0.04443813,0.07311717,0.03788536,-0.04960383
1.035925,0.03374295,0.03474534,0.009550787,0.02515441,0.03894564,0.08309159,0.1065415,-0.07250024
1.038579,0.03045339,0.04342428,0.01228361,0.02152275,0.04684043,0.07349631,0.1480173,-0.08327205
1.031119,0.0318913,0.05406104,0.004903851,0.02260101,0.05665534,0.05940981,0.1566699,-0.09564474
1.015907,0.0342307,0.08148985,-0.0102246,0.0245643,0.08322681,0.03407758,0.1477257,-0.1007503
1.00345,0.0416792,0.122562,-0.02259845,0.03162118,0.1234073,0.0017991,0.1083062,-0.07854694
1.001687,0.06520408,0.1411716,-0.02427553,0.05473955,0.1410904,0.00747468,6.674337e-05,-0.03835005
1.004183,0.08905096,0.1503054,-0.02169123,0.0781649,0.1492615,0.03374069,-0.1160875,0.00493256
1.002268,0.09413066,0.146623,-0.02351376,0.08280698,0.144578,0.04337209,-0.1734474,0.03652574
1.004119,0.08720673,0.111371,-0.0215674,0.07542775,0.1082848,0.02495068,-0.1892901,0.05020102
1.015165,0.08074052,0.08337217,-0.01042098,0.06848707,0.0792041,-0.01475308,-0.1747216,0.06025379
1.027344,0.07218179,0.06726406,0.001862819,0.05943371,0.0619743,-0.03649585,-0.1378605,0.06551937
1.032664,0.05996578,0.04430492,0.007291936,0.04670245,0.03785599,-0.03878249,-0.1024871,0.064765
1.028634,0.0509321,0.03107359,0.003375279,0.03713307,0.02343129,-0.0417259,-0.08874461,0.06343247
1.02956,0.03928971,0.03143907,0.004416576,0.02493532,0.02257324,-0.03718045,-0.06319202,0.05076658
1.033237,0.0272367,0.02683591,0.008210968,0.01230866,0.01672068,-0.0340925,0.001880377,0.03207833
1.023425,0.02711375,0.02064927,-0.001482077,0.01159561,0.009263099,-0.03835245,0.02274375,0.02671204
1.013624,0.0366963,0.0456386,-0.01116312,0.0205737,0.03296412,-0.03891578,-0.01039643,0.04053419
1.011924,0.05206258,0.08013646,-0.01274254,0.03532291,0.06615976,-0.03229889,-0.03564662,0.05803111
1.016473,0.06075356,0.08691144,-0.008072836,0.04338537,0.07162073,-0.01925164,-0.07725087,0.06816832
1.022086,0.06018438,0.09023124,-0.002337545,0.04217686,0.07361583,-0.006339897,-0.09593503,0.08833273
1.018016,0.06358289,0.09703848,-0.006284243,0.04492559,0.07908834,0.008807571,-0.0972449,0.1156934
1.017153,0.06193131,0.09513618,-0.007024339,0.04261406,0.07584175,0.02374113,-0.1500319,0.1298232
1.021065,0.05319451,0.08180932,-0.00298809,0.03320752,0.06116155,0.02803022,-0.1601305,0.1273551
1.020492,0.04259801,0.06294106,-0.003435734,0.02193214,0.04093183,0.02584768,-0.1305863,0.114813
1.020321,0.02931386,0.05699291,-0.003482236,0.007961078,0.03361575,0.02012956,-0.1348349,0.1081559
1.019686,0.02626861,0.05079457,-0.003992262,0.004222546,0.0260452,0.01282744,-0.1186224,0.1092186
1.023428,0.02854726,0.03593948,-0.0001247356,0.005803484,0.009816229,0.002839066,-0.107998,0.1065738
1.030545,0.02665262,0.03306035,0.007116454,0.003208679,0.005564461,-0.01009191,-0.09520818,0.09683987
1.032334,0.02450078,0.03755209,0.00902901,0.0003560867,0.008687957,-0.01975147,-0.05178941,0.08233441
1.030854,0.02151021,0.03721709,0.007671189,-0.00333392,0.006992162,-0.02802688,-0.05509494,0.06743637
1.025467,0.02439327,0.0406452,0.002404839,-0.001147136,0.0090697,-0.03221374,-0.07823395,0.05930005
1.020162,0.02818508,0.04853656,-0.002782877,0.001953322,0.0156232,-0.03347699,-0.0934049,0.06142737
1.02042,0.02442705,0.05444672,-0.002408972,-0.002489591,0.02021031,-0.03370151,-0.1290155,0.05856347
1.019932,0.02056834,0.05953371,-0.00278518,-0.007025243,0.02399068,-0.02592808,-0.1567434,0.05371364
1.01711,0.01372432,0.0576056,-0.005497309,-0.01453672,0.0207737,-0.01374915,-0.1758797,0.05598824
1.019099,0.003228846,0.05049637,-0.003401327,-0.02568843,0.01239449,0.003433448,-0.180376,0.04915009
1.023444,0.001125193,0.04215643,0.001048423,-0.0284351,0.002804761,0.02914969,-0.1662952,0.03899544
1.023769,0.01136422,0.03168773,0.001475585,-0.01882382,-0.008891959,0.05107014,-0.1607748,0.03196526
1.024855,0.01950563,0.03164188,0.002660877,-0.01129311,-0.01014217,0.04669685,-0.161493,0.03214919
1.028095,0.01102078,0.03050408,0.005997269,-0.02037031,-0.01245865,0.0350892,-0.1731202,0.0389289
1.028725,0.0009296099,0.01644092,0.006721024,-0.03103422,-0.02767279,0.0520642,-0.1838886,0.03073264
1.024825,0.002592641,0.004813858,0.002911392,-0.02992293,-0.04042089,0.05844975,-0.1644924,0.02213667
1.023558,0.004042709,-0.004079961,0.001730631,-0.02900212,-0.05040318,0.04798894,-0.1327071,0.01568316
1.030228,0.00634404,-0.008642276,0.008483216,-0.02720624,-0.05601849,0.04950731,-0.1080365,0.006498765
1.031729,0.01625524,-0.01073443,0.0100627,-0.01777562,-0.05912514,0.02200698,-0.08092505,0.01177658
1.029224,0.02194777,-0.01725689,0.007631931,-0.01253815,-0.06662065,-0.01941286,-0.05980298,0.009884901
1.02847,0.01796465,-0.01217144,0.006946674,-0.01695056,-0.06246395,-0.02838813,-0.06841173,0.001356116
1.02141,0.01300276,0.0003066591,-4.928585e-05,-0.02231582,-0.05086775,-0.01546561,-0.08661489,-0.0005866125
1.018829,0.01202336,0.001061982,-0.002570332,-0.02367245,-0.05094552,0.0008011205,-0.08578453,-0.004277048
1.025969,0.01478146,-0.007061769,0.004624376,-0.02126519,-0.05985207,0.002128522,-0.06935316,-0.002573944
1.03136,0.02415095,-0.02022252,0.01006591,-0.01222001,-0.07374388,-0.0008681033,-0.03474483,-0.003946127
1.029192,0.03408255,-0.0233398,0.007942335,-0.002586405,-0.07753881,-0.00322531,-0.0144625,-0.004839941
1.023607,0.03066542,-0.007181693,0.002397754,-0.006275838,-0.06200326,-0.006022618,-0.03437949,-0.000569627
1.022898,0.02409758,0.001269181,0.001725013,-0.01309108,-0.05411863,-0.003433739,-0.04343482,-0.002345012
1.022814,0.02193619,-0.009952936,0.00167073,-0.01547561,-0.06585003,-0.01108342,-0.02895334,-2.787162e-05
1.024365,0.0129107,-0.01903812,0.003248131,-0.02470039,-0.07538708,-0.01354643,-0.01654781,0.004999088
1.026445,0.009513323,-0.01066689,0.005349223,-0.02827332,-0.06740971,-0.00972062,-0.003813561,0.008560428
1.024423,0.01409314,-0.002591127,0.003344039,-0.02384531,-0.05966935,-0.01124751,0.0006199715,0.00650573
1.027967,0.009799056,-0.007387112,0.006900104,-0.0282674,-0.06474226,-0.00842844,0.008821857,-0.000371106
1.030135,0.008396675,-0.004671012,0.009076926,-0.02977398,-0.06224484,-0.01058234,0.02577835,0.001186744
1.026592,0.01315755,0.002933255,0.005536609,-0.02509351,-0.05480145,-0.009030974,0.01238195,-0.001562505
1.025211,0.01406283,0.004732849,0.004155475,-0.02424494,-0.05310566,-0.005439303,-0.007628235,-0.005095087
1.024516,0.01703004,0.00529906,0.003454456,-0.02131103,-0.05258721,-0.005154924,0.0008274118,-0.001190072
1.027171,0.01689742,0.001991013,0.006099349,-0.02145397,-0.05588815,0.0009414212,-0.002823758,-0.0007232504
1.031258,0.01048109,-0.0002129506,0.01017273,-0.02785811,-0.05803133,-0.002200648,-0.01187551,0.001719792
1.033202,0.009121611,-0.004706981,0.01209808,-0.02918327,-0.06241202,-0.008590529,0.002360306,-0.000995912
1.028942,0.01359547,-0.009206485,0.007814756,-0.02465327,-0.06674662,-0.01438384,0.007945751,-0.006377078
1.022143,0.01671245,-0.007994818,0.0009879388,-0.02145872,-0.0653194,-0.01958232,0.005700343,-0.001895622
1.025917,0.01533486,-0.0106343,0.00473032,-0.02273783,-0.06769354,-0.01033874,0.007418904,0.004087296
1.028416,0.01506369,-0.008151552,0.007193105,-0.02289024,-0.06489658,-0.002535901,0.002701472,0.0134668
1.025849,0.01856298,-0.005758468,0.004584983,-0.01925257,-0.06214145,-0.0006233191,0.007580614,0.01930301
1.029061,0.01959484,-0.01205117,0.007752471,-0.01806343,-0.06802539,0.0003124102,0.03567397,0.01274517
1.030868,0.01683831,-0.01392567,0.009511219,-0.02064459,-0.06944553,-0.01493632,0.08478887,0.00561733
1.030309,0.01473586,-0.01103952,0.008900305,-0.02255433,-0.0660605,-0.0416957,0.1085752,0.0005635488
1.024373,0.01768429,0.004055641,0.002908413,-0.01939659,-0.05042315,-0.04918462,0.0581918,0.0009162235
1.013423,0.0208928,0.0227629,-0.008102122,-0.01596288,-0.03113212,-0.02920222,-0.005363402,0.01253824
1.015111,0.01814776,0.02065283,-0.006477243,-0.01846765,-0.03261924,-0.01599577,-0.01571511,0.02240066
1.02442,0.01572805,0.009790959,0.002766341,-0.02063285,-0.04282169,-0.02013143,-0.007066546,0.02049416
1.027069,0.01342509,0.004961548,0.005347413,-0.0226678,-0.0469577,-0.01684087,-0.005887211,0.01742049
1.024382,0.006956074,0.00306066,0.00259018,-0.02885586,-0.04813333,-0.007864447,0.003652874,0.01718267
1.021069,0.003926515,0.003014263,-0.0007939955,-0.0315919,-0.04742446,-0.006398674,0.01364349,0.01000422
1.024619,0.005976844,0.003100823,0.002683494,-0.0292357,-0.04655444,-0.005244701,0.01325766,0.000748862
1.028365,0.006930842,0.001339584,0.00635459,-0.02796366,-0.04750578,-0.004050456,0.009059606,-0.0001440782
1.024669,0.007149882,0.00164709,0.002583501,-0.02741468,-0.04636364,-0.008278438,0.001847184,0.003224705
1.024398,0.009251907,0.004500564,0.002235222,-0.02497117,-0.0426525,-0.008707809,-0.006963501,0.00437123
1.02555,0.01206769,0.005560071,0.003309763,-0.02180279,-0.040714,-0.008744009,-0.01040128,-0.0003855247
1.023541,0.01309672,0.003285606,0.001223403,-0.0204106,-0.04208994,-0.01097805,-0.007587554,-0.006829646
1.023817,0.01246579,-0.003680326,0.00141946,-0.02066846,-0.04813949,-0.007091977,-0.007923111,-0.006564067
1.024381,0.01169798,-0.007300367,0.00190487,-0.02105398,-0.05082676,-0.006670844,-0.01304086,-0.004567073
1.025801,0.01002633,-0.004260507,0.00324451,-0.02233473,-0.04683901,-0.009240429,-0.01103529,-0.004756341
1.028022,0.007880789,-0.003591545,0.005386073,-0.02408134,-0.04520822,-0.01510722,0.008446691,-0.004756017
1.028518,0.009625203,-0.002549334,0.005801477,-0.02193045,-0.04319151,-0.02838627,0.03792198,-0.007328575
1.025084,0.01301424,0.00533905,0.002287402,-0.01812791,-0.03431732,-0.0309431,0.04045698,-0.009740527
1.018365,0.01430961,0.01683651,-0.004512521,-0.01641263,-0.02182432,-0.02494106,0.009173064,-0.007484985
1.019341,0.01909168,0.0211498,-0.003616874,-0.01120495,-0.01650771,-0.02144976,-0.01027041,-0.002463649
1.025234,0.02186915,0.01922528,0.002196394,-0.007997064,-0.01742339,-0.01916699,-0.004242512,0.002581207
1.026433,0.01399676,0.01696887,0.003316666,-0.01543517,-0.01866766,-0.02026263,-0.001223004,0.005383616
1.024317,0.005852915,0.007765383,0.001122423,-0.02314166,-0.02685776,-0.02158976,-0.009012583,0.005813848
1.020778,0.004382313,0.001107774,-0.002494347,-0.02417232,-0.03250239,-0.02498707,-0.009529279,0.006389236
1.022209,0.006254455,-0.0004918512,-0.001140239,-0.02185786,-0.0330907,-0.02759258,-0.007176347,0.00951357
1.025269,0.009118165,-0.007261397,0.001844058,-0.01854969,-0.03885155,-0.01780147,-0.01457664,0.01215565
1.024495,0.01180308,-0.0060664,0.0009964974,-0.01541851,-0.03665121,-0.005076319,-0.0180037,0.009144879
1.026751,0.01350528,-0.0009319415,0.003179609,-0.01326872,-0.0305154,-0.005766406,-0.01334822,0.002957163
1.031268,0.01233513,-0.004212506,0.007625046,-0.01399048,-0.0327993,-0.0115315,0.005498141,-0.003137995
1.034821,0.01198048,-0.002867671,0.01110774,-0.01389653,-0.03046321,-0.01454449,0.03682658,-0.01064496
1.029256,0.01316063,0.005262955,0.005472753,-0.01226812,-0.0213475,-0.02480831,0.04258044,-0.01367442
1.017175,0.01212433,0.01475169,-0.006677671,-0.012857,-0.01088083,-0.03064587,0.01476651,-0.006184626
1.016614,0.01245401,0.02044434,-0.007306302,-0.01208126,-0.004218675,-0.02075672,-0.0225274,2.860031e-05
1.018853,0.01285488,0.01444136,-0.005134219,-0.01123618,-0.009262157,-0.01114007,-0.04703322,-0.00277188
1.020566,0.01242176,0.01073279,-0.00348736,-0.01122742,-0.01202273,-0.005513883,-0.04693477,-0.004333186
1.027554,0.01459219,0.01795508,0.003437559,-0.008617893,-0.003865226,-0.001726267,-0.04390462,-0.003650045
1.026151,0.01575379,0.02066704,0.001972762,-0.007020495,-0.0002321034,0.0008719553,-0.05365494,-0.005257318
1.025761,0.0149834,0.01517716,0.001522413,-0.007358911,-0.004816192,0.007417304,-0.06207638,-0.001221798
1.031501,0.01334519,0.006416405,0.007204419,-0.008569491,-0.01268767,0.01344485,-0.06189776,0.00649781
1.029051,0.0117211,-0.004249884,0.004697377,-0.009770727,-0.02248197,0.01966404,-0.0527598,0.008691576
1.028248,0.01108975,-0.01406169,0.003839105,-0.009984352,-0.03143927,0.02705264,-0.03647792,0.01167555
1.031391,0.007984995,-0.02573605,0.006928094,-0.01267675,-0.0422763,0.02671817,-0.01763842,0.01283559
1.031137,0.00410784,-0.03632308,0.006620626,-0.01614706,-0.05204229,0.02247505,0.0191628,0.0007985741
1.031028,0.004607711,-0.0310617,0.006459297,-0.01524585,-0.04597493,0.01878944,0.05210881,-0.014196
1.025655,0.009835146,-0.00926255,0.001033631,-0.009622515,-0.02338362,0.01223939,0.03533211,-0.01714371
1.017952,0.01458744,0.008394087,-0.006721344,-0.004479848,-0.004948111,0.01223212,0.009034333,-0.01139145
1.020365,0.01465909,0.007958688,-0.004359093,-0.004023623,-0.004618226,0.01500915,-0.002090342,-0.009378482
1.029516,0.01443218,0.0002509301,0.00474157,-0.00387213,-0.01157498,0.008144343,-0.0133313,-0.01031762
1.034506,0.01373957,0.001588172,0.009682434,-0.004192881,-0.009501626,0.002540359,-0.001752277,-0.006332071
1.02886,0.008633777,0.007346602,0.00398726,-0.008933683,-0.003022455,-0.001426013,0.003696719,-0.001887636
1.021746,0.005213503,0.009485864,-0.00317465,-0.01199596,-0.0001783599,-0.002277908,-0.006521052,-0.0007237225
1.025553,0.006524409,0.008739845,0.00058491,-0.01033404,-0.0002361045,0.006776492,-0.004403408,-0.001550275
1.029432,0.009866597,-0.002344256,0.004416959,-0.006647722,-0.01064908,0.00938502,-0.01419619,-0.002966309
1.027829,0.01390314,-0.01676209,0.00276818,-0.002273967,-0.02441315,0.007303251,-0.0164777,-0.005813612
1.02732,0.01339315,-0.02247613,0.002213343,-0.002453835,-0.02949045,0.003151343,-0.0004102979,-0.01265364
1.023766,0.01204516,-0.02314438,-0.001386463,-0.003479009,-0.02953819,-0.006864794,0.007960834,-0.01553698
1.022149,0.01457454,-0.01065905,-0.003048136,-0.0006343505,-0.0164477,-0.005762143,0.01353419,-0.01402574
1.02331,0.01234162,0.005015498,-0.00193023,-0.002559728,-0.0001827947,0.0007487237,0.003935594,-0.01548248
1.021023,0.01000278,0.002500876,-0.004260926,-0.00459894,-0.00212188,0.003993865,-0.004923698,-0.01615539
1.02256,0.01372793,-3.964055e-05,-0.002765485,-0.0005821518,-0.004102003,0.008248461,0.0007071272,-0.01668442
1.02288,0.01518736,0.005270741,-0.002485525,0.001160795,0.001753305,0.01199388,-0.003290953,-0.01735573
1.021084,0.01450266,0.00282693,-0.004320773,0.0007513354,-0.0001613543,0.02355916,-0.008440714,-0.01685553
1.023351,0.01372009,0.003062319,-0.002090896,0.0002355257,0.0005870992,0.04167631,-0.01571118,-0.01994243
1.02332,0.01330034,0.004423517,-0.00215694,7.392385e-05,0.002445002,0.05686873,-0.02617413,-0.02303756
1.026225,0.01351974,-0.01314435,0.0007139993,0.000542758,-0.01464265,0.05979994,-0.02384214,-0.02376744
1.029629,0.01196087,-0.02796227,0.004086251,-0.0007754472,-0.02899656,0.04980262,-0.006296928,-0.02599321
1.028015,0.01319508,-0.01979427,0.002442877,0.0006906389,-0.02037986,0.0444134,0.01923756,-0.02708048
1.029385,0.0175047,-0.008839355,0.003783718,0.00522332,-0.008990588,0.04359311,0.02421081,-0.02103684
1.029062,0.02015734,-0.007911665,0.003434274,0.008090056,-0.007642215,0.04122978,0.01350769,-0.01281479
1.02593,0.01857349,-0.01284008,0.0002761431,0.006711108,-0.01216325,0.03731378,0.01608812,-0.01444241
1.024576,0.01324362,-0.02122842,-0.001103476,0.001576718,-0.02015709,0.02826003,0.02055871,-0.01804497
1.024507,0.01211197,-0.02728768,-0.001195879,0.0006310602,-0.02583404,0.02116032,0.02113487,-0.01519176
1.025628,0.01542628,-0.01972313,-9.826604e-05,0.004121943,-0.01789844,0.01721442,0.01930888,-0.01325665
1.024787,0.01745926,-0.006691696,-0.0009607855,0.006322133,-0.004506409,0.01203539,0.008035321,-0.008775888
1.024739,0.01709189,-0.003042953,-0.001029002,0.006112587,-0.0005071506,0.007239287,0.000418627,-0.004594232
1.025492,0.01571171,-0.007418393,-0.0002959996,0.004880795,-0.00454214,0.004766324,0.003644323,-0.006284756
1.024929,0.01613045,-0.01487169,-0.0008769959,0.005438477,-0.01166505,0.005478238,0.006301548,-0.00461293
1.026967,0.01526078,-0.01483897,0.00114323,0.004698337,-0.01131179,0.006026071,0.00566822,-0.00324345
1.028237,0.0149154,-0.01228098,0.002396725,0.004473144,-0.008442745,0.007557183,0.007996889,-0.006453988
1.026833,0.0178437,-0.01414562,0.0009783222,0.007512392,-0.01000545,0.008328607,0.01062551,-0.009433502
1.025636,0.01807608,-0.01139256,-0.0002333305,0.007846526,-0.006959277,0.005287574,0.007238508,-0.01010729
1.024501,0.01700834,-0.008751509,-0.001381756,0.006871358,-0.004033667,0.005738902,0.0008039902,-0.008151271
1.024118,0.01561112,-0.002090056,-0.001778271,0.005557581,0.002903876,0.007918556,-0.004545575,-0.009565277
1.026727,0.01454869,0.005339792,0.000818951,0.004569573,0.01060121,0.00706531,-0.001963723,-0.01055219
1.030134,0.01614937,-0.003149403,0.004215418,0.006235824,0.00237053,0.007872927,0.004110233,-0.01007015
1.026924,0.01710902,-0.01148132,0.0009947576,0.007252376,-0.005712127,0.008580191,0.0001000099,-0.01315426
1.022986,0.01929204,-0.009809319,-0.002952502,0.009483741,-0.003800106,0.007447305,-0.003455499,-0.00995024
1.025522,0.0201393,-0.009224155,-0.0004257829,0.01037085,-0.002983967,0.01034016,-0.005009449,-0.006274345
1.025545,0.01785381,-0.01021002,-0.0004117876,0.00811674,-0.003747685,0.01560128,-0.0096557,-0.008854911
1.024184,0.01837808,-0.01097633,-0.001780278,0.008663967,-0.00430045,0.0201257,-0.005940892,-0.009784706
1.025909,0.01989301,-0.01350391,-6.274843e-05,0.01019354,-0.006622846,0.02503613,-0.003547568,-0.01340192
1.026665,0.02051837,-0.01725899,0.000687163,0.01082528,-0.01018075,0.02620379,-0.004283282,-0.0156796
1.027755,0.01772391,-0.01789381,0.001771161,0.008029017,-0.01062593,0.0201477,-0.0008401647,-0.01196429
1.026548,0.01386708,-0.01579337,0.000558893,0.00416235,-0.008342863,0.01150932,-0.003581547,-0.01053956
1.023749,0.01699938,-0.01368964,-0.002244549,0.007277026,-0.006063045,0.01103399,-0.004763126,-0.01108637
1.024946,0.01952068,-0.01195682,-0.001051733,0.009773199,-0.004160308,0.01283804,-0.002674153,-0.009745776
1.024638,0.01730098,-0.01273912,-0.001363392,0.007521073,-0.00477859,0.006052022,-0.00643064,-0.005100252
1.022759,0.0168192,-0.01557214,-0.003245879,0.006999772,-0.007453258,0.002387741,-0.008115484,-0.0008189028
1.023795,0.01591735,-0.01721445,-0.002212248,0.006051521,-0.008942573,0.002068403,-0.007605924,-0.001978613
1.024037,0.01512328,-0.01592999,-0.001971761,0.00520449,-0.007510116,-0.0002408142,-0.007508122,-0.004047153
1.024168,0.01813964,-0.01475613,-0.001841801,0.008161619,-0.006192895,-0.001220286,-0.006154162,-0.0032749
1.025486,0.02046524,-0.01649075,-0.0005233316,0.01042197,-0.007788464,-0.00674916,-0.004584976,-0.002737999
1.025072,0.01946678,-0.01859327,-0.0009370232,0.009352401,-0.009755935,-0.01081592,-0.0004868589,-0.001409127
1.0247,0.01900465,-0.02120822,-0.001307202,0.00881345,-0.01223946,-0.009110651,0.003329417,0.001272374
1.025414,0.01974643,-0.0244843,-0.0005902629,0.009472819,-0.01538725,-0.008902974,0.004431202,-9.796218e-05
1.026368,0.0194433,-0.02437673,0.0003675162,0.00908187,-0.01515397,-0.00835363,0.01189038,-0.002028476
1.029261,0.01925495,-0.02236428,0.003264223,0.00880043,-0.01301778,-0.006750095,0.02730656,-0.001151596
1.031074,0.01982001,-0.02113204,0.005082072,0.009267309,-0.01166324,-0.005848036,0.03036187,-0.002312333
1.027893,0.02007597,-0.01624848,0.001905862,0.00942018,-0.006658457,-0.003414734,0.01526513,-0.003939723
1.025252,0.01962814,-0.01172038,-0.0007299343,0.008864488,-0.00200999,5.671686e-05,0.007259102,-0.006352619
1.027348,0.01636747,-0.01536199,0.001370994,0.005491406,-0.005532078,-0.00379075,0.01466085,-0.009015906
1.028082,0.01223608,-0.02067557,0.002110187,0.001243317,-0.01072701,-0.01083656,0.02063735,-0.005976839
1.024528,0.01271622,-0.02189858,-0.001438185,0.001602924,-0.01183208,-0.01090101,0.01703866,-0.001348095
1.021816,0.01644495,-0.01665306,-0.004145589,0.005207767,-0.006469095,-0.01046031,0.0104023,-0.0003827601
1.022284,0.01830421,-0.01042118,-0.003672155,0.006940181,-0.0001200862,-0.008682736,0.00693517,-0.000917155
1.024264,0.01489297,-0.01700812,-0.00168743,0.003399433,-0.00659029,-0.006263693,0.008474453,-0.001141856
1.025545,0.01135427,-0.0244367,-0.0004003714,-0.0002711195,-0.01390255,-0.007032334,0.01267328,-0.001527397
1.025231,0.01617253,-0.02177211,-0.0007084652,0.004413333,-0.01112188,-0.002783388,0.01002241,-0.003562011
1.025453,0.02126147,-0.02092316,-0.0004806218,0.00936686,-0.01015679,0.001203023,0.007233405,-0.007486785
1.026288,0.02049004,-0.01822938,0.0003615168,0.008458589,-0.007346583,-0.0004565487,0.0107399,-0.009488722
1.02627,0.02242564,-0.01194449,0.0003502622,0.01025594,-0.0009449082,-0.001908425,0.009208825,-0.004689193
1.02612,0.02425839,-0.01067952,0.0002068674,0.01194904,0.000437085,-0.001571463,0.008775604,0.0009367456
1.025077,0.01992065,-0.009649318,-0.0008293482,0.007470165,0.001584249,-0.001906562,0.01006106,-0.001249721
1.024272,0.01477755,-0.008027662,-0.001626953,0.002184516,0.003322448,-0.003740126,0.007600045,-0.003399791
1.025439,0.01356787,-0.00862312,-0.0004519084,0.0008310869,0.002842703,-0.003408014,0.008801454,-0.000265411
1.02515,0.01744777,-0.008422783,-0.0007333124,0.004566373,0.003157518,-0.00325434,0.008131477,0.001365112
1.024503,0.0214202,-0.009033751,-0.001372617,0.008393616,0.002659414,-0.003233609,0.006897339,0.002636543
1.025449,0.02124418,-0.01066424,-0.0004177898,0.008071968,0.001139841,-0.002096074,0.008619835,0.002654899
1.024678,0.02198757,-0.01229283,-0.001180722,0.008669316,-0.0003800255,-0.003056976,0.009621085,-0.001474761
1.023742,0.0228981,-0.01748819,-0.002107822,0.009433383,-0.005468997,-0.002099846,0.01357922,-0.003455424
1.022808,0.0207768,-0.02236771,-0.003033437,0.007165179,-0.01024441,-0.00158325,0.01489739,-0.003166238
1.02151,0.02049271,-0.02193225,-0.004322257,0.006733749,-0.009706868,-0.002952795,0.01260504,-0.001323344
1.022832,0.0208476,-0.02127092,-0.002989835,0.006940941,-0.008945153,-0.002524158,0.01174764,0.001694007
1.024362,0.01875397,-0.01940707,-0.001449834,0.004699331,-0.006982279,-0.003826723,0.01134005,0.001405561
1.026068,0.01764764,-0.01320885,0.0002674384,0.003444881,-0.0006861916,-0.004078869,0.0103053,0.001547575
1.027216,0.01788996,-0.01009646,0.00142728,0.003539123,0.002522903,-0.0006358183,0.002524798,0.002215008
1.026616,0.01863748,-0.01204057,0.0008392882,0.004138827,0.0006741638,0.002841481,-0.002810497,-0.0001037791
1.029943,0.0198725,-0.01484178,0.004178607,0.005226466,-0.002033213,0.002045086,0.009713259,-0.003624474
1.032486,0.02130038,-0.0173505,0.006734156,0.00650753,-0.00444974,-0.003568135,0.0205194,-0.00591856
1.027505,0.02222162,-0.01599988,0.001765949,0.007282579,-0.003008573,-0.005336314,0.009190926,-0.001295619
1.023064,0.02195451,-0.01233586,-0.002662875,0.006869917,0.0007443767,-0.0035447,-2.853615e-05,0.003893259
1.024827,0.02208786,-0.01222716,-0.0008886214,0.006858332,0.0009403371,-0.00439873,0.008052475,-0.001099734
1.026257,0.02054561,-0.01361873,0.0005529722,0.005171783,-0.0003657755,-0.004151866,0.01103812,-0.004599525
1.025123,0.01869531,-0.01675037,-0.0005694631,0.003177872,-0.003413859,-0.001690474,0.009948224,0.0002591972
1.026676,0.02052087,-0.02100839,0.0009937903,0.004860606,-0.007590198,-0.0001214863,0.01406563,0.002045358
1.027041,0.02098359,-0.01969395,0.001370036,0.005181406,-0.006195788,-0.0003804114,0.01135233,0.0006930998
1.025705,0.0188407,-0.01746809,4.369353e-05,0.002897574,-0.003891436,-0.0009865314,0.008141645,0.002280219
1.027773,0.01735379,-0.01846614,0.002121933,0.001270848,-0.004812326,-0.0005968793,0.01054568,0.003696947
1.02811,0.01693427,-0.01811921,0.002467492,0.0007127924,-0.004389424,-0.00240958,0.01076559,0.003161405
1.027253,0.01687514,-0.01909137,0.001619905,0.0005166411,-0.005286702,-0.004727164,0.01352182,0.002154529
1.026865,0.01699312,-0.02187153,0.001239679,0.0004993554,-0.007992916,-0.002966987,0.01930597,0.0005022595
1.02406,0.02038618,-0.02204486,-0.001557771,0.00375909,-0.008093026,-0.0003081183,0.02125954,-0.0004924241
1.023606,0.02350689,-0.01963562,-0.002005699,0.006748514,-0.005611078,0.00126135,0.01817139,0.001461191
1.026372,0.02210105,-0.01757563,0.0007667029,0.005213395,-0.003478698,0.001665162,0.01088093,0.003721534
1.028669,0.02081081,-0.02043896,0.003069637,0.003795802,-0.00626987,-0.0007091103,0.006034605,0.003490157
1.028139,0.02068669,-0.0238344,0.002543905,0.003546241,-0.00959328,-0.004072644,0.01063864,0.001528804
1.027151,0.01987704,-0.02111695,0.001560546,0.002613065,-0.006803732,-0.005565904,0.01766186,-3.649837e-05
1.028998,0.01899358,-0.01678622,0.00341134,0.001608038,-0.002400671,-0.002574528,0.01775164,0.002385826
1.028231,0.01848944,-0.01280586,0.00264667,0.0009843728,0.001652257,0.001154676,0.01689191,0.004436387
1.025393,0.01796789,-0.0114432,-0.0001894227,0.0003454448,0.003087566,-0.0003476424,0.0160466,0.004459573
1.02465,0.01763172,-0.01559429,-0.0009318975,-0.0001058144,-0.0009910854,-0.0004393512,0.01215451,0.005113076
1.024414,0.01740556,-0.01868447,-0.001167271,-0.000444648,-0.004009238,0.002794216,0.01554703,0.0001379046
1.023601,0.01634073,-0.01923407,-0.001980865,-0.001619576,-0.004487292,0.001353994,0.01859832,-0.00449822
1.021706,0.01643032,-0.01734213,-0.003877374,-0.001637349,-0.002524256,-0.002276756,0.009933765,-0.003381222
1.022895,0.01707551,-0.01375032,-0.00269066,-0.001096618,0.001138198,-0.003346202,0.005665182,-0.003680721
1.025567,0.01712135,-0.01591625,-1.986849e-05,-0.001152177,-0.0009576431,-0.002921786,0.01322438,-0.005908913
1.024836,0.02024815,-0.01977769,-0.0007533236,0.001876366,-0.004749656,-0.003980053,0.01855044,-0.007926059
1.024603,0.02312873,-0.02050412,-0.0009886569,0.004661849,-0.005407335,-0.007364876,0.01094169,-0.00556895
1.023429,0.02064591,-0.01895543,-0.002164316,0.002086981,-0.00379046,-0.008345848,0.003772951,-0.002900375
1.021371,0.01821573,-0.01517683,-0.004224953,-0.0004323009,5.579548e-05,-0.008012031,0.009516182,-0.001575179
1.022633,0.01996458,-0.01629419,-0.002964522,0.001230343,-0.0009944584,-0.008121223,0.01383187,0.0008898224
1.0243,0.02174485,-0.0179293,-0.001298629,0.002927295,-0.002563084,-0.003955962,0.01523558,-0.001485514
1.025293,0.0222122,-0.01561515,-0.0003067103,0.003314126,-0.000183169,0.0009172651,0.01821589,-0.001122647
1.025306,0.02265915,-0.01696815,-0.0002935513,0.003683225,-0.001471152,0.0007825691,0.01624429,-0.0007357526
1.024603,0.02141815,-0.01760368,-0.000997198,0.00236688,-0.002042493,-0.0005244712,0.01598614,-0.00366212
1.025164,0.01940361,-0.01861795,-0.0004356937,0.0002794058,-0.002993418,-0.0006719731,0.01702244,0.0001040108
1.025093,0.01763856,-0.02157648,-0.0005052216,-0.001556231,-0.005889432,-0.001987331,0.0150512,0.0006489667
1.02479,0.01753565,-0.01729614,-0.0008074297,-0.001727316,-0.001547298,-0.002237362,0.01388442,0.0004139407
1.025178,0.01971717,-0.01344806,-0.0004174982,0.0003884945,0.002361876,-0.0009875754,0.01059326,0.004214292
1.024935,0.01954019,-0.0155391,-0.0006577458,0.000148311,0.0003311193,-0.0008470471,0.008105179,0.004690339
1.024956,0.01912706,-0.01579585,-0.0006339774,-0.0003255194,0.0001337185,-0.0003005576,0.006651667,0.005174053
1.024922,0.01989071,-0.01482719,-0.0006645037,0.0003799207,0.001160651,-0.0008104361,0.003264816,0.002835385
1.024013,0.01888825,-0.01605023,-0.001570004,-0.0006782807,-5.300077e-06,-0.002134557,0.004258075,0.000927807
1.023385,0.01868268,-0.01836762,-0.002193725,-0.0009371435,-0.002266864,-0.003493352,0.005736747,0.001079066
1.023692,0.01794315,-0.01773055,-0.001881674,-0.001727504,-0.001575246,-0.006120641,0.005755418,0.0004014747
1.024665,0.01830851,-0.01204133,-0.0009036772,-0.001410488,0.004167247,-0.004592152,0.009156049,0.004564122
1.025048,0.02220899,-0.006323115,-0.000515066,0.002444139,0.009937291,-0.001789382,0.009416386,0.00695151
1.024134,0.02436891,-0.005896733,-0.001422547,0.0045606,0.0104137,-0.001425071,0.007169797,0.006068884
1.023968,0.02347548,-0.011115,-0.001581904,0.003625907,0.005243192,0.001326104,0.008200443,0.004758136
1.027099,0.02039425,-0.02022531,0.001556803,0.0005053696,-0.003821932,0.002548463,0.01047376,-0.0005046185
1.02997,0.01866085,-0.02400737,0.004435409,-0.001265498,-0.00756136,0.001235296,0.0130533,-0.004640641
1.026768,0.01992671,-0.01709415,0.001241513,-3.531301e-05,-0.0006078091,-0.001128838,0.0129572,-0.004477517
1.023314,0.02129835,-0.01315817,-0.002203561,0.001302431,0.003366423,-0.005390383,0.01270114,-0.004651001
1.025242,0.02241569,-0.01562499,-0.0002673834,0.002387577,0.0009358137,-0.003817557,0.01683351,-0.009065271
1.025634,0.0205996,-0.01440252,0.0001334447,0.0005408829,0.002192405,-0.0001992183,0.0169994,-0.009521935
1.024299,0.01881598,-0.0114069,-0.001193009,-0.001271832,0.005219999,-0.002184667,0.0111747,-0.004909298
1.025319,0.02136954,-0.01094041,-0.0001640129,0.001254101,0.0057162,-0.001943711,0.007685723,-0.004982456
1.025104,0.02251486,-0.01299373,-0.0003700271,0.002373205,0.00369016,-0.0007386856,0.01039987,-0.004899955
1.024844,0.0191393,-0.01462852,-0.0006218012,-0.001027235,0.002080096,-0.001564952,0.01502636,-0.004911896
1.026399,0.01510571,-0.01367489,0.000942869,-0.005084401,0.003055841,7.325158e-05,0.01532259,-0.006207991
1.027391,0.01539516,-0.01221037,0.001943027,-0.004817119,0.004539836,-6.123375e-05,0.01620152,-0.005127869
1.028124,0.01944404,-0.009709393,0.002685722,-0.0007888442,0.007057599,-0.0006938476,0.01694176,-0.005986391
1.027845,0.02270236,-0.007607416,0.002415516,0.002450507,0.009173504,0.0004426938,0.01177106,-0.005278811
1.027472,0.02268903,-0.009002888,0.002050818,0.00241976,0.007788883,0.0005810663,0.009553039,-0.00287817
1.028061,0.02070165,-0.01058997,0.002647963,0.0004163647,0.006209349,0.003181524,0.01227777,-0.001177925
1.027313,0.02068303,-0.01040206,0.001906584,0.0003829837,0.006401366,0.004107223,0.01398684,-0.0001515445
1.025733,0.02122264,-0.0138597,0.0003332769,0.0009090097,0.002944297,-0.0008464639,0.01230334,-0.003202956
1.02375,0.02201563,-0.01815016,-0.001643219,0.001689509,-0.001349061,-0.005425711,0.007286185,-0.004614846
1.023113,0.02538379,-0.01511364,-0.00227471,0.00504614,0.00168124,-0.005891742,0.006314921,-0.00355438
1.024924,0.02705123,-0.01248367,-0.0004588041,0.006702789,0.004301903,-0.005017918,0.009692436,-0.002709739
1.025453,0.02517977,-0.01531632,7.511639e-05,0.004820993,0.00145697,-0.005270646,0.01025458,-0.001509629
1.025728,0.02295891,-0.01585686,0.0003543515,0.002589958,0.0009013074,-0.003757436,0.008257132,-0.002492007
1.026768,0.02314475,-0.01448256,0.001398193,0.002765612,0.002257796,-0.003591759,0.009544222,-0.003637153
1.026405,0.02407365,-0.01381309,0.001038496,0.003684171,0.002906929,-0.006444919,0.01359406,-0.004521924
1.026238,0.0226555,-0.01274224,0.0008745455,0.002255421,0.003955017,-0.006666098,0.01470271,-0.003354881
1.026854,0.02211442,-0.01307751,0.001492961,0.001703378,0.003594629,-0.004624192,0.01330048,-0.0002421555
1.028144,0.02165257,-0.01395177,0.002784609,0.001230162,0.002692948,-0.001647863,0.01176903,-0.000208531
1.029705,0.01918035,-0.01501964,0.004346623,-0.00125385,0.001595448,-0.001971302,0.01625458,-0.0004919498
1.029208,0.01912772,-0.01853642,0.003850739,-0.00131862,-0.001953029,-0.003687324,0.01960389,-0.0004642967
1.027867,0.02003002,-0.02040763,0.002509895,-0.0004287086,-0.003857746,-0.002487306,0.006129644,-0.001266324
1.027872,0.02005241,-0.01833014,0.002513225,-0.0004188681,-0.001815244,-0.003404572,-0.004506063,-0.001077997
1.028653,0.02101105,-0.01482575,0.00329157,0.0005271496,0.001652995,-0.0009602352,0.005319648,0.001036587
1.029073,0.02014481,-0.0109556,0.003708904,-0.0003517736,0.00548601,0.0002374703,0.01325136,0.004225265
1.027557,0.01841628,-0.01008917,0.002187897,-0.002092964,0.006314331,-0.006769703,0.005909915,0.003353772
1.025561,0.01783011,-0.01132275,0.0001862467,-0.0026917,0.00504156,-0.008489169,0.0027209,-0.0002084048
1.026475,0.0162843,-0.01468026,0.001093156,-0.004249814,0.001643703,-0.007054405,0.009140474,-0.003468919
1.027792,0.01674277,-0.02137473,0.002402,-0.003803215,-0.005092211,-0.00695551,0.009325014,-0.006214997
1.027461,0.0199331,-0.02075711,0.002061711,-0.0006241424,-0.004516877,-0.005734687,0.008263522,-0.003520488
1.02691,0.0212169,-0.01587617,0.001500768,0.0006491166,0.0003212812,-0.006730477,0.009175634,0.0009083941
1.025187,0.02013807,-0.01569149,-0.0002340052,-0.0004395324,0.0004629513,-0.005655141,0.00704521,0.001534499
1.024983,0.01885953,-0.01201549,-0.000450045,-0.001727198,0.004095839,-0.003703871,0.006913982,0.001003349
1.02804,0.01954473,-0.0106965,0.002593552,-0.001050391,0.005371608,-0.002158231,0.005063352,-2.639225e-06
1.029542,0.02078323,-0.01398252,0.004081446,0.0001804616,0.002042195,0.0008505334,0.003144598,0.0002677061
1.027415,0.02053965,-0.01012802,0.00193862,-7.002829e-05,0.005853038,0.001714084,0.003766498,0.000752099
1.024513,0.02014535,-0.008509367,-0.0009792014,-0.0004705272,0.007427684,0.002133978,0.002446263,0.0005859542
1.024471,0.01932562,-0.01142683,-0.00103841,-0.001295747,0.004465705,0.001713876,0.001043487,0.004818631
1.024638,0.02002249,-0.01274019,-0.0008886347,-0.0006036729,0.003107207,0.001994145,-0.001637263,0.007877538
1.023341,0.02143687,-0.01700847,-0.002204357,0.0008066028,-0.001206869,0.002858938,-0.003760571,0.002624185
1.025348,0.01973159,-0.01865531,-0.0002159207,-0.0009021051,-0.002900032,-0.0001500194,-0.003707186,-0.002669013
1.02733,0.01840909,-0.01894816,0.001746629,-0.002227388,-0.003239495,-0.001911544,-0.003158043,7.869365e-05
1.026032,0.01756706,-0.02030487,0.0004300962,-0.003071503,-0.004642781,-0.002631101,-0.001944423,0.005824782
1.025283,0.01705085,-0.01671096,-0.0003391319,-0.003589045,-0.001095125,-0.001719668,-0.003048399,0.008035305
1.024765,0.01995584,-0.01511131,-0.0008762109,-0.0006845094,0.0004588421,0.002777252,-0.005730662,0.006296962
1.023929,0.01987336,-0.01606246,-0.001731772,-0.0007665288,-0.000537315,0.003500726,-0.008171746,0.002040052
1.023508,0.01578066,-0.01744533,-0.00217271,-0.004857836,-0.001964399,0.003099688,-0.01072867,0.00148488
1.023456,0.0147282,-0.02038991,-0.002243159,-0.005907903,-0.004952277,0.00380836,-0.01357377,0.004306614
1.023771,0.01550905,-0.01780226,-0.001947352,-0.005123481,-0.00240678,0.002789102,-0.011416,0.00368891
1.023756,0.01622048,-0.01530092,-0.001980723,-0.004407131,5.371464e-05,0.003386429,-0.0003955058,0.001638159
1.024427,0.01807884,-0.01718904,-0.001327575,-0.002542366,-0.001873822,0.006266102,0.006441632,-0.0007900255
1.02556,0.02199319,-0.01712873,-0.0002123108,0.00137991,-0.001851445,0.007703535,-0.0003415244,-0.001264998
1.026108,0.02579453,-0.01815172,0.00031933,0.005190563,-0.002910778,0.004814489,-0.008522603,-0.001622328
1.027356,0.021865,-0.02021987,0.001552157,0.001271504,-0.005013578,0.003764371,-0.004217837,-0.005592485
1.027764,0.01520791,-0.01956888,0.001944691,-0.005374167,-0.00439538,0.004586972,0.0006196349,-0.00328766
1.024984,0.01617501,-0.01884398,-0.0008496634,-0.004394739,-0.003701219,0.001336986,-0.003757113,0.0009990604
1.023147,0.0171919,-0.01878796,-0.002700575,-0.003364497,-0.00367375,0.0004731774,-0.005069222,-0.0002265256
1.026205,0.01728967,-0.01784989,0.0003442461,-0.003252264,-0.00276194,0.0008013385,-0.004014433,-0.001716081
1.029097,0.02226221,-0.01753148,0.003223784,0.001735882,-0.002467413,0.0001461968,0.001563254,-0.004597827
1.027769,0.02340815,-0.01758541,0.001883702,0.002898473,-0.002542816,0.001949208,0.008872413,-0.003854573
1.026967,0.02098776,-0.01622624,0.001070719,0.0004955856,-0.001202715,0.00314334,0.003797193,-0.0003464543
1.026879,0.02067782,-0.01677667,0.0009717176,0.0002038167,-0.001769832,0.006069053,-0.0004189635,-0.000817644
1.023327,0.01909657,-0.01896727,-0.002591105,-0.001358728,-0.003974751,0.007958155,-0.0004092895,-0.0006378752
1.021232,0.01889583,-0.01871569,-0.004696893,-0.001540277,-0.003735123,0.004837941,-0.002808619,-0.001024587
1.023536,0.02011671,-0.0152714,-0.002402443,-0.0002997565,-0.0003003905,0.003194046,-0.003417322,-0.001563007
1.025055,0.01914423,-0.01090292,-0.0008930302,-0.001252173,0.004060858,0.004967999,-0.007328712,-0.001035337
1.025065,0.01878292,-0.01187397,-0.0008914106,-0.001593052,0.003084675,0.007573264,-0.01156684,-0.001607122
1.025218,0.01710869,-0.0135205,-0.0007457764,-0.00324646,0.001434842,0.008094193,-0.01268745,0.000588593
1.02581,0.01414746,-0.009853084,-0.0001606734,-0.006186438,0.005100498,0.007199819,-0.01359659,0.002207529
1.026719,0.01508504,-0.01038217,0.0007421537,-0.005227047,0.004570921,0.006826841,-0.01502815,0.00114593
1.026488,0.01579644,-0.01642427,0.0005063167,-0.004493088,-0.001470671,0.006919931,-0.01606485,0.0001175586
1.02615,0.01388546,-0.02100566,0.0001635577,-0.006380613,-0.006050698,0.007010659,-0.0130673,-0.00140259
1.026538,0.01422284,-0.02044794,0.0005469533,-0.006018734,-0.00549066,0.004141444,-0.0093827,-0.000389969
1.026388,0.01687863,-0.01771542,0.0003942045,-0.003337247,-0.002754704,0.001668435,-0.004698205,0.001899528
1.026299,0.01966274,-0.01916056,0.0003013163,-0.0005261783,-0.004195156,0.002996509,-0.002093503,0.002671762
1.026306,0.01978087,-0.01833514,0.0003066225,-0.0003798738,-0.003363696,0.004335306,-0.003469928,0.002401591
1.025451,0.01707407,-0.01808137,-0.0005512925,-0.003057397,-0.003102463,0.005405938,-0.001150997,0.001267714
1.024712,0.01640037,-0.02491226,-0.001291805,-0.003700769,-0.009924396,0.006436775,-0.00100377,-0.0001490984
1.025657,0.01799238,-0.026611,-0.0003475103,-0.002077408,-0.01161245,0.004259865,0.001133503,-0.001816477
1.028732,0.02012931,-0.0231342,0.002726097,9.187076e-05,-0.008122898,0.0006555496,0.006754075,0.0004833031
1.031387,0.0217298,-0.02303718,0.005380996,0.0017256,-0.008010756,0.0004362401,0.00427225,0.003564577
1.030062,0.02161568,-0.02593711,0.004055017,0.001645417,-0.01089296,-0.001154648,0.004878666,0.002192872
1.02814,0.02224668,-0.02643023,0.002132742,0.002310834,-0.01136547,-0.004536462,0.01012494,0.003531
1.029409,0.02226543,-0.02075581,0.003400375,0.002364241,-0.005667332,-0.003111149,0.01126931,0.005279488
1.028835,0.02005382,-0.01611949,0.002825583,0.0001873197,-0.001004052,-0.004038094,0.0076291,0.002961241
1.025062,0.01903043,-0.0168442,-0.000949567,-0.000801497,-0.001698655,-0.007798413,-2.736776e-05,0.001821304
1.023015,0.01951904,-0.02046379,-0.002999431,-0.0002785417,-0.005285181,-0.008500327,0.0007496137,0.002281652
1.024091,0.02035565,-0.01973031,-0.001926081,0.0005921411,-0.004515827,-0.01019792,0.005713853,0.00402493
1.025854,0.02037829,-0.01435102,-0.0001654774,0.0006485095,0.0009020567,-0.008879417,0.006285019,0.00483678
1.025005,0.01982565,-0.01433381,-0.001018202,0.0001291429,0.0009603651,-0.004668984,0.008289793,0.00343572
1.024599,0.01974417,-0.017258,-0.001426496,8.041227e-05,-0.001920507,-0.002267739,0.008672139,0.003202642
1.026492,0.01769987,-0.0202599,0.0004632308,-0.001931695,-0.004877108,5.834077e-05,0.009971766,0.002548479
1.026417,0.0164127,-0.01960068,0.0003845569,-0.003187249,-0.004170723,-0.004229007,0.01171311,0.001645219
1.026322,0.02033185,-0.01757763,0.0002864214,0.0007630094,-0.002098705,-0.008993347,0.01165747,0.0004810868
1.026603,0.02371447,-0.02618155,0.0005639979,0.004176211,-0.0106519,-0.002439624,0.01603399,-0.002074224
1.025894,0.02190581,-0.03267845,-0.0001484121,0.002397473,-0.01709619,0.002225211,0.01814217,-0.0003851972
1.025403,0.0193669,-0.02967187,-0.0006424635,-0.000112354,-0.01403477,-0.000576866,0.01559087,0.002794234
1.022864,0.01765452,-0.02527923,-0.003185114,-0.001796558,-0.009584629,-0.001266413,0.01046664,0.001149508
1.021788,0.01619637,-0.02047404,-0.004264211,-0.003227403,-0.004719024,-0.0007360971,0.004426826,-0.0006183135
1.024279,0.01836773,-0.01995071,-0.001775461,-0.001029528,-0.004132361,-0.001641351,0.006104337,-0.0008331127
1.025223,0.02074836,-0.01972114,-0.0008337907,0.00137691,-0.003836663,-0.004127222,0.007643126,-0.0008819575
1.023346,0.02003731,-0.01546594,-0.00271321,0.00069094,0.0004872516,-0.006270431,0.003774789,0.0007149213
1.021476,0.02084311,-0.01377129,-0.004584267,0.001521035,0.002252917,-0.004507866,0.004001278,0.00194862
1.023267,0.02098761,-0.01895092,-0.002793975,0.00168897,-0.002853775,-0.002800239,0.005979029,0.0002127279
1.025323,0.01855723,-0.02474677,-0.0007372196,-0.0007188786,-0.008575039,-0.002649754,0.006275268,-0.003272522
1.024854,0.01822945,-0.02210396,-0.001205127,-0.001025077,-0.005856075,-0.0008135416,0.007236223,-0.004702359
1.025297,0.02099457,-0.02020297,-0.0007608975,0.001760711,-0.003877368,0.0007558732,0.008216394,-0.004039215
1.02589,0.02498311,-0.02242489,-0.0001648979,0.005768975,-0.006020034,0.001634457,0.009564571,-0.003449434
1.026522,0.02571946,-0.02127662,0.0004710453,0.006523922,-0.004791071,0.001313904,0.01058779,-0.001742152
1.026533,0.02350057,-0.02114128,0.0004861826,0.004322263,-0.004573627,-0.0007812337,0.009584891,-0.0006003643
1.025098,0.02290232,-0.0203092,-0.000943983,0.00373966,-0.003658143,-0.001229708,0.008478571,-0.001253927
1.025451,0.02106298,-0.01612284,-0.0005858061,0.001914247,0.0006127988,-0.0008228453,0.008008988,-0.001150655
1.027652,0.01850444,-0.01429587,0.001621397,-0.0006321402,0.002525279,-0.001245694,0.009308645,-0.0007504347
1.029951,0.01925946,-0.01528228,0.003926419,0.0001333091,0.001624958,-0.004552086,0.01645939,-0.0008255787
1.028569,0.02031294,-0.01523669,0.002551658,0.001195585,0.00175685,-0.008936573,0.02227344,-0.0006085922
1.022989,0.02096248,-0.01222106,-0.003020918,0.001852346,0.004858622,-0.007684606,0.0161513,1.660507e-06
1.019808,0.02269619,-0.01082338,-0.006195043,0.003591708,0.006341883,-0.007117762,0.008886451,0.0001691859
1.021211,0.02231258,-0.01431151,-0.004785409,0.00321215,0.002938331,-0.009810057,0.01215638,-0.001801724
1.022924,0.01983645,-0.01938621,-0.003064604,0.0007384303,-0.002053156,-0.008552277,0.01495175,-0.004019434
1.020396,0.01948483,-0.02228844,-0.00558404,0.000387583,-0.004873679,-0.007371397,0.01402937,-0.002580642
1.018921,0.02139598,-0.02181153,-0.007049803,0.002297935,-0.004316552,-0.006897576,0.01526725,-0.0001338979
1.023548,0.02367693,-0.01959178,-0.002412392,0.004576545,-0.002017974,-0.00386164,0.01062944,-8.027878e-05
1.026197,0.02386093,-0.0172129,0.0002481344,0.004756619,0.0004383826,-0.001785838,0.006674491,-3.684426e-05
1.024649,0.02027382,-0.0172498,-0.001287313,0.001163907,0.0004775382,-0.0006140869,0.01045837,0.0007013838
1.022833,0.01500598,-0.01712079,-0.003089319,-0.004111192,0.000681071,-0.0003041397,0.00891888,0.001961936
1.021967,0.01233544,-0.01423638,-0.003940307,-0.006790416,0.003638335,-0.001053393,0.006577268,0.002917301
1.023319,0.01904248,-0.01498191,-0.002572856,-9.318014e-05,0.002963803,-0.000875879,0.006678427,0.00100503
1.024857,0.02712324,-0.01616367,-0.001017651,0.007976898,0.001850988,-0.002126353,0.003840438,-0.0006834354
1.02534,0.02369273,-0.01455125,-0.0005167498,0.004534756,0.003530115,-0.004011916,0.00375482,0.0003551097
1.024929,0.02144123,-0.01550272,-0.000907675,0.002270548,0.002642952,-0.003429279,0.00181794,0.002347611
1.024813,0.02338904,-0.01551346,-0.001003734,0.004204452,0.002693975,-0.002932114,-0.002679123,0.004462293
1.025813,0.02018501,-0.01428962,1.64336e-05,0.0009852875,0.00397689,-0.00265656,-0.003750218,0.005139363
1.027477,0.02207532,-0.01300571,0.001702434,0.002859238,0.005317037,-0.001352961,-0.002525746,0.004692134
1.029668,0.02635633,-0.01116487,0.003915365,0.007122653,0.0072111,-0.001571472,8.149688e-05,0.004826131
1.027824,0.02421673,-0.01610757,0.002094301,0.004964116,0.002318378,-0.003044468,-0.001419473,0.00516242
1.025362,0.02270218,-0.02191487,-0.0003451926,0.003429175,-0.003442269,-0.00262059,-0.003968923,0.00507341
1.028477,0.02033697,-0.01970295,0.002793204,0.001042055,-0.001186927,0.0004914975,-0.002577357,0.004897954
1.030132,0.0182053,-0.0195092,0.004470597,-0.001112974,-0.0009527921,0.003638483,0.0004378588,0.005225444
1.028647,0.01996915,-0.02379593,0.003007632,0.000626199,-0.005201972,0.003244567,0.005404216,0.005252904
1.028187,0.01957428,-0.0236064,0.002569663,0.0002055071,-0.004977463,0.0002506788,0.005587685,0.004528835
1.027683,0.01902248,-0.02048031,0.002086986,-0.0003731039,-0.001818646,-0.0007655568,0.00546194,0.004183051
1.027759,0.01984513,-0.01764159,0.002182435,0.0004218703,0.001050754,0.001066945,0.008732339,0.005289466
1.028864,0.01976141,-0.01277935,0.003306542,0.0003097512,0.005941728,0.002031093,0.0006649223,0.005408629
1.029397,0.02213825,-0.008379649,0.00385781,0.002657573,0.01036808,-0.001011762,-0.005400456,0.001681298
1.029192,0.02402182,-0.009538266,0.003669036,0.004511536,0.009233716,-0.004310374,0.007537092,-0.001877642
1.028176,0.02107461,-0.01444407,0.002668217,0.00153411,0.004349444,-0.002864883,0.01581812,-0.002049892
1.024746,0.01814964,-0.01541969,-0.0007476513,-0.001421691,0.003392407,-0.002004532,0.002190603,0.0004403718
1.021773,0.01935708,-0.01150317,-0.003708239,-0.0002455964,0.007324483,-0.004258211,-0.009908525,0.002663679
1.026107,0.02018705,-0.009717252,0.0006367966,0.0005526639,0.009122809,-0.00453182,-0.002331335,0.0001709481
1.031422,0.01885105,-0.01477044,0.005962249,-0.0008153006,0.004078708,-0.003969044,0.002991511,-0.002044196
1.027943,0.01989877,-0.02146194,0.002491868,0.0002003271,-0.002607101,-0.004238435,0.0008271634,0.0002521295
1.024441,0.02119367,-0.02004023,-0.001002879,0.001463088,-0.001182947,-0.005333589,0.00595956,0.00274664
1.025475,0.02052386,-0.01790221,3.635987e-05,0.0007611669,0.0009545554,-0.005492252,0.005819628,0.004021163
1.025208,0.01908682,-0.01987464,-0.0002263769,-0.0007079258,-0.001021124,0.0005281624,0.002174864,0.003196151
1.027402,0.01695342,-0.01528782,0.001971012,-0.002873219,0.003559913,0.007779402,0.004248978,0.001867854
1.02956,0.01675891,-0.01047317,0.004131732,-0.003099315,0.008366338,0.00811972,0.002714812,0.0003661237
1.027289,0.0180377,-0.0111524,0.001861376,-0.001851585,0.007676361,0.006186903,0.002753463,-0.001778927
1.027538,0.02085568,-0.01194606,0.002110943,0.0009359966,0.006869279,0.006974041,0.003449805,0.001664501
1.029221,0.02350694,-0.01303793,0.003791945,0.003557577,0.005761166,0.007006363,0.002114344,0.004741465
1.028791,0.02182867,-0.01241271,0.0033585,0.001850293,0.006367222,0.00674163,0.006535933,0.002164044
1.027504,0.02088934,-0.01258321,0.002067727,0.0008825156,0.006174599,0.0073837,0.008464257,0.00230883
1.025571,0.02147239,-0.01559222,0.0001290662,0.001437652,0.003140485,0.004476983,0.004437416,0.002145042
1.025272,0.02214864,-0.01993595,-0.0001772632,0.002086478,-0.00123127,0.001014631,0.0007466428,2.70799e-05
1.025237,0.02428502,-0.02397295,-0.0002213292,0.004195865,-0.005298972,0.001226507,0.001911665,-0.0001723393
1.024749,0.02293699,-0.02202139,-0.0007186288,0.002821172,-0.003380377,0.003222893,0.007813663,-0.0009151055
1.026109,0.02128383,-0.01940078,0.000630439,0.001141567,-0.0007945521,0.006472618,0.008733882,-0.001117773
1.026398,0.0226453,-0.01922349,0.0009081195,0.002476752,-0.0006535321,0.008702071,0.00500419,-0.002366396
1.02445,0.02226899,-0.01629729,-0.001052333,0.00207426,0.002235156,0.008244071,0.003259124,-0.00236392
1.023089,0.02196834,-0.01461522,-0.00242666,0.001747507,0.003878612,0.006894202,0.006080035,0.003030737
1.023594,0.02246272,-0.01556733,-0.001934955,0.002215814,0.002886853,0.00745659,0.01025108,0.006057101
1.02507,0.02227634,-0.01723885,-0.0004729884,0.002003362,0.001174662,0.00864668,0.009553496,0.004606465
1.007492,0.02400581,0.03988748,-0.04758992,0.01949141,-0.07456255,-0.3729038,0.2730244,-0.3481686
1.016749,0.02096789,0.03333004,-0.03940615,0.01802344,-0.07554891,-0.3642465,0.254248,-0.3514953
1.033841,0.01309105,0.02956456,-0.02328769,0.01163713,-0.073885,-0.3675627,0.2725892,-0.3535926
1.033542,0.01282547,0.02946084,-0.02446443,0.01278354,-0.06870179,-0.366483,0.3131883,-0.3606523
1.027381,0.0153317,0.02814704,-0.03141082,0.01662438,-0.06487156,-0.3663273,0.3203822,-0.3719918
1.027328,0.01510059,0.02703413,-0.03215963,0.0176517,-0.06098362,-0.3622785,0.3276378,-0.3701142
1.023606,0.01694494,0.02320808,-0.03649135,0.02067951,-0.05995201,-0.3508173,0.3428704,-0.3669228
1.025382,0.01529314,0.01880923,-0.03524047,0.02013741,-0.05963614,-0.3387439,0.355216,-0.3745648
1.029814,0.01299044,0.02077332,-0.03125265,0.01887196,-0.05309978,-0.3225134,0.3923434,-0.3793715
1.029016,0.01609827,0.02722648,-0.0324174,0.02294598,-0.04221609,-0.3058303,0.3965128,-0.3794017
1.024453,0.01952869,0.03593701,-0.0372728,0.0272729,-0.02921624,-0.2883881,0.372468,-0.3780495
1.016853,0.02491892,0.04404065,-0.04509194,0.03349126,-0.01696409,-0.2896323,0.3734196,-0.3657341
1.020607,0.03505076,0.04861497,-0.04148744,0.04438395,-0.008382032,-0.3008181,0.3624414,-0.3448765
1.027057,0.03965597,0.0504976,-0.03512034,0.04968351,-0.002632455,-0.2925701,0.3562298,-0.3316415
1.023956,0.03355677,0.04902094,-0.03824038,0.04421278,-0.0003830128,-0.2936473,0.3630915,-0.3325337
1.02508,0.02975027,0.04882982,-0.03707225,0.04096956,0.003011237,-0.2994651,0.3614402,-0.3324822
1.025699,0.03370203,0.04688004,-0.03635117,0.04542034,0.004506445,-0.2914843,0.3722257,-0.3238217
1.022748,0.03792784,0.04186547,-0.0391432,0.05008193,0.00279709,-0.2984156,0.3716663,-0.3230951
1.019546,0.04260397,0.04494005,-0.04213167,0.05513153,0.009037968,-0.3179957,0.3538758,-0.3211698
1.013077,0.04574177,0.05034968,-0.04833635,0.05858129,0.01747606,-0.3379827,0.3326594,-0.3095801
1.015543,0.04365281,0.05165353,-0.0455566,0.0567435,0.02167155,-0.3420802,0.315934,-0.3024395
1.023544,0.03705331,0.04835618,-0.03719509,0.05033518,0.0211301,-0.3243948,0.3264691,-0.2930386
1.025428,0.02745884,0.04422501,-0.03490532,0.04087304,0.01962034,-0.3215912,0.3326839,-0.2859015
1.024763,0.02733739,0.05089522,-0.03512126,0.04082657,0.02877893,-0.3263617,0.3276465,-0.2848472
1.021744,0.03351135,0.05871554,-0.03765234,0.04701993,0.03895613,-0.3245544,0.3261229,-0.2798704
1.021624,0.03149484,0.06058449,-0.03724611,0.04496894,0.04305184,-0.3278757,0.310815,-0.2773697
1.023395,0.031098,0.06022494,-0.03491329,0.04448544,0.04479023,-0.3224391,0.2986326,-0.2742671
1.022501,0.03001745,0.05769313,-0.03521362,0.04326775,0.0442289,-0.3104367,0.293331,-0.2710815
1.025374,0.02124812,0.05862398,-0.03171477,0.03431264,0.04700433,-0.2930352,0.2903047,-0.2749652
1.027496,0.01791147,0.05851953,-0.02893906,0.03074361,0.04862028,-0.2787829,0.2919054,-0.2810141
1.025791,0.0208551,0.05770105,-0.02996347,0.03341055,0.04939989,-0.2868255,0.2836558,-0.2812297
1.019575,0.02804814,0.05963494,-0.03547469,0.04028481,0.0528115,-0.2950001,0.2736111,-0.2682574
1.011095,0.03480138,0.0601254,-0.04322772,0.04667922,0.05466138,-0.2974794,0.2569267,-0.2537942
1.016464,0.03384767,0.06161462,-0.03711084,0.0453283,0.05739381,-0.2961197,0.2411632,-0.2499967
1.026386,0.03326447,0.05984135,-0.02642236,0.04431107,0.05674971,-0.2883295,0.2504352,-0.2521933
1.027703,0.0331355,0.05813728,-0.02432178,0.04371279,0.05606302,-0.2908094,0.2561501,-0.2547333
1.029636,0.02900384,0.06008269,-0.0215901,0.03907815,0.05891642,-0.2918766,0.2530525,-0.2554516
1.027415,0.02422425,0.05679997,-0.02299972,0.03376361,0.05643482,-0.2926173,0.2575462,-0.2567098
1.021807,0.02008345,0.05329828,-0.02778456,0.0290578,0.05362999,-0.3010037,0.2547222,-0.25801
1.021193,0.01670355,0.05212937,-0.02756618,0.02508494,0.05305649,-0.2961358,0.2531592,-0.260263
1.020459,0.01633235,0.055588,-0.02746059,0.02409505,0.05701203,-0.2868277,0.2557015,-0.2591934
1.020726,0.01910478,0.06354783,-0.02634748,0.02622532,0.06537316,-0.2805452,0.2454138,-0.2523002
1.021153,0.0190755,0.0619426,-0.02506933,0.02553257,0.06407633,-0.2710332,0.2332265,-0.2500505
1.019385,0.02045557,0.06014822,-0.02598194,0.02622991,0.0625001,-0.2678026,0.223877,-0.2503033
1.019849,0.0250153,0.0621037,-0.0246605,0.03008953,0.06458612,-0.2670714,0.2114627,-0.2520644
1.021506,0.02426624,0.05074528,-0.02214542,0.02862474,0.05327344,-0.2725128,0.2100586,-0.2551285
1.024464,0.02641876,0.03829232,-0.01832992,0.03004749,0.04078448,-0.2861071,0.217942,-0.2508904
1.025873,0.03138255,0.04049649,-0.01606437,0.03426893,0.04287445,-0.2889447,0.215433,-0.2442848
1.0232,0.0300475,0.05145401,-0.01788346,0.03218028,0.05364326,-0.2862566,0.2004586,-0.2380794
1.021564,0.03097251,0.06397887,-0.01866964,0.03234164,0.06590824,-0.2829942,0.1730067,-0.2335286
1.021182,0.03184837,0.0682653,-0.01820709,0.0324449,0.06986649,-0.2743194,0.1528057,-0.2317632
1.024407,0.02467177,0.05733518,-0.01414371,0.02448793,0.05854237,-0.2729461,0.1709144,-0.228024
1.029844,0.01751896,0.04118198,-0.007874807,0.01654825,0.04193205,-0.2692423,0.1970805,-0.2272761
1.029245,0.01667088,0.03591198,-0.007650659,0.01490833,0.036145,-0.2554524,0.2019235,-0.2283291
1.025868,0.01798657,0.03974538,-0.01021445,0.01542887,0.03940506,-0.2495769,0.202858,-0.2285459
1.024439,0.01643406,0.04245255,-0.01084101,0.01307955,0.04148624,-0.2451707,0.2017816,-0.2337744
1.025248,0.01599524,0.04328486,-0.00924075,0.01184381,0.04164339,-0.2387112,0.2077973,-0.2384031
1.028168,0.01727216,0.04324805,-0.005541741,0.01232526,0.04088554,-0.2358456,0.2218933,-0.2338843
1.029777,0.01505881,0.04365196,-0.003166567,0.009319341,0.04052571,-0.2291075,0.2189907,-0.2260585
1.029704,0.01305389,0.04655168,-0.00248803,0.006526172,0.04262206,-0.2274223,0.2117705,-0.2235417
1.030634,0.01339018,0.04981425,-0.000821401,0.006079949,0.04504454,-0.2280665,0.2127527,-0.2195595
1.033435,0.01738017,0.04816402,0.002699919,0.009294522,0.04252026,-0.2215306,0.2159552,-0.2137718
1.036833,0.02285615,0.04010977,0.00680227,0.01400336,0.03356063,-0.218064,0.2496863,-0.217787
1.037966,0.01984131,0.02574333,0.008621689,0.0102306,0.01826038,-0.216958,0.3269972,-0.2336983
1.030475,0.01501676,0.01613106,0.001798158,0.004658213,0.007689164,-0.2239843,0.3756521,-0.2559602
1.016778,0.01560512,0.03464036,-0.01125091,0.004509699,0.02521794,-0.2360463,0.325483,-0.2577059
1.015493,0.01642109,0.06123329,-0.0119068,0.004600717,0.05081195,-0.2347662,0.2460809,-0.2326017
1.026451,0.01963518,0.0628388,-0.0003392268,0.007102652,0.05140236,-0.2344145,0.2248512,-0.2189092
1.031377,0.02210345,0.06083483,0.005177415,0.008872262,0.04836859,-0.2358126,0.2321704,-0.2207214
1.029482,0.02046289,0.06386935,0.003853902,0.006547097,0.05035995,-0.2240795,0.2359139,-0.2186572
1.028129,0.02011465,0.05721258,0.003051352,0.005528763,0.04264793,-0.2124908,0.2361864,-0.2156937
1.02791,0.01846022,0.04929533,0.003363666,0.003219248,0.03366481,-0.2053253,0.2516171,-0.2176718
1.021658,0.01616568,0.04399396,-0.002378534,0.0002850944,0.02728863,-0.2018937,0.2756591,-0.2207249
1.015315,0.0192995,0.04357121,-0.008230577,0.002795299,0.02578414,-0.1982153,0.2497699,-0.2169798
1.026091,0.02297811,0.04355305,0.003015548,0.005866701,0.02467933,-0.1869012,0.2249164,-0.213796
1.035074,0.02141115,0.04072828,0.01244919,0.003709231,0.02076507,-0.18939,0.2512532,-0.2137367
1.022723,0.01888682,0.05969838,0.0005298542,0.0006112901,0.03864473,-0.2043276,0.2510083,-0.2111341
1.013371,0.01857455,0.08311401,-0.008410661,-0.0002574862,0.06097032,-0.2151526,0.2094567,-0.21162
1.019005,0.01802925,0.07702308,-0.002385323,-0.001341909,0.0537903,-0.2270629,0.1782006,-0.2091369
1.022112,0.01888032,0.07155092,0.001095372,-0.001012342,0.04723013,-0.2253204,0.1880825,-0.2014782
1.022334,0.0211787,0.07842502,0.001671585,0.0007823414,0.05301751,-0.2117028,0.2012595,-0.1966146
1.026584,0.0222078,0.07336663,0.006258557,0.001325655,0.04687399,-0.2024161,0.1727188,-0.1926152
1.025492,0.02473298,0.06368193,0.005486028,0.003382918,0.03610613,-0.1961933,0.1589016,-0.1892764
1.023509,0.02839872,0.05816354,0.003803686,0.006598469,0.02950724,-0.1982422,0.16477,-0.1875383
1.026252,0.02953893,0.05778093,0.006830704,0.007305898,0.02804779,-0.1953939,0.1570698,-0.1858725
1.024624,0.02749904,0.06194572,0.005468891,0.004850249,0.03114053,-0.1856623,0.1594574,-0.1808051
1.024346,0.02484818,0.05907912,0.005440125,0.001800256,0.02720777,-0.1822181,0.1653071,-0.1741246
1.025004,0.02378133,0.05701236,0.006330283,0.0003506101,0.02408175,-0.1795229,0.1742173,-0.1711105
1.022523,0.02187624,0.05724492,0.004064943,-0.001921137,0.023263,-0.1810701,0.1799756,-0.1701171
1.023361,0.02140908,0.05306057,0.005102551,-0.00273895,0.01803639,-0.180921,0.1699215,-0.1713278
1.021252,0.02307233,0.05948509,0.003176823,-0.001410451,0.0234288,-0.1796926,0.1638556,-0.1728784
1.018051,0.02198145,0.06560265,0.0001452371,-0.002820306,0.02852534,-0.1845505,0.1498873,-0.1734835
1.019835,0.02222179,0.06181072,0.002082022,-0.002883328,0.0237242,-0.1855459,0.1366515,-0.173908
1.020649,0.02460027,0.06462093,0.003035723,-0.000792768,0.02553758,-0.1896896,0.1395366,-0.1710404
1.020663,0.02438365,0.06847945,0.003175257,-0.001282101,0.02841216,-0.1898052,0.1337127,-0.1679586
1.020103,0.02157264,0.067199,0.002728108,-0.004350891,0.02616108,-0.1788882,0.1275499,-0.1659523
1.019019,0.01742838,0.06377523,0.001744526,-0.00873821,0.02178027,-0.1721512,0.1256133,-0.1625058
1.019596,0.01827053,0.0626128,0.002408635,-0.008124472,0.01967483,-0.1658211,0.114653,-0.157086
1.021046,0.02192184,0.06502856,0.003934726,-0.004686997,0.02116204,-0.1609845,0.1011838,-0.1506704
1.023711,0.02187328,0.06247361,0.006665097,-0.004934952,0.01769345,-0.1580335,0.0899861,-0.148279
1.025679,0.02406955,0.05812793,0.008686829,-0.002923862,0.01244952,-0.152064,0.0857069,-0.1466713
1.023808,0.0262741,0.05699122,0.006858948,-0.0008906388,0.01043047,-0.1468934,0.06995116,-0.1395359
1.020065,0.02561987,0.06584441,0.003149172,-0.001702747,0.01841785,-0.1315823,0.0313416,-0.1327763
1.019548,0.02752853,0.07768197,0.002656216,6.100086e-05,0.02940644,-0.1095445,0.01737624,-0.1345293
1.023925,0.02819282,0.0681832,0.00704649,0.0005928346,0.01907555,-0.1017434,0.03874584,-0.1436559
1.030691,0.02638203,0.05374371,0.01381779,-0.001338485,0.00382075,-0.1027822,0.05574184,-0.1526484
1.03411,0.0249259,0.04682312,0.01723218,-0.002903735,-0.003897933,-0.1000178,0.0818966,-0.1561536
1.03328,0.02270136,0.03153981,0.01638884,-0.005226389,-0.01996118,-0.1019554,0.1332488,-0.1549758
1.034771,0.02084456,0.02319627,0.01785733,-0.007170621,-0.02906505,-0.1083991,0.1814996,-0.1521007
1.035799,0.02045847,0.02480919,0.01885375,-0.007633687,-0.02819105,-0.1115782,0.2177026,-0.148936
1.034787,0.02118135,0.02307094,0.0178007,-0.006977516,-0.0306449,-0.1277816,0.2460642,-0.152202
1.036095,0.0218208,0.02836462,0.01905717,-0.006394693,-0.02604175,-0.1544588,0.2637906,-0.1605086
1.031692,0.02227818,0.03415721,0.01459353,-0.005984093,-0.02091311,-0.1648634,0.2733664,-0.1589367
1.017897,0.02251355,0.03677681,0.0007277477,-0.005785914,-0.01892979,-0.1599718,0.2667478,-0.1497256
1.003274,0.02159151,0.04948198,-0.0139748,-0.006735849,-0.006832512,-0.1528473,0.231285,-0.1429472
0.9977128,0.02083709,0.06617277,-0.01962322,-0.007509134,0.009278964,-0.1463228,0.1859126,-0.1413386
1.001742,0.02281891,0.08686492,-0.01568767,-0.005537406,0.02941976,-0.1414942,0.1568631,-0.1400347
1.003501,0.03231104,0.1096236,-0.01402716,0.003953079,0.05165346,-0.1363588,0.1222234,-0.1261069
1.009594,0.04220438,0.1160376,-0.008036281,0.01385258,0.05756646,-0.1210025,0.06651975,-0.1113882
1.029289,0.0380753,0.1021665,0.01155371,0.009736534,0.04321534,-0.1044745,0.04035178,-0.1117276
1.040688,0.02815088,0.07879513,0.02284571,-0.0001690106,0.0193823,-0.1037946,0.06022423,-0.1195497
1.032314,0.02141518,0.05730763,0.01436339,-0.006880685,-0.002550149,-0.1005495,0.0707813,-0.1307039
1.023033,0.01414389,0.03523595,0.004970067,-0.0141231,-0.0250505,-0.09329238,0.07011269,-0.1364514
1.022714,0.01251705,0.02218891,0.004536872,-0.01571611,-0.03850928,-0.101612,0.08948874,-0.1320711
1.020752,0.01943841,0.03094851,0.002458146,-0.008755751,-0.03014313,-0.110863,0.1116762,-0.1296372
1.017696,0.02807774,0.03592097,-0.0007171413,-7.216955e-05,-0.02554446,-0.1132005,0.1359946,-0.1298559
1.020248,0.03104226,0.03620589,0.001713271,0.002941603,-0.02561256,-0.1187672,0.1708877,-0.127396
1.019698,0.03035127,0.04750029,0.001041002,0.002304369,-0.01464967,-0.1234577,0.1941777,-0.1253572
1.018572,0.03662503,0.05888239,-0.0002079061,0.008635733,-0.003577274,-0.1224706,0.1864206,-0.1218041
1.021263,0.04403705,0.07477936,0.002358539,0.01610845,0.01203152,-0.1203779,0.1425136,-0.1105247
1.024073,0.04666655,0.08320291,0.005044697,0.01880072,0.02018743,-0.1152077,0.1028406,-0.09784644
1.031335,0.04656908,0.07548689,0.01218212,0.01876695,0.01222288,-0.1025743,0.1093021,-0.08963949
1.032764,0.04258479,0.07675248,0.01348678,0.01484608,0.01325756,-0.09523485,0.1092809,-0.07872536
1.023368,0.04063827,0.07788736,0.003964748,0.01296172,0.01417777,-0.09730869,0.06361977,-0.06724634
1.015184,0.03483365,0.07119711,-0.004344634,0.007217204,0.007287854,-0.09694655,0.04201288,-0.06312956
1.012217,0.02394756,0.06657459,-0.007437487,-0.003611325,0.002479614,-0.09731937,0.05786133,-0.06393536
1.01599,0.02003933,0.05530808,-0.003789662,-0.007464588,-0.008959419,-0.1026232,0.06394088,-0.07137951
1.018847,0.01783952,0.04781663,-0.00105673,-0.009611785,-0.01661046,-0.1035445,0.08044639,-0.08481649
1.019708,0.01610937,0.04966751,-0.0003182836,-0.0112912,-0.0149062,-0.09727016,0.09914797,-0.08804061
1.025635,0.01530057,0.04968354,0.00548751,-0.01205065,-0.01502358,-0.09070861,0.1067251,-0.08324075
1.028564,0.01354432,0.05164898,0.008296874,-0.01375832,-0.01317815,-0.08468543,0.1324075,-0.08977716
1.029966,0.01754974,0.05044494,0.009580971,-0.009704566,-0.01448874,-0.07880309,0.1596355,-0.1003896
1.032082,0.02098704,0.04908649,0.01158117,-0.006218702,-0.01594019,-0.078972,0.1863707,-0.1036537
1.025229,0.0204344,0.06351515,0.004612349,-0.006722271,-0.001591062,-0.08849626,0.2088094,-0.107711
1.016682,0.0260735,0.08454613,-0.004049075,-0.001033435,0.01937341,-0.1027788,0.2007813,-0.1093047
1.015014,0.04009136,0.09592362,-0.005830309,0.01303474,0.03069624,-0.1080776,0.185907,-0.09572011
1.011072,0.05353836,0.09762478,-0.009883942,0.02653209,0.03235268,-0.1075404,0.164868,-0.07258522
1.00499,0.06068983,0.1023343,-0.01607445,0.03373285,0.03702521,-0.115275,0.1217627,-0.04998808
1.007952,0.06408399,0.1117328,-0.01321863,0.03717367,0.04639223,-0.1144802,0.07172535,-0.02683326
1.01596,0.05853594,0.1078032,-0.005313739,0.03166798,0.0424342,-0.09831427,0.03759139,-0.01739493
1.028544,0.03992143,0.0788354,0.00717231,0.01309008,0.01343884,-0.08574536,0.05520234,-0.03470927
1.044476,0.02007659,0.04694849,0.02300946,-0.006724639,-0.01847602,-0.07688249,0.08782202,-0.05596257
1.036935,0.008597007,0.05313763,0.01537809,-0.01818042,-0.01231522,-0.06763592,0.08396314,-0.06698218
1.020529,-0.00246243,0.06603057,-0.0011165,-0.02922138,0.0005496317,-0.05908976,0.09451203,-0.07966909
1.027509,-0.01034908,0.05001222,0.005777377,-0.03709335,-0.01549608,-0.05540734,0.1327309,-0.0933376
1.02964,-0.003798108,0.05377366,0.007823477,-0.03052967,-0.01176078,-0.05955887,0.1772466,-0.09754839
1.023557,-0.000120249,0.06597488,0.001658552,-0.02683928,0.0004160069,-0.06412371,0.2131676,-0.09708859
1.023824,0.0101956,0.07360579,0.001845373,-0.01650964,0.00802441,-0.07520152,0.1962726,-0.1028873
1.016677,0.03778276,0.1018034,-0.005381597,0.01109339,0.03620102,-0.08584839,0.168757,-0.1065735
1.021529,0.04360587,0.09770919,-0.0006066487,0.01693442,0.03208625,-0.07757225,0.1630386,-0.1029761
1.030885,0.04441973,0.085966,0.008674166,0.01776752,0.02032141,-0.07014634,0.1508383,-0.09968924
1.021231,0.05717926,0.1053029,-0.001052948,0.03054651,0.03963423,-0.07169069,0.1352003,-0.09077215
1.016137,0.05275022,0.1013765,-0.006218445,0.02613587,0.03567989,-0.06420965,0.09348783,-0.07698471
1.012399,0.0476023,0.09601587,-0.01002483,0.02100398,0.03028619,-0.05887805,0.06660106,-0.06330593
1.006084,0.03939161,0.1019429,-0.01640678,0.01280587,0.0361736,-0.07068602,0.08273488,-0.05142134
1.009582,0.01886443,0.1048641,-0.01297191,-0.007712733,0.03904749,-0.07762883,0.07441027,-0.04808097
1.014238,0.008673008,0.1186467,-0.00837639,-0.01789943,0.05277367,-0.05454044,0.06080668,-0.04585459
1.02419,0.008505981,0.1128516,0.0015208,-0.01806479,0.04691169,-0.02535139,0.05858518,-0.05189108
1.030986,0.01744128,0.1026965,0.00826488,-0.009129848,0.03667779,-0.02824895,0.05450632,-0.07014336
1.018086,0.0269828,0.1085316,-0.004682575,0.0004100563,0.04242089,-0.05354994,0.05963444,-0.0760678
1.005733,0.0376365,0.1078278,-0.01707857,0.01106121,0.04161109,-0.0720712,0.03793518,-0.07244898
1.010047,0.05707671,0.1120361,-0.01280383,0.03049765,0.04569847,-0.07154045,0.005161453,-0.06510027
1.016744,0.06536518,0.1125171,-0.006141512,0.03878017,0.04604284,-0.06330284,-0.006588742,-0.0466195
1.018278,0.06398882,0.1068009,-0.00463732,0.0373942,0.04017351,-0.0662893,-0.01725232,-0.02948349
1.020634,0.05475978,0.108381,-0.002307078,0.02815033,0.0415834,-0.06512053,-0.03562391,-0.027115
1.019924,0.03501285,0.1023499,-0.003037106,0.0083822,0.03536443,-0.05074185,-0.06362325,-0.03388382
1.020127,0.02237882,0.09449693,-0.002849203,-0.004279811,0.02730604,-0.04124035,-0.07445732,-0.03350262
1.02431,0.01864958,0.08557438,0.00132211,-0.00804344,0.01816062,-0.03806795,-0.05458782,-0.03107373
1.023656,0.02097705,0.07179026,0.0006611373,-0.005755983,0.004136955,-0.04209841,-0.01294067,-0.03259242
1.023817,0.02317313,0.07215523,0.0008193148,-0.003604719,0.004246938,-0.04289837,0.03809729,-0.03250415
1.020317,0.02238792,0.08202257,-0.002679693,-0.004438815,0.01384529,-0.03477394,0.04868511,-0.03600557
1.011133,0.02605263,0.090347,-0.01186,-0.0008264216,0.02188797,-0.02901249,0.02743361,-0.03612923
1.012827,0.02988301,0.09698206,-0.01015834,0.002948708,0.02822933,-0.01820985,0.0171664,-0.03608249
1.020803,0.03729642,0.09471371,-0.002170728,0.01030421,0.02565575,-0.02178325,0.01002803,-0.04002924
1.027914,0.04875103,0.08812491,0.00495459,0.02169822,0.01875058,-0.04104774,0.02326383,-0.03680876
1.031287,0.05367445,0.08508708,0.008346427,0.0265579,0.01538576,-0.04786119,0.06274114,-0.03506053
1.027454,0.05280174,0.08133467,0.004534979,0.02561756,0.01129652,-0.0540422,0.07491584,-0.02862802
1.025922,0.0510553,0.08121445,0.003025581,0.02379874,0.01083055,-0.05053992,0.04743378,-0.01592435
1.023274,0.04912955,0.08639408,0.0004033832,0.02179514,0.01565649,-0.04330288,0.02752118,-0.01307565
1.017309,0.04283387,0.09077566,-0.005535622,0.01541562,0.01967725,-0.0541553,0.03155086,-0.008306113
1.018169,0.03821996,0.09724247,-0.00464699,0.01071159,0.02577672,-0.05450377,0.02823714,3.87578e-05
1.017152,0.03447971,0.1015552,-0.005634106,0.00687495,0.02971591,-0.04331319,0.01128473,0.001420419
1.010978,0.01663935,0.1076513,-0.01177685,-0.01106772,0.03543223,-0.03225395,0.005429814,-0.002564503
1.011803,0.002868725,0.1159232,-0.01091885,-0.02494569,0.043318,-0.02110899,0.002270579,-0.01424751
1.015599,0.006505789,0.1066345,-0.007087224,-0.02141955,0.03363633,-0.01615871,-0.005700554,-0.03105175
1.020582,0.005444539,0.0928756,-0.002066526,-0.02259363,0.01947736,-0.0103763,0.002969802,-0.03820085
1.029001,0.003757117,0.08898093,0.006391676,-0.02439416,0.01517576,-0.01333164,0.02145679,-0.03262768
1.026181,0.01749459,0.08791233,0.003614124,-0.01076864,0.013694,-0.0259294,0.03028749,-0.02748641
1.017523,0.03663277,0.08928308,-0.0050012,0.008259736,0.01464614,-0.04062373,0.01603668,-0.01785777
1.018058,0.05169512,0.08622371,-0.004421402,0.02321464,0.01116356,-0.05376948,-0.01580293,-0.002038594
1.018062,0.05687539,0.08569234,-0.004371019,0.02828922,0.0102052,-0.05004332,-0.03419917,0.01270291
1.017055,0.04930627,0.0849539,-0.00533109,0.02061515,0.009036873,-0.04643367,-0.0385096,0.03093806
1.015163,0.04240228,0.07934271,-0.007174463,0.01360599,0.002993826,-0.04690617,-0.04027501,0.03424195
1.006932,0.0408884,0.08993194,-0.01535485,0.0119861,0.01315018,-0.03736169,-0.05008279,0.02314716
1.004769,0.03865321,0.1042365,-0.01746601,0.009643748,0.02702157,-0.03034651,-0.07798047,0.02084078
1.012822,0.03774058,0.1097972,-0.009358408,0.008622585,0.03214891,-0.02265392,-0.09785785,0.01991364
1.026617,0.03440949,0.1067153,0.004493109,0.005181541,0.02863338,-0.01734933,-0.08564393,0.02093362
1.034832,0.02849276,0.09033857,0.01276708,-0.0008464975,0.01182244,-0.02175116,-0.05180667,0.02333879
1.024606,0.02881965,0.08465396,0.002602254,-0.0006319774,0.005703292,-0.02580737,-0.03866408,0.02112809
1.014812,0.03260972,0.08642632,-0.007129414,0.003044991,0.007041416,-0.03122286,-0.07439987,0.02150614
1.020501,0.03381097,0.07649785,-0.001377459,0.004132721,-0.003320135,-0.04152914,-0.108647,0.02195903
1.031258,0.03196836,0.05841586,0.009442475,0.002176363,-0.0218329,-0.04964576,-0.08689667,0.02597453
1.040349,0.02726119,0.04256296,0.01859767,-0.002644575,-0.03811258,-0.04186806,-0.05782863,0.02752563
1.039887,0.01862384,0.04215322,0.01819935,-0.01139535,-0.03894279,-0.03416875,-0.04726744,0.007884431
1.029101,0.008154163,0.04042316,0.007475479,-0.02197744,-0.04108442,-0.04246771,0.01690759,-0.01869221
1.018781,0.006355749,0.04431582,-0.002785211,-0.02388618,-0.03759191,-0.04319078,0.08579025,-0.02154507
1.008292,0.0185094,0.0739804,-0.01321629,-0.01183959,-0.008313969,-0.03913708,0.07115791,-0.003522034
1.004696,0.0339993,0.09803164,-0.01675697,0.003547389,0.01536526,-0.03722195,0.02124055,0.01046463
1.019753,0.03932875,0.1021673,-0.001645904,0.008778289,0.01914349,-0.02368768,-0.03755793,0.01841739
1.034248,0.03475167,0.09398668,0.01290279,0.004106788,0.0106193,-0.003779659,-0.07032236,0.02084916
1.033272,0.02958398,0.08409548,0.01197804,-0.001151481,0.0003975801,0.01038222,-0.05368781,0.01867679
1.02885,0.02428886,0.07549322,0.00760668,-0.006533466,-0.008522449,0.009549042,-0.0504474,0.01842045
1.026917,0.01896261,0.06052927,0.005721524,-0.01194268,-0.02379123,0.004823049,-0.05105727,0.008850218
1.024,0.01845068,0.05546829,0.002849306,-0.01253329,-0.0291434,0.0007649529,-0.04454703,0.0008039867
1.020198,0.01371892,0.05250925,-0.0009103586,-0.01733891,-0.03237889,-0.01234163,-0.04378776,0.001622071
1.015704,0.004891571,0.04780496,-0.005364405,-0.02623463,-0.03734361,-0.01373014,-0.01502328,4.379873e-05
1.01077,0.006915004,0.05481426,-0.01026191,-0.0242732,-0.03057745,-0.004209556,0.008750555,0.002423818
1.014416,0.01236676,0.05756029,-0.006580203,-0.01887617,-0.02805616,-0.003935001,-0.002465568,-0.005092234
1.022257,0.01432466,0.06680625,0.001293525,-0.01696498,-0.01901574,-0.003828831,-0.01070082,-0.01741047
1.023089,0.01795446,0.07817005,0.002158166,-0.01337339,-0.007837968,-0.002628305,-0.01414269,-0.01381307
1.026051,0.02212592,0.07244581,0.005150082,-0.009231374,-0.01372885,-0.002725899,-0.02890254,-0.01012865
1.028965,0.02800766,0.07373427,0.008093288,-0.003370326,-0.01258795,-0.00071877,-0.04020878,-0.006913209
1.027682,0.02773959,0.07087122,0.006836447,-0.003650533,-0.01557983,0.0008179737,-0.0402423,-0.005769406
1.028426,0.02088816,0.04927463,0.007604981,-0.01050589,-0.03728662,0.002861859,-0.02243593,-0.01652723
1.026883,0.0168927,0.03731816,0.006084023,-0.01449725,-0.04933431,0.0001915508,0.02304386,-0.02783366
1.023281,0.01141641,0.04729876,0.002500982,-0.01996138,-0.03942505,-0.002919031,0.04648521,-0.03127603
1.020182,0.01512059,0.06622352,-0.0005806844,-0.01623675,-0.0205509,0.005576386,0.0249627,-0.02587693
1.020518,0.02668469,0.07456913,-0.0002318178,-0.004643753,-0.01223498,0.01210716,0.01411613,-0.01794596
1.02265,0.02770507,0.07799417,0.001911739,-0.00358616,-0.008819193,0.006129157,0.01361682,-0.01032711
1.021387,0.03028981,0.08692209,0.0006568841,-0.0009563248,0.0001189777,0.002341738,-0.001401952,-0.01005325
1.020431,0.03389022,0.09675011,-0.0002927484,0.002696463,0.009975495,0.01181773,-0.02766447,-0.01741059
1.017195,0.03092644,0.1131363,-0.003524363,-0.0002083428,0.02640668,0.0370512,-0.07740165,-0.01681067
1.015391,0.03212602,0.1235571,-0.005325519,0.00105613,0.03688681,0.07662466,-0.1344565,-0.01796599
1.019335,0.03228461,0.1038113,-0.001381114,0.001284872,0.01721205,0.09997189,-0.1467689,-0.01688287
1.025294,0.03118244,0.05880664,0.004577465,0.0002575015,-0.02771209,0.08767044,-0.09301669,-0.003750578
1.032778,0.03075887,0.02529544,0.01205867,-8.720427e-05,-0.06113369,0.08255191,-0.0312513,0.003369485
1.030065,0.02520206,0.02868939,0.009342302,-0.005561571,-0.05764003,0.09219545,-0.02166832,0.005098659
1.023789,0.02140884,0.03931721,0.003060631,-0.009269087,-0.04690061,0.0807812,-0.03470661,-0.001522299
1.027836,0.02174836,0.03555986,0.0070993,-0.008840726,-0.05053292,0.06363643,-0.03094221,-0.01192358
1.029613,0.02272318,0.03745128,0.008866228,-0.00777397,-0.04850172,0.04855616,-0.01811876,-0.009824727
1.030173,0.0222694,0.0480563,0.009413486,-0.008132762,-0.03774122,0.0360752,-0.0103122,-0.008695998
1.030676,0.02278964,0.05846827,0.009901292,-0.007514539,-0.02715744,0.04180437,-0.009741912,-0.008705281
1.022881,0.02815137,0.06690709,0.002087659,-0.002051961,-0.01853044,0.03990517,-0.01624891,-0.004180752
1.017245,0.03172138,0.06609521,-0.003570048,0.00162152,-0.01913825,0.02905089,-0.03055143,-0.001205088
1.017818,0.03019737,0.06198712,-0.003021198,0.0002031629,-0.02302701,0.02475107,-0.04733759,0.0004721299
1.020673,0.02787027,0.0610224,-0.0001929238,-0.002016545,-0.02375778,0.01692055,-0.05883923,-0.0005883407
1.024419,0.02794666,0.05535911,0.003524832,-0.001831408,-0.02917297,0.01766071,-0.06042949,0.00102648
1.025598,0.02651042,0.0514926,0.004673824,-0.003157851,-0.03277757,0.01741965,-0.05465918,0.00288417
1.02634,0.02329353,0.04819811,0.005383442,-0.006264119,-0.03579646,0.005862145,-0.04042744,0.002572925
1.027424,0.02449491,0.04231929,0.006433177,-0.004951432,-0.04138597,0.0003123719,-0.02033187,0.004818776
1.028782,0.02459883,0.04494937,0.00775466,-0.004735607,-0.03845269,-0.009407365,-0.005574889,0.004840748
1.028543,0.02654357,0.0463835,0.00747774,-0.002678468,-0.03670131,-0.01724715,0.004223899,0.007940434
1.024856,0.03314845,0.04789029,0.003750087,0.00403912,-0.03486315,-0.007954586,0.007364695,0.01203794
1.022576,0.03343304,0.05930574,0.001427697,0.004436363,-0.02310237,0.001127906,0.00743952,0.008723076
1.020917,0.03259063,0.06559646,-0.0002755388,0.003706071,-0.01645285,0.00501469,0.0002486838,0.007573258
1.020294,0.03311713,0.05951038,-0.0009448131,0.004343686,-0.02216748,0.006264194,-0.0202179,0.0121017
1.021313,0.0308691,0.05248834,2.612524e-05,0.002205326,-0.02880628,-0.002234199,-0.02460059,0.01693346
1.020754,0.03015441,0.05721655,-0.0005818445,0.001598517,-0.02368372,-0.01154855,-0.01738704,0.01817091
1.021742,0.02863599,0.06107123,0.0003551669,0.0001859128,-0.01942414,-0.00900772,-0.01636644,0.01745719
1.022672,0.02678352,0.0564487,0.001233839,-0.001562986,-0.02363195,-0.006795298,-0.008690271,0.01824661
1.021698,0.0271902,0.0570751,0.0002082316,-0.00105507,-0.02258173,-0.0132577,-0.004617348,0.01816203
1.020493,0.02950604,0.05115245,-0.001049255,0.001359589,-0.02807206,-0.01492431,-0.002692518,0.01805614
1.01937,0.03311697,0.04258566,-0.002224021,0.005066817,-0.03619848,-0.01103218,0.001749975,0.01840032
1.021976,0.03161135,0.0488255,0.0003286757,0.003654748,-0.02951042,-0.008018576,-0.001932415,0.01831752
1.024658,0.02890211,0.05366388,0.002958631,0.001036065,-0.02421617,-0.004367868,-0.004200985,0.01825057
1.022753,0.03048649,0.05386588,0.001001384,0.002707833,-0.02355103,-0.000941585,-0.006004907,0.0175138
1.021391,0.02984648,0.05795397,-0.0004134894,0.002151931,-0.01899307,0.002752044,-0.00921928,0.01868623
1.0225,0.02916245,0.05921227,0.0006441104,0.001548616,-0.01725886,0.008340239,-0.009382664,0.02222659
1.022448,0.0298131,0.05599599,0.0005408588,0.002276524,-0.01999397,0.01472451,-0.01111671,0.02451248
1.021835,0.02848982,0.05438626,-0.0001233876,0.001026983,-0.02111796,0.01504345,-0.01240533,0.02212086
1.022656,0.02931887,0.05489562,0.000647439,0.001926215,-0.02011893,0.01130608,-0.01383585,0.01849005
1.023288,0.02939086,0.05573417,0.001230176,0.002064816,-0.01878736,0.01295403,-0.01175982,0.0199635
1.024581,0.02746377,0.05908758,0.002474346,0.0002007596,-0.01493818,0.01304069,-0.007130385,0.02055583
1.025643,0.02691678,0.05904573,0.003488196,-0.0002867415,-0.01448219,0.01134942,-0.008143688,0.01721733
1.024702,0.02445914,0.05524928,0.002499806,-0.002688333,-0.01777945,0.01113726,-0.004039352,0.01649928
1.024948,0.02209306,0.05573676,0.002698266,-0.005001634,-0.01679206,0.007808932,0.003036147,0.01695046
1.02559,0.02115082,0.05652051,0.003293934,-0.005894071,-0.01550824,0.007975038,0.001708862,0.01461357
1.02654,0.02094944,0.05693197,0.004197861,-0.006048288,-0.01459708,0.00726419,0.004992532,0.01074675
1.02759,0.02147296,0.05676934,0.005202272,-0.005479871,-0.01426096,0.003009918,0.0120015,0.00739271
1.023487,0.02039342,0.05332909,0.001053837,-0.006516439,-0.01720393,0.003212146,0.005330642,0.005767532
1.019171,0.02227849,0.05268259,-0.003307631,-0.004589999,-0.01735504,0.001840461,-0.004086944,0.009629315
1.021866,0.02607778,0.05361063,-0.0006573761,-0.0007506915,-0.01593389,0.001064143,-0.002924689,0.01450472
1.025295,0.02839539,0.05203412,0.002727949,0.001605721,-0.01701987,0.003212662,-0.002368563,0.007540069
1.024977,0.0302822,0.05138036,0.002365522,0.003530083,-0.01718598,0.002447523,-0.003845144,0.0006599412
1.024989,0.0291968,0.05267014,0.002334843,0.002480854,-0.01541168,0.003102,-0.002085993,0.007604886
1.024987,0.03052812,0.053343,0.002289635,0.003846832,-0.01425771,0.00513411,0.0007445003,0.01266274
1.023829,0.03303563,0.05395843,0.001088827,0.006387308,-0.01316489,0.007271679,0.004211818,0.01199374
1.023924,0.02996944,0.05509752,0.00114199,0.003352183,-0.01155243,0.0114835,0.001927251,0.01300759
1.025243,0.02649596,0.05484537,0.002419356,-9.228759e-05,-0.01133561,0.01403676,-0.002000519,0.01239729
1.026818,0.02418891,0.05646484,0.003953284,-0.002372401,-0.009251953,0.01361907,0.0008661604,0.01288293
1.02568,0.02445283,0.05796536,0.002774559,-0.002083513,-0.007292416,0.01343939,-1.494286e-05,0.01637579
1.023151,0.02592456,0.05572816,0.00020508,-0.000588601,-0.009076212,0.01566881,-0.007087132,0.01865031
1.023476,0.02465862,0.05454365,0.0004899873,-0.001833012,-0.009813318,0.0171335,-0.01401276,0.0168616
1.023208,0.02563948,0.0525026,0.0001829094,-0.0008321399,-0.01141327,0.01513545,-0.01781894,0.01261497
1.023659,0.02621976,0.0501686,0.0005938525,-0.0002332629,-0.01331267,0.01384611,-0.0159634,0.01182395
1.026621,0.0243423,0.0492605,0.003517716,-0.002093435,-0.01379276,0.01560335,-0.01323871,0.01284073
1.026875,0.02550801,0.0478622,0.003733226,-0.0009116493,-0.01476963,0.01744651,-0.01166148,0.01417619
1.026027,0.02833928,0.04984156,0.002846859,0.001934583,-0.01237539,0.01700672,-0.01421285,0.01746758
1.026455,0.03150743,0.05061938,0.003236798,0.005116577,-0.0111892,0.01507401,-0.01956968,0.01821343
1.026307,0.03168078,0.04940295,0.003050604,0.00530254,-0.01200379,0.01304765,-0.01845574,0.01749364
1.025051,0.02474463,0.0507911,0.001757355,-0.001622389,-0.01022038,0.01142735,-0.02141318,0.01800121
1.022938,0.01747531,0.05159632,-0.0003931871,-0.008881852,-0.009026504,0.01029522,-0.02716593,0.01773386
1.021649,0.01739841,0.05323997,-0.001719798,-0.008949964,-0.007000898,0.01024649,-0.01766201,0.01665261
1.02177,0.02247518,0.05400607,-0.001635346,-0.003865033,-0.005859677,0.01193277,-0.009463585,0.01421137
1.020789,0.02749224,0.05554882,-0.002653072,0.001159879,-0.003948857,0.01253828,-0.01781173,0.01285446
1.019043,0.03017648,0.059946,-0.004435379,0.003851752,0.000809092,0.01216686,-0.02836271,0.01519496
1.020964,0.02870207,0.05746129,-0.00254949,0.002384651,-0.001322512,0.01387172,-0.03202484,0.01685088
1.023412,0.02654395,0.05093451,-0.0001352752,0.0002334116,-0.007504164,0.015249,-0.02800775,0.01356277
1.021998,0.02819359,0.04755573,-0.00158271,0.001889407,-0.01054594,0.01489371,-0.02122475,0.0100633
1.021834,0.02833994,0.04802502,-0.001777727,0.002041542,-0.009747672,0.01357839,-0.01815787,0.01207392
1.022708,0.02814817,0.05154563,-0.0009343064,0.001854936,-0.005905945,0.01229497,-0.01574603,0.01421273
1.021941,0.03087692,0.05293005,-0.001730007,0.004588128,-0.004208195,0.01311751,-0.01750074,0.01424008
1.022596,0.03043274,0.0572343,-0.001102802,0.004147546,0.0004015751,0.01728898,-0.02199826,0.0152061
1.024166,0.02807753,0.06350022,0.0004403385,0.001794958,0.006964997,0.02222601,-0.01367815,0.01508852
1.025168,0.02594304,0.06183746,0.001417584,-0.0003379723,0.00559135,0.01995021,-0.005864895,0.01441795
1.024463,0.02488829,0.06154177,0.000689266,-0.001392192,0.005575901,0.01539923,-0.01414444,0.0125938
1.0227,0.02733964,0.06536374,-0.001095594,0.001058735,0.009668795,0.01665657,-0.02179281,0.01241706
1.022416,0.02852707,0.06203277,-0.001400575,0.002244863,0.006599007,0.01577568,-0.02532528,0.01797129
1.020541,0.02941312,0.05320934,-0.003294946,0.003128726,-0.001973338,0.01324637,-0.02762324,0.02028352
1.019085,0.03163642,0.04723332,-0.00476986,0.005348876,-0.007708415,0.01236211,-0.02525262,0.01639909
1.023227,0.03142043,0.05168431,-0.0006445773,0.005128641,-0.003026408,0.01168608,-0.02428508,0.01339087
1.026446,0.02916757,0.05879274,0.002559388,0.002870282,0.004303417,0.01460051,-0.02360119,0.01466791
1.024977,0.0251077,0.05412844,0.001076399,-0.001196411,-0.0001490001,0.01522449,-0.02183158,0.01774281
1.02443,0.02352113,0.05028859,0.0005178068,-0.002791051,-0.003786394,0.01331491,-0.0186982,0.01773807
1.025041,0.02401898,0.05404641,0.001116722,-0.002302341,0.0001646125,0.01422497,-0.01315055,0.0175314
1.023222,0.02150181,0.05774501,-0.0007119048,-0.004829491,0.004047327,0.01419001,-0.01261488,0.01713274
1.02159,0.02188845,0.06204962,-0.002353288,-0.004453375,0.008527033,0.01456523,-0.009647128,0.01385392
1.023346,0.02418015,0.05174011,-0.0006051534,-0.002172483,-0.001616472,0.01162469,0.003280323,0.01216287
1.02492,0.0241911,0.03757211,0.0009619844,-0.002172398,-0.01562741,0.004624099,0.008033739,0.01383516
1.024183,0.02545212,0.04860123,0.0002187338,-0.0009221345,-0.004449634,0.005293,-0.003721246,0.01833283
1.023003,0.02503025,0.05748957,-0.0009656368,-0.001354568,0.004579529,0.008284435,-0.01431089,0.02093221
1.022011,0.02357311,0.05222151,-0.001961608,-0.002821982,-0.00055527,0.006497659,-0.01301378,0.01653209
1.022487,0.02397885,0.05293719,-0.001489177,-0.002426109,0.0002862486,0.007522849,-0.01119587,0.010918
1.024768,0.02422256,0.0473078,0.0007901081,-0.002191739,-0.005224518,0.009005405,-0.0122176,0.01142416
1.025612,0.02536273,0.04190763,0.001632992,-0.001060288,-0.01051292,0.008758456,-0.009545813,0.01377034
1.023776,0.02564378,0.05602167,-0.0002037477,-0.0007872649,0.003706515,0.01202514,-0.01001808,0.0135519
1.023294,0.02625339,0.06674742,-0.0006856413,-0.0001849738,0.01453152,0.0130241,-0.009275351,0.01550788
1.024843,0.0283505,0.05815414,0.0008640655,0.00190551,0.006031209,0.0116978,-0.004821708,0.01410555
1.024982,0.02613903,0.05202201,0.001004407,-0.0003119548,-1.445183e-05,0.01358248,-0.007908615,0.008936336
1.023965,0.02383352,0.05760601,-1.070475e-05,-0.002622858,0.005649498,0.01182074,-0.008172119,0.009528556
1.022413,0.02548379,0.05765463,-0.001559809,-0.0009773664,0.005771623,0.007859242,-0.006482379,0.009731781
1.021572,0.02613424,0.05279657,-0.002397869,-0.0003310502,0.0009806606,0.009660785,-0.009457231,0.009866373
1.021429,0.0261486,0.05347266,-0.002538373,-0.0003201421,0.001717554,0.01473994,-0.007966065,0.01141377
1.019802,0.025608,0.05608066,-0.004161051,-0.0008635566,0.004380212,0.01695785,-0.01197455,0.0102701
1.020205,0.02344295,0.05907163,-0.003753037,-0.003030763,0.007419841,0.01330279,-0.01894698,0.01310129
1.023165,0.02234905,0.0566996,-0.0007879628,-0.004126095,0.005090488,0.009496163,-0.01820905,0.01515162
1.023677,0.02218346,0.04961928,-0.0002689905,-0.004292282,-0.001953063,0.009658895,-0.01872983,0.01216922
1.020887,0.02242407,0.04758507,-0.003052015,-0.004051271,-0.003956182,0.006985665,-0.02205018,0.01099297
1.018375,0.02415545,0.04607559,-0.005555742,-0.002318377,-0.005439788,0.001558022,-0.02463182,0.01184948
1.019324,0.0258881,0.04605993,-0.00459778,-0.000583015,-0.005434272,0.002118091,-0.01928708,0.0125557
1.01989,0.02743195,0.04913069,-0.004021369,0.0009647136,-0.002346491,0.003871466,-0.01397688,0.01051184
1.018082,0.03072085,0.05128976,-0.005818419,0.004258551,-0.0001741166,0.001485716,-0.02576288,0.009114983
1.019285,0.03292273,0.05543107,-0.004602235,0.0064662,0.003977079,0.001762196,-0.03648806,0.01091595
1.025321,0.0308527,0.05507617,0.0014484,0.004402443,0.00362878,0.00190063,-0.03156824,0.01142534
1.030713,0.02827882,0.05285564,0.006855298,0.001835033,0.001411631,0.0007049273,-0.02701217,0.01117067
1.027451,0.02660337,0.05593843,0.003610261,0.0001660726,0.004494663,0.002000248,-0.02826642,0.01194912
1.022435,0.02417721,0.05406854,-0.00138806,-0.00225366,0.002621945,0.002997532,-0.0260228,0.01521979
1.025513,0.02508307,0.04540256,0.001708416,-0.001341414,-0.006049817,0.008711913,-0.02062064,0.01826296
1.026016,0.02851617,0.03587223,0.002229056,0.002098083,-0.01558852,0.01873293,-0.01476243,0.01641861
1.02348,0.02949596,0.03484605,-0.000287451,0.003084227,-0.01662492,0.02274177,-0.007509403,0.01349646
1.024897,0.02942717,0.04484659,0.00114774,0.003021634,-0.006635597,0.01871722,-0.005667709,0.01267444
1.023364,0.02896272,0.0512373,-0.0003657978,0.00256306,-0.0002564395,0.01452471,-0.006434578,0.01359349
1.02289,0.0290108,0.05215336,-0.0008211261,0.002616571,0.0006480124,0.0172106,-0.002980823,0.01430163
1.024765,0.02902013,0.05108853,0.001073078,0.002630753,-0.0004283896,0.02126746,-0.002133573,0.01302705
1.023868,0.02615131,0.04786039,0.0001951721,-0.0002338742,-0.003668021,0.02237283,-0.002840662,0.01085728
1.025345,0.02426353,0.04761331,0.00169049,-0.002118128,-0.003926391,0.01688467,-0.003630103,0.007725312
1.025316,0.02451237,0.04970032,0.001680257,-0.001866358,-0.001850293,0.007388152,-0.007920758,0.007115134
1.023148,0.02386104,0.05303849,-0.0004696897,-0.002515223,0.001477479,0.009405192,-0.01080963,0.008613801
1.023022,0.02345665,0.05289554,-0.0005783734,-0.002917462,0.001324663,0.01400165,-0.01408412,0.005805057
1.02168,0.02524831,0.04992061,-0.001903342,-0.001123837,-0.001659656,0.01488674,-0.01985111,0.003483758
1.022649,0.02681161,0.05152643,-0.0009179445,0.0004413569,-6.275748e-05,0.02062379,-0.02013677,0.004406489
1.025408,0.02593827,0.04927085,0.001857388,-0.0004301301,-0.002326757,0.01552197,-0.012728,0.004896299
1.026501,0.02647808,0.0436953,0.002967333,0.0001114863,-0.007910124,0.006505972,-0.006447699,0.007246454
1.026115,0.0267857,0.04410095,0.002596228,0.0004208802,-0.007511477,0.01052536,-0.01061758,0.007792815
1.024102,0.02577352,0.05068942,0.0005982976,-0.0005895769,-0.0009289063,0.01077532,-0.01625229,0.007076378
1.02498,0.02684396,0.0577118,0.001490086,0.0004825411,0.006088792,0.008183547,-0.01248273,0.01113727
1.025634,0.02614642,0.05191821,0.002157435,-0.0002133736,0.0002915908,0.009395318,-0.009922604,0.01279294
1.024302,0.02517988,0.04495749,0.0008387087,-0.001178326,-0.00667179,0.005375213,-0.01067149,0.01113268
1.025554,0.02558387,0.04966306,0.00210203,-0.0007727671,-0.001967917,0.00185179,-0.007948209,0.01180314
1.025944,0.0262448,0.04914084,0.002503294,-0.0001102542,-0.002490737,0.002333492,-0.003046764,0.01195779
1.02613,0.02907832,0.04523538,0.002698355,0.002724882,-0.006395611,0.00255717,0.002939628,0.01202751
1.025678,0.02977716,0.04534914,0.002254845,0.003425288,-0.00627994,0.002261404,0.0001899405,0.01330603
1.022423,0.0292622,0.04340616,-0.0009927861,0.002911697,-0.008219483,0.00139694,-0.004858321,0.01277375
1.021758,0.02609723,0.04258663,-0.001651637,-0.0002522107,-0.009033778,0.002526981,0.003073658,0.01005709
1.022208,0.02023649,0.04170513,-0.001195876,-0.006112226,-0.009907946,0.00591417,0.007445282,0.009840375
1.021099,0.0236354,0.04170563,-0.002300859,-0.002712781,-0.009897726,0.009275678,0.003330286,0.01251038
