accx,accy,accz,body_accx,body_accy,body_accz,body_gyrox,body_gyroy,body_gyroz
0.9398903,0.223118,0.3291005,-0.03395812,0.03044936,0.0434335,0.02213849,-0.02452786,0.0146836
0.9394332,0.2227772,0.325576,-0.03392691,0.03002869,0.03915446,0.02025098,-0.03088395,0.01907634
0.9388376,0.2246641,0.3294294,-0.03403774,0.03185241,0.04227881,0.01959666,-0.02288928,0.02422417
0.9382117,0.2263115,0.3304323,-0.03418182,0.03345086,0.04257615,0.01890591,-0.02637145,0.02203127
0.9351017,0.2292783,0.3322356,-0.0368122,0.03638023,0.04369541,0.0185508,-0.03431946,0.02074179
0.9361281,0.2288327,0.3328569,-0.03530784,0.03590616,0.04365223,0.01619642,-0.04442058,0.03186301
0.939167,0.2258704,0.3318227,-0.03179186,0.03292207,0.04197127,0.007713754,-0.05625751,0.04164088
0.9416329,0.2263594,0.3368414,-0.02884933,0.03339375,0.04635922,0.001735499,-0.05185715,0.04191974
0.9438278,0.2277677,0.3402823,-0.02617798,0.03478713,0.04918365,0.005388683,-0.05338277,0.0442752
0.9404147,0.232514,0.3376403,-0.02911467,0.03951889,0.04593764,0.01285494,-0.06568571,0.05025843
0.9346787,0.2381393,0.334,-0.03437397,0.04512829,0.04170419,0.01138953,-0.06790028,0.05012985
0.9322385,0.2367525,0.3298884,-0.03633709,0.0437221,0.03700883,0.002490408,-0.07101215,0.04939809
0.9327404,0.234913,0.3270814,-0.03535717,0.0418578,0.03362641,-0.003243058,-0.0757149,0.05526811
0.9322109,0.2378641,0.32991,-0.03540713,0.04477697,0.0358869,-0.001944801,-0.07638663,0.05544555
0.9296656,0.2389405,0.3337864,-0.03747118,0.04581264,0.03920183,0.001619708,-0.08035124,0.05642327
0.9302126,0.2385111,0.3317955,-0.03644062,0.04533203,0.03665526,-0.004263039,-0.08819339,0.06723852
0.9315237,0.239248,0.3312107,-0.03464338,0.04600593,0.03551958,-0.01060113,-0.1009495,0.07657408
0.9309249,0.237897,0.334722,-0.03475307,0.04457888,0.03848416,-0.0118857,-0.1087908,0.08797009
0.9320497,0.2376104,0.3377817,-0.03313587,0.04420176,0.04100062,-0.01733722,-0.09973664,0.09584093
0.9315214,0.2377203,0.3423085,-0.03316848,0.04420589,0.04498681,-0.01742108,-0.09177529,0.09732335
0.929989,0.2354059,0.3415566,-0.03420172,0.0417695,0.0436959,-0.01352293,-0.1013309,0.1023128
0.9335032,0.2362011,0.3364497,-0.03018464,0.04242582,0.03805092,-0.009177273,-0.1105971,0.1021935
0.9385907,0.2391409,0.3357579,-0.02459081,0.0452092,0.03682111,-0.00539685,-0.107975,0.1044849
0.9410657,0.2433771,0.3323837,-0.02160603,0.04927084,0.03290853,-0.01670826,-0.1025808,0.1129412
0.9389658,0.2494017,0.3237639,-0.0231933,0.05510218,0.02374972,-0.02993021,-0.09687442,0.1215982
0.9359677,0.2511782,0.3146726,-0.02567618,0.05666585,0.01411905,-0.03162369,-0.09866217,0.1359995
0.937825,0.2488074,0.3132119,-0.02330153,0.05406184,0.0121188,-0.03065492,-0.1084899,0.1391749
0.9380777,0.2436473,0.3199943,-0.02252965,0.04864753,0.01836247,-0.02313798,-0.1116088,0.131329
0.9370591,0.2334424,0.3201254,-0.02302762,0.03816694,0.01795604,-0.009104828,-0.1097826,0.1282958
0.9398035,0.2247942,0.3190116,-0.0197614,0.02922166,0.01630652,-0.00452581,-0.1071184,0.1249757
0.941113,0.2251503,0.3232552,-0.01792943,0.02925985,0.02001667,-0.009395482,-0.1020567,0.1225646
0.9419946,0.2253384,0.3246923,-0.01652517,0.0291102,0.02092296,-0.01080727,-0.08973569,0.1216049
0.9435973,0.2197104,0.3260414,-0.01440026,0.02312526,0.02174393,-0.01375187,-0.07204833,0.1198101
0.9429659,0.2185233,0.3267009,-0.01451029,0.02156323,0.02187836,-0.01639085,-0.06893835,0.1109682
0.9419575,0.2209467,0.3264632,-0.0149989,0.02359477,0.0211185,-0.01259192,-0.07343901,0.09985605
0.9416237,0.2213181,0.3222619,-0.01481508,0.02355857,0.01639838,-0.01306203,-0.07301378,0.1017465
0.9427085,0.222671,0.3133047,-0.01321526,0.02448908,0.006925727,-0.01318524,-0.07583454,0.1003811
0.9445376,0.224043,0.3142934,-0.01087419,0.02542488,0.007402951,-0.01240131,-0.07219238,0.09331994
0.9455878,0.223661,0.3173707,-0.009315841,0.02459389,0.009973503,-0.01659554,-0.06449897,0.09323403
0.9460843,0.2220722,0.3158571,-0.008315346,0.02254424,0.007958317,-0.01971897,-0.0663914,0.08689776
0.9454516,0.2201662,0.3185662,-0.008448903,0.0201662,0.01017164,-0.02414101,-0.0705339,0.07822325
0.9439639,0.2194014,0.3168396,-0.009443052,0.01891944,0.007955644,-0.02326289,-0.07247863,0.07603714
0.9422328,0.2214661,0.3143953,-0.01068639,0.02049315,0.00502859,-0.01850253,-0.06835295,0.07261702
0.9410116,0.225905,0.3197603,-0.01142617,0.0244329,0.009918016,-0.02008128,-0.05841995,0.072153
0.9401696,0.2268912,0.3240915,-0.01179348,0.02491274,0.0137811,-0.01866905,-0.05350934,0.07363099
0.9405551,0.2234214,0.325046,-0.01093998,0.02093003,0.01427526,-0.01932734,-0.05128841,0.06492313
0.9443814,0.2185619,0.3249742,-0.006652808,0.0155517,0.01375074,-0.02265019,-0.04660712,0.05628891
0.9478349,0.2163996,0.3237446,-0.002745849,0.01286565,0.01207606,-0.01568165,-0.04232566,0.06026022
0.9470932,0.2229855,0.3188574,-0.003041906,0.0189238,0.006751565,-0.008916211,-0.03602185,0.0613743
0.9437879,0.2301825,0.3131952,-0.005909794,0.02559002,0.0006598418,-0.00966519,-0.02714322,0.05352392
0.940306,0.2290705,0.3150216,-0.008962987,0.02394464,0.002064969,-0.01375856,-0.02333177,0.04679441
0.9387377,0.228742,0.3177843,-0.01011134,0.02308069,0.004415027,-0.01674697,-0.02608528,0.0412739
0.9393364,0.2321895,0.3149288,-0.009101494,0.02599094,0.001156001,-0.01287053,-0.02532963,0.0376026
0.9416373,0.2311147,0.3150674,-0.006398338,0.02437746,0.0009003485,-0.007884109,-0.01067279,0.03384558
0.943506,0.2271692,0.3198578,-0.004136269,0.0198923,0.005306169,-0.004575774,0.01741341,0.02365074
0.9412005,0.2262644,0.3240687,-0.006057486,0.01844711,0.009142262,-0.000228338,0.04148439,0.009129463
0.9370143,0.2265714,0.3295596,-0.009868593,0.01821362,0.01426818,8.134431e-07,0.04871489,-0.003544441
0.9352214,0.2270015,0.3345177,-0.01129545,0.01810353,0.01887071,-9.782449e-05,0.05315372,-0.01115374
0.9348711,0.2300974,0.3326621,-0.01128857,0.0206601,0.01666845,0.004197805,0.05923492,-0.01630591
0.93618,0.234204,0.3281318,-0.009631258,0.02422874,0.01179979,0.003571372,0.06143885,-0.02215854
0.9380781,0.2348872,0.3251333,-0.007393243,0.02437544,0.00847099,0.002929386,0.07309095,-0.03262146
0.9358181,0.2342155,0.3212127,-0.009321605,0.02316886,0.00422777,0.01269996,0.08638279,-0.04958762
0.9330291,0.2360282,0.3219799,-0.01178718,0.02444843,0.004680021,0.01999883,0.08869038,-0.06450798
0.9320017,0.2391665,0.3284251,-0.012499,0.02705537,0.01081807,0.0180474,0.09270221,-0.07591657
0.9282018,0.2430713,0.3318441,-0.01599106,0.03043073,0.01393754,0.01639928,0.1059,-0.08949657
0.9263486,0.2445765,0.3332628,-0.01754346,0.03140812,0.01506392,0.01769371,0.1317422,-0.09736138
0.92791,0.2449276,0.3352013,-0.01568787,0.03123281,0.01671678,0.01775596,0.1573054,-0.09676514
0.927587,0.2500735,0.336231,-0.01572274,0.03585336,0.01746725,0.01638073,0.1781508,-0.1032073
0.926171,0.256385,0.3351856,-0.01685633,0.04164018,0.01614829,0.01866118,0.2043763,-0.1106881
0.9187948,0.2609004,0.3350797,-0.02395511,0.04563105,0.0157739,0.02590649,0.2277713,-0.09814089
0.9058047,0.2585927,0.3474497,-0.03667218,0.04279814,0.02788018,0.03784701,0.2571129,-0.08818985
0.9016782,0.2507168,0.3708561,-0.04052884,0.03439563,0.05102649,0.04559816,0.2667493,-0.1109977
0.9057197,0.2499577,0.3866374,-0.0362194,0.03310799,0.06654985,0.04349356,0.2351311,-0.1572169
0.9049629,0.2509032,0.3844317,-0.03670871,0.03352294,0.06408599,0.04581751,0.2218519,-0.2078176
0.8973358,0.2537996,0.3819866,-0.04406764,0.03588659,0.06138006,0.04879535,0.2331281,-0.2374081
0.8895904,0.2669477,0.3915318,-0.05154268,0.04849943,0.07065921,0.04852833,0.238564,-0.2415076
0.8879796,0.2789243,0.3935346,-0.05287954,0.05993781,0.07238859,0.05685574,0.2420455,-0.2483256
0.8854947,0.2853786,0.3931242,-0.05508517,0.06584963,0.0716949,0.06198931,0.2398751,-0.2532356
0.8734219,0.2947694,0.3970418,-0.06687172,0.07469253,0.07531722,0.05892813,0.2296649,-0.2422382
0.8625646,0.3130881,0.3937753,-0.0774339,0.09245586,0.07174127,0.05640325,0.2045244,-0.234266
0.8605026,0.3300687,0.4019884,-0.07918963,0.1088715,0.07962877,0.05213712,0.1876528,-0.2358123
0.8596527,0.3410037,0.4198184,-0.07971984,0.1192289,0.09711511,0.04354503,0.1958861,-0.2402785
0.8547835,0.3564655,0.4340317,-0.08425369,0.1340972,0.1109644,0.03352394,0.1929737,-0.2452074
0.8447042,0.3603799,0.4442935,-0.0939796,0.1373984,0.1208389,0.0376204,0.1779245,-0.2408408
0.8310886,0.3601832,0.4414009,-0.1072215,0.1365651,0.1175326,0.05604872,0.1722156,-0.2161386
0.8182184,0.3745778,0.4446515,-0.1196951,0.1502959,0.1203401,0.06974273,0.1758081,-0.1673086
0.8151593,0.3756929,0.4540638,-0.1223314,0.1507164,0.129277,0.07012002,0.1819623,-0.1232311
0.821933,0.3715867,0.4525992,-0.1151058,0.1458814,0.1273019,0.05493665,0.1870674,-0.1229304
0.8262416,0.3739095,0.4529506,-0.1103135,0.1474379,0.1271051,0.03843536,0.1921382,-0.1553001
0.8322264,0.3626809,0.4523072,-0.1038109,0.1354029,0.1258735,0.0356885,0.1895409,-0.1887173
0.8333376,0.3614332,0.4495888,-0.1021461,0.1333064,0.1225249,0.04606969,0.1842425,-0.2092547
0.8180826,0.3823049,0.4486092,-0.1168107,0.1532853,0.1208714,0.05685677,0.181036,-0.2131175
0.8046893,0.404802,0.4476914,-0.1295749,0.1748436,0.1192348,0.04597819,0.1731266,-0.1974829
0.7969339,0.4136679,0.4505474,-0.136661,0.1827222,0.1213261,0.02367388,0.1658334,-0.1661426
0.7968283,0.4046587,0.4500375,-0.136055,0.1726745,0.1200049,0.006113156,0.1612876,-0.1462042
0.8033664,0.3979111,0.451648,-0.1287611,0.1648347,0.1207567,0.0001502234,0.1616097,-0.1475316
0.7996804,0.3933546,0.4636441,-0.1316455,0.1591303,0.1318462,0.02483136,0.16554,-0.159615
0.7962683,0.3932938,0.4799129,-0.1342089,0.1578648,0.14716,0.05434653,0.1650561,-0.1787124
0.7887145,0.4165451,0.4873987,-0.1408658,0.1798537,0.1536414,0.05614945,0.1633568,-0.1817479
0.7745801,0.4413312,0.4777257,-0.1540538,0.2033184,0.1429131,0.03376887,0.1591663,-0.1752006
0.7689419,0.4493661,0.4749045,-0.1586949,0.2099709,0.1389849,-0.006627552,0.1500475,-0.1831598
0.7584118,0.444496,0.4865853,-0.1681753,0.2036555,0.1495064,-0.02927222,0.1381998,-0.1910078
0.7527776,0.4422435,0.492773,-0.1727056,0.1998923,0.1544817,-0.01244943,0.1219301,-0.1945431
0.759347,0.4516904,0.4927053,-0.1649765,0.2077617,0.1531482,0.0069331,0.1123886,-0.1761833
0.7606194,0.4515928,0.4907217,-0.1624869,0.2060184,0.1498447,0.00979659,0.1308575,-0.1342217
0.7592873,0.4475965,0.4926352,-0.1625435,0.2003072,0.150384,0.01965097,0.174326,-0.1143217
0.7557655,0.4468363,0.4986724,-0.1647307,0.1977619,0.1549926,0.03632768,0.2018646,-0.110684
0.750514,0.4438371,0.5041583,-0.168588,0.1929072,0.1589953,0.04084436,0.1950466,-0.1116914
0.7445123,0.4463113,0.5080303,-0.1731354,0.1934556,0.1613296,0.04297011,0.1869548,-0.122008
0.7401758,0.4413732,0.5068353,-0.1759572,0.1865218,0.1585424,0.04330294,0.1894663,-0.1229783
0.7390247,0.4363168,0.512589,-0.1755325,0.1794007,0.1626492,0.04332746,0.1857744,-0.1279432
0.7328952,0.4427014,0.5231304,-0.1800249,0.1836526,0.1714894,0.06150542,0.1756989,-0.1412349
0.7310489,0.4523693,0.5238023,-0.1801726,0.1911212,0.1704056,0.07420354,0.1721848,-0.1519257
0.732866,0.4664266,0.5235645,-0.1765953,0.2029136,0.1683578,0.06537815,0.1938328,-0.1593701
0.7272287,0.4709977,0.524527,-0.1804106,0.2051552,0.1674559,0.06355181,0.2340839,-0.1475634
0.7205357,0.4766893,0.5274562,-0.1852202,0.2084533,0.1684668,0.06670577,0.2579118,-0.139992
0.7109349,0.492607,0.5347256,-0.1928765,0.2219139,0.1737646,0.06151161,0.261456,-0.1544971
0.6916613,0.4924544,0.5376229,-0.2101442,0.2192407,0.1746373,0.06364503,0.2524169,-0.1694196
0.6728858,0.4930254,0.5397102,-0.2268519,0.2172281,0.1746474,0.06415164,0.2272785,-0.1816322
0.6667087,0.5145101,0.5478652,-0.2308985,0.2360664,0.1806732,0.05109025,0.1988743,-0.1754649
0.6567003,0.5328078,0.5592709,-0.238712,0.2516547,0.1898978,0.03565417,0.1569824,-0.1578029
0.6418674,0.5354731,0.5646431,-0.2512843,0.2515473,0.1930375,0.0152401,0.1149909,-0.1445999
0.6401307,0.5445619,0.570204,-0.2506931,0.2577993,0.1963144,0.0009536538,0.1163217,-0.1103094
0.6213315,0.5775706,0.595832,-0.2670952,0.2879062,0.2196066,0.0007619609,0.1172185,-0.06832098
0.5899247,0.6086095,0.6244034,-0.2960339,0.3159768,0.2457898,0.003520534,0.09450796,-0.03916918
0.5814632,0.6135196,0.6239217,-0.3019538,0.3178495,0.242866,0.002174054,0.08551073,-0.006490767
0.5575661,0.6192407,0.6049656,-0.3232325,0.3204614,0.2214122,-0.01298615,0.0584168,0.04379893
0.5200093,0.6408358,0.5939948,-0.3580907,0.3388726,0.207887,-0.0304832,-0.01190965,0.1115263
0.5310356,0.6353739,0.5892481,-0.3442813,0.3301492,0.2005291,-0.04452922,-0.1039766,0.1645241
0.5693994,0.5970757,0.5848368,-0.3030462,0.2885098,0.1934507,-0.0564163,-0.1830003,0.1854735
0.5940022,0.5609947,0.5810905,-0.2754814,0.2490069,0.1869823,-0.05569971,-0.2060716,0.1903787
0.6141301,0.530371,0.5739331,-0.2523006,0.2148819,0.1770497,-0.05864893,-0.195915,0.1904418
0.6264241,0.5174846,0.5711345,-0.2368639,0.1984181,0.1714247,-0.06905497,-0.1758405,0.1870704
0.6578455,0.4986461,0.5657305,-0.2022127,0.1759306,0.1631456,-0.06499997,-0.1325859,0.1732409
0.7016483,0.469127,0.5572415,-0.1550969,0.1426966,0.1517357,-0.04510492,-0.09886733,0.1507838
0.6854756,0.4767756,0.5597252,-0.1678792,0.146571,0.1512556,-0.0160797,-0.07542364,0.1186403
0.6692849,0.4699553,0.5559835,-0.1806081,0.1359242,0.1445109,0.01641818,-0.05578732,0.07875361
0.6826998,0.462015,0.5561653,-0.1636659,0.1241121,0.1416538,0.0296283,-0.07050694,0.0446186
0.6606221,0.4968001,0.5651171,-0.1821564,0.1549871,0.1475342,0.02553247,-0.07138232,0.02372001
0.6626992,0.5025075,0.558174,-0.1764371,0.1567523,0.1374905,0.03037807,-0.04145616,0.01824242
0.6764071,0.5055843,0.5564519,-0.1590373,0.1558601,0.1326422,0.03628601,-0.02478057,0.002764202
0.6551232,0.5176214,0.5610708,-0.1765843,0.163906,0.1341124,0.05012082,-0.01555305,-0.02086389
0.6499882,0.5190002,0.5604771,-0.1779421,0.1612759,0.1303511,0.06824897,-0.02042918,-0.02168701
0.6336801,0.5488629,0.5657736,-0.1904369,0.1871155,0.132464,0.0601685,-0.01839472,-0.01964766
0.6174638,0.5599294,0.5653509,-0.2028074,0.1941479,0.1288451,0.05274612,-0.005389974,-0.02318259
0.6276469,0.5553509,0.5651257,-0.1887487,0.1855263,0.1254139,0.05593971,-0.02682951,-0.02093158
0.6231536,0.556561,0.572014,-0.1893395,0.1826865,0.1290893,0.05577722,-0.04483937,-0.02248269
0.6244816,0.5447226,0.5726842,-0.1840848,0.1667935,0.1265425,0.06066007,-0.03640629,-0.02298533
0.6307842,0.5519003,0.5653488,-0.1738345,0.1699142,0.1159885,0.05284118,-0.01030624,-0.01928904
0.6258542,0.5555485,0.5562188,-0.1747984,0.1695055,0.103641,0.03235309,0.03100021,-0.0177144
0.6195215,0.5542215,0.5595464,-0.1771502,0.1641243,0.1037554,0.02206885,0.03541667,-0.01508848
0.6071605,0.5640397,0.5671704,-0.185518,0.1698929,0.1081734,0.02615239,0.009013433,-0.004104477
0.6031117,0.5639232,0.5678843,-0.185564,0.1657338,0.1056911,0.03308577,-0.01591908,0.01248956
0.5970705,0.5682698,0.5734864,-0.1875947,0.1660466,0.1081097,0.02922181,-0.04425772,0.01994884
0.585469,0.5654565,0.5765852,-0.1951802,0.1592102,0.1080397,0.02495075,-0.05319908,0.02425911
0.5884535,0.5627294,0.5745399,-0.1881754,0.1524725,0.1028425,0.02044806,-0.04449034,0.04052173
0.5916159,0.5752991,0.5761372,-0.1809902,0.1610463,0.1013067,0.002852579,-0.03848302,0.05235279
0.5930941,0.5792024,0.5775671,-0.1754881,0.1609699,0.09962436,-0.02458599,-0.02282788,0.05464317
0.5942462,0.5785093,0.5818973,-0.1703131,0.1563147,0.1008648,-0.05473369,-0.006328343,0.07096835
0.5891805,0.5727436,0.586345,-0.1713589,0.1466063,0.102247,-0.07117356,-0.008209151,0.09264155
0.587023,0.5631436,0.5848799,-0.1695013,0.1330844,0.09774188,-0.07667991,-0.01269519,0.09854993
0.5824669,0.5556907,0.5823638,-0.1700489,0.1217324,0.09221283,-0.08070346,-0.02301005,0.09488745
0.5774066,0.5542201,0.5803986,-0.1711092,0.1163879,0.08726303,-0.0797193,-0.06072839,0.09345126
0.5792832,0.5623556,0.5798127,-0.1652426,0.1206773,0.08372243,-0.09082839,-0.1119558,0.1007706
0.5851642,0.5611604,0.5806771,-0.1553832,0.1156662,0.08166334,-0.1031209,-0.1483717,0.1104059
0.5992243,0.5616548,0.5798277,-0.1373581,0.112377,0.07792333,-0.09901291,-0.1590478,0.1165359
0.611788,0.5644964,0.5776925,-0.1208453,0.1114695,0.07293161,-0.09302419,-0.1702004,0.120546
0.6146509,0.5564608,0.5782593,-0.1140519,0.09972129,0.07067768,-0.08425412,-0.1871192,0.1229179
0.6146168,0.5541286,0.578238,-0.1101776,0.09371511,0.06787261,-0.07605584,-0.1802712,0.1269218
0.6130508,0.5513836,0.5743298,-0.1078604,0.08733689,0.06121916,-0.0658726,-0.1667906,0.1263735
0.6120333,0.5561807,0.5741256,-0.1050231,0.08854387,0.05830949,-0.05813937,-0.1534279,0.1246588
0.6037918,0.5702406,0.5767847,-0.1094413,0.09905888,0.0583044,-0.07045321,-0.1381908,0.1254466
0.5902751,0.5729278,0.5765865,-0.1191686,0.09824783,0.05548452,-0.08078489,-0.1478619,0.1223025
0.5899118,0.575191,0.5764348,-0.1157786,0.09706073,0.05275479,-0.08473014,-0.1588146,0.1296967
0.5949444,0.5707566,0.57833,-0.1070304,0.08922486,0.05211677,-0.08606118,-0.1633727,0.144011
0.5967799,0.5612861,0.5798004,-0.1015187,0.07640291,0.05109966,-0.07128617,-0.1754088,0.1489429
0.6012417,0.5623898,0.5798528,-0.09342191,0.07420621,0.04871112,-0.05341058,-0.1643676,0.1494312
0.6026928,0.561103,0.5832571,-0.08837916,0.06967165,0.04972178,-0.04249002,-0.1486159,0.1482725
0.5996859,0.5549672,0.5897143,-0.08783939,0.06034196,0.0538332,-0.04873441,-0.1528954,0.1476603
0.5967364,0.547349,0.5926288,-0.08728929,0.04958533,0.0544499,-0.05738642,-0.1580869,0.1432381
0.5926832,0.5446884,0.5908577,-0.08789152,0.04384353,0.05042929,-0.04375208,-0.1791603,0.1385738
0.5928,0.5464659,0.5871827,-0.08437373,0.04259869,0.04455294,-0.03542856,-0.2144407,0.1412858
0.6008326,0.5434872,0.5817104,-0.07299152,0.03665853,0.03692741,-0.03298159,-0.2275146,0.1391841
0.6090857,0.5460726,0.5747421,-0.06144159,0.03634478,0.02785454,-0.02333557,-0.2196896,0.1338639
0.613023,0.5496125,0.5706573,-0.05426205,0.03704937,0.02171427,-0.0235171,-0.215998,0.1297795
0.6114996,0.5497612,0.5697567,-0.05259945,0.03442786,0.01880813,-0.02951508,-0.2156795,0.1249431
0.6096713,0.5541829,0.5685806,-0.05129998,0.03614551,0.01567713,-0.03452282,-0.2090368,0.1253389
0.6121386,0.5532235,0.5650239,-0.0457648,0.03254894,0.01021692,-0.02846991,-0.2033499,0.1296877
0.6112813,0.5504142,0.5645488,-0.04361562,0.02717004,0.007890617,-0.01572773,-0.189866,0.1331684
0.6112086,0.5511348,0.5712626,-0.04074466,0.02538909,0.01280629,-0.01646524,-0.1748766,0.1270638
0.6132396,0.5503006,0.572336,-0.03583435,0.02212209,0.01213505,-0.01808404,-0.1792732,0.1171853
0.609266,0.5542618,0.5684183,-0.03699398,0.02371956,0.00652655,-0.0178508,-0.1809914,0.1176262
0.6080885,0.5587106,0.5700841,-0.03542395,0.02587381,0.006555633,-0.0199201,-0.1810825,0.1180777
0.6123164,0.5560786,0.5714201,-0.02851587,0.02101672,0.006309084,-0.01697733,-0.1888508,0.1168748
0.6158579,0.5542699,0.5719441,-0.02236248,0.01705212,0.005305029,-0.01487248,-0.18638,0.1202599
0.6161413,0.5548018,0.5709768,-0.01953608,0.01549715,0.002863852,-0.01454091,-0.1884924,0.1227594
0.6147958,0.5522731,0.5667155,-0.01840855,0.01095055,-0.002817064,-0.01734081,-0.1948167,0.1247674
0.6185516,0.5504765,0.5644562,-0.01225032,0.007204888,-0.006441857,-0.02012901,-0.1945734,0.1224751
0.621451,0.5533241,0.5600469,-0.007019808,0.008172058,-0.01216245,-0.01795326,-0.1987918,0.1175413
0.6207286,0.5568805,0.5560579,-0.005483096,0.009916276,-0.01740843,-0.01593782,-0.1968784,0.1202814
0.6209974,0.5587429,0.5570251,-0.003027781,0.01003456,-0.01764361,-0.01526767,-0.1904546,0.1253156
0.6205743,0.557079,0.5553308,-0.001337384,0.006693664,-0.02048545,-0.02228678,-0.1888031,0.126422
0.6215369,0.5543719,0.5539311,0.001665244,0.002376244,-0.02297786,-0.02993819,-0.185663,0.1200861
0.6235789,0.5567595,0.5554458,0.005673476,0.003219332,-0.02250076,-0.02831267,-0.1839024,0.1076689
0.6249927,0.5587717,0.5545767,0.008979556,0.003752188,-0.02435241,-0.02774925,-0.1775389,0.1030269
0.6230196,0.5579625,0.5539265,0.008824661,0.001528005,-0.02593013,-0.02907426,-0.1664153,0.1045684
0.6201656,0.558268,0.554239,0.007714662,0.0004818705,-0.02649042,-0.03113568,-0.1608654,0.1086045
0.6268093,0.5559635,0.5551271,0.01602841,-0.003111875,-0.02642047,-0.0328237,-0.152135,0.1158165
0.6343571,0.5521211,0.5596926,0.02517226,-0.008181981,-0.02261898,-0.02909547,-0.1385319,0.1119548
0.6338671,0.5503331,0.5631246,0.02620453,-0.01113688,-0.01989742,-0.02534369,-0.1252043,0.1040465
0.6319865,0.5494134,0.5586651,0.02577212,-0.01316359,-0.0250145,-0.0240611,-0.1144292,0.1025951
0.6289047,0.5486031,0.553081,0.02406465,-0.01502157,-0.03120424,-0.02351852,-0.1177136,0.09793092
0.6252098,0.5484326,0.5554442,0.02167054,-0.01618128,-0.02939543,-0.02476186,-0.1231584,0.09735869
0.6262439,0.5507301,0.5562824,0.02393237,-0.01481509,-0.02906101,-0.03085765,-0.1206547,0.1015616
0.6300867,0.5520894,0.5507229,0.02893068,-0.01433016,-0.03507441,-0.04086613,-0.1235123,0.1047148
0.6310294,0.5509565,0.548718,0.03095733,-0.01628152,-0.03748416,-0.0447522,-0.1167075,0.1103571
0.630465,0.5503431,0.5473995,0.03140607,-0.01765841,-0.03915896,-0.03917988,-0.09072524,0.1090264
0.630644,0.5488693,0.5449798,0.03252801,-0.01984181,-0.04188693,-0.0326281,-0.05976387,0.1052762
0.6296375,0.5485194,0.5461664,0.03239538,-0.02084835,-0.0409612,-0.02989562,-0.04147486,0.1021023
0.6271619,0.5507963,0.5483694,0.03072537,-0.01917614,-0.03897234,-0.0295674,-0.05216591,0.08952946
0.6242716,0.5529562,0.5519398,0.02857347,-0.01757013,-0.0355701,-0.03208385,-0.06350957,0.08215761
0.6261395,0.5543323,0.5552199,0.0311141,-0.01669841,-0.03241302,-0.03673103,-0.06660682,0.0823092
0.628944,0.555211,0.5569874,0.03452679,-0.0162758,-0.03072473,-0.04073284,-0.08711721,0.07962135
0.6246382,0.5573377,0.5595279,0.03076605,-0.0145583,-0.02822087,-0.04087416,-0.1126248,0.0797332
0.6222936,0.5603934,0.5613057,0.02890493,-0.01186658,-0.02643873,-0.04043054,-0.1302423,0.08094726
0.6246181,0.563441,0.5619474,0.03165288,-0.009139123,-0.02575309,-0.04830675,-0.1232468,0.08163734
0.6263345,0.5637968,0.5585518,0.03373419,-0.009061461,-0.02906685,-0.05394863,-0.09628341,0.08350129
0.6281038,0.5577654,0.5540234,0.03581153,-0.01533084,-0.03347702,-0.04580546,-0.07978806,0.08451137
0.6254782,0.5517677,0.5576357,0.03343848,-0.02152782,-0.0297116,-0.03144111,-0.07110632,0.08360921
0.6188229,0.5511415,0.5644311,0.02698208,-0.02231616,-0.0227295,-0.01679069,-0.08085254,0.08310511
0.6141336,0.5531956,0.5679575,0.02243968,-0.02038791,-0.01898436,-0.01369834,-0.1006592,0.09110881
0.6142385,0.5583875,0.5690727,0.02264161,-0.01528711,-0.0176203,-0.02858176,-0.1091245,0.09939765
0.6207854,0.5645085,0.5623562,0.02923766,-0.009223728,-0.02405968,-0.04077923,-0.1096133,0.09657343
0.6275444,0.5627724,0.5537168,0.03599998,-0.01098549,-0.03239527,-0.03573432,-0.09668695,0.09490044
0.6273276,0.5554476,0.5571468,0.03574243,-0.0183057,-0.02863623,-0.02744839,-0.09354848,0.09728152
0.625163,0.5512443,0.5632087,0.03349444,-0.02247552,-0.0222212,-0.02315446,-0.09158461,0.09226199
0.6258203,0.5480176,0.5634767,0.03402724,-0.02564117,-0.02157758,-0.01640198,-0.08002752,0.08420556
0.625067,0.5486456,0.5641985,0.03310981,-0.0249254,-0.02045897,-0.01764135,-0.08253914,0.08127404
0.6243204,0.5550121,0.5638146,0.03216128,-0.01844535,-0.02042651,-0.02312486,-0.07544961,0.082337
0.6256146,0.5603094,0.5620915,0.03321717,-0.01300983,-0.02171515,-0.02280094,-0.07672141,0.08555332
0.6248354,0.5653212,0.55992,0.03216502,-0.007836533,-0.0234355,-0.03041365,-0.08846965,0.08680082
0.6243681,0.565303,0.5572103,0.03139153,-0.007671426,-0.02567864,-0.03576617,-0.08031255,0.08655398
0.6236824,0.5599391,0.5576674,0.03036819,-0.01283197,-0.02474077,-0.03059487,-0.08373943,0.08776528
0.6211124,0.5575634,0.5565215,0.02743069,-0.01498554,-0.02539256,-0.02913767,-0.08801376,0.08741925
0.6210723,0.5575823,0.5527939,0.02699493,-0.0147272,-0.02861392,-0.0283056,-0.08683326,0.08729094
0.6202117,0.5593693,0.5511826,0.0257121,-0.01268448,-0.02970767,-0.0278741,-0.0871661,0.08655479
0.6185729,0.5591949,0.5481822,0.02362629,-0.01258818,-0.03217994,-0.02782154,-0.07590507,0.08364863
0.619758,0.5592182,0.5472315,0.02434139,-0.01228036,-0.03259242,-0.02395307,-0.07824171,0.08168949
0.6196032,0.5608414,0.5498839,0.02369523,-0.01035989,-0.02939247,-0.02280858,-0.08141897,0.07905488
0.6192861,0.5585091,0.54841,0.02286721,-0.01238325,-0.03030999,-0.02795239,-0.07780445,0.07643854
0.6209711,0.5576757,0.5482528,0.02402318,-0.01289728,-0.02990253,-0.03379006,-0.07871989,0.07021999
0.6227797,0.5555821,0.5513558,0.0252863,-0.01466207,-0.02622734,-0.030472,-0.06742255,0.06228578
0.6244039,0.5539192,0.5522287,0.02634995,-0.0159875,-0.02477527,-0.02569268,-0.05946629,0.06345327
0.6246285,0.5568377,0.5560673,0.02600023,-0.01272365,-0.02035133,-0.02730086,-0.0560192,0.06289869
0.6244807,0.554656,0.5595787,0.02526555,-0.01455295,-0.01624936,-0.0268282,-0.04827324,0.05251001
0.6234623,0.5546771,0.5575524,0.02364893,-0.01417313,-0.01768087,-0.02854769,-0.0431774,0.04682608
0.6194598,0.5571869,0.5568863,0.0190381,-0.01129902,-0.01774901,-0.03096202,-0.03566759,0.05205142
0.6149204,0.5562263,0.5605756,0.01388156,-0.01189053,-0.01345951,-0.0271838,-0.03793069,0.05959293
0.6116229,0.5608795,0.5639904,0.009959534,-0.0068641,-0.009443346,-0.02458828,-0.05358445,0.06274391
0.6130133,0.5642135,0.5625819,0.01071983,-0.003153756,-0.01025038,-0.02380202,-0.06428124,0.06461903
0.6180408,0.5620403,0.560774,0.0151129,-0.004948304,-0.01145778,-0.02350242,-0.06446355,0.06693173
0.6180645,0.5622579,0.5593034,0.01449949,-0.004350732,-0.01233002,-0.0239878,-0.06776856,0.06465514
0.6149884,0.5622698,0.5562562,0.01078468,-0.003958543,-0.01478172,-0.02279478,-0.07384178,0.06085479
0.6133999,0.5597153,0.5583894,0.008557096,-0.006133185,-0.01205674,-0.02241919,-0.0715682,0.06297077
0.6132886,0.5583474,0.5595981,0.007807688,-0.007122522,-0.01026057,-0.02350688,-0.07068586,0.06709361
0.6146328,0.5625647,0.5565601,0.008515925,-0.002528431,-0.01271606,-0.02481459,-0.06676486,0.06928867
0.6136948,0.5668982,0.5564614,0.006945247,0.002179295,-0.01223793,-0.02802992,-0.06394375,0.07025022
0.6134665,0.5632843,0.5556707,0.006088714,-0.001063748,-0.01245805,-0.03168949,-0.07004161,0.06513767
0.6145786,0.5591171,0.557666,0.006578067,-0.004864091,-0.009898865,-0.0306324,-0.06755036,0.05958213
0.6137106,0.5600978,0.5615465,0.005093821,-0.003521148,-0.005461571,-0.02814191,-0.06858383,0.06086883
0.6158064,0.5616225,0.559316,0.006580662,-0.001639409,-0.007143133,-0.02854201,-0.07161791,0.06090491
0.6174864,0.5626611,0.5591771,0.007659947,-0.0002493867,-0.006741511,-0.02634653,-0.0643789,0.06047186
0.6163886,0.5616974,0.5601692,0.005970354,-0.0008677446,-0.005217625,-0.02512212,-0.06182373,0.06177999
0.6163548,0.5584797,0.5573359,0.005354177,-0.003746617,-0.007528623,-0.02816087,-0.05788179,0.06011004
0.6148443,0.5578958,0.5566192,0.003271519,-0.003998602,-0.007732821,-0.02789742,-0.05483921,0.05942478
0.6135604,0.558535,0.5570323,0.001426168,-0.003034552,-0.006817316,-0.02756083,-0.06119008,0.05921027
0.6146024,0.5582309,0.5582901,0.001918158,-0.003021102,-0.005067445,-0.0290959,-0.06571472,0.05685034
0.615821,0.5582631,0.560537,0.002598648,-0.002678826,-0.002339187,-0.02627005,-0.0614906,0.05446657
0.6152185,0.5575295,0.561435,0.001470436,-0.003110059,-0.0009708601,-0.02297201,-0.05330894,0.05058666
0.6135397,0.5575693,0.5614287,-0.0007211719,-0.002775561,-0.0005182943,-0.02347784,-0.05195131,0.04918671
0.6122559,0.558602,0.5606731,-0.002504394,-0.001456043,-0.0008267692,-0.02417167,-0.05050296,0.05537286
0.6103459,0.5588375,0.5612469,-0.004899946,-0.0009417905,0.0001820145,-0.02374145,-0.05000205,0.06250534
0.610894,0.5597861,0.5615265,-0.00482307,0.0002775617,0.0008841502,-0.02283112,-0.06085808,0.06247759
0.6116266,0.5607498,0.5615804,-0.004546965,0.001503791,0.001347927,-0.0203143,-0.07440635,0.05924085
0.6098019,0.55979,0.5634896,-0.006812868,0.0007980399,0.003653939,-0.01626505,-0.08650736,0.05888332
0.6112595,0.5596291,0.5642651,-0.005780805,0.0008827438,0.004813046,-0.01093264,-0.09365433,0.0581767
0.6150328,0.5628116,0.5654867,-0.002417036,0.004302226,0.006404665,-0.007360865,-0.09779294,0.05661775
0.6176849,0.5640847,0.5658851,-0.0001584907,0.005803381,0.007159263,-0.009426541,-0.09914303,0.05478538
0.6168051,0.5602115,0.5635264,-0.001415625,0.002149329,0.005142544,-0.01169919,-0.08618544,0.0518383
0.6135356,0.5575834,0.5601995,-0.005046345,-0.0002688151,0.002143291,-0.01189102,-0.06909751,0.05254155
0.6121297,0.561061,0.5552951,-0.006797532,0.003409596,-0.00244788,-0.01323358,-0.06468529,0.05394579
0.6106389,0.5655921,0.5555405,-0.008617409,0.008132429,-0.001903496,-0.01072855,-0.07357228,0.05535379
0.6123585,0.5633744,0.5597766,-0.00721061,0.006097143,0.002617687,-0.007565302,-0.08211189,0.05915914
0.6171721,0.5586706,0.5605116,-0.002693632,0.001566312,0.003624013,-0.01206731,-0.08194795,0.05577466
0.6186106,0.5577605,0.5607492,-0.001535491,0.0008197047,0.004119263,-0.01596547,-0.07704411,0.05027823
0.618235,0.5582303,0.5569035,-0.002175602,0.00144382,0.0005178042,-0.01433165,-0.06497978,0.05213225
0.6167561,0.5590444,0.5522008,-0.003903355,0.002403159,-0.003953995,-0.01428738,-0.05379864,0.05521449
0.6168503,0.5599799,0.5552427,-0.004042755,0.003474969,-0.0006941164,-0.01572354,-0.05048085,0.05751365
0.6197408,0.5614566,0.5566231,-0.001370891,0.005079104,0.0008918191,-0.01557067,-0.04790656,0.05808875
0.6209467,0.5617118,0.5548698,-0.0003689504,0.005453066,-0.0006680416,-0.01581628,-0.04326136,0.05713226
0.6195434,0.5601842,0.5557201,-0.001962046,0.004035616,0.0003638652,-0.01673504,-0.03776219,0.05482633
0.61696,0.5605325,0.5558635,-0.004721405,0.004485323,0.0006774781,-0.01727994,-0.036582,0.05006923
0.6178621,0.5596722,0.5566187,-0.003981914,0.003718082,0.001591843,-0.01850684,-0.03526102,0.04798876
0.61896,0.5590876,0.5591282,-0.003033465,0.003218163,0.004249629,-0.01945895,-0.0331397,0.04716187
0.617221,0.5609717,0.5599696,-0.004909199,0.005178859,0.005228895,-0.01816267,-0.03751266,0.04256598
0.6183677,0.5620496,0.5568803,-0.003886766,0.006325259,0.002266975,-0.01686794,-0.0392989,0.03617904
0.6181262,0.564418,0.5507181,-0.004240619,0.008754309,-0.00377794,-0.0178996,-0.0341015,0.03643227
0.6164137,0.5637331,0.5488075,-0.006053634,0.008122304,-0.005580846,-0.01887701,-0.02998591,0.04200434
0.6160699,0.5611354,0.5574486,-0.006486566,0.005569563,0.003158684,-0.01732684,-0.03544422,0.04083503
0.6147518,0.563006,0.5668528,-0.007882671,0.00747738,0.01265265,-0.01379861,-0.04341328,0.03876572
0.6162652,0.5631392,0.5638404,-0.006436405,0.007640077,0.009721417,-0.01087675,-0.0407576,0.03937649
0.617319,0.5636605,0.5600798,-0.00543902,0.008183331,0.006033082,-0.01298351,-0.03543385,0.03689342
0.6162458,0.5658392,0.5637608,-0.006558347,0.01037656,0.009777666,-0.01640514,-0.02977875,0.0364708
0.6168595,0.5625602,0.5629012,-0.00598068,0.007104544,0.008972891,-0.01405003,-0.0235976,0.03764702
0.6166294,0.5596323,0.5623453,-0.006237045,0.0041764,0.008463023,-0.01292162,-0.02386268,0.04071523
0.616416,0.5601882,0.5652051,-0.00646734,0.00472487,0.01136023,-0.01507108,-0.02796212,0.04453787
0.615922,0.5589624,0.5631326,-0.006969118,0.003484804,0.009316477,-0.01390228,-0.03397584,0.0412389
0.6148238,0.5581553,0.561758,-0.008066327,0.002656938,0.007962055,-0.01266629,-0.03400399,0.03535653
0.6156862,0.5613197,0.5612275,-0.007194334,0.005794491,0.007443182,-0.0117653,-0.02846589,0.03046526
0.6171861,0.5645128,0.5599467,-0.005676495,0.008954746,0.006165737,-0.01172906,-0.02950833,0.02686534
0.61849,0.5641184,0.5600429,-0.004346757,0.008521925,0.006257201,-0.01552376,-0.03525246,0.02697682
0.6183195,0.5635414,0.5576163,-0.004483832,0.007900782,0.003818103,-0.01831596,-0.04086416,0.02777221
0.6163742,0.5647827,0.5584742,-0.006388485,0.009092378,0.004656073,-0.01836425,-0.03877366,0.03059037
0.612026,0.567988,0.5630948,-0.01068928,0.01224257,0.009249629,-0.01509211,-0.03577736,0.03578305
0.606475,0.573149,0.5651707,-0.0161861,0.01734308,0.01129153,-0.009664768,-0.04897215,0.04113611
0.6080951,0.5742052,0.5660954,-0.01450501,0.01833293,0.01217546,-0.007319997,-0.06450096,0.04609465
0.6140982,0.5691433,0.5647277,-0.008434224,0.01319892,0.01076022,-0.00831712,-0.06806092,0.0437739
0.6168438,0.5649621,0.5640555,-0.005614247,0.008939396,0.01003369,-0.009816833,-0.06355837,0.03959832
0.6189946,0.5644273,0.5627072,-0.003382738,0.00832036,0.008624456,-0.008760691,-0.05892088,0.04052378
0.6184492,0.5635933,0.5551444,-0.003841345,0.007396241,0.0009943006,-0.008093025,-0.05899467,0.03802884
0.6170235,0.5611126,0.5493466,-0.005174833,0.004819792,-0.004876885,-0.008825639,-0.0561533,0.03758449
0.6188343,0.5600829,0.5505387,-0.003266832,0.003689306,-0.003763502,-0.007916227,-0.05449747,0.04042624
0.6181408,0.5597591,0.5527651,-0.003858416,0.003259833,-0.001620306,-0.009191392,-0.05617265,0.03865543
0.6184447,0.5577984,0.5508544,-0.003448357,0.001189187,-0.003618003,-0.01039309,-0.05214095,0.03740839
0.6204382,0.5578291,0.5497682,-0.001344855,0.001106076,-0.00479448,-0.00914651,-0.04573507,0.03401335
0.618831,0.5590623,0.5516871,-0.00283883,0.002222185,-0.002968268,-0.007654216,-0.03930366,0.03003987
0.6179488,0.5583296,0.5537056,-0.003604786,0.001369596,-0.001044335,-0.004948966,-0.04267634,0.02886832
0.6154591,0.5601698,0.5586118,-0.005975785,0.003087552,0.003765931,-0.004427413,-0.05282704,0.02767928
0.6132465,0.563143,0.5582271,-0.008067209,0.005936382,0.003284217,-0.002465276,-0.05108484,0.03176578
0.6176895,0.5632919,0.5527534,-0.003501024,0.005959242,-0.002287417,0.002103541,-0.04696163,0.03362852
0.6207245,0.5633369,0.5512269,-0.0003409362,0.005876567,-0.003912301,5.632179e-05,-0.04197686,0.0309962
0.6185828,0.5634646,0.5488107,-0.002355932,0.005875198,-0.006427042,-0.003636851,-0.03455653,0.03051953
0.6171394,0.5646818,0.5498287,-0.003671481,0.006962046,-0.005507141,-0.004093134,-0.03719923,0.02937499
0.618352,0.565704,0.5511871,-0.002330079,0.00785273,-0.004245914,-0.00523512,-0.03885239,0.03094739
0.6187271,0.5630411,0.5488829,-0.001825633,0.005057352,-0.006645827,-0.00565501,-0.03627767,0.03084153
0.6196655,0.5608762,0.5515783,-0.0007574963,0.002758913,-0.004044201,-0.007744609,-0.03522241,0.02769162
0.6235457,0.5609777,0.551813,0.00325247,0.002726143,-0.003901171,-0.01185515,-0.02567919,0.02753653
0.6243172,0.5613225,0.5505543,0.004153272,0.002936316,-0.005248893,-0.01314864,-0.01073349,0.02481406
0.6226368,0.5621006,0.5512132,0.002601297,0.00357951,-0.004676199,-0.01306655,-0.004025054,0.02100282
0.6210827,0.5624813,0.5491646,0.001174244,0.003825273,-0.006807909,-0.01280347,-0.007917038,0.01806002
0.6187868,0.5617519,0.550289,-0.0009962554,0.00296116,-0.005763148,-0.01423603,-0.01161704,0.01573266
0.6199947,0.560686,0.5519966,0.0003350994,0.001760947,-0.004131511,-0.0161821,-0.01095759,0.01425601
0.6214181,0.5609966,0.554841,0.001879772,0.001937781,-0.001359183,-0.01440047,-0.009609235,0.01102543
0.6184144,0.5614651,0.5593591,-0.001004952,0.002273328,0.00309081,-0.01374818,-0.006226902,0.01509915
0.6154917,0.5604831,0.5574726,-0.003811204,0.00115943,0.001139956,-0.01342197,-0.008176021,0.02189206
0.6154058,0.559371,0.5546379,-0.00378319,-8.330343e-05,-0.001755458,-0.01210164,-0.008894239,0.02006483
0.618137,0.5584696,0.5531159,-0.0009405408,-0.00111391,-0.003334503,-0.01306739,0.008197571,0.0187758
0.6213494,0.5605799,0.5514085,0.002380816,0.000868847,-0.005095465,-0.01222708,0.02387429,0.01729665
0.6212982,0.5640843,0.5529867,0.00243585,0.00424766,-0.003567143,-0.01254348,0.01905992,0.01430371
0.6199372,0.5634541,0.5543333,0.001178353,0.003493951,-0.002266641,-0.01328161,0.0059374,0.01696321
0.6196183,0.5633918,0.5537759,0.0009598081,0.003310106,-0.002866448,-0.01176147,-0.005156233,0.01867888
0.6194158,0.5648462,0.5533791,0.0008545905,0.004644965,-0.003301821,-0.01283758,-0.01114274,0.01881175
0.6208879,0.5643598,0.5529788,0.002420781,0.004041095,-0.003736998,-0.01126432,-0.004208221,0.02035107
0.6217079,0.5654543,0.5549399,0.003331447,0.005019972,-0.001807065,-0.009239066,0.005982929,0.01830266
0.6193991,0.5656219,0.5593318,0.001109913,0.005073988,0.002557353,-0.009465752,0.00443659,0.01621779
0.6171455,0.5630336,0.5589294,-0.001060004,0.002373838,0.00213094,-0.007789963,0.002379443,0.01662259
0.6135869,0.5603685,0.5551644,-0.004538427,-0.000401261,-0.001654913,-0.009381092,-0.002308827,0.01575898
0.6116896,0.5575745,0.5564882,-0.006358969,-0.003303279,-0.0003489763,-0.01007556,-0.01514013,0.01519739
0.6140484,0.5597355,0.5577781,-0.003926402,-0.001248182,0.0009260022,-0.006329165,-0.02113358,0.01806587
0.6157529,0.564011,0.5541548,-0.002150887,0.002923807,-0.002709492,-0.002650612,-0.02336909,0.0224687
0.6189746,0.5640977,0.5520241,0.00113911,0.002909373,-0.004849911,-0.0007230997,-0.02185796,0.02316281
0.6202791,0.5647581,0.5526524,0.002509262,0.003471235,-0.004228571,-0.002596538,-0.01412508,0.01993691
0.6191272,0.5622684,0.5529729,0.001420408,0.0008852438,-0.003912441,-0.004607059,-0.008856232,0.01737357
0.6218873,0.556895,0.5530186,0.004240773,-0.00458206,-0.003868356,-0.006483291,-0.005511885,0.01668531
0.6210793,0.5580156,0.5534809,0.003490187,-0.003552741,-0.003405029,-0.007555324,-0.006713982,0.01648092
0.6197933,0.5590423,0.5545307,0.002258629,-0.002614588,-0.002351481,-0.005742169,-0.006742713,0.01619714
0.6215317,0.556585,0.5540178,0.004048369,-0.005157517,-0.002858072,-0.006473372,-0.001582946,0.01627481
0.6185167,0.5559863,0.5523055,0.001081566,-0.005838498,-0.004561421,-0.00726097,0.001196516,0.01653453
0.6173813,0.5555223,0.5527549,-8.801714e-06,-0.006381374,-0.004100481,-0.007466426,0.003055954,0.01537953
0.6184287,0.5562318,0.553939,0.001080514,-0.005746901,-0.002902314,-0.009310269,0.002086102,0.01175437
0.6177768,0.557413,0.5541732,0.0004674281,-0.004636816,-0.002651551,-0.008943054,0.003161164,0.007987819
0.6183394,0.5558976,0.5533483,0.001065922,-0.00621908,-0.003457522,-0.009932201,0.01296773,0.007812417
0.6178509,0.5551128,0.5526742,0.0006104935,-0.007066426,-0.004110274,-0.01140764,0.02080091,0.007227057
0.6177066,0.5567629,0.5546093,0.0004963167,-0.005474332,-0.002151533,-0.00874173,0.01737127,0.00402222
0.6164843,0.5609604,0.5564424,-0.0006984553,-0.001330215,-0.0002925145,-0.006796283,0.005193733,0.006835753
0.6145622,0.5652846,0.5564982,-0.002595572,0.002945176,-0.0002087553,-0.006710396,-0.007755459,0.01115755
0.6166431,0.5636494,0.556887,-0.0004921101,0.001265722,0.0002097969,-0.00550327,-0.01630088,0.00791858
0.6189668,0.5610033,0.5572378,0.001851918,-0.001420586,0.0005920601,-0.004302229,-0.01262761,0.004868081
0.6198575,0.5629854,0.5568091,0.002760718,0.0005252088,0.0001962982,-0.004846493,-0.002132877,0.00365055
0.619576,0.5620597,0.5568266,0.00249528,-0.0004329286,0.0002478731,-0.005731855,0.001325138,0.002474662
0.6187252,0.557263,0.5571798,0.001658392,-0.00525852,0.0006361504,-0.005959179,0.006291145,0.003320667
0.6177594,0.5554401,0.5569536,0.0007043704,-0.007106625,0.0004459328,-0.006979916,0.01524272,0.001672822
0.6147953,0.5587055,0.5583745,-0.002250063,-0.003862869,0.001903345,-0.008666743,0.0214308,0.0006223101
0.6125502,0.5641728,0.5619726,-0.004487395,0.001586548,0.005538377,-0.009766385,0.01790733,0.003124679
0.6106525,0.564936,0.5658954,-0.006378889,0.002335332,0.009498237,-0.007631682,0.004633441,0.004516548
0.6089826,0.564536,0.5672229,-0.008043833,0.001924247,0.01086229,-0.004479779,0.001252566,0.004516275
0.6109048,0.5654928,0.563742,-0.00611744,0.002872912,0.007417074,-0.005727172,0.002697529,0.003306614
0.6126672,0.5602882,0.5616846,-0.004351386,-0.002337197,0.0053939,-0.00625543,0.0002229627,0.00199512
0.6122757,0.5571791,0.5644331,-0.004739229,-0.005449194,0.008174721,-0.004335901,0.0006103603,0.0008128819
0.6117011,0.5613167,0.565814,-0.005310086,-0.001312114,0.009585902,-0.004341117,0.0002438401,0.001145436
0.6107943,0.5635487,0.563415,-0.006212752,0.0009218198,0.007214698,-0.003525135,0.002295247,0.005931532
0.6113024,0.5630473,0.5617529,-0.005699894,0.0004245624,0.005577496,-0.003009632,0.002219447,0.00989531
0.6135858,0.5636069,0.5637021,-0.003410833,0.0009904504,0.007548694,-0.00442906,0.001395401,0.01012327
0.6160073,0.5661879,0.5652257,-0.0009826722,0.003579611,0.009091024,-0.006735108,0.004097621,0.008228237
0.6165358,0.5657123,0.5645508,-0.0004465798,0.003113784,0.008431393,-0.01066472,-0.0001022426,0.002540997
0.6121493,0.5639053,0.5644264,-0.00482439,0.001317779,0.008318605,-0.01003132,-0.004180041,-0.002961466
0.6081401,0.5642819,0.5642927,-0.008823818,0.0017065,0.008192597,-0.004270782,-0.00755213,0.002004679
0.610487,0.5615958,0.5630228,-0.006465784,-0.0009666265,0.006926442,-0.001069634,-0.01066081,0.01222935
0.6122654,0.5610097,0.5631592,-0.004674806,-0.001538973,0.007062306,-0.0002101545,-0.008986275,0.01244202
0.6105949,0.5619026,0.5687907,-0.006331078,-0.000631592,0.01268911,0.001906286,-0.01135257,0.009248577
0.6109517,0.5602256,0.5732325,-0.005958155,-0.002293489,0.01712176,0.004878225,-0.0169309,0.008098308
0.611376,0.5611525,0.5654478,-0.005515809,-0.001350748,0.009323021,0.004369006,-0.02738705,0.005045012
0.6098654,0.5595362,0.5548279,-0.007006219,-0.002950591,-0.001315879,0.002752021,-0.03484996,0.007998181
0.6095384,0.5580966,0.5542618,-0.007310872,-0.004372909,-0.001905727,0.004349678,-0.03144122,0.01117099
0.6099394,0.5631878,0.5565093,-0.006885257,0.0007361473,0.0003135259,0.003660434,-0.03226954,0.0100178
0.6105817,0.5667056,0.5553236,-0.006215846,0.004272628,-0.0009044301,0.002515583,-0.03336298,0.01174393
0.6120094,0.5652616,0.5553278,-0.004758541,0.002847829,-0.0009359911,0.004021416,-0.028729,0.01216182
0.6137969,0.5626263,0.5555483,-0.002938874,0.0002319908,-0.0007545013,0.004682757,-0.02320856,0.01331846
0.6159282,0.5623338,0.5535188,-0.0007728934,-4.090718e-05,-0.002825788,0.005976388,-0.01956355,0.01424861
0.616466,0.5625953,0.5528395,-0.0001982396,0.0002402191,-0.003549183,0.007242448,-0.03202619,0.01256277
0.61833,0.5622616,0.5555029,0.001704756,-7.397861e-05,-0.0009318483,0.008974301,-0.04960119,0.01365604
0.6231301,0.5628353,0.5589164,0.006545546,0.0005192517,0.002434022,0.009649537,-0.04691905,0.009633567
0.6230808,0.5622719,0.558515,0.006538289,-2.469989e-05,0.001983637,0.007667993,-0.03799908,0.004254777
0.6207449,0.562472,0.5558589,0.004245131,0.000194538,-0.0007225834,0.008095365,-0.03602673,0.006772665
0.6209858,0.5622385,0.5551704,0.004529205,-1.99637e-05,-0.001462324,0.006557951,-0.02854871,0.007010134
0.6192122,0.5590874,0.5547081,0.002798715,-0.003152444,-0.001976559,0.003626123,-0.01569543,0.004224696
0.6196042,0.5560253,0.5543403,0.003233473,-0.006195981,-0.002396809,0.003095381,-0.00689261,0.004107366
0.6218632,0.5554866,0.5537146,0.005534571,-0.006716227,-0.003075035,0.0005405795,-0.006384788,0.005335625
0.6194019,0.5604857,0.5527561,0.003114561,-0.001698334,-0.004086056,0.000625735,-0.01216592,0.006411258
0.6181107,0.5651331,0.5532832,0.001863454,0.002968097,-0.003610951,0.001921698,-0.02121616,0.004702539
0.6189985,0.5640842,0.5515405,0.002789993,0.001938597,-0.005404877,-8.480119e-05,-0.03030684,0.002781885
0.6187974,0.5630495,0.5501395,0.002626212,0.0009233638,-0.006856115,-0.0001578794,-0.02153158,0.003931219
0.6199572,0.562126,0.5522296,0.003821822,1.929857e-05,-0.004814693,0.0008669727,-0.006685127,0.005426565
0.6210441,0.5597636,0.5521829,0.004942662,-0.002323807,-0.004908381,0.001250647,-0.01264461,0.006306607
0.6209629,0.5588925,0.553927,0.004893539,-0.003175644,-0.003209318,0.002407643,-0.01598023,0.006683736
0.6197731,0.5593672,0.556944,0.003733657,-0.002681648,-0.0002350766,0.003291306,-0.01236991,0.006417092
0.6191498,0.5590669,0.5537419,0.003138015,-0.002962532,-0.00347778,0.002588177,-0.01654861,0.006143117
0.6213338,0.5598651,0.5529619,0.005347284,-0.00214482,-0.004296016,0.003374792,-0.01350174,0.003879723
0.6245989,0.5623546,0.5554355,0.008635078,0.0003644129,-0.001858227,0.004519998,-0.009596914,0.0004226227
0.6264292,0.5634983,0.5529621,0.01048539,0.001528144,-0.00436492,0.001299429,-0.007687165,-0.0009480079
0.6214503,0.5641336,0.5499333,0.005523492,0.002183414,-0.007424367,0.0006883644,-0.00154589,2.050786e-05
0.6158105,0.5625899,0.5464113,-0.0001025678,0.0006597501,-0.01097415,0.002371503,-0.0002643665,0.00364479
0.6203649,0.5590383,0.544265,0.004462263,-0.002872031,-0.0131452,0.0008937444,0.00646947,0.00597631
0.62548,0.5578986,0.5470558,0.009584636,-0.003992001,-0.01037545,-0.0009123955,0.01730584,0.004126463
0.6256894,0.5580341,0.5479297,0.009797915,-0.003836762,-0.009518628,-0.004160323,0.01959164,5.288506e-05
0.6256133,0.558863,0.5493297,0.009722152,-0.002988049,-0.008131584,-0.003954351,0.02250585,-0.004865373
0.6229646,0.5596254,0.5512405,0.007069911,-0.00220566,-0.006229225,-0.00230875,0.02939766,-0.005195322
0.6211981,0.5613761,0.5499966,0.005296002,-0.0004346138,-0.007477009,-0.006330143,0.03481294,-0.006131439
0.6222575,0.5636294,0.5531739,0.006344091,0.001839249,-0.004299083,-0.006825129,0.03605866,-0.01135903
0.6205529,0.5620637,0.5555839,0.004624068,0.000294301,-0.001883949,-0.002950581,0.03228316,-0.008620195
0.6184206,0.561226,0.5529113,0.002472612,-0.0005226186,-0.004547105,-0.001173659,0.02670021,-0.005186005
0.6185835,0.5615902,0.5538107,0.002612493,-0.0001375814,-0.003634134,-0.003799844,0.02817106,-0.007747615
0.6181002,0.5616371,0.5555719,0.002102666,-6.997981e-05,-0.001855192,-0.007704949,0.03422304,-0.006716684
0.6178854,0.5640401,0.5560052,0.001857968,0.002353692,-0.001400404,-0.005429214,0.03258129,-0.006848695
0.6191843,0.5640796,0.5572919,0.003123819,0.002413648,-8.865144e-05,-0.004072374,0.0270663,-0.008048956
0.6197322,0.5620715,0.555686,0.003635819,0.0004256493,-0.001666194,-0.00546327,0.02020518,-0.007006113
0.6193791,0.5598311,0.5544193,0.00324394,-0.001795159,-0.00290151,-0.003734724,0.01661906,-0.008562321
0.6194069,0.5572534,0.5565199,0.003230272,-0.004353586,-0.0007666005,-0.004457895,0.02027196,-0.008817995
0.6189483,0.5582472,0.5579498,0.002727715,-0.003340938,0.0007001423,-0.005123828,0.01757653,-0.007940425
0.6167489,0.5589372,0.5636982,0.0004820316,-0.002632173,0.006487653,-0.003668804,0.01357268,-0.006959016
0.6144656,0.5578368,0.569623,-0.001849713,-0.003713802,0.01245342,-0.004369133,0.01245626,-0.005779615
0.6147679,0.5593739,0.56123,-0.001597696,-0.00215793,0.004102571,-0.004074711,0.007064143,-0.01107275
0.6148459,0.5631144,0.5530389,-0.001571432,0.001601532,-0.004045688,-0.00286143,0.002370921,-0.01374742
0.6124048,0.5671181,0.5576105,-0.004065412,0.005624315,0.0005690546,-0.0002411698,-0.008550027,-0.002070171
0.612706,0.5667647,0.5592018,-0.003817828,0.005289739,0.002203768,0.004180023,-0.02446728,0.009540847
0.6165433,0.5640111,0.5565482,-3.459733e-05,0.002554656,-0.0004063237,0.004609698,-0.03100559,0.005167469
0.6190958,0.5650685,0.5553287,0.002463749,0.003629882,-0.001582381,0.003993194,-0.02980469,-0.001835848
0.6193611,0.5637528,0.5518275,0.00267481,0.002331157,-0.005040268,0.007830966,-0.02824895,0.0003246504
0.6192358,0.5594348,0.5517942,0.002495369,-0.001970772,-0.005030216,0.01107717,-0.02807642,0.001926951
0.6206395,0.5593567,0.5539644,0.003844857,-0.0020338,-0.002816687,0.009351001,-0.02171606,0.005184517
0.621581,0.5601646,0.550901,0.004732258,-0.001211545,-0.005836636,0.00570395,-0.01403462,0.008116377
0.6224877,0.560278,0.5488426,0.005584694,-0.001084534,-0.007851213,0.002808187,-0.01552748,0.00429164
0.6252405,0.5608098,0.5480629,0.008283032,-0.0005397822,-0.008586678,0.001555398,-0.01517597,0.002544376
0.6254534,0.560503,0.5467233,0.008441131,-0.000834203,-0.009881315,0.002343014,-0.01215582,-0.0008873998
0.6240245,0.5620201,0.5488664,0.006956848,0.0006946518,-0.007692237,0.004510576,-0.01273465,-0.001563742
0.6225537,0.5632367,0.5503815,0.005429874,0.001922508,-0.006129862,0.008855746,-0.008810553,0.004101169
0.6203202,0.5622016,0.5498356,0.003139168,0.0008981343,-0.006627208,0.01086919,-0.00403098,0.002570885
0.6222438,0.5627596,0.5468649,0.005004731,0.001466129,-0.009547709,0.008253368,-0.007172501,0.001550697
0.6248834,0.5643458,0.5472534,0.007585331,0.003061685,-0.009107355,0.007327386,-0.01008132,0.00248912
0.6234065,0.5647537,0.5549134,0.006048447,0.003478096,-0.001393674,0.006339002,-0.006250861,0.0002717303
0.6233438,0.5638738,0.5556001,0.005924671,0.002605739,-0.0006513866,0.005700517,-0.002497883,0.001413431
0.6249989,0.5634228,0.5547609,0.007517513,0.002161394,-0.001433462,0.007570935,-0.001022731,0.00228945
0.6250628,0.564216,0.5571881,0.007517829,0.002960054,0.001052338,0.006895695,-0.000612201,0.00245033
0.6250083,0.5639242,0.5551944,0.007398343,0.002672569,-0.000881629,0.007260108,-0.001265731,0.002283889
0.6250441,0.5630786,0.5568484,0.007367612,0.001830114,0.0008331131,0.006832254,0.003456144,0.0002247243
0.6252363,0.5614883,0.5537939,0.007491743,0.0002416305,-0.002160083,0.001124907,0.0122618,-0.003052681
0.6269104,0.5587868,0.5470539,0.009096159,-0.002459284,-0.008838067,-0.001816722,0.01862958,-0.007142024
0.6279202,0.5589685,0.5489107,0.0100344,-0.002277979,-0.006918725,0.0001501552,0.02325677,-0.005895748
0.6259698,0.5592871,0.549586,0.008010473,-0.001960756,-0.006180186,0.001622931,0.02824654,-0.004005912
0.6232687,0.5585812,0.552784,0.005233874,-0.002668745,-0.002917984,0.0003612575,0.02977592,-0.00572281
0.6232058,0.5616885,0.5574103,0.005093344,0.0004359871,0.001773322,0.00188903,0.02165812,-0.005421258
0.6238901,0.5622244,0.5546071,0.005698135,0.0009687769,-0.0009642616,0.003869566,0.01625701,-0.005916279
0.622148,0.5600327,0.5503728,0.003874628,-0.001226399,-0.005132415,-0.001171402,0.02103004,-0.006882346
0.6200992,0.5624815,0.5466322,0.001742626,0.001218555,-0.0088065,-0.003943097,0.02468509,-0.006455327
0.6192001,0.5631289,0.5465117,0.000758794,0.001861687,-0.00885995,-0.00222684,0.02754533,-0.007376748
0.6204419,0.5615044,0.5477847,0.001914609,0.0002325919,-0.007519163,-0.002082277,0.0286037,-0.008353826
0.6233568,0.561138,0.546037,0.004742378,-0.0001387701,-0.009198231,-0.002502919,0.03040649,-0.01027443
0.6236518,0.5590514,0.5462052,0.004949441,-0.002230758,-0.008960146,-0.003864199,0.03634457,-0.01191365
0.621041,0.5597136,0.550364,0.002249854,-0.001574075,-0.004730261,-0.004620707,0.03306323,-0.01002557
0.6166926,0.5622415,0.5574111,-0.002187963,0.0009480893,0.002389214,-0.004407276,0.02544652,-0.007939458
0.6142658,0.5625126,0.5614523,-0.004704488,0.001213364,0.006503912,-0.001844755,0.02008932,-0.005240078
0.6175496,0.5628394,0.5592102,-0.001510555,0.001534143,0.004335884,0.001296636,0.0130557,-0.003684765
0.6209017,0.5622903,0.5553454,0.001752247,0.0009789311,0.0005452423,0.0003666576,0.01396945,-0.008528421
0.6205711,0.562542,0.5529223,0.001332812,0.001224377,-0.001803797,-8.740314e-05,0.01786678,-0.01142467
0.617948,0.5637663,0.551275,-0.001378176,0.002442123,-0.003377457,-0.0002227592,0.01728691,-0.009315058
0.6146622,0.5637942,0.5491767,-0.004750947,0.002463171,-0.005402576,-0.001063901,0.01847396,-0.008377851
0.6138778,0.564168,0.5481871,-0.005621081,0.002829789,-0.006319351,-0.0009266949,0.01644907,-0.006683869
0.614497,0.5637553,0.5489087,-0.005085878,0.002409379,-0.00552511,-0.00231147,0.01504105,-0.004814219
0.6155713,0.5637456,0.5511011,-0.004093501,0.002391469,-0.003260227,-0.002603906,0.01824666,-0.004005723
0.618355,0.5642105,0.5547732,-0.001389339,0.002847578,0.0004841801,-0.001900237,0.01605907,-0.003700651
0.6194058,0.5635821,0.5580577,-0.0004156039,0.002209651,0.003840765,-0.002577222,0.01485382,-0.003554584
0.6184678,0.5638506,0.5608639,-0.001428001,0.00246796,0.006718576,-0.002426742,0.01426155,-0.001906065
0.6189316,0.5625299,0.5624846,-0.001035944,0.001136248,0.008409799,-0.001638232,0.008957289,-0.002471852
0.6197565,0.5595078,0.5594858,-0.0002799298,-0.001897555,0.005480183,-0.000932018,0.01024487,-0.004240612
0.6208113,0.5583744,0.5562284,0.0007087111,-0.003043258,0.002290115,-0.000510475,0.01232516,-0.004188623
0.6225053,0.5586342,0.5620275,0.002339299,-0.002796308,0.008154363,-0.0007343878,0.01046669,-0.004224575
0.6219866,0.5578393,0.5672375,0.001759807,-0.003604228,0.01342703,-0.001148845,0.01020587,-0.003304506
0.6186866,0.5562713,0.5605016,-0.001598439,-0.005185286,0.006750923,-0.001266532,0.007720425,-0.002415465
0.6168979,0.5580525,0.5558883,-0.003442919,-0.003416962,0.002193982,-0.0007855211,0.008536925,-0.001335906
0.6184378,0.5602335,0.5580175,-0.00195616,-0.001248261,0.004375867,-0.0001081386,0.01278005,-0.0008623028
0.6182282,0.5601818,0.5544268,-0.002216165,-0.001311816,0.0008343501,0.001175613,0.01369577,-0.0052733
0.6165612,0.5605428,0.5502505,-0.003930867,-0.0009618999,-0.003296414,0.002401352,0.01284518,-0.009000408
0.6169951,0.5586373,0.5555845,-0.003541878,-0.002877848,0.00207969,0.002193123,0.01028609,-0.007304315
0.6175708,0.5580562,0.560874,-0.003008109,-0.003468547,0.00740795,0.001933537,0.008224338,-0.005492655
0.6190022,0.5615726,0.5575314,-0.00161562,3.908594e-05,0.004100743,0.001813411,0.006686764,-0.006219198
0.6192039,0.56316,0.5546067,-0.001449878,0.001618747,0.001207907,0.001597907,0.00822616,-0.006626377
0.6166197,0.561969,0.5542593,-0.004067016,0.0004207944,0.000888856,0.002317095,0.0127041,-0.005718595
0.6145032,0.5585692,0.5524916,-0.006213449,-0.002985159,-0.0008537531,0.002107924,0.01021674,-0.004596743
0.6122824,0.5560861,0.5529252,-0.008460997,-0.005473579,-0.0003983328,0.0003623892,0.004344632,-0.00260681
0.6145646,0.5582233,0.5523819,-0.006202307,-0.003340757,-0.0009228223,-0.0006605368,-0.002818447,-0.002407051
0.6194383,0.5617405,0.5496496,-0.00134848,0.0001732277,-0.003639107,-0.0005667041,-0.008473303,-0.00517967
0.6181787,0.5627127,0.5500934,-0.002624554,0.001143215,-0.003181825,0.0005391539,0.0001244566,-0.006432492
0.6173097,0.5597915,0.5569219,-0.003506487,-0.001778999,0.003657963,0.003925603,0.009240312,-0.008430363
0.6190993,0.5568661,0.5649125,-0.00172659,-0.004704445,0.0116577,0.008001527,0.007532601,-0.01170686
0.6195356,0.5564724,0.5585953,-0.001296585,-0.005097137,0.005347268,0.00677365,0.01076715,-0.011065
0.6212976,0.5555509,0.548872,0.0004621967,-0.006016319,-0.004371816,0.001632686,0.01895107,-0.01026023
0.6208128,0.5555321,0.5522745,-2.281238e-05,-0.006031426,-0.0009675682,-0.0007817795,0.02184487,-0.009602785
0.6174205,0.5586053,0.5547976,-0.003412711,-0.002952847,0.001555101,-0.002176423,0.01888606,-0.004850122
0.6162425,0.56062,0.5552839,-0.004585518,-0.0009311822,0.002038861,-0.002958425,0.008376328,-0.002790445
0.6171263,0.5595132,0.5567836,-0.003694015,-0.002029218,0.003534127,-0.0005748694,-0.0008195207,-0.004379395
0.6205133,0.5585207,0.5543405,-0.0002966584,-0.003011371,0.001084576,0.002036057,0.00492579,-0.004658415
0.6233797,0.5582867,0.5548454,0.002582452,-0.003233382,0.001581193,0.001642378,0.01249072,-0.00741727
0.6221408,0.5581842,0.5537908,0.001358594,-0.003322301,0.0005164536,-0.001275094,0.01154873,-0.008718373
0.6208281,0.55848,0.5493832,6.281875e-05,-0.003011361,-0.003902915,-0.003423117,0.01541052,-0.006687577
0.6208465,0.5590061,0.5477397,9.989617e-05,-0.002468399,-0.00555969,-0.005585992,0.01866378,-0.01005872
0.6202281,0.5618518,0.5477906,-0.0004984225,0.0003957109,-0.005523092,-0.005946579,0.01474978,-0.01135889
0.6179993,0.5650721,0.5530604,-0.002705627,0.003635902,-0.0002683735,-0.001405275,0.01611779,-0.006579307
0.6148062,0.5637055,0.5572531,-0.005875856,0.002290343,0.003908761,-0.0006486767,0.01692043,-0.006251204
0.6139344,0.5604099,0.5581656,-0.006723466,-0.0009831581,0.004805288,-0.004075587,0.01286708,-0.007662691
0.6150311,0.5600356,0.5621343,-0.005601016,-0.001334573,0.008757307,-0.0065841,0.01035703,-0.008807299
0.6157257,0.5631071,0.5615496,-0.00487895,0.001760451,0.008155038,-0.008476254,0.006726977,-0.01070119
0.6173048,0.5662093,0.5586337,-0.003270779,0.004886774,0.005220437,-0.00312237,0.009380618,-0.009353245
0.6194939,0.5636346,0.560051,-0.001050871,0.002336371,0.006617576,0.003378887,0.01630823,-0.01002162
0.6198313,0.559086,0.5618896,-0.0006810887,-0.002187741,0.008434556,0.0008344915,0.0179458,-0.01147048
0.6190677,0.5595784,0.5623317,-0.001410747,-0.001670869,0.00885316,-0.0009561856,0.01956101,-0.009795931
0.6183378,0.5604278,0.5595614,-0.002105474,-0.0007970131,0.006057425,0.001251769,0.01646246,-0.01093771
0.6168279,0.5610914,0.5555368,-0.003578891,-0.0001090612,0.002005307,0.0009720666,0.01192169,-0.009637328
0.615146,0.5630457,0.554775,-0.005223116,0.001869561,0.001213723,0.0007880955,0.01441677,-0.003353106
0.6141969,0.5605839,0.5557901,-0.006133333,-0.0005680359,0.002197141,0.001942296,0.01411635,-0.001923467
0.6140382,0.5577866,0.5545915,-0.006251836,-0.003341338,0.000964945,0.001613868,0.01124695,-0.005440062
0.61593,0.5584983,0.5526226,-0.004318367,-0.002605876,-0.001039207,0.001637122,0.006862954,-0.007293914
0.6191937,0.5596536,0.5531013,-0.001011611,-0.001426946,-0.0005972748,0.001533079,-0.002638187,-0.005435241
0.6197533,0.5623221,0.5545355,-0.0004075338,0.0012651,0.0007988483,-0.0003763233,-0.007369154,-0.004502178
0.6174003,0.5657897,0.5564507,-0.0027148,0.004756218,0.002674986,-0.001195223,-0.005016194,-0.00607055
0.6160502,0.5674993,0.5580326,-0.004018083,0.006488907,0.004216779,-0.0002619502,-0.003919377,-0.005872573
0.61679,0.5665559,0.5600493,-0.003230514,0.005567937,0.006192447,0.001148027,-0.003255345,-0.004565944
0.6178765,0.5654604,0.5620811,-0.002095097,0.004493875,0.008182137,0.002203944,-0.001031592,-0.002779375
0.6181361,0.5661108,0.5600181,-0.001785679,0.005164638,0.006075776,0.002727299,-0.00513985,-0.001527566
0.6181164,0.5656839,0.5582373,-0.00175481,0.004756571,0.004250283,0.00334242,-0.0171363,-0.002780258
0.6180415,0.5642448,0.5572239,-0.001778278,0.003334627,0.003190777,0.005632618,-0.02656276,-0.004539348
0.6179681,0.5632909,0.5555653,-0.001799694,0.002396245,0.001484721,0.009371496,-0.02625055,-0.006375918
0.6183544,0.5629529,0.5590044,-0.00136078,0.002071828,0.004875004,0.008651218,-0.02103173,-0.006147174
0.6190643,0.5621989,0.5614879,-0.0005978479,0.001329606,0.007308508,0.006370984,-0.01950954,-0.003738687
0.6205756,0.5601309,0.5602085,0.0009667496,-0.000728392,0.005977748,0.00796573,-0.01587866,-0.003568716
0.6211438,0.5585691,0.5603896,0.001588285,-0.002282004,0.006106168,0.007599145,-0.005840619,-0.004183405
0.6195383,0.5578912,0.557589,3.618144e-05,-0.002953242,0.003251384,0.006261558,0.0008019665,-0.004425457
0.6184264,0.559238,0.5549897,-0.001022585,-0.001601107,0.0005963874,0.006494416,-0.001004444,-0.005183768
0.6187142,0.5631414,0.5566232,-0.0006820839,0.0023065,0.002172966,0.005529113,-0.008738765,-0.00462475
0.620566,0.5662602,0.5562171,0.001221975,0.005428296,0.001708863,0.004047789,-0.01563506,-0.004022932
0.6236765,0.5663433,0.5548869,0.004384183,0.005513162,0.0003196026,0.001797238,-0.0187359,-0.004751801
0.6246968,0.566122,0.5541368,0.005455309,0.005292232,-0.0004903633,0.001703013,-0.01458301,-0.0049792
0.6217374,0.5684793,0.5534453,0.00254562,0.007648276,-0.001242265,0.003331538,-0.007765225,-0.003401997
0.6184588,0.566629,0.5533619,-0.0006846933,0.005794973,-0.001386368,0.003086428,-0.01327646,0.001909383
0.6162354,0.5617692,0.5510393,-0.002861138,0.0009302179,-0.003769753,0.00472801,-0.0168686,0.009095779
0.6134009,0.5628147,0.5513731,-0.005650129,0.001968734,-0.00349645,0.006643167,-0.01242461,0.009460626
0.6173712,0.5645489,0.5567381,-0.001635552,0.003693894,0.0018085,0.006415568,-0.01399631,0.0022232
0.625555,0.5652241,0.5580375,0.006591389,0.004358234,0.003048659,0.004584324,-0.01269923,-0.002519511
0.6256694,0.5650775,0.5513851,0.006747697,0.004198815,-0.003662289,0.0009159513,-0.01115394,-0.001581007
0.6242719,0.563017,0.5450505,0.005390506,0.002123452,-0.0100545,0.001816892,-0.01294173,-9.818097e-05
0.6245153,0.5653387,0.5492068,0.005672237,0.004428397,-0.005954566,0.004465635,-0.01192028,-6.255817e-05
0.622984,0.5678088,0.5541312,0.004177164,0.00687973,-0.001084761,0.004603005,-0.01366104,-0.0002738933
0.6233919,0.5676545,0.5501409,0.004618966,0.006704546,-0.005127683,0.007282689,-0.01222392,-0.002240851
0.6221795,0.5659218,0.5485263,0.003437969,0.004948797,-0.006792849,0.007088953,-0.007280562,-0.00520198
0.620871,0.5597594,0.5475539,0.002158343,-0.001238814,-0.007813208,0.005308724,-0.006903692,-0.00372677
0.6225982,0.55739,0.5441357,0.003911637,-0.003635567,-0.01127668,0.007194716,-0.007824971,-0.001361899
0.6225093,0.561211,0.5460771,0.003846251,0.0001562973,-0.009377415,0.00627651,-0.007560872,-0.00185668
0.621731,0.5638289,0.5455588,0.003088656,0.002743512,-0.009934226,0.005749524,-0.00727825,-0.00165868
0.6213976,0.5638965,0.543377,0.00277315,0.002779119,-0.01215057,0.006639778,-0.005991338,-0.004492178
0.6212043,0.5651835,0.546684,0.002594951,0.004032652,-0.008873875,0.004877338,0.002027036,-0.007264212
0.6233003,0.5678924,0.5496581,0.004703319,0.006706906,-0.005925485,0.002583874,0.01047631,-0.00473773
0.6260119,0.5661121,0.5522341,0.007424466,0.00489045,-0.00337045,-0.00163022,0.01097226,-0.004816939
0.6253541,0.5636005,0.5513632,0.006773334,0.002341276,-0.004257721,-0.002600421,0.01123422,-0.005509858
0.6241612,0.5639246,0.5466993,0.005583959,0.002626333,-0.008933261,0.0006909992,0.01459398,-0.004289887
0.625535,0.5636401,0.5457457,0.006958094,0.002301452,-0.009893907,0.0006220551,0.01926138,-0.005965605
0.6244948,0.5641698,0.5477918,0.00591493,0.002789361,-0.007849962,4.046371e-05,0.02306501,-0.006259715
0.6218853,0.563844,0.552667,0.003299125,0.002420603,-0.00297215,-0.0005583634,0.02469413,-0.005296889
0.6207099,0.5639803,0.556696,0.002114069,0.002512829,0.001064278,-0.001418746,0.02231806,-0.005120583
0.6210777,0.5657573,0.5569352,0.002469077,0.004244675,0.001315355,0.0001602712,0.01191238,-0.004017094
0.6231483,0.565397,0.5559299,0.004523748,0.003838085,0.000326148,0.0001060704,0.004114584,-0.00577571
0.6220655,0.5649648,0.5518328,0.003421976,0.003358665,-0.003751203,-0.001160524,0.0077164,-0.009283254
0.6206664,0.5643778,0.5486681,0.002001014,0.002723357,-0.006892643,-0.002377717,0.01408957,-0.008844588
0.6212952,0.5634581,0.5483733,0.00260523,0.001754364,-0.007160762,-0.004370432,0.01684134,-0.005264839
0.6205076,0.5622741,0.5483701,0.001790358,0.0005201627,-0.007133729,-0.002909813,0.01908367,-0.003818952
0.6218791,0.5586407,0.5490512,0.003132113,-0.003164154,-0.006418985,-0.0003303138,0.02520896,-0.0050579
0.622239,0.5565919,0.548361,0.003459881,-0.005264254,-0.007071909,-0.001541181,0.03304782,-0.00652667
0.6191382,0.5606735,0.5502908,0.0003247613,-0.00123408,-0.005101433,-0.00304749,0.03873624,-0.008884449
0.6174858,0.5670553,0.5579183,-0.001364046,0.005096344,0.002570154,-0.003574552,0.03789714,-0.008943075
0.6185296,0.5673946,0.5633725,-0.0003585176,0.005384522,0.008071412,-0.004130893,0.02677455,-0.005274589
0.6234431,0.5644452,0.5567,0.004515213,0.00238422,0.001448559,-0.003466623,0.01447087,-0.003424134
0.6280338,0.5627148,0.5470999,0.009064572,0.0006029225,-0.008099806,-0.003609433,0.01452181,-0.006523109
0.6275953,0.5601455,0.5520697,0.008583132,-0.002017183,-0.003076407,-0.003776745,0.02300429,-0.01051475
0.622505,0.560991,0.5573582,0.003448167,-0.001222288,0.002267497,-0.001767841,0.02480081,-0.009745729
0.6164871,0.5628157,0.5557597,-0.002616101,0.0005523981,0.0007258324,-0.0002166254,0.01814644,-0.008373017
0.6157827,0.5624977,0.558044,-0.003368498,0.0001848218,0.003068299,-0.0004603026,0.01100323,-0.008237167
0.6173272,0.5645769,0.5554634,-0.001873226,0.002215174,0.000546717,-0.002593089,0.009907508,-0.006851104
0.617538,0.5658091,0.5525647,-0.001712458,0.003399146,-0.002292333,-0.003445447,0.01421443,-0.00741607
0.6182062,0.5648837,0.5531804,-0.001094817,0.002426145,-0.001616513,-0.002084892,0.01474135,-0.007326871
0.6178478,0.5637812,0.5497363,-0.001504169,0.00127668,-0.005000271,-0.002503721,0.01297925,-0.00826254
0.6159532,0.5633239,0.5491302,-0.003449761,0.0007728642,-0.005545655,-0.001057001,0.01239383,-0.01050245
0.614021,0.5639855,0.5496683,-0.005432759,0.001388577,-0.0049465,0.003784614,0.01059899,-0.004894026
0.6141904,0.5624534,0.5544286,-0.0053135,-0.0001887226,-0.0001246791,0.005805616,0.01073265,0.0005706333
0.6151004,0.5614874,0.5621554,-0.004452808,-0.001199374,0.007663919,0.001095572,0.01219523,-0.0008788518
0.6144008,0.5624571,0.5597585,-0.005200485,-0.0002734978,0.005328793,-0.004740794,0.01360982,-0.001908495
0.6146205,0.561648,0.5576787,-0.005027265,-0.001125549,0.003310323,-0.00201983,0.01208483,-0.003700011
0.6159026,0.5624826,0.5589971,-0.003789929,-0.0003329429,0.004689208,0.001630399,0.007377766,-0.005743277
0.6167972,0.5643379,0.5578408,-0.002938002,0.001481402,0.003592209,0.0002120117,0.006496959,-0.002340562
0.6168587,0.5644843,0.5585128,-0.002916992,0.001587858,0.004321967,0.0002499195,0.006792781,0.0008658564
0.615339,0.5656995,0.5584216,-0.004474937,0.002764179,0.004286919,-0.001219016,0.006321123,1.940383e-05
0.6142112,0.5655529,0.5581123,-0.00563853,0.002579516,0.004031679,-0.002521622,0.005666964,0.0007314109
0.6146772,0.5643333,0.5587419,-0.005205749,0.001322743,0.004713236,-0.00173874,0.003672153,-0.002269864
0.6154186,0.5639438,0.5590582,-0.004494814,0.0008968601,0.005079109,-0.002498871,0.002555728,-0.00580589
0.61536,0.5618627,0.559903,-0.004580926,-0.001219945,0.00597084,-0.0006000024,-0.00104481,0.0001304362
0.6141654,0.5620457,0.5587441,-0.005800101,-0.001071737,0.004856032,0.001548846,-0.005931561,0.001517111
0.6137628,0.5631263,0.5569198,-0.00622412,-2.502593e-05,0.003072822,0.00218526,-0.00888118,-0.002063261
0.6152505,0.5608956,0.5560238,-0.004754555,-0.002288755,0.002214781,0.002733663,-0.0112936,-0.002211715
0.6169636,0.5599945,0.5534332,-0.003056222,-0.003221749,-0.0003409585,0.001387951,-0.01069845,-0.00453473
0.617264,0.5601958,0.5510728,-0.002767237,-0.003051168,-0.00266957,0.001623075,-0.009118578,-0.00299296
0.6165668,0.5622483,0.554623,-0.00347262,-0.001028036,0.000909576,0.001195039,-0.01037395,0.0008340805
0.6179973,0.566208,0.5596392,-0.002047067,0.002903694,0.005952058,0.0008547535,-0.0168137,2.30418e-05
0.6190253,0.5665204,0.5575474,-0.001020833,0.003189431,0.003883787,0.0043386,-0.02567087,-0.00209225
0.6173268,0.5656709,0.5548516,-0.002718108,0.002314429,0.001208663,0.006405603,-0.02568965,-0.003178316
0.6180685,0.5635453,0.5557185,-0.001972197,0.0001644512,0.002093386,0.007410405,-0.02002424,-0.001623181
0.6185828,0.5600953,0.554573,-0.001450967,-0.003309018,0.0009630589,0.007584076,-0.01929671,0.0004121022
0.6172483,0.5624773,0.5532085,-0.002775907,-0.000949496,-0.000389033,0.006262063,-0.0190119,0.003119106
0.6177089,0.5652679,0.55149,-0.002303143,0.001819822,-0.002097624,0.005983951,-0.01328572,0.00276474
0.6173093,0.5625835,0.5482221,-0.002688082,-0.0008848197,-0.005357891,0.005635097,-0.003541659,-0.002193494
0.6179,0.5617844,0.5487684,-0.002080402,-0.001703058,-0.004805816,0.005834843,0.0004833218,-0.004109003
0.6189634,0.563219,0.5526933,-0.0009977683,-0.000286628,-0.0008768528,0.00535788,-0.009755294,-0.003370516
0.6185093,0.5630298,0.555114,-0.001430516,-0.0004928922,0.001546544,0.004276049,-0.02044087,0.0004044753
0.6207611,0.563171,0.5544644,0.0008445807,-0.0003676482,0.000898397,0.004931301,-0.019542,0.003213998
0.6214968,0.5625645,0.5528144,0.001605479,-0.0009890249,-0.0007514336,0.005717399,-0.01481516,0.001144732
0.6206181,0.5617831,0.5512525,0.0007534259,-0.001784154,-0.002314298,0.006976514,-0.01092397,0.0003945779
0.6225508,0.5622228,0.5491004,0.002713992,-0.001357226,-0.004468236,0.00645405,-0.007679321,0.0009484799
0.6223556,0.5616673,0.5488088,0.002547747,-0.001924277,-0.004762461,0.002578274,-0.004212255,0.003080605
0.6203349,0.5624132,0.546752,0.0005567958,-0.001188707,-0.00682225,-0.0002740655,-0.003559112,0.00423225
0.6204381,0.563349,0.5431964,0.0006902685,-0.0002621539,-0.01038092,-0.0002954258,-0.007847394,0.002085604
0.6219638,0.5628271,0.5487508,0.002246588,-0.0007920709,-0.004829331,0.001213529,-0.006629378,0.00155959
0.6243963,0.564458,0.5558616,0.00470985,0.0008319016,0.002279406,0.001160132,-0.001688716,0.001834098
0.6269833,0.5651719,0.5554739,0.007327472,0.00154,0.001890302,-0.00165777,-0.001717391,0.001929771
0.6262773,0.5647306,0.5539165,0.006651593,0.00109372,0.0003322043,-0.004256479,-0.001253265,0.00134031
0.6232089,0.56457,0.5522428,0.003612496,0.0009290579,-0.001341768,-0.003999558,0.0001655317,0.000226234
0.6225061,0.561564,0.5532935,0.002937811,-0.002080282,-0.0002908429,-0.002607403,0.002505058,-0.001063358
0.6206789,0.55996,0.5546045,0.001137428,-0.003686871,0.001020848,-0.001597242,0.007653678,-0.004078626
0.6196455,0.5600692,0.5496489,0.0001294628,-0.003579404,-0.003933572,0.001140097,0.01282286,-0.005268975
0.6219937,0.5596759,0.5456934,0.00250174,-0.003973551,-0.007887343,0.001808451,0.01807599,-0.005126235
0.6205237,0.5624648,0.5452886,0.001054236,-0.001184383,-0.0082896,0.001038109,0.01739918,-0.005849204
0.6202874,0.564382,0.5461092,0.0008390888,0.0007341079,-0.00746548,0.00384223,0.01480766,-0.006235404
0.6217515,0.5635467,0.5471186,0.00232278,-9.878703e-05,-0.006451051,0.003248835,0.01933195,-0.007021213
0.6199102,0.5640175,0.5478773,0.0004995089,0.0003753602,-0.005685714,0.0006570992,0.02063131,-0.007104758
0.6200095,0.5640047,0.5526127,0.0006153402,0.000366762,-0.0009419443,0.001263123,0.01859449,-0.006244948
0.6185454,0.5640043,0.558079,-0.0008336843,0.0003713099,0.004534614,-0.0001221188,0.0160254,-0.003595962
0.617107,0.5658824,0.5594397,-0.002258437,0.002255054,0.005907075,-0.002044293,0.01064425,-0.0003576848
0.6187316,0.5671376,0.5580756,-0.0006214928,0.003516439,0.004555869,-0.002914367,0.01233726,-0.001980686
0.6185316,0.5664632,0.5574515,-0.0008101906,0.002848634,0.003945554,-0.00289322,0.01475238,-0.005332102
0.6214998,0.5645949,0.5566946,0.002168171,0.0009870082,0.003202911,-0.003353801,0.01267275,-0.007371894
0.6246824,0.5639627,0.551993,0.005359808,0.0003615063,-0.001484228,-0.005537667,0.01672555,-0.009293181
0.6218771,0.566493,0.5509143,0.002562413,0.002898528,-0.002548282,-0.002960982,0.02070259,-0.005590596
0.6197333,0.5690796,0.5555466,0.0004251877,0.005491629,0.002098838,-0.0002302466,0.01955924,0.001302644
0.6205647,0.5683018,0.5577478,0.001261897,0.004720003,0.004314833,-0.001215898,0.01737543,0.001922132
0.6195636,0.5673623,0.5558711,0.000264766,0.003785958,0.002452917,-0.001304936,0.01171582,-0.001301091
0.6170228,0.568469,0.5524141,-0.002273178,0.004897388,-0.000989557,-0.004016675,0.004442023,-0.003877571
0.6181279,0.5679537,0.5528969,-0.001166468,0.004385854,-0.0004924884,-0.005360996,0.002150127,-0.006648124
0.6196338,0.5662408,0.5538884,0.0003401983,0.002675539,0.0005128037,-0.00286458,0.004449424,-0.009029213
0.6190835,0.5641071,0.5502686,-0.0002102318,0.0005432272,-0.003093411,-0.002092579,0.005910501,-0.008470369
0.6198096,0.561572,0.5479261,0.0005149132,-0.001991782,-0.005422646,-0.0006635795,0.008683532,-0.006200997
0.6191887,0.5633751,0.5477058,-0.0001076583,-0.0001896685,-0.005629675,0.001172505,0.01604799,-0.007350221
0.6183021,0.5658373,0.5499603,-0.0009965951,0.002270486,-0.003361864,0.001612238,0.02248353,-0.0084972
0.6181877,0.5650231,0.5552045,-0.001114018,0.001453266,0.001896021,0.001044644,0.02368794,-0.00689806
0.6176089,0.5653479,0.556752,-0.001696226,0.001774044,0.003457476,-0.0008073515,0.02011251,-0.005534122
0.618394,0.5650498,0.5553527,-0.0009150094,0.001470897,0.00207222,-0.000986884,0.01308195,-0.002568659
0.6180522,0.5632297,0.5572273,-0.001260915,-0.0003551302,0.003960889,-0.001750547,0.006330534,-0.002263984
0.6175901,0.5622213,0.5592914,-0.001727366,-0.001370355,0.006038766,-0.004271252,0.007905467,-0.002866873
0.6175442,0.5624832,0.5587227,-0.001777647,-0.001116137,0.005483317,-0.003383251,0.01304538,0.0005216866
0.6161159,0.5647088,0.5607259,-0.003210347,0.001101078,0.007498905,-0.001801745,0.01056703,-0.001076316
0.6166272,0.5657402,0.5636306,-0.002703294,0.002123511,0.01041476,-0.00199448,0.008950602,-0.003085141
0.6170092,0.565232,0.5630204,-0.002325199,0.001605766,0.009814338,-0.001066816,0.008844487,-0.0008799655
0.6163205,0.5652465,0.5636678,-0.003017373,0.001610119,0.01046941,0.0008773531,0.005957933,-0.001508268
0.6166816,0.5648487,0.5662001,-0.002659179,0.001201575,0.01300707,0.001559271,0.007681746,-0.001410055
0.6157555,0.5632657,0.5642935,-0.003587535,-0.0003928567,0.01110288,-0.001287163,0.007796384,-0.001638341
0.6149022,0.559919,0.5583026,-0.004442314,-0.003751508,0.005111319,-0.002080242,0.005378473,-0.002675663
0.6151383,0.5581894,0.5545019,-0.004206741,-0.005493456,0.001306596,0.001051735,0.003184024,-0.001010136
0.6144685,0.5596763,0.5565698,-0.004876011,-0.004018941,0.003367059,0.002018451,-0.000443029,-0.0009850047
0.6139366,0.5617037,0.5599987,-0.005406109,-0.002003871,0.006785304,0.002297923,0.003027876,-0.000993229
0.6155253,0.5628288,0.5573664,-0.003814257,-0.0008906669,0.004139197,-4.988593e-05,0.006540525,-0.001437684
0.6174907,0.5607695,0.5543039,-0.001844134,-0.002961437,0.001059751,-0.003614511,0.003835611,-0.004007915
0.6167432,0.5589219,0.5575146,-0.00258532,-0.004819954,0.004250338,-0.001613375,0.002583502,-0.003683937
0.6161815,0.5609617,0.5602941,-0.003139212,-0.002790272,0.007006845,-8.094344e-05,0.00148736,-0.00266911
0.6168844,0.5629226,0.5582084,-0.002426915,-0.0008386383,0.004895159,-0.001102777,0.0009762384,-0.002741536
0.6156717,0.5643514,0.5556114,-0.003628626,0.0005818229,0.002269304,-0.0006743695,0.00198221,-0.002571969
0.6152141,0.5658597,0.5566448,-0.004073637,0.002082695,0.003270907,-0.0003219009,0.002582947,-0.002732419
0.617199,0.5654222,0.5558382,-0.002074579,0.001638551,0.002429937,-0.0001211798,0.002914368,-0.0008836247
0.618441,0.5648936,0.5551015,-0.0008168345,0.001104004,0.001656174,0.0006666781,0.00238837,0.0009966848
0.6173383,0.5651427,0.5603501,-0.001902243,0.001347672,0.006865427,0.0001005596,0.0008051368,0.0002802513
0.6158137,0.5633554,0.559126,-0.003408003,-0.0004445081,0.005599628,-0.001360394,-0.0004097823,0.0001211397
0.6158662,0.5610409,0.5539948,-0.003335309,-0.002763468,0.0004243075,-0.0004350244,0.0009674695,0.0006556011
0.6153141,0.5620656,0.5546566,-0.003865702,-0.001742673,0.001039954,0.001901629,0.002161305,-0.0007015535
0.6151562,0.5647948,0.553413,-0.004000479,0.0009831517,-0.0002518908,0.003783063,0.003084395,-0.001801609
0.6171199,0.565873,0.550804,-0.00201218,0.002058484,-0.002910778,0.002926521,0.004373034,-0.0003688106
0.6167328,0.5650603,0.5517215,-0.002373103,0.001243424,-0.002044498,-0.0007960333,0.002243135,-0.0003172985
0.6147295,0.5643005,0.5546429,-0.004348877,0.0004816193,0.0008245622,-0.001830913,0.001661798,-0.001196118
0.6147951,0.5645659,0.5537317,-0.004254337,0.0007453608,-0.0001396386,-0.001203359,0.004515595,-1.758222e-05
0.6149398,0.5644926,0.5531259,-0.004079178,0.0006706053,-0.000799055,-0.0009179897,0.004776384,0.0005701779
0.6142719,0.5636531,0.5578847,-0.004715244,-0.0001702189,0.003905701,1.213712e-05,-0.0009860989,0.001263735
0.6143435,0.5627358,0.5589615,-0.004610213,-0.001088637,0.004928114,0.001236182,-0.01008618,0.001852925
0.6141713,0.5623764,0.5582716,-0.004747441,-0.001448948,0.004183581,0.00314532,-0.01123947,0.00281146
0.6133813,0.5624822,0.5583374,-0.00550097,-0.00134387,0.004194373,0.001782164,-0.0062974,0.003784157
0.6145931,0.5624961,0.5580306,-0.004250956,-0.001330321,0.003832116,-0.000462771,-0.005554384,-0.0008768273
0.6168339,0.5625598,0.5585067,-0.001970362,-0.001266611,0.004252354,0.0007980191,-0.004769313,-0.002735752
0.6184195,0.5624448,0.5560913,-0.0003434334,-0.001381281,0.001780585,0.0006082349,0.002448859,4.891118e-05
0.6185354,0.56267,0.5549516,-0.0001847515,-0.001155335,0.0005841128,-0.0002676567,0.01514739,-0.001383594
0.6164892,0.5634714,0.5547253,-0.002186907,-0.0003527249,0.00030074,-0.0002675144,0.01989064,0.00042868
0.6164773,0.5640563,0.5544927,-0.002153745,0.0002339338,1.089182e-05,-0.00170771,0.009048492,0.004438308
0.6170328,0.5638938,0.5579665,-0.001552181,7.350284e-05,0.00342748,-0.00350207,-0.00103365,0.005087427
0.6164091,0.5627764,0.5606154,-0.002128952,-0.001041331,0.006019082,-0.004124383,-0.002236049,0.00371503
0.6178827,0.5622745,0.5599268,-0.0006075701,-0.001540362,0.005273279,-0.002213538,-0.0008920424,-0.00256885
0.6179099,0.5625259,0.5574922,-0.0005320131,-0.001285711,0.002781311,-0.0005827335,-0.0003955563,-0.005587626
0.6159827,0.5626847,0.5587214,-0.002410368,-0.001123166,0.00395285,-0.0002420169,-0.001554767,-0.002109609
0.6134693,0.5636164,0.5623558,-0.004874431,-0.0001872839,0.007529503,0.0003125412,-0.001395028,0.0005417662
0.6104696,0.5649881,0.5632452,-0.007824243,0.001188964,0.008360776,-0.002886432,-0.001988765,0.003685993
0.6099788,0.5656845,0.5639139,-0.008264604,0.001890395,0.008970791,-0.00446186,-0.006632558,0.007725105
0.6123598,0.5653986,0.5629446,-0.005832338,0.001609689,0.007941955,0.0003018174,-0.01031753,0.009103159
0.616819,0.5659696,0.561544,-0.001320996,0.002186108,0.006480904,0.002561708,-0.01016236,0.004499897
0.6176714,0.5670044,0.5626361,-0.0004154819,0.003226197,0.007511373,0.00297268,-0.01066926,-0.001374899
0.6159454,0.5650364,0.5647376,-0.002087484,0.001263523,0.009550019,0.004659254,-0.01465417,-0.001524468
0.6175928,0.5611975,0.5654858,-0.0003854909,-0.00257041,0.01023385,0.00498081,-0.01655038,-0.0001482433
0.6170042,0.558764,0.5632541,-0.0009190574,-0.004999066,0.007936183,0.005370092,-0.01795378,0.0003646378
0.6162245,0.5595575,0.561293,-0.001643214,-0.00420082,0.005907326,0.003199983,-0.02118943,0.0009240736
0.6186352,0.5618817,0.5587854,0.000823136,-0.001871585,0.003330113,-0.0001771596,-0.01913146,0.0008856325
0.6179329,0.5636843,0.5560713,0.0001767298,-6.369583e-05,0.0005446506,0.0003348828,-0.01779784,0.0009322597
0.6148874,0.565888,0.5565962,-0.002813038,0.002145586,0.0009967153,0.001213132,-0.01850971,0.0010796
0.6135578,0.5649254,0.5581393,-0.004087066,0.001188733,0.002465567,0.002204,-0.01620649,0.002328786
0.6155199,0.5625132,0.5604802,-0.002069424,-0.001217481,0.004731134,0.004984204,-0.01721328,0.003419048
0.6178074,0.5635852,0.5625572,0.0002734265,-0.0001393079,0.006731882,0.006445564,-0.01629064,0.00272267
0.6175261,0.5636121,0.559674,4.73184e-05,-0.0001062729,0.003771379,0.007547974,-0.01430061,0.002886528
0.6179082,0.5643365,0.5547935,0.0004842064,0.0006243872,-0.00118737,0.009584311,-0.01869201,0.006206326
0.6183312,0.566728,0.5556003,0.0009614634,0.00302228,-0.0004594678,0.008819052,-0.02049853,0.009583894
0.6168943,0.5666734,0.5554288,-0.0004217165,0.002973853,-0.0007104162,0.006462687,-0.01788683,0.008195468
0.6165109,0.5679634,0.5508035,-0.0007522636,0.004269957,-0.005415212,0.005869015,-0.01650856,0.005906004
0.6177052,0.5670622,0.5514572,0.0004942444,0.003374311,-0.004840889,0.003638556,-0.01989753,0.006348094
0.6186652,0.5638115,0.5526657,0.001505379,0.0001286148,-0.003711022,0.0005206138,-0.02442007,0.005266257
0.6199138,0.5654874,0.5522656,0.002804181,0.001808982,-0.004188684,0.0002084058,-0.02357239,0.001926785
0.6212328,0.565688,0.5526301,0.004172163,0.00201325,-0.003900338,0.0006073288,-0.02280735,0.0005765677
0.6208986,0.5633047,0.55068,0.003885551,-0.0003670357,-0.005924938,0.002656333,-0.02062533,0.00435001
0.6196264,0.5624481,0.5524685,0.002659259,-0.001221393,-0.004208752,0.00628757,-0.01403545,0.008067064
0.6192341,0.5611216,0.554725,0.002311024,-0.002546188,-0.002022378,0.005572866,-0.01242652,0.006424863
0.6196799,0.561823,0.5546886,0.00279898,-0.001843611,-0.002126294,0.003173425,-0.01914373,0.00586352
0.6208741,0.5624765,0.5559037,0.004033263,-0.001189362,-0.0009760052,0.004589763,-0.02878605,0.007756714
0.6237772,0.5619537,0.5536204,0.006974231,-0.001711643,-0.003321475,0.006066826,-0.03228144,0.006918534
0.6259481,0.5630582,0.5519624,0.009180631,-0.0006068021,-0.005038768,0.006808722,-0.02750099,0.004585824
0.6250655,0.5624065,0.5528192,0.008330662,-0.001258162,-0.004238364,0.007328244,-0.02277588,0.002146833
0.6245371,0.5619552,0.5519142,0.007831819,-0.0017092,-0.005196515,0.006346423,-0.02003632,0.001626033
0.625307,0.5621318,0.5511301,0.008627951,-0.001532316,-0.006030508,0.007549091,-0.01317086,0.003570432
0.6248305,0.5604702,0.5511783,0.008174084,-0.003193526,-0.006028601,0.008444213,-0.003523789,0.004313056
0.6239026,0.5610591,0.552227,0.007265012,-0.002604047,-0.005022578,0.00700279,-0.00108861,0.005439374
0.6235424,0.5615438,0.5539799,0.006919525,-0.002118311,-0.003308592,0.006610758,-0.005228136,0.007362126
0.6232497,0.5610177,0.5551204,0.006637481,-0.002642921,-0.002203108,0.004932398,-0.00935345,0.00601261
0.6228576,0.5633288,0.5508411,0.006251759,-0.0003298758,-0.006513688,0.003509817,-0.01251356,0.00210669
0.6219937,0.5653205,0.544681,0.00539008,0.001664397,-0.01270104,0.004062634,-0.006798231,-0.0002358303
0.6219396,0.5655941,0.5469928,0.005333806,0.001941022,-0.01041234,0.003498591,0.00336008,0.002496575
0.6220689,0.5652012,0.548871,0.005456858,0.001551448,-0.008552827,0.001742706,0.002979982,0.005965076
0.6193724,0.5650846,0.5469199,0.002749937,0.001438468,-0.01051782,-0.001659903,0.005228968,0.003694988
0.6171329,0.5655491,0.5491936,0.0004959331,0.001906673,-0.008253206,-0.006278354,0.0132815,0.001997351
0.6183522,0.5647562,0.54879,0.001696966,0.001117517,-0.008660723,-0.009320329,0.01059314,0.003543588
0.6205762,0.5634733,0.5459206,0.00389909,-0.0001615999,-0.01152898,-0.00732179,0.008750139,0.002214117
0.6231494,0.5624757,0.5459236,0.006447029,-0.001155667,-0.01151955,-0.004162871,0.01188239,-6.793069e-05
0.6251907,0.5638606,0.5453183,0.008459752,0.0002328189,-0.01211288,-0.005878382,0.01154299,-0.001208456
0.6252556,0.5663989,0.5457744,0.008492686,0.002774571,-0.01163921,-0.005267157,0.01455407,-0.0002504678
0.6244199,0.5652392,0.5479958,0.007621487,0.001618241,-0.009394498,-0.001524565,0.0150555,0.001560058
0.6230881,0.5647125,0.550535,0.006250723,0.001094613,-0.00682601,-0.001545453,0.01251404,-0.0003275792
0.6210536,0.5654947,0.5511856,0.004173691,0.001879594,-0.006140548,-0.002762459,0.01406906,-0.0002494775
0.6210937,0.5632276,0.549848,0.004167937,-0.000385097,-0.00743755,-0.004050897,0.0141183,-8.840789e-05
0.6229152,0.5620616,0.5523993,0.005940218,-0.001548994,-0.004840219,-0.003703355,0.01705799,-0.00473071
0.6221297,0.5634407,0.5551378,0.005102309,-0.0001681174,-0.002050592,-0.0009840754,0.02134087,-0.00671681
0.6208723,0.5643056,0.5570723,0.003789445,0.0006982693,-6.001353e-05,-0.0003043353,0.01919313,-0.008203768
0.6209665,0.5637723,0.5599146,0.003825262,0.0001661753,0.002842686,-0.0009539048,0.01725177,-0.008529386
0.6205726,0.5628725,0.5577071,0.003370171,-0.0007326445,0.0006995633,-0.003256866,0.017567,-0.005087556
0.6209503,0.5635312,0.5559264,0.003684164,-7.323186e-05,-0.001013516,-0.006168298,0.01791725,-0.004582169
0.62077,0.5649304,0.5532406,0.003437757,0.00132657,-0.003628701,-0.006027369,0.01783754,-0.003781547
0.6195099,0.5655209,0.5480777,0.002109282,0.001917396,-0.008718325,-0.00599956,0.01698618,-0.001554161
0.6185103,0.5644073,0.5517063,0.001039327,0.0008037777,-0.005013883,-0.007147846,0.01602025,0.0001466471
0.6175757,0.5633064,0.5545658,3.268129e-05,-0.0002973723,-0.002076021,-0.007192047,0.01402313,0.001127642
0.6182802,0.5642541,0.552187,0.0006636388,0.0006497245,-0.004374221,-0.007451578,0.01187525,-0.0004966143
0.6192121,0.5647238,0.555188,0.001520771,0.001118527,-0.001290585,-0.008545009,0.01035832,0.0003052922
0.6192212,0.5642435,0.5591242,0.001454157,0.0006369773,0.002730136,-0.007549431,0.01623712,0.002101854
0.6188477,0.5628578,0.5600029,0.001004239,-0.0007502824,0.003694763,-0.004043356,0.02428284,0.002956392
0.6177479,0.5607332,0.5580961,-0.0001725,-0.002876701,0.001874767,-0.001363691,0.01336678,0.004164991
0.6188099,0.5596125,0.5558909,0.0008121907,-0.003999416,-0.0002430878,-0.0009643868,-0.001522157,0.002545397
0.6203278,0.5568895,0.5569175,0.002252752,-0.006724364,0.0008710905,-0.002188186,-0.0003969125,0.000964922
0.6199039,0.5555358,0.5566071,0.001751464,-0.008079823,0.0006480839,-0.002518307,0.002808587,-0.001898938
0.6202981,0.5609787,0.5554023,0.002068487,-0.002637959,-0.0004696405,-0.002312575,0.0037165,-0.004334799
0.6202171,0.5657491,0.5555239,0.001910478,0.002132156,-0.0002614881,-0.001856312,0.002511419,-0.001827665
0.6198789,0.5633052,0.5537912,0.001495667,-0.0003110995,-0.001908462,0.0009015645,0.002358461,-0.002605885
0.6204092,0.5614104,0.5515227,0.001949854,-0.002204594,-0.004092022,0.00162255,0.01507038,-0.005961123
0.619111,0.5649061,0.5477734,0.0005760103,0.001293193,-0.00775733,-0.0001369187,0.02741935,-0.006982532
0.615808,0.5659542,0.5438327,-0.002801979,0.002344021,-0.0116147,-0.003220115,0.0246927,-0.006618921
0.6127149,0.5636929,0.5515459,-0.005969214,8.600863e-05,-0.00381862,-0.006813925,0.01812674,-0.004332152
0.6139438,0.5629029,0.5657114,-0.004813141,-0.0007002963,0.01042939,-0.003226381,0.01358189,-0.003966427
0.6176018,0.5621521,0.5678567,-0.001226476,-0.001446927,0.0126564,0.00140819,0.005601213,-0.004889008
0.6179091,0.5624423,0.560685,-0.000988716,-0.001152163,0.005565164,0.000645435,0.0044159,-0.005467948
0.6161272,0.5628247,0.5563609,-0.002838158,-0.0007647427,0.001319639,0.001170998,0.009986197,-0.007227793
0.6128951,0.5623271,0.5571313,-0.006135613,-0.001256849,0.002166401,0.0009276138,0.008003755,-0.006771415
0.6116119,0.5635969,0.554786,-0.007481825,1.887357e-05,-0.0001048883,-0.001474419,0.00937453,-0.005159096
0.614049,0.5639864,0.5477291,-0.005105114,0.000414711,-0.007090195,-0.003372153,0.01067903,-0.003258651
0.6142596,0.5625784,0.5494479,-0.004951872,-0.0009865242,-0.005302036,-0.004665211,0.004700582,0.0001242237
0.6149241,0.5606438,0.5547266,-0.004341533,-0.002914015,4.401902e-05,-0.004465556,0.006052104,0.0005155009
0.6175942,0.5598705,0.5551926,-0.001722243,-0.003679793,0.0005754406,-0.003375657,0.005520449,-0.002368158
0.6184275,0.5620434,0.5612314,-0.0009364078,-0.001498807,0.006677687,-0.0003806751,0.003265288,-0.004901816
0.6177366,0.5641295,0.5644759,-0.001671422,0.0005959288,0.009983389,0.0005870147,0.002501655,-0.005221711
0.6150112,0.5654406,0.5546542,-0.004437616,0.001916159,0.0002203232,-0.002119895,-0.003452254,-0.003260202
0.6137234,0.5649625,0.5476515,-0.005762878,0.001447604,-0.006726438,-0.002321795,8.023759e-05,-0.001332956
0.61646,0.5630018,0.5550596,-0.003060213,-0.0005032339,0.0007349706,-0.003868191,0.00573092,-0.00187631
0.6189362,0.5639326,0.5628472,-0.0006145268,0.0004375929,0.00857335,-0.006585262,0.006631151,-0.005839853
0.6175048,0.564383,0.5597179,-0.002072939,0.0008982704,0.005492135,-0.003373948,0.005679574,-0.007457271
0.6157045,0.5628184,0.5605921,-0.003896934,-0.0006560596,0.006411548,-9.11088e-05,-0.001847755,-0.003360522
0.6179924,0.5620033,0.5663113,-0.001629365,-0.001460727,0.01217285,-0.0006222812,0.0007599777,0.0001968493
0.6180885,0.5621928,0.5648756,-0.00155042,-0.001260795,0.01077563,-0.0005960099,0.004961643,0.003079306
0.6148463,0.5667871,0.5626896,-0.004806514,0.003344057,0.008624212,-0.0004636208,0.001307049,0.004366089
0.6134249,0.5701183,0.5588231,-0.00623868,0.006685776,0.004788086,-0.001075079,0.003259636,-0.000763907
0.61343,0.5669117,0.5523349,-0.006241141,0.003489509,-0.001674112,-0.0007998742,0.0005902957,-0.003992255
0.6146161,0.5658284,0.5505166,-0.005059267,0.002415967,-0.003470458,-0.001134093,-0.001406694,0.0004044497
0.6150649,0.5652957,0.5521835,-0.004611225,0.001892331,-0.001785521,-0.001793606,0.003037768,0.003136584
0.6165667,0.5625517,0.5572936,-0.003106865,-0.0008434073,0.00333909,-0.000417967,0.00292706,-0.001856219
0.6178611,0.5629465,0.5612486,-0.001806592,-0.0004409806,0.007305297,0.0002649049,0.001451634,-0.006047135
0.6155851,0.5641163,0.5594274,-0.004073554,0.0007357423,0.00549182,-0.0007665971,-6.60284e-05,-0.00285916
0.6159723,0.564967,0.5563833,-0.003674132,0.001592563,0.00245208,-0.001168532,0.004795353,-0.0007845399
0.6165581,0.5623807,0.5549463,-0.003072987,-0.0009882443,0.001016021,-0.0004118712,0.009936188,-0.000594749
0.6156681,0.5580703,0.5549762,-0.003944839,-0.005293716,0.001043648,0.001462306,0.001759943,0.002541567
0.6158782,0.5624311,0.5527564,-0.003713613,-0.0009285802,-0.001181598,0.002685344,-0.005315337,0.002481174
0.6135429,0.5685348,0.5486313,-0.006024967,0.005179222,-0.005314913,0.003315109,-0.005410748,-0.0003589968
0.6136084,0.5700017,0.5477956,-0.005932746,0.006649669,-0.006161289,0.002439083,-0.005720558,-0.002393785
0.6147496,0.5687958,0.5498882,-0.004762086,0.005446651,-0.004081229,-0.0009276538,-0.005994972,-0.003731107
0.6143896,0.5622674,0.553231,-0.005089686,-0.001079679,-0.0007526051,-0.0005758014,-0.007477046,-0.002645423
0.6177832,0.5570935,0.5565424,-0.001661036,-0.006252564,0.002543411,0.001900807,-0.005927789,-0.003144936
0.6187496,0.558103,0.5570795,-0.0006569106,-0.005242717,0.003063909,0.001919125,0.004269364,-0.004868149
0.6168989,0.5609768,0.5580694,-0.002467508,-0.002368968,0.004035996,0.002232066,0.01134006,-0.004179622
0.6147636,0.562541,0.5625059,-0.004560402,-0.0008050662,0.008453516,0.001619876,0.003574224,-0.003743875
0.6113777,0.5624838,0.5620425,-0.007901857,-0.0008625222,0.007969722,0.002171916,-0.006438187,-0.0006006331
0.6144981,0.5625287,0.5591088,-0.004734715,-0.0008180118,0.005013899,0.003903185,-0.008966411,0.003626404
0.6222023,0.5614437,0.5603152,0.003018229,-0.001903404,0.006196474,0.003654408,-0.01093921,0.001432622
0.6259386,0.5607649,0.5584172,0.006805213,-0.002582408,0.004272677,0.005000764,-0.01348067,-0.001494297
0.6215032,0.5616569,0.5599435,0.002421906,-0.001690479,0.005771298,0.005610203,-0.01281704,-0.0004998423
0.6132399,0.5627542,0.564378,-0.00578824,-0.0005929661,0.01017604,0.004650545,-0.0107621,0.001135748
0.612048,0.5645523,0.5602002,-0.006926164,0.001205685,0.005966196,0.003667125,-0.01083859,0.005478939
0.6132249,0.5640729,0.5583364,-0.005694289,0.0007271634,0.004068188,0.001873314,-0.01122208,0.01054209
0.6130036,0.5633683,0.5592412,-0.005859682,2.360161e-05,0.004936316,0.002133352,-0.01266555,0.008222958
0.6155976,0.5641277,0.5559615,-0.003208608,0.0007842601,0.001617646,0.0001638555,-0.01725469,0.001104601
0.616523,0.562846,0.5549653,-0.002225022,-0.0004960653,0.0005803423,-0.003135922,-0.02006368,-0.001735083
0.6169287,0.5621474,0.5556032,-0.001760235,-0.001193144,0.001175116,-0.001055378,-0.02144626,0.0004469594
0.6188472,0.5624056,0.5557472,0.0002181866,-0.0009332744,0.001274308,0.000990463,-0.02482925,0.001645897
0.6195981,0.5616241,0.5549474,0.00102983,-0.001712844,0.0004280235,0.001119614,-0.02604876,0.0007129006
0.6198225,0.5610385,0.5527164,0.001315272,-0.002296393,-0.001850871,0.002625656,-0.02215267,0.002212496
0.6189531,0.561817,0.5506841,0.0005071085,-0.001515405,-0.003932133,0.003038856,-0.01866926,0.005669623
0.6184875,0.5630665,0.5501022,0.0001027189,-0.0002630973,-0.004563767,0.001990302,-0.01931703,0.007833709
0.6185044,0.5628288,0.5518638,0.0001807214,-0.0004976191,-0.002852221,0.001998877,-0.02181464,0.007087065
0.6193288,0.5641734,0.5542138,0.001065694,0.0008505523,-0.0005522952,0.002730179,-0.02540825,0.005139914
0.6219854,0.5670313,0.5572266,0.003782277,0.00371239,0.002410665,0.004237332,-0.02833533,0.006089288
0.6217099,0.5669886,0.5578198,0.003566071,0.003673795,0.0029542,0.006532132,-0.02927054,0.006511314
0.6214226,0.5661647,0.5553129,0.003336905,0.002853879,0.0003980586,0.006839088,-0.02572679,0.006774524
0.6234512,0.5659004,0.5537487,0.005422202,0.002593422,-0.001215159,0.006558742,-0.0198111,0.008351624
0.6227479,0.5648565,0.5505246,0.004774021,0.001553067,-0.004487733,0.007538811,-0.02164707,0.006532708
0.6212323,0.5641946,0.5507446,0.00331163,0.0008941987,-0.004315553,0.006954023,-0.02396634,0.006542156
0.6209316,0.5637038,0.5545828,0.003061969,0.0004059813,-0.0005241998,0.004878331,-0.02174691,0.006903682
0.6207477,0.5627792,0.5536255,0.002926888,-0.0005164758,-0.001527166,0.003094481,-0.02477782,0.004690757
0.618963,0.5623644,0.5508028,0.001188541,-0.0009295962,-0.004394331,0.00259703,-0.0243069,0.005713521
0.6177344,0.5620865,0.5431374,3.843388e-06,-0.001206209,-0.01210254,0.003437182,-0.01688456,0.005156549
0.620982,0.5611157,0.5368815,0.003292953,-0.002176013,-0.01839933,0.004538683,-0.01429317,0.005794329
0.6231915,0.5610057,0.5451282,0.005541394,-0.002285132,-0.01019093,0.00666048,-0.0158692,0.009303317
0.6222414,0.5627482,0.5517933,0.004627633,-0.0005418982,-0.003560978,0.00747573,-0.0187075,0.008214928
0.6218984,0.5631799,0.5472974,0.004318131,-0.0001095355,-0.008088395,0.004519827,-0.02431524,0.007336687
0.622315,0.5617204,0.5459496,0.004765359,-0.00156828,-0.009464163,0.002572443,-0.0293117,0.007346469
0.6224302,0.561655,0.5491168,0.004908196,-0.001632812,-0.006320983,0.00370195,-0.02390562,0.006559136
0.6219279,0.5612361,0.5489988,0.004430364,-0.002050817,-0.006458911,0.004377672,-0.01396831,0.006339527
0.6232594,0.5605201,0.5490435,0.005783156,-0.002765683,-0.006429991,0.00328131,-0.01256574,0.004822034
0.62679,0.5614063,0.5507235,0.009331711,-0.001877956,-0.004761487,0.00164448,-0.008057827,0.003507458
0.6300685,0.559995,0.5498612,0.01262453,-0.003287362,-0.005631038,0.00105287,0.001071569,0.0006412547
0.6284065,0.5583987,0.5488599,0.01097319,-0.004881195,-0.006635313,0.0002995469,0.004351245,-0.001940808
0.622699,0.5600244,0.5466182,0.00527201,-0.003252397,-0.008875707,-0.001163652,0.004273422,-0.001506572
0.6215353,0.5633373,0.544247,0.00411049,6.442996e-05,-0.01124122,-0.001213424,0.0003817016,-0.004439401
0.6225611,0.5666439,0.5455577,0.005134108,0.003375675,-0.009920324,-0.002542169,0.0008345547,-0.007125595
0.6230103,0.565189,0.5425742,0.005576961,0.001926153,-0.01288888,-0.005295835,0.007602625,-0.005338543
0.6241655,0.5625135,0.5394562,0.006721597,-0.0007433659,-0.01598696,-0.004123086,0.01318205,-0.004326201
0.6230334,0.5627165,0.5431672,0.005574876,-0.0005340576,-0.01225085,-0.002035405,0.01929712,-0.001715367
0.6217614,0.5621138,0.5447089,0.00428417,-0.001130123,-0.01067847,-0.002642326,0.01991931,-0.001103898
0.6201796,0.5629526,0.5479461,0.002679594,-0.0002842018,-0.007404996,-0.003733093,0.01966101,-0.004526311
0.6185089,0.5642318,0.5522019,0.0009822986,0.00100237,-0.003107381,-0.005684165,0.02092895,-0.002706334
0.6182103,0.5639054,0.5478369,0.0006536258,0.0006836761,-0.007425269,-0.00558787,0.01598038,-0.0011686
0.6174868,0.5646975,0.5475648,-0.0001032939,0.001483775,-0.007644994,-0.002053659,0.01446738,-0.001573369
0.6190774,0.5668731,0.5526662,0.001450848,0.003667412,-0.002486375,-0.0007123877,0.01487657,-0.001362503
0.6218315,0.5694391,0.5538977,0.004165833,0.006241376,-0.001192889,-0.002775762,0.01207239,-0.004624695
0.6241695,0.568598,0.5573278,0.006462204,0.005407917,0.002303427,-0.00469897,0.008728136,-0.003123944
0.6245599,0.5670872,0.5577428,0.006808345,0.003904228,0.002788425,-0.002720797,0.006922052,0.0007651873
0.6225304,0.5662353,0.5543269,0.004732184,0.003058611,-0.0005542582,-0.0006751612,0.01271966,0.002127173
0.6241032,0.5613668,0.5533172,0.006255646,-0.00180454,-0.001488001,-0.003712047,0.01579507,0.004813672
0.6244745,0.5585067,0.5504165,0.006575156,-0.004660204,-0.004310425,-0.006065645,0.0114536,0.001836516
0.6215523,0.5588849,0.5513567,0.003598771,-0.004278239,-0.003289825,-0.006016208,0.006720142,-0.004319283
0.6199176,0.5591829,0.5545105,0.001907389,-0.003977004,-5.361482e-05,-0.004798889,0.001496268,-0.004695211
0.6186121,0.5606114,0.5517652,0.0005429664,-0.00254545,-0.002714897,-0.001585924,4.603213e-05,-0.001120821
0.620682,0.5622678,0.5485375,0.00255203,-0.0008860979,-0.005857216,0.0005363795,0.001412724,0.001282834
0.6215936,0.5645356,0.5476387,0.003400993,0.001384742,-0.006669309,0.002467194,0.003200724,0.003138046
0.6200672,0.5634399,0.5490603,0.001810299,0.0002921157,-0.005159717,0.001903923,0.005893236,0.004098843
0.6213308,0.561349,0.54903,0.003008186,-0.001795767,-0.005100912,-0.003075017,0.009105479,0.001144202
0.6205509,0.563189,0.5477702,0.002161267,4.727264e-05,-0.006270344,-0.00560772,0.01186523,0.001890857
0.6196754,0.563663,0.5498057,0.001217605,0.0005243437,-0.004143374,-0.00490482,0.009503574,0.001737066
0.6198269,0.5646699,0.5513412,0.001299999,0.001534294,-0.002515345,-0.003417164,0.005890093,-0.005362221
0.6197584,0.5660575,0.5549919,0.001161648,0.002924873,0.001228724,-0.002375875,0.004655774,-0.007809086
0.6215982,0.5649166,0.5598661,0.002930975,0.001786805,0.006196851,-0.0009004154,0.008091996,-0.004649023
0.6202914,0.5656101,0.5601517,0.00155324,0.00248287,0.006576468,0.003699556,0.01360944,-0.0002970517
0.6176757,0.5672714,0.5557347,-0.001133683,0.004146301,0.002252964,0.004529032,0.007092733,-0.001204566
0.6165929,0.567671,0.5493258,-0.002287861,0.004547544,-0.004063198,0.0006150161,-0.005671275,-0.003144535
0.6168592,0.5648355,0.5531408,-0.002092785,0.001712955,-0.0001564576,0.0008005931,-0.01116638,0.00202592
0.6197607,0.5609442,0.5581421,0.0007379359,-0.002178237,0.004935292,0.001412286,-0.007687827,0.002563558
0.6215784,0.5622598,0.5515679,0.002485473,-0.0008632634,-0.001549831,-0.0007849097,-0.002034686,0.001222204
0.6237361,0.5634644,0.5497655,0.004573705,0.0003401151,-0.003264719,-0.0009814779,-0.005146134,0.0007149579
0.6227999,0.561804,0.5501956,0.003568672,-0.0013221,-0.002748789,-0.000124717,-0.003805462,-0.002708817
0.6181209,0.5625802,0.5457149,-0.001178503,-0.0005482525,-0.007145158,0.0007285939,0.01034805,-0.002441808
0.6193919,0.5628734,0.5460758,2.505721e-05,-0.000257797,-0.006701445,0.0004509521,0.02111462,-0.00315562
0.620039,0.5623808,0.5495609,0.0006055212,-0.0007534375,-0.003134742,-0.000601795,0.02085875,-0.0006751537
0.6176741,0.5645811,0.5530465,-0.001825018,0.001443534,0.0004313035,0.001189288,0.01035189,0.004109195
0.6179818,0.5658149,0.5543755,-0.001581883,0.002673617,0.00183953,0.00246153,0.001664294,-0.0001808693
0.6160818,0.5649204,0.5545902,-0.003545155,0.001775174,0.002132055,0.002032088,0.001217688,-0.002403404
0.6153444,0.5635401,0.5556567,-0.004344329,0.0003903655,0.003274833,0.002017652,0.003988674,0.001538801
0.619013,0.5626618,0.5539582,-0.0007358523,-0.0004927646,0.00165074,0.002008138,0.008656299,0.002455747
0.6215289,0.563373,0.5531914,0.001721918,0.0002132041,0.0009564187,0.001881454,0.006782731,-0.001840809
0.6195825,0.5633283,0.5529705,-0.0002807461,0.0001629692,0.0008058745,-0.001606859,0.003624253,-0.005208873
0.6165462,0.5627691,0.5530585,-0.003371405,-0.0004021618,0.0009620092,-0.005790653,0.00276546,-0.0005631659
0.618285,0.562498,0.5549592,-0.001684918,-0.0006794101,0.002928476,-0.005924781,-0.0009049292,0.005352392
0.6189384,0.5612792,0.5525269,-0.001081727,-0.001904597,0.0005596315,-0.003385026,0.001713424,0.00552848
0.6180455,0.5611229,0.5494218,-0.002022583,-0.002067339,-0.00248457,-0.0009188347,0.00335523,0.00242285
0.6202763,0.5620647,0.5486812,0.0001624181,-0.00113194,-0.00316659,-0.002453153,0.003286101,0.0002415908
0.6193412,0.5627033,0.550648,-0.0008162968,-0.0004996595,-0.001143497,-0.003350765,0.006390254,0.001535578
0.6179639,0.5627067,0.5571499,-0.002234897,-0.0005023943,0.005412495,-0.0005177289,0.0008347281,0.002755667
0.6187697,0.5622161,0.5594807,-0.001468123,-0.0009989377,0.007795067,0.0004422336,-0.00268607,0.00130202
0.6193563,0.5626046,0.557059,-0.0009183693,-0.000616111,0.005422559,0.0002591461,0.002014412,0.0001962431
0.6214558,0.5626149,0.555555,0.001146594,-0.000611262,0.003964968,-0.0002194172,0.004267882,0.0005464232
0.620082,0.5622753,0.5559429,-0.0002594515,-0.0009559356,0.004396265,-0.0002054162,0.003022664,0.0004011374
0.6175034,0.5623344,0.5594358,-0.00286824,-0.0009015997,0.007929376,0.001752838,-0.000190064,-0.001735401
0.6180993,0.5606466,0.5616952,-0.002300437,-0.002593839,0.01022558,0.002519454,-0.001300905,-0.003160028
0.617094,0.5589314,0.5586253,-0.003331551,-0.004312927,0.007188871,0.002517432,-0.0006236885,-0.001451834
0.6166529,0.5587606,0.5518213,-0.003796297,-0.004486979,0.000414254,0.002471458,0.001314768,-0.001857959
0.6185684,0.5585098,0.5484499,-0.001902115,-0.0047403,-0.002931633,0.0009694816,0.002759188,-0.003346902
0.6201324,0.5589973,0.5514143,-0.0003570352,-0.0042543,5.453133e-05,0.0001373554,0.001095476,-0.001790448
0.6206145,0.560838,0.5539544,0.0001083511,-0.002414047,0.002613078,0.0002992434,0.001682656,-0.002148061
0.6206128,0.5631028,0.5544356,9.212166e-05,-0.0001484025,0.003109427,-0.0003968693,0.002455363,-0.002319911
0.6211794,0.5645848,0.5540482,0.0006462722,0.001335626,0.002734047,0.0002307611,0.002649863,-0.001619794
0.6207502,0.5643762,0.5525449,0.0002066197,0.001130178,0.001239617,0.0003830807,0.003470327,-0.003169151
0.620599,0.5648201,0.5505192,4.663393e-05,0.001578129,-0.0007802919,-0.001292961,0.002271753,-0.002960839
0.6208402,0.5657534,0.5497591,0.0002808039,0.002516232,-0.001537394,0.0005216899,0.003688349,-0.00212074
0.6187817,0.5632527,0.551332,-0.001783129,2.102364e-05,3.584646e-05,0.0008059362,0.004064127,-0.0002374156
0.6175511,0.5618604,0.5513765,-0.003017679,-0.001365335,7.830256e-05,-0.002433385,-0.00115828,0.001114351
0.6181884,0.5652938,0.553101,-0.002382726,0.002074555,0.001798633,-0.002749423,-0.00553169,0.001131304
0.6190995,0.5679535,0.5585924,-0.001472446,0.004741026,0.007283691,-0.002174063,-0.008464813,0.006600378
0.6197406,0.5675488,0.5593675,-0.000830645,0.004343303,0.008050349,-0.0008290014,-0.01058617,0.009429933
0.6193703,0.5645269,0.5545063,-0.001198801,0.001328249,0.003178313,-0.001069351,-0.008783638,0.006484021
0.6194169,0.5633429,0.549281,-0.001148512,0.0001509144,-0.002060206,-0.002974793,-0.005048375,0.004891862
0.6195002,0.564798,0.5486922,-0.001060188,0.001612486,-0.00266447,-0.001887191,-0.00380229,0.001271843
0.6199058,0.5635506,0.5497533,-0.0006482052,0.0003710879,-0.001620687,-0.001808996,-0.00244694,-0.002218217
0.6222164,0.5645651,0.5475229,0.001669931,0.001391343,-0.003870046,-0.001157793,0.00704615,-0.005270308
0.6238039,0.5662669,0.5486857,0.003266107,0.003098373,-0.002727543,-8.81399e-05,0.02085833,-0.01043911
0.6211291,0.5648253,0.5494765,0.0006009411,0.001661557,-0.001958083,-0.001077547,0.02222414,-0.009476416
0.6169344,0.5663407,0.5487343,-0.003583475,0.003181143,-0.002722352,-0.0002392707,0.01105476,-0.003593752
0.6169896,0.5671433,0.5555728,-0.00351725,0.003987111,0.004093536,0.0003022085,0.002969855,-0.001212481
0.6183858,0.5658297,0.5597213,-0.002109201,0.002676164,0.008218906,0.0009869644,0.0005546223,-0.001658553
0.6194641,0.5642021,0.555431,-0.001018233,0.001050233,0.003904756,0.0004485202,0.00208576,-0.006106566
0.6212938,0.561502,0.5505794,0.0008249219,-0.001649141,-0.0009714568,-0.003579644,0.005723936,-0.01129511
0.618264,0.5626389,0.5480989,-0.00219063,-0.000512453,-0.003477359,-0.00493561,0.006791259,-0.006672425
0.6151391,0.5649414,0.5461079,-0.005300544,0.001789057,-0.005494237,-0.003548842,0.008237351,-0.0008466797
0.6173706,0.5653488,0.544695,-0.003053328,0.002194696,-0.006933277,-0.003246131,0.005131353,-0.002518808
0.6189821,0.5656082,0.5490002,-0.001425145,0.00245148,-0.002653983,-0.003559701,-0.004616179,-0.001665194
0.6202542,0.5648154,0.5503864,-0.0001355981,0.001655343,-0.00129333,-0.001236561,-0.007756626,0.0001713279
0.6205033,0.5643926,0.5487647,0.0001318383,0.001228167,-0.002939924,0.0007168466,-0.005348621,-0.001111694
0.6177563,0.5640107,0.5533571,-0.002596064,0.000841112,0.00162832,-0.0007283408,-0.007404382,2.03417e-05
0.6168713,0.5644084,0.5540258,-0.003461262,0.001232724,0.002273602,0.0001897482,-0.01104351,0.002757829
0.6176753,0.5655719,0.5535476,-0.002636765,0.002389373,0.001772727,0.001903603,-0.01042986,0.004402272
0.6184325,0.5634774,0.5541093,-0.001858244,0.0002871443,0.00231231,0.002061919,-0.009003301,0.002237847
0.6201139,0.5616033,0.5506358,-0.0001547761,-0.001595508,-0.001182719,0.0003954891,-0.00486659,-0.00154328
0.6213676,0.56265,0.5514256,0.001121668,-0.0005580745,-0.0004139384,-0.002780034,0.005647566,-0.002579215
0.6218958,0.5627411,0.5517653,0.00167319,-0.0004768322,-9.458623e-05,-0.001210739,0.009970004,-0.005269597
0.622281,0.5622555,0.5507585,0.002082033,-0.000972799,-0.00112123,3.304105e-05,0.008385263,-0.006901712
0.6217989,0.5625861,0.552044,0.001623873,-0.0006529037,0.0001451268,-0.001557277,0.00958003,-0.004244369
0.6194983,0.5627284,0.5507732,-0.0006526938,-0.0005216131,-0.001144206,-0.000450481,0.009946977,-0.003031124
0.6173454,0.5632998,0.5503937,-0.002781679,3.848167e-05,-0.00154153,-0.000538018,0.01411352,1.15974e-05
0.6187276,0.5642217,0.5491033,-0.001375493,0.0009490023,-0.002848943,-0.001636838,0.01955331,0.002713606
0.6201255,0.5639965,0.549014,4.625291e-05,0.0007122327,-0.002954354,-0.002060589,0.01769474,-0.003068669
0.6179425,0.5639926,0.557029,-0.002112785,0.0006967064,0.005045459,-0.003402222,0.01575598,-0.009457797
0.6157672,0.5658318,0.5681116,-0.004264195,0.002524148,0.01611367,-0.004265514,0.01580711,-0.01006365
0.6149849,0.5670432,0.5723063,-0.005022501,0.003723487,0.02029427,-0.004596266,0.01314865,-0.006559085
0.6152175,0.5656903,0.5618667,-0.004765697,0.002358323,0.009840078,-0.003911873,0.01049142,-0.002665044
0.6163323,0.5636486,0.5508425,-0.003626309,0.0003039789,-0.001199921,-0.004017065,0.009431148,-0.003547958
0.6162828,0.5627478,0.5525251,-0.00365064,-0.0006098166,0.000465599,-0.00666062,0.008037533,-0.005222036
0.6158721,0.5624038,0.5554674,-0.004035622,-0.000967133,0.003389576,-0.008514598,0.008423456,-0.005953639
0.6144221,0.5623321,0.5556407,-0.005459141,-0.001052461,0.003543397,-0.008022045,0.01113927,-0.006713967
0.6118691,0.5626861,0.5566983,-0.007984798,-0.0007120689,0.004580318,-0.005779415,0.01185173,-0.003959503
0.6139969,0.5631767,0.5601009,-0.00582871,-0.0002351639,0.007960945,-0.002973967,0.00997537,-0.002776351
0.6179758,0.5659578,0.5657455,-0.001820298,0.002532178,0.01358207,-0.001512663,0.006598012,-0.002246004
0.6180711,0.5689605,0.5664495,-0.001694262,0.005521242,0.01426074,-0.000712387,0.003492653,0.002878907
0.6181593,0.5665773,0.5639236,-0.001574204,0.003124114,0.01170716,8.189283e-05,0.004118989,0.003426587
0.6180507,0.563912,0.5635489,-0.001649809,0.0004446507,0.01130216,-0.0003705162,0.0042867,0.0002252264
0.6169156,0.565559,0.5614188,-0.002750916,0.00207715,0.009138573,-0.0003429539,-0.0007216526,0.0004885243
0.6180284,0.5651967,0.5597413,-0.001603149,0.001699952,0.00742439,0.0003075861,-0.002088408,-0.001038779
0.6199084,0.562033,0.5599807,0.0003127294,-0.001478925,0.007623678,-0.0003876001,0.009138486,-0.003845761
0.6205817,0.5611133,0.5577589,0.001022627,-0.002414192,0.005358402,-0.0001094406,0.02415266,-0.007138593
0.6164814,0.5637122,0.5577133,-0.003040545,0.0001689561,0.005266004,0.00026,0.02628706,-0.01179022
0.6109324,0.567343,0.5597855,-0.008551775,0.003783987,0.007288033,-0.0003675945,0.01659495,-0.0106049
0.6125513,0.566341,0.5604865,-0.006894471,0.002766033,0.007935654,-0.0007895867,0.007438472,-0.006902756
0.6151891,0.5614097,0.5629118,-0.004217434,-0.002181406,0.01030434,-0.002400166,-0.0002693301,-0.005412121
0.6151508,0.559498,0.5609403,-0.004215487,-0.004109348,0.008272921,-0.002218706,-0.002871759,-0.002509373
0.6155131,0.5628272,0.5553568,-0.003811922,-0.0007963478,0.002626155,-0.001340375,0.0004789403,-0.002112327
0.6141237,0.5668465,0.5551629,-0.005159044,0.003206959,0.002365722,-0.002684123,0.002224588,-0.004061461
0.6137149,0.5647301,0.555732,-0.005524367,0.001074649,0.002865349,-0.00181962,0.006283041,-0.00479668
0.6149932,0.5623149,0.5557818,-0.004201459,-0.00135634,0.002842951,-0.0004347102,0.005527495,-0.006512721
0.6154179,0.5649631,0.5575686,-0.003730984,0.001276317,0.004555028,-0.0008032669,-0.001361286,-0.00454758
0.6154761,0.5650179,0.5582565,-0.003625736,0.001315642,0.005166056,-0.0005154935,-9.818474e-05,-0.0003537684
0.6153928,0.5655902,0.5567491,-0.003660797,0.001872601,0.003579618,0.0002039566,0.001341725,-0.001973155
0.6171243,0.5671162,0.5538976,-0.00187993,0.00338343,0.0006471237,0.000638995,0.001874447,-0.005130312
0.6182131,0.5652981,0.5558392,-0.0007407202,0.001550037,0.002505899,0.000354274,0.002286141,-0.00639321
0.6153471,0.566783,0.5627336,-0.003555373,0.003019607,0.009316079,0.001107561,-0.005370713,-0.00356227
0.6130302,0.5672635,0.5654243,-0.005820127,0.003484575,0.01192099,0.002978392,-0.009660268,0.00257033
0.614601,0.5649056,0.558774,-0.004196243,0.001110983,0.005183361,0.003838877,-0.008165168,0.003576437
0.6161843,0.5654729,0.5518859,-0.002558909,0.001662095,-0.001793743,0.003599734,-0.005113908,0.003220257
0.6150005,0.5655483,0.5591049,-0.003687917,0.001721098,0.005334835,0.002078373,-0.002244949,0.004008552
0.6146346,0.5669321,0.5661001,-0.003998142,0.003088066,0.01223833,0.001566436,-0.00558619,0.004917026
0.6141482,0.5689146,0.5605476,-0.004428018,0.005053329,0.006592833,0.002425764,-0.01123076,0.00828187
0.6125042,0.5675722,0.559934,-0.006014648,0.003693242,0.00588482,0.002448101,-0.0157383,0.007102482
0.6143682,0.5660657,0.5625967,-0.004092487,0.002168309,0.008451652,0.002572518,-0.01440207,0.005820319
0.6165601,0.5645667,0.5607211,-0.001841406,0.0006501608,0.006478847,0.002117493,-0.01058802,0.008466115
0.6173998,0.5632015,0.560199,-0.0009418752,-0.0007348861,0.005858172,0.000534959,-0.01272047,0.007667288
0.6188135,0.562375,0.5579423,0.0005323843,-0.001581811,0.003501567,9.573368e-05,-0.01360287,0.006634694
0.6179086,0.5620773,0.5573444,-0.0003114551,-0.001900336,0.002802421,0.003210121,-0.01445625,0.006146081
0.6176837,0.5628691,0.5594346,-0.0004750218,-0.001129609,0.004790435,0.007701522,-0.0164691,0.006007593
0.6185712,0.5624749,0.5578916,0.0004739152,-0.00154501,0.003144338,0.007944647,-0.01587063,0.005497685
0.6177148,0.5624264,0.5580652,-0.000321208,-0.001614668,0.003214172,0.005731718,-0.01800942,0.003706706
0.618096,0.5635254,0.5587699,0.0001211274,-0.0005365984,0.003814506,0.002591187,-0.01870004,0.005016037
0.6187948,0.5634398,0.5561814,0.0008806258,-0.0006429171,0.001121287,-0.001780108,-0.01604335,0.004667955
0.620439,0.5641167,0.5533255,0.002585004,1.360771e-05,-0.001839566,-0.001071286,-0.01512667,0.00459066
0.623277,0.5656546,0.5503065,0.005482414,0.001531444,-0.004963353,0.001633782,-0.01461941,0.007984996
0.6222777,0.5656154,0.5508473,0.004541331,0.001472564,-0.004526865,0.001556307,-0.01544076,0.008764996
0.6206355,0.5649335,0.5524577,0.002956043,0.000771334,-0.003019693,0.004362377,-0.02044531,0.007153735
0.6210345,0.5652936,0.5503748,0.003410233,0.001112461,-0.005204281,0.006180112,-0.02824384,0.004796002
0.6208504,0.5655158,0.5499238,0.003279505,0.00131593,-0.00575525,0.002461704,-0.03048067,0.007066918
0.6217038,0.5650212,0.5516101,0.004184237,0.000802845,-0.004166604,-0.001123873,-0.02550085,0.0102141
0.6226763,0.5653734,0.5573841,0.005205875,0.001136689,0.001512215,-0.001169774,-0.02363338,0.007277238
0.6221207,0.5650226,0.5640103,0.004696901,0.0007679013,0.00804596,0.001561566,-0.02736436,0.005373285
0.6224879,0.5630972,0.559619,0.005108076,-0.001175396,0.003564803,0.002829316,-0.02752452,0.003263857
0.6241275,0.5612636,0.5514726,0.006788884,-0.003026607,-0.004669168,0.003229625,-0.01544571,0.001067804
0.6251166,0.5605321,0.5475607,0.00781609,-0.003775317,-0.008665989,0.003869078,-0.003610197,0.0008897268
0.6234476,0.5622664,0.5479103,0.00618189,-0.002057707,-0.008398601,0.002406633,-0.01070823,-0.0005509162
0.6216273,0.5657277,0.5536451,0.004392939,0.001387656,-0.002742715,0.003528524,-0.02374544,0.001949656
0.6239803,0.5687049,0.5547615,0.006773573,0.004349641,-0.001701693,0.004679316,-0.02779837,0.004655274
0.6257063,0.5671196,0.5517774,0.008523518,0.002749601,-0.004757637,0.00217503,-0.02852568,0.004447796
0.6227971,0.5635693,0.5506052,0.005634335,-0.000814916,-0.005997856,0.001783882,-0.02597239,0.005601303
0.6204981,0.5651295,0.5472396,0.003351378,0.0007313823,-0.009427635,0.002534363,-0.02136787,0.003799141
0.6208895,0.5643351,0.5457814,0.003754862,-7.66231e-05,-0.01094576,0.003348719,-0.0176344,0.003055931
0.6220191,0.5609353,0.5488622,0.004892419,-0.003489526,-0.0079203,0.004534118,-0.01533345,0.005721955
0.6235609,0.5628593,0.5546281,0.006438345,-0.001578256,-0.002204866,0.004881901,-0.0219744,0.005925013
0.6250063,0.5633201,0.556418,0.007883904,-0.001129535,-0.0004606194,0.00552857,-0.02695365,0.007396661
0.6264719,0.5635935,0.5496911,0.009345648,-0.0008675658,-0.007228343,0.006355484,-0.01878316,0.00879564
0.6284433,0.5663406,0.5445401,0.01130901,0.001868734,-0.01241543,0.007724407,-0.01340737,0.0064171
0.6293617,0.5651253,0.5448592,0.01221495,0.0006433047,-0.01212727,0.0063586,-0.01655827,0.005758497
0.6274673,0.5638621,0.5509589,0.01030352,-0.000629532,-0.00605336,0.003913395,-0.01829758,0.005347607
0.6256926,0.5640903,0.5581147,0.008506979,-0.0004103437,0.001082185,0.004676879,-0.01542939,0.002575238
0.6272792,0.5634,0.5585186,0.01006691,-0.00110907,0.001471059,0.002737138,-0.009962356,0.003143836
0.6284826,0.5628097,0.5593982,0.01123853,-0.00170732,0.002340389,-0.0001471335,-0.003678401,0.005270081
0.6275158,0.5604843,0.5588989,0.01023502,-0.004039956,0.001835371,0.0001139986,0.001257157,0.004294075
0.6276633,0.5587147,0.5528446,0.01034061,-0.00581596,-0.004220602,0.000501685,0.006091364,0.002550848
0.6280232,0.559362,0.5500667,0.01065349,-0.005174125,-0.006996219,0.0006421418,0.015223,-0.0001690186
0.6275925,0.5602411,0.5513514,0.01017049,-0.004299328,-0.005705452,-0.000540282,0.02016791,-0.001690752
0.627651,0.5621902,0.5508718,0.01017148,-0.002353269,-0.006175202,-0.00226424,0.02120151,-0.0007613188
0.6262328,0.5633067,0.545708,0.008690669,-0.001238257,-0.01132527,-0.004210609,0.02566152,-0.002829163
0.6222537,0.5621236,0.5416693,0.004643732,-0.002421426,-0.01534618,-0.004787836,0.02110605,-0.004558849
0.6188373,0.5627075,0.5449106,0.001154523,-0.001836196,-0.01208267,-0.003142241,0.01426074,-0.003491257
0.6194446,0.564858,0.5490859,0.001684593,0.0003170911,-0.007880638,-0.004750548,0.01942772,-0.003713902
0.6227341,0.5665686,0.5488849,0.004892755,0.002031713,-0.008050185,-0.005475204,0.02515872,-0.004739023
0.6247706,0.5681426,0.5486095,0.006844149,0.00361099,-0.0082893,-0.004207626,0.0267501,-0.006920495
0.6264055,0.5681472,0.5506614,0.008390422,0.003621813,-0.006196512,-0.005748389,0.02581244,-0.006067973
0.6279728,0.5675649,0.5518361,0.009865735,0.003046367,-0.004976175,-0.004963241,0.02344965,-0.001410887
0.6261773,0.5662785,0.5513483,0.007974713,0.001767371,-0.005413946,-0.003157106,0.02659192,-0.003444987
0.622755,0.5638355,0.5502726,0.004453729,-0.0006680666,-0.006435349,-0.002629124,0.02955921,-0.006610821
0.6214364,0.5643809,0.5509694,0.003033263,-0.0001148423,-0.00568013,-0.002546012,0.02527405,-0.00238562
0.620804,0.5659147,0.5563652,0.002296135,0.001426927,-0.0002218888,-0.004082192,0.01954116,-0.001228521
0.620358,0.5648679,0.5608822,0.001742987,0.0003882038,0.004361133,-0.002878924,0.01309103,-0.001928938
0.6211862,0.5632863,0.556896,0.002461994,-0.001185301,0.0004439922,-0.001914372,0.01003066,-0.0001907961
0.6208921,0.5624774,0.5516701,0.002056815,-0.00198605,-0.004710156,-0.003795721,0.01718353,-0.003655688
0.620294,0.5640447,0.5545295,0.001346263,-0.0004104466,-0.001776642,-0.005245659,0.02202293,-0.006337701
0.6203231,0.5661754,0.556132,0.001261768,0.001728554,-9.797211e-05,-0.007281682,0.01759316,-0.006425415
0.6191716,0.5644632,0.5537898,-4.123711e-06,2.47072e-05,-0.002362223,-0.005591302,0.01736531,-0.007600324
0.620139,0.5599401,0.5552924,0.0008484001,-0.004490021,-0.0007802037,-0.002261981,0.02946081,-0.007057421
0.621591,0.5555779,0.5550791,0.002185389,-0.008843717,-0.0009127853,-0.00417179,0.04288359,-0.009941727
0.6198212,0.555491,0.5547838,0.0003006911,-0.008921629,-0.001126373,-0.007936242,0.04134817,-0.009862984
0.6171976,0.5617088,0.5580219,-0.00243742,-0.002694194,0.002194217,-0.01062418,0.02906042,-0.004126117
0.6144008,0.5666028,0.558712,-0.005348022,0.002210448,0.002967164,-0.007952737,0.02022326,-0.002977708
0.6149911,0.5656047,0.5582735,-0.004870254,0.00122389,0.002611579,-0.003198541,0.01571809,-0.002230913
0.6180447,0.5644568,0.5565226,-0.00192767,8.824843e-05,0.0009432461,-0.005028978,0.01148661,-0.0009951154
0.618127,0.564655,0.5530323,-0.001954399,0.0002992664,-0.002465027,-0.005148045,0.009699367,-0.001640727
0.6180958,0.5637431,0.5514418,-0.002092336,-0.0005992567,-0.003974236,-0.002533129,0.0116453,-0.002119782
0.6181628,0.5635223,0.5551964,-0.002129649,-0.0008061626,-0.0001391164,-0.004500325,0.01098482,-0.001930412
0.6177705,0.5644276,0.560345,-0.002623515,0.0001133984,0.005089223,-0.003251833,0.00952309,0.0001993508
0.6183544,0.5647166,0.5566505,-0.002138262,0.0004171155,0.001473196,0.0008730171,0.01316774,0.001265661
0.6179153,0.5649889,0.5532798,-0.002672907,0.0007043361,-0.001820336,0.0009582544,0.01534717,-5.318239e-05
0.6179776,0.5635259,0.555541,-0.002702882,-0.0007435758,0.0005165642,-0.001778026,0.01409031,-0.005058753
0.6184656,0.5601386,0.5557258,-0.002303739,-0.004115558,0.000775413,-0.004989617,0.01079741,-0.01074579
0.6186931,0.5610187,0.5587304,-0.002161633,-0.003219892,0.003852418,-0.001195335,0.005261057,-0.008605829
0.6198783,0.5645284,0.5597706,-0.00105817,0.0003056142,0.004963087,0.00481666,0.002877637,-0.0009676363
0.6193628,0.5651454,0.5558029,-0.001651827,0.0009388176,0.001063614,0.003198142,0.002468601,0.00423137
0.6182205,0.5652153,0.5534538,-0.002868486,0.001025209,-0.001219426,0.002328125,0.004839389,0.0008520797
0.61807,0.5651038,0.5495551,-0.003089639,0.0009302217,-0.00505456,0.0005227053,0.009849574,-0.004714064
0.6178269,0.5633735,0.5520522,-0.003399617,-0.0007834098,-0.00249593,-0.004560534,0.008429357,-0.00344135
0.6182278,0.5619623,0.5586003,-0.003061622,-0.002177984,0.004111569,-0.00253446,0.006184321,-0.0040846
0.6178977,0.5626883,0.554608,-0.003450776,-0.001435424,0.0001765515,-0.000282714,0.008125557,-0.006658708
0.6168095,0.5646717,0.5515535,-0.004593906,0.0005647043,-0.002822794,-0.001434298,0.007474282,-0.004191463
0.6157074,0.5652516,0.552164,-0.005747028,0.001161262,-0.002159331,0.002015043,0.006911619,-0.002195672
0.614589,0.5636579,0.550164,-0.006912119,-0.0004157915,-0.004108242,0.004473037,0.00768094,0.0008296678
0.6144946,0.5617428,0.5523453,-0.007048993,-0.002314361,-0.001877667,0.002333582,0.006221794,0.004678907
0.6138145,0.5622828,0.5531833,-0.007767001,-0.001757903,-0.0009921073,-0.0003300418,0.002750466,0.002028789
0.6135029,0.5631061,0.5523205,-0.008111881,-0.000918132,-0.001808932,-0.002136972,-0.00508571,-0.002428772
0.6142859,0.5620809,0.5539647,-0.007357423,-0.00192698,-0.0001202944,-0.0005813965,-0.01282377,-0.005084252
0.6137496,0.5621599,0.5546934,-0.007917343,-0.001831472,0.0006512851,0.00284561,-0.0140421,-0.004831045
0.6137597,0.5610027,0.5574093,-0.007925709,-0.002972128,0.003408575,0.003291123,-0.0159592,0.0005849459
0.6146813,0.5591674,0.5573629,-0.00701755,-0.0047907,0.003401978,0.002241215,-0.01984122,0.001988795
0.6165236,0.5615374,0.5560537,-0.005183542,-0.002403661,0.00213068,0.00274703,-0.02125336,-0.002587113
0.6198589,0.5634312,0.5580144,-0.001851376,-0.000492442,0.004127427,0.004829197,-0.02379089,-0.002628386
0.6199119,0.5628929,0.5575393,-0.001796584,-0.001012975,0.003686377,0.006725091,-0.02428499,0.006141101
0.6175348,0.5649118,0.5592142,-0.004167174,0.0010242,0.005393082,0.004842952,-0.02487436,0.01611213
0.6162479,0.567725,0.5595996,-0.005443044,0.003855758,0.005807976,0.002616222,-0.0313599,0.01427728
0.6152898,0.5671342,0.5561637,-0.006385813,0.003283499,0.002399073,0.005277252,-0.03359881,0.007476771
0.6176578,0.5668051,0.5550482,-0.003998064,0.002972848,0.001307915,0.006621565,-0.03257207,0.005867587
0.6208261,0.5684358,0.549988,-0.000805862,0.00462157,-0.00373056,0.004029396,-0.0346191,0.002472648
0.6194233,0.565892,0.5456562,-0.00218091,0.002095209,-0.008042898,0.002933434,-0.03668909,0.003192508
0.61933,0.5614508,0.5492323,-0.002242597,-0.002329148,-0.004449391,0.003360196,-0.03744674,0.009123757
0.6227072,0.5609675,0.5533094,0.001169522,-0.002796422,-0.0003564526,0.003359017,-0.02466235,0.009270383
0.6240607,0.5628024,0.5540472,0.002561113,-0.0009460113,0.0003957273,0.003234063,-0.006621113,0.007333551
0.6228767,0.5647005,0.5536491,0.00141793,0.0009670353,1.066314e-05,0.003987622,-0.01035814,0.004397389
0.6218093,0.5647627,0.552415,0.0003935738,0.001043685,-0.001211633,0.005009218,-0.02335747,0.002766352
0.6230683,0.5668321,0.5488011,0.001697576,0.003127045,-0.00481493,0.005118119,-0.02780571,0.004354205
0.6243016,0.5708769,0.5477656,0.002977545,0.007185061,-0.005840668,0.00519273,-0.02798727,0.003729377
0.6233398,0.5684896,0.5491833,0.002063692,0.004809936,-0.004413901,0.005148175,-0.02503759,0.006159678
0.623153,0.5645829,0.5482096,0.001925768,0.0009143779,-0.005378939,0.005644754,-0.02310207,0.009180198
0.6226282,0.5636304,0.5477057,0.001450494,-2.816529e-05,-0.00587427,0.006050646,-0.02227153,0.008990886
0.6227153,0.5617892,0.5470966,0.001587455,-0.001860805,-0.006474564,0.004845341,-0.02247534,0.01130235
0.6257373,0.5620925,0.5463669,0.004659399,-0.001549906,-0.007195119,0.004970263,-0.0273491,0.0108938
0.6259241,0.5622556,0.5449691,0.004895848,-0.001380307,-0.008582953,0.005866644,-0.02674594,0.006893148
0.62513,0.5605028,0.5419699,0.004150951,-0.003127312,-0.01157103,0.005447293,-0.02181684,0.005180122
0.6279297,0.5623851,0.5431158,0.006998863,-0.001240025,-0.01041262,0.004337074,-0.02013063,0.005536014
