accx,accy,accz,body_accx,body_accy,body_accz,body_gyrox,body_gyroy,body_gyroz
0.7873638,0.4104304,0.4732112,-0.007750779,-0.006224579,-0.01144352,-0.004033701,-0.1552454,0.1503906
0.7872865,0.4121585,0.4760389,-0.006389414,-0.00568405,-0.009918824,-0.002834131,-0.1577591,0.1493786
0.7878707,0.4151119,0.4731766,-0.004421918,-0.003859075,-0.01400262,0.000430541,-0.1582035,0.1460348
0.7885771,0.4107396,0.4705635,-0.00238693,-0.009301635,-0.01775761,0.002149554,-0.1595037,0.1458812
0.789897,0.4085728,0.4720393,0.0002072223,-0.01248144,-0.01734592,0.001155549,-0.1592687,0.14413
0.790829,0.411266,0.4694351,0.002359747,-0.01074482,-0.02093835,0.001093284,-0.1593327,0.1389774
0.7901055,0.4123411,0.4690211,0.002803506,-0.01057089,-0.02226656,0.004464681,-0.1625064,0.1386336
0.7902898,0.4130696,0.470883,0.004102338,-0.01068901,-0.02124661,0.007593046,-0.1631492,0.1391398
0.7918195,0.4146232,0.4700369,0.006694449,-0.009928531,-0.02286413,0.006089197,-0.1631953,0.1423024
0.7934975,0.4175004,0.4675481,0.009383405,-0.007792336,-0.02605572,0.005119216,-0.1603193,0.1474214
0.7946364,0.4189593,0.4644811,0.01148222,-0.007023578,-0.02975856,0.007168443,-0.1558555,0.1464572
0.7918442,0.4177353,0.4675391,0.009599484,-0.008888143,-0.02727141,0.007119726,-0.1574821,0.1459064
0.7891669,0.4179079,0.4713191,0.007781866,-0.009308015,-0.02399877,0.003682043,-0.156996,0.1459497
0.7912554,0.4176259,0.4688492,0.01068119,-0.01013581,-0.02691454,-0.002396724,-0.1504075,0.1436289
0.792433,0.4142862,0.4680344,0.01262139,-0.01397608,-0.02811561,-0.006561359,-0.1446688,0.143153
0.7911676,0.4114553,0.4679094,0.01207131,-0.01726342,-0.02856903,-0.004713897,-0.1447666,0.141942
0.7906742,0.4121309,0.4647346,0.01224676,-0.01700147,-0.03201633,-0.002867751,-0.1516603,0.1396154
0.7909658,0.4134241,0.4623703,0.01316161,-0.01608013,-0.03459887,-0.001105949,-0.1582292,0.1348505
0.7935728,0.4130413,0.462031,0.01634722,-0.01679422,-0.03510388,0.00552002,-0.1586702,0.1296536
0.7967887,0.4141643,0.4627388,0.020098,-0.01596313,-0.03451084,0.008564701,-0.1556947,0.1320941
0.794303,0.4153298,0.4629911,0.01810434,-0.01505141,-0.03432383,0.005527874,-0.1536114,0.1366125
0.7902436,0.4151461,0.4643433,0.01449473,-0.01545202,-0.03298921,0.004615408,-0.1504566,0.1401118
0.7900135,0.416497,0.4674742,0.01467328,-0.01428238,-0.02982992,0.004146532,-0.1465634,0.1457816
0.7888876,0.4169187,0.4668279,0.01391611,-0.01400767,-0.03040342,0.00449591,-0.14807,0.1452409
0.7892491,0.4166561,0.4633081,0.01460735,-0.01438431,-0.03380803,0.007098595,-0.1523142,0.1414689
0.792224,0.4175754,0.4625073,0.01787421,-0.01354746,-0.03445302,0.006177378,-0.1546176,0.1443868
0.7917324,0.4172646,0.4626721,0.01763804,-0.01391052,-0.03409318,0.00481171,-0.1518871,0.1447681
0.791356,0.4165652,0.4622767,0.0174815,-0.01463333,-0.03425623,0.005893339,-0.1450842,0.141755
0.7924033,0.4159007,0.4625807,0.01871415,-0.01529354,-0.03368398,0.006533418,-0.1447711,0.1395145
0.7931473,0.4142795,0.4627565,0.01961007,-0.01688416,-0.03320557,0.007861945,-0.1491662,0.1343332
0.7951231,0.4125517,0.4632566,0.02170539,-0.01855617,-0.03237032,0.008065841,-0.151041,0.1365176
0.7948979,0.4128266,0.4640742,0.0215683,-0.01820134,-0.03118635,0.006677117,-0.1486514,0.1394877
0.7947233,0.4139076,0.4631022,0.0214512,-0.01701734,-0.03176264,0.005984735,-0.1399223,0.1304305
0.7965447,0.4124333,0.4621269,0.02330055,-0.0183666,-0.03231422,0.003990296,-0.1328885,0.124511
0.7953175,0.4114601,0.4634768,0.02207273,-0.01919372,-0.03051441,0.0008478447,-0.1307325,0.1243513
0.7927623,0.4117911,0.4643565,0.01948911,-0.01869662,-0.02915993,-0.0009785199,-0.1293771,0.1232882
0.7912266,0.4141933,0.4630623,0.01789833,-0.01610915,-0.0299561,-0.0007952282,-0.1269911,0.1218198
0.7911721,0.4183232,0.4602158,0.01776316,-0.01177595,-0.03228279,-0.001390066,-0.1229885,0.1167936
0.7922558,0.417405,0.4584325,0.01874173,-0.01247388,-0.0335259,-0.00470844,-0.1239535,0.1114674
0.7913298,0.4182882,0.4632183,0.01768737,-0.01135466,-0.02818095,-0.007253498,-0.1257151,0.1092018
0.7906738,0.4213203,0.4689343,0.01688076,-0.008071956,-0.0218881,-0.008118609,-0.124175,0.1072517
0.7920491,0.4145621,0.4660544,0.01808435,-0.01456628,-0.02417494,-0.005127052,-0.1244456,0.1036628
0.7952732,0.4083796,0.4637345,0.02111671,-0.02047247,-0.02588726,0.001283465,-0.1217131,0.1016512
0.7995687,0.4111322,0.4671474,0.02520145,-0.01743211,-0.02185356,0.001361746,-0.1187126,0.1025403
0.7982957,0.4124289,0.4670105,0.0236994,-0.01583684,-0.021358,-0.001659298,-0.1190076,0.1019945
0.7931934,0.4110044,0.4653654,0.01835057,-0.01695257,-0.02236036,-0.001286533,-0.1174315,0.1018095
0.7909005,0.4120662,0.4638028,0.01579445,-0.01557274,-0.02327135,-0.002452707,-0.1154988,0.1037255
0.7910864,0.4130999,0.4604479,0.01570149,-0.01421236,-0.02596705,-0.002952113,-0.1139247,0.1061756
0.7920014,0.4154327,0.4607182,0.01632317,-0.01154492,-0.02503089,-0.001831421,-0.1125866,0.1090574
0.7898264,0.4196621,0.4584654,0.01384126,-0.006973938,-0.02661237,-0.002542252,-0.1105079,0.108631
0.7881644,0.4172808,0.4541011,0.01185986,-0.009007525,-0.03030063,-0.003859589,-0.105041,0.105599
0.7911322,0.4140249,0.4598427,0.01449694,-0.0119106,-0.02387909,-0.006396119,-0.1000212,0.1061936
0.7922486,0.4151113,0.4669037,0.01527226,-0.01046691,-0.01613506,-0.009893022,-0.09812593,0.1072104
0.7917795,0.4137291,0.4674835,0.01445268,-0.01148828,-0.01487009,-0.01195983,-0.09708346,0.1045498
0.7924819,0.4153009,0.4684507,0.01479614,-0.009552762,-0.01321695,-0.007548398,-0.1016449,0.1014922
0.7932538,0.4179915,0.4690911,0.01520133,-0.006496151,-0.01189093,0.0003885103,-0.1134685,0.09843539
0.7932189,0.4158558,0.4661184,0.01479293,-0.008264429,-0.01417953,0.0008842771,-0.1182048,0.09876112
0.7917205,0.4145597,0.4627448,0.01291477,-0.009192143,-0.01687166,-0.0007476219,-0.1146738,0.1018239
0.7919293,0.4127921,0.4642899,0.01273856,-0.01059128,-0.01464848,-0.0008934499,-0.1131748,0.1009317
0.7935167,0.4122424,0.4671876,0.01393632,-0.01077292,-0.01107706,-0.004606236,-0.1097015,0.09975576
0.7941039,0.4156803,0.467586,0.01412997,-0.006967671,-0.0100102,-0.006171985,-0.1054428,0.09915405
0.7913533,0.4170522,0.4708461,0.01098256,-0.005229777,-0.006087664,-0.005707778,-0.1056778,0.09753173
0.7871517,0.4150115,0.4715984,0.006381692,-0.006906259,-0.00468001,-0.003724454,-0.1055944,0.09593387
0.7894445,0.4129694,0.467023,0.008273495,-0.008586586,-0.008608041,0.001127236,-0.1036161,0.09256758
0.7936899,0.413805,0.4654746,0.01211698,-0.007392008,-0.009517882,-0.0004751682,-0.1022727,0.08994738
0.7955223,0.4144919,0.4626174,0.01354711,-0.006349414,-0.01174614,-0.003883683,-0.1012412,0.08975005
0.7963079,0.4137203,0.457269,0.01393066,-0.006768861,-0.01647544,-0.002002606,-0.1008632,0.09098729
0.7924819,0.4160074,0.4565188,0.009703264,-0.004133578,-0.01661676,0.0006918374,-0.1026823,0.09188801
0.7896786,0.4183029,0.4610157,0.006499583,-0.001494183,-0.01152127,0.005315797,-0.1029774,0.09213854
0.790378,0.4176526,0.4686193,0.00680029,-0.001805458,-0.003329707,0.005444004,-0.09876083,0.09033842
0.7899909,0.4153678,0.4726445,0.006016722,-0.003756569,0.001272432,0.0008334619,-0.0937537,0.08561935
0.7893563,0.4127668,0.4704734,0.004988559,-0.006029514,-0.0003333758,0.001241623,-0.09300606,0.08491587
0.7876625,0.4131454,0.4669564,0.002904603,-0.005328739,-0.00329742,0.001059494,-0.09563843,0.08570119
0.7880805,0.4144628,0.4642834,0.002936459,-0.003695248,-0.005430313,-0.0003513484,-0.09418193,0.0857306
0.7932047,0.4143912,0.4620316,0.007679249,-0.003457031,-0.007155266,-0.0007900944,-0.09115737,0.08810393
0.797315,0.4140894,0.4602907,0.01141307,-0.003455611,-0.008382712,-0.001274473,-0.08991872,0.08707248
0.7959561,0.4136534,0.4595869,0.00968307,-0.003594924,-0.008586349,0.003042621,-0.08631962,0.08557336
0.7919784,0.415245,0.4597286,0.005339554,-0.00171352,-0.007957994,0.004424567,-0.08656621,0.08487518
0.7909814,0.4175993,0.4617523,0.003982379,0.0009236142,-0.005460864,-0.0007029288,-0.08999032,0.0800471
0.7895878,0.4177804,0.4630145,0.00223456,0.001380342,-0.003738614,-0.003532473,-0.09053464,0.07553575
0.7863742,0.4156411,0.4614017,-0.001326946,-0.0004909094,-0.004904716,-0.002287435,-0.09114223,0.07412219
0.7860633,0.4123966,0.4606389,-0.001978911,-0.003475017,-0.005234129,-0.0005269573,-0.08607401,0.07378829
0.7877913,0.4118155,0.4601777,-0.0005847099,-0.00380339,-0.005275323,-0.002602579,-0.07749727,0.07117908
0.7896967,0.4118021,0.4604593,0.0009945294,-0.003571829,-0.004586919,-0.004132499,-0.07662055,0.06854487
0.7890611,0.412205,0.4641174,4.093251e-05,-0.002931678,-0.0005352541,-0.002641424,-0.07842804,0.06918747
0.7883927,0.4158537,0.467133,-0.000937149,0.0009468257,0.002860785,-0.0007900949,-0.07945729,0.07029221
0.7905582,0.4164319,0.4628965,0.0009272106,0.001747096,-0.001008517,0.001959822,-0.08047844,0.07118371
0.7912329,0.4170749,0.4574727,0.00130953,0.002604537,-0.006078442,0.001281803,-0.07569162,0.06990462
0.7915032,0.4206836,0.4619326,0.00129634,0.006419749,-0.001277928,0.0003601207,-0.06793818,0.06853642
0.7898301,0.4185665,0.4661729,-0.0006511839,0.004501055,0.003290012,-7.353576e-05,-0.06514959,0.06899703
0.7860451,0.4159997,0.4647113,-0.004701652,0.002124431,0.002143042,-0.004956968,-0.06649322,0.06646374
0.7857325,0.417035,0.4658126,-0.00527035,0.003341527,0.00354597,-0.007379639,-0.06662051,0.06484477
0.7860532,0.4165032,0.4662095,-0.005196295,0.002983016,0.004231457,-0.006965574,-0.0643342,0.06715655
0.7852335,0.4166127,0.4665362,-0.006252793,0.003257405,0.004833642,-0.005963993,-0.06319023,0.07022703
0.7848516,0.4170509,0.4673116,-0.006861477,0.003852002,0.005871371,-0.00434846,-0.06447783,0.07179336
0.7862468,0.4173207,0.4676525,-0.005682788,0.004269758,0.006461348,-0.00323995,-0.06814993,0.06950825
0.7884423,0.4184965,0.4749398,-0.003693508,0.00558497,0.01398453,0.0009038623,-0.07320211,0.06728476
0.7874958,0.4181145,0.4818148,-0.004835647,0.005333992,0.02108182,0.002198647,-0.07398413,0.06654214
0.7870253,0.4172519,0.4780908,-0.005491366,0.004593893,0.01756615,-0.001063549,-0.07060127,0.06523034
0.7879579,0.4155958,0.4696744,-0.004733462,0.003051851,0.009343698,-0.003681131,-0.06735971,0.06493801
0.7874714,0.4129971,0.4645525,-0.005384212,0.0005588248,0.004401148,-0.006632033,-0.06352727,0.06347929
0.7883509,0.4147677,0.4637266,-0.00465861,0.002427082,0.003740115,-0.005099876,-0.06264917,0.06042624
0.7893373,0.4196181,0.4620664,-0.003815661,0.007367069,0.002230703,-8.498086e-05,-0.06613468,0.05832122
0.7888134,0.4188718,0.460187,-0.00447294,0.006702569,0.0004884629,0.002274132,-0.06696061,0.05771186
0.7887913,0.4126484,0.4632215,-0.004618262,0.0005530814,0.00364709,0.002256857,-0.06403638,0.05825647
0.7889725,0.4122093,0.4664422,-0.00455042,0.0001803693,0.006979202,0.001132358,-0.0608519,0.05728903
0.7888814,0.416984,0.4669087,-0.004745298,0.005014117,0.007544946,0.00247928,-0.05954474,0.0561746
0.7888476,0.4170398,0.4694615,-0.0048732,0.00512183,0.01018486,0.003400312,-0.05904552,0.05677554
0.7889275,0.4176947,0.4702808,-0.004878103,0.005821703,0.01107948,0.00162216,-0.05807093,0.05677051
0.7888858,0.4191952,0.4697208,-0.004995441,0.007360296,0.01058317,0.0005538698,-0.05915784,0.05763411
0.7888555,0.4161056,0.4748198,-0.005092537,0.004301923,0.01573412,-0.001841069,-0.05937051,0.05749699
0.7889376,0.4166919,0.4771839,-0.005068328,0.00491286,0.01813855,-0.001894943,-0.05762507,0.05313892
0.789208,0.4181796,0.4716609,-0.004847458,0.006418694,0.01264415,0.001133035,-0.05753976,0.05168062
0.7906858,0.4173302,0.4675956,-0.003410836,0.005580972,0.008595804,0.0005359097,-0.05788307,0.05341117
0.7922307,0.4179196,0.4689519,-0.001899065,0.006175728,0.009957669,-0.0006646217,-0.05967971,0.05137114
0.7920235,0.415984,0.4687139,-0.002131751,0.004239438,0.009713936,-0.001077363,-0.06136499,0.050795
0.7920007,0.4163692,0.4653035,-0.002172794,0.004617997,0.006287133,-0.001391428,-0.06001694,0.05172846
0.7926187,0.4175217,0.46726,-0.00156613,0.005758144,0.008216771,0.002060341,-0.05904473,0.04991987
0.7914068,0.4158251,0.4711621,-0.002782711,0.004043654,0.01208192,0.005719933,-0.05917034,0.05219153
0.7902403,0.4171065,0.4722322,-0.003947769,0.005301767,0.01310545,0.0051863,-0.06094797,0.05374393
0.7906761,0.416914,0.4721778,-0.003504629,0.00508091,0.01299501,0.003982208,-0.06401253,0.04968476
0.7909546,0.4171125,0.4696666,-0.003213065,0.005246063,0.01041852,0.003686892,-0.06216214,0.04749689
0.7915484,0.4181898,0.4710389,-0.002600928,0.006285271,0.01171642,0.0005551388,-0.0550629,0.04572938
0.789718,0.4141332,0.4750604,-0.004407787,0.002185959,0.01565475,-0.001821352,-0.0524552,0.04434837
0.7851452,0.4117428,0.473798,-0.008952233,-0.0002515388,0.01430055,0.001867224,-0.05743408,0.04319258
0.7841415,0.4144245,0.468597,-0.009922812,0.00237912,0.008999272,0.00459896,-0.06010428,0.03838721
0.7859722,0.4185337,0.4654618,-0.008054097,0.006433618,0.005755605,0.002847453,-0.05631266,0.03686132
0.7873769,0.4204359,0.4689973,-0.006606688,0.008277584,0.009174958,0.002282151,-0.05151529,0.04163213
0.787838,0.4208385,0.4729877,-0.006098124,0.00861864,0.01304203,0.002975788,-0.05010994,0.04581177
0.7873012,0.4208374,0.4770954,-0.006582965,0.008552531,0.01701934,0.001850482,-0.05430771,0.0459509
0.7875363,0.4176509,0.4777066,-0.006291355,0.005297667,0.01749329,-0.001250564,-0.0583821,0.0465842
0.7875792,0.4153886,0.4696492,-0.006187676,0.002963636,0.009291831,-0.004321269,-0.05323521,0.0487513
0.7873608,0.4140195,0.4685961,-0.006341264,0.001519637,0.008088144,-0.004263779,-0.04579945,0.04683428
0.7876442,0.4123097,0.4700077,-0.005989006,-0.0002677396,0.009342855,-0.002591342,-0.04572626,0.04523341
0.7873996,0.4149697,0.4675872,-0.006160905,0.002312187,0.006759713,-0.001915292,-0.04650712,0.04418099
0.7875271,0.4175013,0.4682692,-0.00595707,0.004761602,0.007273845,0.0002827726,-0.04661081,0.03849251
0.7877265,0.4150691,0.4652167,-0.005677843,0.002245289,0.004048584,0.001080283,-0.04918244,0.03574411
0.7882957,0.4131744,0.4664969,-0.005025503,0.0002648622,0.005151674,-0.0002865596,-0.05134748,0.03531747
0.7896246,0.4167602,0.4728782,-0.00361029,0.003763447,0.0113521,0.003471965,-0.05505696,0.03350664
0.7907078,0.4197897,0.4744947,-0.002437971,0.006704525,0.01278427,0.00841814,-0.0572334,0.03145974
0.7920235,0.4194731,0.47248,-0.00103062,0.006298462,0.01058197,0.01245369,-0.05431834,0.02248784
0.7918412,0.4211389,0.464546,-0.001118979,0.007873603,0.002457305,0.01764319,-0.04545292,0.01275247
0.7903258,0.4214022,0.4592135,-0.002538467,0.008045013,-0.003068567,0.01808188,-0.03242798,0.01182724
0.7903502,0.4196456,0.4599319,-0.002416633,0.006195346,-0.002545357,0.01963371,-0.02868788,0.01230434
0.7911941,0.4175624,0.4589904,-0.001474085,0.004017852,-0.003683307,0.02173609,-0.02065,0.009264196
0.7906479,0.4114498,0.4544574,-0.001920413,-0.0021901,-0.00841307,0.008856294,-0.0003637393,0.004861143
0.7856068,0.4085026,0.4539158,-0.006860932,-0.005233563,-0.009150902,-0.01201019,-0.001067219,-0.0005440799
0.7802829,0.4143319,0.4643482,-0.01208342,0.0004991921,0.001086689,-0.01964277,-0.01651854,-0.004544028
0.7839975,0.4205629,0.4731777,-0.008266612,0.006633476,0.00972325,-0.01074818,-0.02276009,-0.0009462885
0.7884794,0.4218811,0.4770136,-0.003681533,0.00785514,0.01336836,-0.004682423,-0.02378756,0.009120917
0.7851519,0.4217259,0.4796025,-0.006904906,0.007603392,0.0157685,-0.01017824,-0.02336438,0.01694039
0.7835898,0.4231534,0.4817005,-0.008361854,0.008934242,0.01767915,-0.01134085,-0.03127439,0.01568291
0.7838484,0.4243857,0.4860802,-0.007997222,0.01006968,0.02187273,-0.009878727,-0.03516248,0.01298894
0.7822824,0.4245634,0.4833264,-0.009456151,0.01014995,0.01893319,-0.01413368,-0.02326351,0.02253325
0.782891,0.4259291,0.4801656,-0.008739489,0.01141751,0.01558672,-0.01443996,-0.01678687,0.03083053
0.782424,0.4263462,0.4808151,-0.00909717,0.01173554,0.01605024,-0.01125883,-0.01933766,0.03117698
0.783884,0.4225774,0.4720556,-0.007526532,0.007866425,0.007103969,-0.00364918,-0.0260836,0.03539084
0.787762,0.419576,0.4634279,-0.003536756,0.004763472,-0.001711098,0.0105482,-0.03612063,0.03355423
0.7851394,0.4219774,0.4669818,-0.006046333,0.007062142,0.001655201,0.0157126,-0.04867261,0.02967888
0.7808662,0.4276666,0.4753946,-0.01020554,0.01264725,0.009880468,0.01032025,-0.05744369,0.03475413
0.7786248,0.4321261,0.4790948,-0.01233172,0.01700119,0.01339347,0.003203662,-0.0516684,0.039948
0.778909,0.4305274,0.479865,-0.01193117,0.01529525,0.01397685,-0.004607379,-0.04808952,0.04473041
0.7841368,0.4257971,0.4777337,-0.006585481,0.01045557,0.01165873,-0.004354498,-0.04874637,0.04397787
0.7873658,0.4244023,0.4702176,-0.003237192,0.008949091,0.003955806,0.001261966,-0.04211395,0.0378331
0.7884555,0.4238276,0.4650791,-0.002026907,0.008260379,-0.001369331,-0.001628256,-0.03506761,0.03525815
0.7903993,0.4192623,0.4645897,3.854958e-05,0.003578816,-0.002044914,-0.004376131,-0.02645732,0.03034598
0.7918705,0.4124489,0.4635586,0.001632057,-0.003353046,-0.003261077,-0.001851211,-0.0246999,0.02321207
0.79248,0.4107865,0.4583505,0.002364066,-0.005135512,-0.008652592,-0.0007079466,-0.0278775,0.01858949
0.7909795,0.4136086,0.458347,0.0009859871,-0.002434468,-0.008837289,0.005351908,-0.0255002,0.01655074
0.7916239,0.4125327,0.4641419,0.001752167,-0.003631832,-0.003220424,0.009013834,-0.02999564,0.01379978
0.7917837,0.4131713,0.4637722,0.002032767,-0.003114697,-0.003764562,0.004521387,-0.03309958,0.008920743
0.7873169,0.4210055,0.4701292,-0.002314539,0.004598637,0.002421917,0.004536809,-0.02848746,0.01468406
0.7826719,0.4282233,0.4796342,-0.006841573,0.01169634,0.01176067,0.002940313,-0.02906894,0.02639107
0.7789191,0.4306105,0.4798239,-0.01047781,0.01396411,0.01178801,-0.006347771,-0.02675631,0.02933447
0.7803701,0.4303361,0.4815594,-0.008911538,0.01357059,0.01336478,-0.01304773,-0.01844704,0.03293651
0.7827745,0.4320786,0.4828571,-0.006392941,0.01519378,0.01450682,-0.008072024,-0.01431909,0.03755438
0.7818407,0.4311687,0.4835728,-0.007213352,0.01416422,0.01506952,0.001378303,-0.01760935,0.03411824
0.7859143,0.4233755,0.4819993,-0.0030271,0.006250404,0.01334497,0.001593601,-0.02684052,0.02813387
0.7890068,0.4162228,0.4752604,0.0001772006,-0.001023813,0.006456718,0.004540468,-0.03437247,0.0244065
0.7885034,0.4105683,0.4695129,-0.0002153382,-0.006800432,0.0005613851,0.01025486,-0.03741889,0.02340157
0.7908309,0.4088778,0.4632954,0.002221825,-0.008613222,-0.005802442,0.007003436,-0.03654365,0.02261833
0.7923113,0.409522,0.4638454,0.003810531,-0.008090731,-0.005396813,0.007106569,-0.03048934,0.01983002
0.7911129,0.4094635,0.4684686,0.002718616,-0.00826972,-0.0009154981,0.007612631,-0.02663016,0.0190334
0.7876716,0.4169261,0.46964,-0.0006182419,-0.0009255825,0.0001167526,0.004385401,-0.03013229,0.02075124
0.7846484,0.4238162,0.4716915,-0.003539246,0.005848298,0.002032129,0.004889254,-0.03326175,0.02110902
0.7832336,0.42568,0.4747534,-0.004854108,0.00759814,0.004960987,0.002461255,-0.02620501,0.02050149
0.7820495,0.4269951,0.4809706,-0.005940462,0.008801549,0.01104822,-0.002908674,-0.01501613,0.02030615
0.7844509,0.4246909,0.4790936,-0.003443314,0.006387522,0.009044014,-0.005751204,-0.01155852,0.01934751
0.7885208,0.4227172,0.4711842,0.0007203133,0.004305779,0.001009954,-0.001515852,-0.01402524,0.01779163
0.7898645,0.4173785,0.4707989,0.002155863,-0.001139412,0.0005023111,0.007781677,-0.0192522,0.01529101
0.7901251,0.4134494,0.4655807,0.002506094,-0.005173176,-0.004835687,0.01047589,-0.0240448,0.01255743
0.7909011,0.4165306,0.4601572,0.003369468,-0.002194704,-0.01037622,0.009106367,-0.02667553,0.01147075
0.7906742,0.4151134,0.4614219,0.00322738,-0.003712304,-0.009225289,0.008335858,-0.02920117,0.01114185
0.7894966,0.4156616,0.4617084,0.002131772,-0.003261957,-0.009048815,0.005377761,-0.02774662,0.01317234
0.7871486,0.4186176,0.4638865,-0.0001371466,-0.0004009839,-0.006976351,0.001543641,-0.02301473,0.01607937
0.7848098,0.419605,0.4662016,-0.002399771,0.0004944819,-0.004762291,-0.0001635209,-0.01534122,0.01561877
0.7864122,0.4245017,0.4695678,-0.0007240911,0.005302078,-0.001492226,-0.000638256,-0.005445436,0.01559165
0.7866742,0.4239196,0.4715406,-0.0003917198,0.004633835,0.0003894921,-0.003618482,-0.00380433,0.01646664
0.785274,0.4197766,0.4717196,-0.001724278,0.0004074147,0.0004822709,-0.002276727,-0.009646273,0.01487384
0.7868822,0.4193524,0.4756561,-5.111308e-05,-9.769541e-05,0.004337333,0.003484898,-0.01385369,0.01600444
0.78707,0.4182446,0.4704468,0.0001988646,-0.001283658,-0.0009489132,0.003743797,-0.01671843,0.01752846
0.7883493,0.4162827,0.4605915,0.001537822,-0.003321173,-0.01087672,0.003578122,-0.02203301,0.0119027
0.7901475,0.4128332,0.4605558,0.003393005,-0.006843401,-0.01098037,0.004136229,-0.02768869,0.008552959
0.7901055,0.4130449,0.4622773,0.003405182,-0.006701297,-0.009321851,0.00333175,-0.02785724,0.01020959
0.792163,0.4152332,0.4635133,0.005513995,-0.004579327,-0.008143624,0.002918669,-0.02233552,0.009992685
0.7911816,0.4133168,0.4665829,0.004580921,-0.006558478,-0.005126347,-0.002665359,-0.01392833,0.01072051
0.7892475,0.4150231,0.470495,0.002692024,-0.004911138,-0.001260976,-0.007593651,-0.003768149,0.00767484
0.7907049,0.4185399,0.4722106,0.00419126,-0.001449322,0.0004133194,-0.004266224,0.000401656,0.002132228
0.7901805,0.4206637,0.469696,0.00370538,0.0006235161,-0.002137367,0.0001477109,-0.006342109,0.002574623
0.7890977,0.4232817,0.4689307,0.00265768,0.003194375,-0.002933793,0.0008015003,-0.01073574,0.003542008
0.7888739,0.4213483,0.468158,0.002465683,0.001217343,-0.003732684,0.001577246,-0.007608084,0.003657743
0.7884737,0.4193155,0.467165,0.002093875,-0.0008555759,-0.00474724,0.003294146,-0.008379031,0.003336198
0.7882128,0.4183974,0.4690135,0.001857998,-0.001810603,-0.002915609,0.001136611,-0.0119873,0.003142536
0.7870031,0.4142914,0.4678919,0.0006700137,-0.005950255,-0.004049493,-0.003752482,-0.01171222,0.007741485
0.7863916,0.415349,0.4657301,7.716076e-05,-0.00492315,-0.006219191,-0.009373049,-0.00705636,0.01244285
0.7862074,0.4216481,0.4665349,-9.139191e-05,0.001348725,-0.005417775,-0.01165402,0.00167545,0.01254667
0.7857844,0.4242969,0.470801,-0.0005014882,0.003973548,-0.001150799,-0.008230381,0.007347735,0.01033184
0.7863074,0.423157,0.474923,3.172953e-05,0.002812716,0.00297637,-0.007953899,0.004205233,0.009109586
0.7861728,0.4203058,0.4738165,-9.520093e-05,-5.68227e-05,0.001878872,-0.008295772,-0.001589747,0.007453116
0.7858853,0.4169839,0.4750952,-0.000377222,-0.003394615,0.003169971,-0.00547928,-0.007687009,0.005223956
0.7863327,0.4158362,0.47535,7.355536e-05,-0.004555812,0.003440239,-0.002429952,-0.01331892,0.005314502
0.7863718,0.4172975,0.4693925,0.0001138966,-0.003105591,-0.002499073,0.002370631,-0.009562424,0.004706683
0.7878436,0.4183388,0.4655144,0.001585247,-0.002072805,-0.006356662,0.0004630352,-0.004725495,0.004558839
0.7895836,0.4181658,0.4625299,0.003322911,-0.002251856,-0.009318337,-0.00422009,-0.008281242,0.004283786
0.7887685,0.4187306,0.4638247,0.002503821,-0.001690719,-0.00799814,-0.001494538,-0.00695974,0.001139124
0.7874908,0.4211384,0.4670865,0.001220295,0.0007157023,-0.004708182,-0.001061935,-0.001621008,0.000896726
0.7865439,0.4227131,0.466318,0.0002659003,0.002291284,-0.005445883,-0.001699588,0.001401682,0.004656568
0.7857319,0.4185529,0.4690867,-0.0005552069,-0.001866088,-0.002643621,-0.0002030645,0.004319572,0.008191095
0.7862708,0.4148873,0.4693135,-2.679578e-05,-0.00552703,-0.002380686,-0.001633665,0.002154621,0.004584333
0.7872222,0.4169995,0.4653519,0.0009127316,-0.003408218,-0.006303601,-0.001647574,0.0001845726,-0.002134697
0.7875981,0.4171572,0.4637319,0.001275576,-0.003242041,-0.007882449,-0.001962095,-0.0005849427,-0.001488453
0.7876316,0.4159034,0.4650766,0.001294888,-0.004485313,-0.00649413,-0.003193702,-0.004350867,-0.0005340141
0.7873905,0.4159222,0.4700784,0.001038461,-0.004454099,-0.001446144,-0.0021541,-0.003753348,0.0008540603
0.7874707,0.414249,0.4694242,0.00110238,-0.006112846,-0.002051686,-0.003134262,-0.002806404,0.004282339
0.7876242,0.4148106,0.4658919,0.001238636,-0.005534742,-0.005533036,-0.003734727,-0.003388177,0.001597233
0.7873853,0.4184982,0.4653264,0.0009816002,-0.001828351,-0.006045475,-0.002549801,-0.001761945,0.0001893215
0.7873527,0.4203491,0.4650903,0.0009300101,4.351618e-05,-0.006226359,-0.0014837,-0.001155723,0.002878906
0.7866677,0.4194747,0.4699562,0.0002252079,-0.000808021,-0.001303192,0.0009753741,0.0002753128,0.004292906
0.7857296,0.4189906,0.4737252,-0.0007333561,-0.001267353,0.002525157,0.004472563,-0.0006040875,0.005670435
0.7864561,0.4190695,0.4738738,-2.79392e-05,-0.001161956,0.002734741,0.009387275,-0.004120108,0.006659877
0.7880694,0.4158462,0.4732186,0.0015639,-0.004357235,0.0021417,0.008381239,-0.003691171,0.008306049
0.7892996,0.4125891,0.4693562,0.002772168,-0.007584743,-0.001657473,0.002995934,-0.002345686,0.008439003
0.7887841,0.414076,0.4680121,0.002234323,-0.006066621,-0.002937846,0.002846959,-0.002548827,0.005692134
0.7867143,0.4163507,0.4702929,0.0001416734,-0.003758975,-0.0005927232,-0.0008041248,-0.003664125,0.002550645
0.7857287,0.4168047,0.4734093,-0.0008671033,-0.003270213,0.002588398,-0.003277763,-0.007371136,-0.001063745
0.7867147,0.4164765,0.4719153,9.533477e-05,-0.003561916,0.001159275,-0.0003095661,-0.00967272,0.0009826148
0.7898734,0.4147703,0.4664089,0.003230211,-0.005229934,-0.00428244,-0.003857184,-0.004332687,0.005046832
0.7927383,0.4132616,0.4649027,0.006071135,-0.006698617,-0.005724101,-0.005151297,-0.001608995,0.0003480374
0.7914233,0.4142103,0.4646259,0.004731641,-0.00570821,-0.005936434,-0.00355047,-0.0103487,-0.004225438
0.7883105,0.4161457,0.4656787,0.001593988,-0.003729183,-0.004819256,-0.0009893025,-0.01794847,-0.004820616
0.7870286,0.4186043,0.4660576,0.0002865488,-0.001225258,-0.004375816,0.006499766,-0.01876396,-0.005205873
0.7872858,0.4221573,0.4661123,0.0005176854,0.002374867,-0.004256443,0.00347781,-0.0152003,-0.0001294471
0.7881491,0.4244681,0.4694476,0.00135444,0.004734153,-0.0008563198,-0.0002378283,-0.01028933,0.004329353
0.7889019,0.4235804,0.4683555,0.00208029,0.003895882,-0.001883518,0.005570826,-0.009854803,0.005435664
0.7890159,0.4205227,0.4690406,0.002166948,0.0008883053,-0.001133439,0.005656296,-0.01346901,0.01034895
0.7882895,0.4169276,0.4718298,0.001412862,-0.002656358,0.00172067,0.006380847,-0.0196117,0.01490488
0.788434,0.4141975,0.4676758,0.001529245,-0.005335822,-0.002368771,0.01095181,-0.02088047,0.01742278
0.7895486,0.4152247,0.4656334,0.002615382,-0.004257796,-0.004346852,0.01390486,-0.01921527,0.01860683
0.7889041,0.4185106,0.4667941,0.001942164,-0.0009207185,-0.003122353,0.01549895,-0.01964624,0.01592498
0.7894084,0.4202262,0.4668784,0.002417261,0.0008462013,-0.002974571,0.01058733,-0.01261601,0.0124386
0.7911038,0.420444,0.4664623,0.004083102,0.001115528,-0.003327411,0.003868179,-0.006372285,0.01082644
0.7902079,0.4176886,0.4651511,0.0031572,-0.001588375,-0.004575758,-0.002375218,-0.002099139,0.008704537
0.7914836,0.4162154,0.4635863,0.004402442,-0.00301032,-0.006077926,-0.008526868,0.0115242,0.002278612
0.7952196,0.4164958,0.4605509,0.008107248,-0.002678844,-0.009050837,-0.009309003,0.02240409,-0.001937128
0.7972747,0.4113088,0.4570887,0.01013045,-0.007814855,-0.01245041,-0.01022758,0.02327761,-0.001227234
0.7972617,0.4086128,0.4545554,0.01008443,-0.01045992,-0.0149206,-0.008904956,0.0180111,-0.006855031
0.7939789,0.410097,0.4600499,0.006767169,-0.008924535,-0.009361999,0.0003434587,0.009713555,-0.01068803
0.791293,0.4125069,0.4690375,0.004045187,-0.006462816,-0.000309086,0.0051495,-1.245457e-05,-0.004057374
0.7910757,0.4187267,0.4660839,0.00379002,-0.0001903222,-0.003196155,0.0009908829,-0.001473517,-0.001570015
0.7898106,0.4165828,0.465405,0.002485343,-0.002280869,-0.00380728,-0.00325546,0.01368698,-0.004188659
0.7875964,0.41191,0.4707108,0.0002300376,-0.006899554,0.001567299,-0.003822841,0.02154918,-0.004394631
0.7866077,0.4150766,0.4678458,-0.0008013,-0.003678108,-0.001228057,0.0004398767,0.01574565,-0.003361783
0.7870251,0.4141131,0.4694299,-0.0004277784,-0.004585962,0.0004261797,0.006241312,0.01255784,-0.0009100165
0.786108,0.4149531,0.4729688,-0.0013898,-0.003689648,0.0040356,0.005987782,0.009952641,0.0006828798
0.786839,0.4182567,0.4686427,-0.0007043973,-0.0003288641,-0.0002199606,0.002630326,0.01046512,-0.0003402203
0.7902051,0.4160552,0.4690741,0.002615423,-0.002472557,0.0002817628,0.001178719,0.01122625,-0.003840947
0.7902385,0.4165461,0.4699449,0.002602213,-0.001923281,0.001222508,-0.0008199972,0.009039661,-0.008145402
0.7884107,0.4171169,0.4666175,0.0007273943,-0.001293671,-0.002035662,-0.0007320446,0.007503341,-0.007837575
0.7868318,0.4161778,0.4659314,-0.0008988072,-0.002173604,-0.002653258,0.0008290516,0.004597172,-0.003979894
0.7862197,0.417034,0.4654528,-0.001558345,-0.001257956,-0.003064037,9.178433e-05,0.005761407,-0.003976
0.7864954,0.4164869,0.4663732,-0.001330072,-0.001745546,-0.002076617,0.0009654973,0.006325247,-0.00622639
0.7858039,0.4159442,0.4672367,-0.002068775,-0.002228595,-0.001146867,0.000447067,0.002991454,-0.004338921
0.7873187,0.4128891,0.4667614,-0.0006006846,-0.005224094,-0.001556718,-0.002322318,0.002093391,-0.004185681
0.7891289,0.4080115,0.4673231,0.00116342,-0.01004197,-0.0009304567,-0.001156203,0.0007692462,-0.006036184
0.7896785,0.4079265,0.4662338,0.001667534,-0.01006689,-0.00195596,0.001182719,-0.0003211305,-0.004815607
0.7908452,0.4107852,0.4682326,0.002789339,-0.007147688,0.0001055444,0.001806103,0.0009161147,-0.006292144
0.7901516,0.4125796,0.4718242,0.002051569,-0.005291865,0.003758957,-0.00312891,0.008042457,-0.007579596
0.7895234,0.4137618,0.4704506,0.001379777,-0.004047497,0.002445918,-0.009373873,0.01536537,-0.0102074
0.7877679,0.4181583,0.4666063,-0.0004187076,0.0004121544,-0.001339183,-0.004182631,0.01056944,-0.0162182
0.7841053,0.4242114,0.4615362,-0.004123551,0.006529126,-0.006351638,0.001270241,0.005389862,-0.01400482
0.7844465,0.4248277,0.4589602,-0.003823874,0.007209575,-0.008871192,-0.001664293,0.007753277,-0.01021078
0.7865204,0.4226201,0.4601793,-0.001790428,0.005066023,-0.007596667,-0.001264407,0.007285546,-0.009611712
0.7880979,0.4228245,0.4644562,-0.0002521969,0.005333713,-0.003265116,-0.000638842,0.005782052,-0.005616719
0.7904014,0.4196778,0.4684211,0.002013392,0.00224933,0.0007538278,-0.004630872,0.007530102,-0.002839213
0.7907067,0.4143148,0.4665137,0.002282053,-0.003052659,-0.0011,-0.006490078,0.006971481,-0.001832457
0.7894182,0.4146655,0.4656871,0.000958132,-0.002642353,-0.001873597,-0.004965835,0.005981098,-0.002179253
0.7880152,0.415382,0.4655372,-0.0004792469,-0.001867486,-0.001971229,-0.000802646,0.0071178,-0.003432846
0.7868466,0.4172345,0.4627665,-0.001681006,4.206532e-05,-0.004690313,0.003357344,0.006426156,-0.002804594
0.7871611,0.4228424,0.4629153,-0.001398583,0.005705704,-0.004490422,0.002424091,0.005709902,-0.003428454
0.7863266,0.4214819,0.4635821,-0.002263917,0.004399396,-0.003773046,-0.001167831,0.004592541,-0.004374581
0.784459,0.4190182,0.4665058,-0.004160883,0.001988118,-0.000799036,-0.001214178,0.002657876,-0.004760154
0.7861187,0.4210832,0.4707736,-0.002529079,0.004103602,0.00351857,0.0006798237,0.002364458,-0.00574379
0.788571,0.4188595,0.4681245,-0.0001031848,0.00192821,0.0009188724,-0.0006455765,0.00266344,-0.007047821
0.7899464,0.4174661,0.4657019,0.001247604,0.0005810085,-0.001455024,-0.003163244,0.006120346,-0.009518436
0.7910124,0.417026,0.47101,0.002290448,0.0001847681,0.003900938,-0.004504471,0.00924912,-0.008961204
0.7899034,0.4139686,0.4756659,0.001159733,-0.002830991,0.008603659,-0.002567413,0.006809482,-0.006925744
0.7903121,0.4151423,0.4741128,0.001548029,-0.001617857,0.007096139,0.002860771,0.00351113,-0.007604798
0.791642,0.414761,0.4694717,0.002858668,-0.001961583,0.002498853,0.0035111,0.003457784,-0.006561267
0.7914465,0.4110104,0.4650859,0.002645032,-0.005676461,-0.001844994,0.001173568,0.008085716,-0.006815125
0.7916921,0.4112798,0.4659681,0.002873339,-0.005372963,-0.0009228509,0.001481937,0.01179688,-0.01062712
0.7897017,0.4128908,0.4680396,0.0008663798,-0.003729173,0.001186813,0.001661461,0.007875868,-0.01223869
0.7881745,0.4144181,0.4658946,-0.0006767971,-0.002170138,-0.0009219923,0.002116524,0.003998191,-0.01057105
0.7890763,0.4142887,0.4665257,0.0002096847,-0.00226878,-0.0002564309,-6.72032e-05,0.007925847,-0.005244668
0.7892582,0.4133539,0.4671918,0.0003768925,-0.003173636,0.0004423444,-0.003529026,0.01117965,-0.001279307
0.7906848,0.4152385,0.4650396,0.001789344,-0.001259795,-0.001678963,-0.002339818,0.009494073,-0.004311371
0.7921742,0.4155526,0.4659278,0.003265081,-0.0009170592,-0.0007614127,-0.0007456982,0.009812335,-0.007255913
0.7918672,0.4148595,0.4679089,0.002944865,-0.001582127,0.001247496,-0.001620533,0.008989249,-0.00688843
0.7913607,0.4144397,0.4709895,0.002425465,-0.001974465,0.004354224,-0.003603695,0.005494314,-0.007795183
0.7915161,0.4125121,0.473337,0.002568,-0.003875097,0.00672633,-0.00449389,0.003227796,-0.007723438
0.7910207,0.412238,0.4705026,0.002059789,-0.004122595,0.003914586,-0.003520824,0.001644556,-0.006504521
0.7896964,0.4131616,0.4658152,0.000722606,-0.003172657,-0.0007521301,-0.001878375,0.004807827,-0.00830158
0.7897961,0.414954,0.4650209,0.000809397,-0.001354006,-0.001527684,0.001920258,0.00809593,-0.009324534
0.7878765,0.4166564,0.4689653,-0.001123194,0.0003745408,0.002433441,0.00506854,0.004357939,-0.00933456
0.7856592,0.4152278,0.4712194,-0.003353466,-0.00102802,0.004702488,0.004223018,0.0008410615,-0.01076905
0.7896058,0.4144538,0.473228,0.0005802081,-0.001775995,0.00672403,0.002795239,0.002994261,-0.0104516
0.793309,0.414878,0.4726015,0.004270578,-0.001325963,0.006108377,0.002205613,0.01197411,-0.0111636
0.7913535,0.413401,0.4662647,0.002302436,-0.002777306,-0.0002198677,-0.0005421077,0.02078798,-0.01291948
0.7890846,0.4131459,0.4685484,2.091032e-05,-0.003006708,0.002070107,-0.00284987,0.01652906,-0.01338695
0.7889329,0.4159578,0.471373,-0.0001435075,-0.0001691117,0.004898766,-0.002139625,0.009027009,-0.01401965
0.7886515,0.4199994,0.4669827,-0.0004376406,0.003898199,0.0005102129,-0.00232653,0.01111792,-0.01225699
0.788907,0.4229551,0.4656438,-0.0001948218,0.006879319,-0.0008291431,-0.002029369,0.01149877,-0.01088933
0.7884474,0.4215155,0.4619252,-0.0006670755,0.005464734,-0.004550093,-0.001315364,0.009729217,-0.01145802
0.7849602,0.4172052,0.4637907,-0.004166689,0.001178629,-0.002688823,-0.002333709,0.01091855,-0.009820956
0.7827982,0.4142039,0.4689864,-0.00634079,-0.001799356,0.002501226,-0.003184614,0.005998063,-0.005086069
0.7851122,0.4135198,0.4630697,-0.004038372,-0.002461188,-0.003422558,-0.00507248,0.002769181,0.0003351132
0.7891868,0.4135921,0.461611,2.544967e-05,-0.002367386,-0.004889335,-0.005412106,0.008155377,-0.001147405
0.7902709,0.4124882,0.4660234,0.001099632,-0.003450634,-0.0004859397,-0.003913822,0.01107988,-0.004044155
0.7890757,0.4147493,0.4671341,-0.0001047168,-0.001169373,0.000615128,-0.002282438,0.008229852,-0.0005060945
0.7890049,0.4183346,0.4671344,-0.000183768,0.002435513,0.000605233,0.0008940916,0.005350629,-0.0004422782
0.7887774,0.416021,0.4666864,-0.0004188381,0.0001410288,0.0001464789,0.0007253355,0.007181258,-0.002860034
0.7898443,0.4143006,0.470174,0.0006411812,-0.001560961,0.00362276,0.0003428266,0.007982298,-0.002788823
0.7908263,0.4141019,0.4717839,0.001617013,-0.001741706,0.005220871,0.00238299,0.006303307,-0.00373284
0.790302,0.4131588,0.4687483,0.001087117,-0.002667436,0.002172885,0.0002609429,0.005980976,-0.003282906
0.7922,0.4144527,0.4685978,0.002980038,-0.001356542,0.002009247,0.000677973,0.003535549,-0.004321514
0.7936268,0.4138389,0.4682019,0.004402144,-0.001953595,0.001599385,0.007353997,0.004663728,-0.008533476
0.7925757,0.4140325,0.4653048,0.003346507,-0.001743515,-0.001312468,0.0103114,0.009610466,-0.01114253
0.7901962,0.4171137,0.4626462,0.0009624396,0.00135389,-0.003986504,0.006140616,0.01096788,-0.01208433
0.7880445,0.4184607,0.4606893,-0.001193996,0.00271687,-0.005959194,0.001526483,0.009656966,-0.01208129
0.7887922,0.418506,0.4613201,-0.0004510475,0.00277785,-0.005344323,0.003397532,0.007598433,-0.01327206
0.7892765,0.4175783,0.4661526,2.843054e-05,0.001865346,-0.0005276977,0.00515885,0.00857041,-0.01318846
0.7886618,0.4180575,0.4695155,-0.0005910176,0.002359078,0.002819837,0.002228137,0.00861545,-0.01015721
0.7887117,0.4188466,0.4687262,-0.0005459372,0.003161987,0.002015419,0.002402362,0.006758966,-0.008846882
0.7880865,0.4192999,0.4711601,-0.001175958,0.003628248,0.004434335,0.0017112,0.008450734,-0.007906042
0.7873581,0.4217109,0.474838,-0.001908901,0.006051166,0.00809746,-0.001554561,0.00733058,-0.007079133
0.788246,0.420886,0.4725717,-0.001025487,0.005237023,0.005816086,-0.0005427912,0.002334034,-0.004774594
0.7898152,0.4190409,0.4680028,0.0005395814,0.003401245,0.001231722,0.0002479691,-0.001205074,-0.0002763368
0.7902576,0.4187138,0.4659618,0.0009780408,0.003081901,-0.0008253616,-0.0002351906,0.0009903716,0.0003466774
0.7901692,0.4160111,0.4657426,0.0008859685,0.0003852668,-0.001061076,0.0005383898,0.005083581,-0.00275884
0.7888579,0.4135134,0.4666806,-0.0004288572,-0.002107989,-0.0001400683,0.0005132853,0.001334368,-0.008957267
0.7880799,0.411103,0.4673033,-0.001210186,-0.004515371,0.000465419,0.0009826244,-0.0003577028,-0.01051748
0.789528,0.4109737,0.4661513,0.0002347539,-0.004642831,-0.0007040846,0.004160674,0.004105039,-0.001811821
0.7888663,0.4153747,0.4666607,-0.0004298767,-0.0002409527,-0.0002123067,0.00731757,0.006379947,0.002403721
0.7884302,0.4175947,0.4672968,-0.0008686859,0.001979135,0.000406171,0.00498516,0.007745476,-0.003144196
0.7896255,0.4164626,0.4669932,0.0003240881,0.0008464001,8.47573e-05,0.0006261944,0.003732624,-0.008273045
0.7894483,0.4143061,0.469044,0.0001445916,-0.001311371,0.002117903,-0.00200952,-0.001040354,-0.006326131
0.7910749,0.4125162,0.4699507,0.001769219,-0.003103234,0.003006843,-0.003522969,0.002748751,-0.003566522
0.7933444,0.4131905,0.4708575,0.004036762,-0.002431344,0.003895789,-0.001714341,0.006067701,-0.004783028
0.7941521,0.4169099,0.4714142,0.004842589,0.001285259,0.004434423,-0.001081576,0.005018647,-0.00327321
0.7922859,0.4208183,0.4693778,0.002974247,0.005190587,0.002379613,-0.0002906548,0.0008234865,-0.003910007
0.7878981,0.4188122,0.4701242,-0.001416058,0.003181018,0.003107243,0.003364554,-0.004433008,-0.006189658
0.788558,0.4157531,0.4700299,-0.0007590355,0.0001178502,0.002993524,0.001691565,-0.002948123,-0.00453362
0.7912826,0.4170292,0.467166,0.001962402,0.00138942,0.0001096951,-0.00128076,0.001041423,-0.003328201
0.7925201,0.4165674,0.4665377,0.003196299,0.0009224768,-0.0005390196,-0.00121289,0.00369615,0.0008218105
0.7951993,0.4154067,0.4690003,0.005871579,-0.0002439804,0.001902641,-0.001459914,0.00832443,0.003123419
0.7930331,0.4154248,0.4739657,0.003700797,-0.0002322152,0.006846681,9.201877e-06,0.007682941,0.0003612763
0.789955,0.4148986,0.474859,0.0006173442,-0.0007652031,0.007718087,0.000635222,0.004728571,-0.0007816722
0.7913217,0.4160605,0.4686109,0.001977848,0.0003896152,0.001447299,0.0005030974,0.006895046,-0.0007678439
0.7904078,0.4180125,0.463286,0.001056973,0.002334074,-0.003901151,0.001181159,0.004193396,0.0005617892
0.7905656,0.4199776,0.4655543,0.001206903,0.004291238,-0.001657117,0.0006509233,0.0003180063,-8.633337e-05
0.7925573,0.4197363,0.4688641,0.003190034,0.004041493,0.001627836,0.002335249,0.001559727,-0.0006196128
0.7914937,0.4164736,0.4676421,0.002116992,0.0007698166,0.0003807306,0.003451676,0.001159105,-0.0009774917
0.7913826,0.4146495,0.4695949,0.001995558,-0.001063933,0.002307984,0.0007771428,0.00390704,-0.005902397
0.7920356,0.4132304,0.4706531,0.002637279,-0.002493372,0.003340396,-0.0007201461,0.00638131,-0.007237424
0.7912634,0.412627,0.4681425,0.001852962,-0.003107481,0.0008036546,0.0009471443,0.003524928,-0.005429039
0.7908017,0.4132863,0.4687528,0.00137813,-0.002459064,0.001387394,0.004045688,0.003798187,-0.004488184
0.7901107,0.4142451,0.4635011,0.0006731593,-0.001511315,-0.003891156,0.00493603,0.004250008,-0.004302024
0.7902083,0.4183556,0.4571829,0.0007558711,0.002588193,-0.01023619,0.00456013,0.003569781,-0.004740545
0.7913,0.4189619,0.4608469,0.001831974,0.003183603,-0.006598833,0.004538112,0.005634555,-0.001459078
0.7907396,0.4154958,0.4634859,0.001255104,-0.000293426,-0.003985629,0.001574983,0.007722333,0.0002590471
0.7891399,0.4164995,0.4628188,-0.0003617266,0.0006992087,-0.004677587,-0.003103149,0.009986978,-0.001578891
0.7888403,0.4174709,0.4634764,-0.0006791692,0.001659529,-0.004043501,-0.005977996,0.01315955,-0.003360457
0.7908975,0.4171028,0.4630434,0.001359709,0.001280323,-0.004498578,-0.005106125,0.01771478,-0.005809655
0.7933133,0.4182735,0.462435,0.00375667,0.002439695,-0.005127378,-0.002514164,0.02098425,-0.007874348
0.7929717,0.4173664,0.4635059,0.00339559,0.001521128,-0.004075075,-0.001281355,0.02027863,-0.008404685
0.7910266,0.4158628,0.4650085,0.001430524,5.883208e-06,-0.002589124,0.001023251,0.01973855,-0.005407516
0.7899996,0.4158518,0.4648659,0.0003829874,-1.706057e-05,-0.002746266,0.00346778,0.01799321,-0.003076887
0.7913291,0.4152524,0.4645962,0.001691245,-0.0006285812,-0.003028495,0.002481795,0.01397104,-0.003084867
0.7940977,0.4145555,0.4666207,0.004438142,-0.001337582,-0.001014356,-0.001393195,0.0127132,-0.003103242
0.7942106,0.4137916,0.4689551,0.004528692,-0.00211372,0.00131172,-0.004795206,0.01336466,-0.005428341
0.7904244,0.411939,0.4692305,0.0007194798,-0.003978389,0.001580792,-0.002549272,0.01206761,-0.007089226
0.7859344,0.4120667,0.4683268,-0.00379422,-0.003862546,0.0006724901,0.001512122,0.005938182,-0.008885234
0.7857082,0.4133701,0.4653108,-0.004044691,-0.00257046,-0.002346441,0.0005774454,0.0001807361,-0.00918778
0.789636,0.4130204,0.4626251,-0.0001414333,-0.002930824,-0.005033571,0.000608404,0.003970876,-0.006951185
0.791925,0.4140705,0.4700554,0.002123032,-0.001890556,0.002396931,0.0005794227,0.008853787,-0.008730281
0.7919163,0.4143814,0.4796163,0.002089726,-0.00158867,0.01195941,-0.002777915,0.006672546,-0.008488914
0.7915723,0.4127364,0.4765846,0.001720972,-0.003241757,0.008930468,0.0006549991,0.005706032,-0.007457499
0.7916855,0.4115386,0.4719527,0.001809398,-0.004446629,0.004301708,0.004328073,0.007223417,-0.00988331
0.7927992,0.4091455,0.470156,0.002898244,-0.006845641,0.00250826,0.001095284,0.009717486,-0.009152708
0.7923072,0.4103238,0.4630094,0.002381239,-0.005671814,-0.004635152,0.001307777,0.01374847,-0.007984291
0.7886394,0.4141715,0.4603165,-0.001311787,-0.001827135,-0.00732479,0.002763027,0.01032919,-0.00665771
0.7852681,0.4141656,0.4620335,-0.004708455,-0.001834265,-0.005604386,0.002543589,0.004033762,-0.005448553
0.7881414,0.4150602,0.4598043,-0.001860363,-0.0009392855,-0.007829606,0.0026119,0.005521902,-0.005406495
0.7921354,0.4176914,0.4610569,0.002108666,0.001693942,-0.006572191,0.001500033,0.007051895,-0.002954729
0.7888952,0.4194927,0.4635583,-0.001156182,0.003498671,-0.004064874,0.001294212,0.007443055,-0.002910823
0.7868796,0.4207138,0.4647736,-0.003195928,0.004724389,-0.002842367,-0.0008543793,0.009541013,-0.00342792
0.7885004,0.4193408,0.4687599,-0.001598864,0.00335701,0.001152468,-0.004608139,0.009960388,-0.003244121
0.7889962,0.4165702,0.4688645,-0.001126026,0.0005926285,0.001266912,-0.00503046,0.01085157,-0.007464138
0.791611,0.4144255,0.4677029,0.00146649,-0.00154532,0.0001162671,-0.004257596,0.01132926,-0.008851751
0.7917384,0.4147531,0.4688433,0.00157232,-0.001210593,0.001268623,-0.003747875,0.01085053,-0.002859892
0.790125,0.4149957,0.4686452,-6.191385e-05,-0.0009603168,0.001083221,-0.002152586,0.007286314,0.00255313
0.792215,0.4122158,0.4728899,0.002007794,-0.003732186,0.005341332,-0.0001784614,0.001076499,-0.001161165
0.7918362,0.4128043,0.4764663,0.001609382,-0.003135115,0.008931468,-0.0004796119,0.002681626,-0.006784874
0.7899912,0.4165965,0.4710027,-0.0002546562,0.0006663357,0.003481564,-0.002592822,0.005569283,-0.004913913
0.7895271,0.4185675,0.4672683,-0.0007372516,0.002647196,-0.0002393128,-0.003422136,0.003881391,-0.002681385
0.7884081,0.4177731,0.4681224,-0.001874319,0.001863062,0.0006277186,-0.001129149,0.006883611,-0.0009909753
0.7890394,0.4152447,0.4664932,-0.001260371,-0.0006547734,-0.0009889581,0.002979601,0.009171353,-0.0007617512
0.7902747,0.4149831,0.4659701,-4.178554e-05,-0.0009055958,-0.001499928,0.003736057,0.008128199,-0.005128446
0.7911339,0.4143304,0.4673123,0.0008015001,-0.001547289,-0.0001461078,0.00214487,0.01142998,-0.006341232
0.7920127,0.4146841,0.4665041,0.001665001,-0.001182279,-0.0009429865,0.001121944,0.01370759,-0.005297592
0.7907064,0.4180899,0.4664145,0.0003441241,0.002234953,-0.001021667,-0.0007781373,0.007677508,-0.003230303
0.789762,0.4172265,0.4670472,-0.0006143434,0.001383238,-0.0003782514,-0.0007939765,0.002264779,-0.001204337
0.7902812,0.4184657,0.4673031,-0.0001086829,0.002634059,-0.000111955,0.0007149857,0.008536202,-0.005029008
0.7892543,0.4224107,0.4711612,-0.001148446,0.006590584,0.003756229,0.001015353,0.01322511,-0.007386476
0.787789,0.4192278,0.4751306,-0.002625989,0.003418893,0.007735337,0.0004648198,0.004155996,-0.003909183
0.788097,0.4156417,0.4739276,-0.002329524,-0.0001566582,0.006541323,-0.001329106,-0.001826315,-0.0002887166
0.7894077,0.4141877,0.4723754,-0.001029597,-0.001600747,0.004997087,-0.0007570769,0.002823613,-0.001391062
0.7899944,0.4131094,0.4722952,-0.0004527381,-0.002669793,0.004923743,-0.0003724325,0.005696501,-0.005343983
0.7900334,0.4143325,0.4705994,-0.0004227687,-0.001437863,0.003233322,-0.003445981,0.004378223,-0.004943835
0.7894776,0.4139366,0.4710658,-0.0009866867,-0.001825313,0.00370349,-0.003473149,0.004537313,-0.002392621
0.7875794,0.4137236,0.4727598,-0.002892261,-0.002030223,0.005399645,-0.004496373,0.007072473,-0.001899901
0.7873883,0.4151534,0.46934,-0.003089701,-0.0005924997,0.001980327,-0.005416178,0.00807387,-0.004380522
0.7896098,0.4155119,0.4667724,-0.0008735807,-0.000226222,-0.000588686,6.375407e-05,0.005850245,-0.00710952
0.7901978,0.416292,0.4690884,-0.000289963,0.0005615281,0.001724227,0.001924325,0.001039295,-0.003954459
0.7877327,0.4168658,0.4718337,-0.002758348,0.001142846,0.004464858,0.002675034,-0.003481525,-0.001579371
0.7857428,0.4163359,0.4746165,-0.004750449,0.000620169,0.007241258,0.007370965,0.00158951,-0.005533118
0.7894247,0.4148558,0.4748974,-0.001069647,-0.0008528523,0.007513876,0.008251639,0.008993417,-0.00774996
0.7931919,0.4132758,0.4736817,0.002697644,-0.00242603,0.006288003,0.003190572,0.003195501,-0.005543105
0.7897601,0.4137836,0.474587,-0.0007329795,-0.001911476,0.007180785,-0.002782924,-0.001633554,-0.004411348
0.7878922,0.4142434,0.4733088,-0.002598681,-0.001445126,0.005887742,0.002822307,0.001752757,-0.005635669
0.7912388,0.4136535,0.4688559,0.0007509887,-0.002028329,0.001417603,0.008680194,0.002350119,-0.006627803
0.7917983,0.4142674,0.4653304,0.001314566,-0.001407711,-0.002127588,-0.0005677357,0.006945981,-0.009319791
0.7886508,0.4157879,0.4661061,-0.001828028,0.0001195913,-0.001373791,-0.007169139,0.01030994,-0.0123936
0.7856673,0.4176197,0.4683329,-0.004805841,0.001958374,0.0008291995,-0.00688607,0.00144025,-0.009201971
0.7861583,0.419628,0.4687533,-0.004308238,0.003973698,0.001224087,-0.004000813,-0.006878615,-0.002592159
0.7893299,0.4212414,0.4712582,-0.001129133,0.005594018,0.003701911,0.001898784,-0.006234857,0.0004152571
0.7910674,0.4205966,0.4709522,0.0006169198,0.004955755,0.00336741,0.002156094,0.001244597,-7.075381e-05
0.7913686,0.4167682,0.46788,0.0009276632,0.001133342,0.000265164,-0.0004367354,0.007061774,0.0002305172
0.7912321,0.4142398,0.4690505,0.0008014348,-0.001389819,0.001404355,-0.00338517,0.005817934,0.001028785
0.78988,0.4149874,0.4654542,-0.0005395281,-0.0006376646,-0.002224583,-0.00682915,0.005962617,-0.00478249
0.7874588,0.4148336,0.4611451,-0.002949126,-0.0007875761,-0.006567248,-0.006343319,0.008419419,-0.01106077
0.7868231,0.4134038,0.4671668,-0.003572479,-0.002213994,-0.0005798161,-0.002795898,0.007651263,-0.005498885
0.7876581,0.4136828,0.4724583,-0.002724455,-0.001932013,0.004677107,0.001679051,0.005353427,-0.0002894726
0.7856424,0.4143154,0.4728585,-0.004726325,-0.00129678,0.005042321,0.001829175,0.002873236,-0.003346631
0.7847901,0.4136496,0.4724976,-0.00556387,-0.001960231,0.004645968,-0.0004890757,0.0001833674,-0.001520404
0.7893606,0.4138229,0.4692303,-0.0009776383,-0.001784636,0.001342763,6.909667e-05,0.001572523,0.001458842
0.7928166,0.4146828,0.469823,0.0024952,-0.0009224291,0.001898929,2.369434e-05,0.005021629,-0.00304573
0.7902653,0.4163097,0.4803879,-3.837522e-05,0.0007068096,0.01242672,0.0001431275,0.003750895,-0.004594269
0.7873633,0.4186334,0.485589,-0.00292193,0.003032777,0.01758984,0.0007907403,0.002292828,0.002156732
0.7890002,0.4164752,0.4727258,-0.001265732,0.0008768551,0.004687459,0.0005321031,0.002387721,0.006291396
0.7886349,0.4130288,0.4591319,-0.001611041,-0.002567419,-0.008947266,0.001563556,0.002137054,-0.001407292
0.7865741,0.4139134,0.4621568,-0.003651246,-0.001680733,-0.00596448,0.001530046,0.004259208,-0.009879436
0.7887678,0.4149072,0.4713757,-0.001436109,-0.0006849959,0.003211416,-0.001388781,0.004858196,-0.006982633
0.7894042,0.4171264,0.4766351,-0.0007776067,0.001536314,0.008427198,-0.004020974,0.004074363,-0.004037238
0.7883055,0.4203948,0.479387,-0.001853533,0.004806696,0.01113472,-0.003524675,0.005069647,-0.006509634
0.7882544,0.4180288,0.4718592,-0.001881193,0.002442652,0.003561564,-0.002136292,0.006273792,-0.006058511
0.7870883,0.4159334,0.4623601,-0.00302317,0.0003487651,-0.00598396,-0.001967387,0.006735934,-0.002361353
0.7874147,0.4205632,0.4671944,-0.002672102,0.004979753,-0.001196969,0.0001986192,0.001788572,-0.0003458584
0.7874446,0.4230629,0.4693921,-0.002616754,0.007480116,0.0009529033,0.001442945,-0.003253022,-0.003839345
0.7852571,0.4184731,0.4664027,-0.00477818,0.002890157,-0.00208483,-0.0006790749,0.001544789,-0.0051839
0.7834361,0.4152438,0.4698278,-0.006572305,-0.0003402143,0.001291844,-0.0009292105,0.006401535,-0.002686157
0.7835335,0.417593,0.4715342,-0.006447062,0.002006981,0.002949848,-0.0003589643,0.004634809,-0.003664688
0.7871599,0.4185048,0.473345,-0.002791801,0.002915752,0.004712082,0.000667066,0.00474858,-0.002429552
0.7900742,0.4147408,0.4713546,0.000152587,-0.0008521659,0.002673219,0.002955924,0.005795892,-0.003567985
0.7892206,0.4120341,0.4657991,-0.0006699102,-0.00356387,-0.002930893,0.002069507,0.005047597,-0.008509281
0.7892061,0.412327,0.4700852,-0.0006522982,-0.003276601,0.001306645,0.001161461,0.007742692,-0.009232528
0.7906634,0.4128368,0.4718259,0.0008378751,-0.002772999,0.002999004,0.001780804,0.01025532,-0.009207209
0.7896202,0.413411,0.4661791,-0.0001717058,-0.002205349,-0.002695962,-0.0006373967,0.00876976,-0.006994222
0.7882579,0.4144167,0.4644701,-0.001499885,-0.001206383,-0.004452713,-0.002654977,0.005754054,-0.00658444
0.7902089,0.4161969,0.4648901,0.0004855551,0.0005670729,-0.004079797,-0.001311656,0.003563946,-0.005473594
0.7916641,0.4197239,0.4648332,0.001975576,0.004087333,-0.004182854,0.0002383827,0.003399087,-0.001249632
0.7916516,0.4246629,0.4638873,0.001998001,0.009019378,-0.005173844,0.001558935,-0.004699283,-0.00296651
0.7911702,0.4266299,0.4664812,0.001551526,0.01097909,-0.002623472,0.006578431,-0.01761084,-0.0003394781
0.7878698,0.4210105,0.4741589,-0.001714207,0.00535149,0.005012338,0.0140551,-0.01854163,0.001961976
0.7854393,0.4144839,0.4770099,-0.004110366,-0.001184441,0.007822993,0.0136303,-0.01291103,-0.004267784
0.7877727,0.4131373,0.4706286,-0.001742758,-0.00254148,0.001402579,0.002849696,-0.003801179,-0.01031119
0.7909359,0.40827,0.4619562,0.001454361,-0.007420191,-0.007307672,-0.005843601,0.007891024,-0.01738248
0.7900237,0.4025835,0.4621794,0.0005758598,-0.01311875,-0.007121155,-0.003811602,0.005255524,-0.01740776
0.7870258,0.4114515,0.4692415,-0.002388699,-0.004262719,-9.409665e-05,0.001677745,-0.004904114,-0.009169662
0.7855434,0.4247508,0.473786,-0.003838141,0.009024765,0.004417035,0.00354839,-0.005228523,-0.001585336
0.7848016,0.4260055,0.4776152,-0.004547277,0.01026799,0.008214499,0.004362093,-0.000977679,0.001638766
0.7846863,0.4219579,0.4807775,-0.004629967,0.006208838,0.01134622,0.001242538,0.002935979,0.0004399411
0.7837661,0.4201197,0.4801829,-0.005517607,0.004358476,0.01072185,-0.003961648,0.002316348,0.002770921
0.7831948,0.4224142,0.4742254,-0.006056123,0.006640215,0.004734875,-0.003300903,-0.001242416,0.00436866
0.7853945,0.4241187,0.4666034,-0.003823239,0.008330866,-0.002916695,-0.003551492,0.001502085,0.005506172
0.7865822,0.4186785,0.4655647,-0.002601946,0.002875782,-0.003984878,-0.004775669,0.0001521796,0.006973991
0.7865931,0.4149929,0.4674941,-0.002556874,-0.0008261815,-0.002084879,-0.001098316,-0.006804866,0.003704044
0.7880457,0.4167427,0.4685303,-0.001069455,0.0009060991,-0.001077677,0.0003200219,-0.008580967,0.005086121
0.791176,0.4171877,0.4698422,0.002096001,0.001332433,0.0002057947,-0.0009324425,-0.005728415,0.00444954
0.7923512,0.4160333,0.4699709,0.003306772,0.0001582096,0.0003065972,-0.002731665,-0.0002354925,0.001891971
0.7893697,0.4150884,0.4710228,0.0003609962,-0.0008073852,0.001331311,-0.004363378,-0.003842643,0.005625989
0.7882671,0.4154635,0.4727738,-0.0007060991,-0.0004538923,0.003055626,-0.00129653,-0.009170394,0.003592087
0.7888912,0.4167829,0.4722031,-4.660414e-05,0.0008433532,0.002458862,0.001453571,-0.005798266,0.002468447
0.7878056,0.4172471,0.4695812,-0.001097063,0.001284677,-0.0001887723,0.0007003633,-0.009260284,0.005602419
0.786582,0.4159559,0.4670775,-0.002285752,-2.99043e-05,-0.002717728,0.002279437,-0.01002935,0.004496664
0.7864872,0.4146808,0.4652777,-0.002345969,-0.00132879,-0.004542201,0.006935216,-0.004834472,0.004705199
0.7879739,0.4138684,0.4653129,-0.0008249107,-0.002165307,-0.004530912,0.009493424,-0.006229638,0.005070705
0.7879174,0.4135839,0.4683723,-0.0008473406,-0.002474082,-0.001494542,0.009308661,-0.005689678,0.006487024
0.7880625,0.4161946,0.4694379,-0.000668412,0.0001124978,-0.0004509231,0.009223725,-0.004527706,0.007518989
0.7904482,0.4176257,0.4658301,0.001750804,0.001519517,-0.004079474,0.008229375,-0.005225669,0.001744018
0.790717,0.4181344,0.4616202,0.002052616,0.002004276,-0.00830879,0.007339655,-0.004897277,-0.0003343891
0.7909461,0.4202061,0.4617857,0.002314282,0.004052208,-0.00816124,0.006673563,-0.005080647,0.002067865
0.7917197,0.418951,0.4636968,0.003119654,0.002773393,-0.006266085,0.005280516,-0.004448209,0.0007077149
0.7898996,0.4163983,0.4628745,0.001330493,0.0001969886,-0.007102258,0.004910866,-0.004947903,0.004011524
0.7883729,0.4149814,0.4640073,-0.0001663592,-0.001243789,-0.005980986,0.003400997,-0.005254878,0.007911517
0.7896444,0.4158183,0.4645739,0.001134038,-0.0004305995,-0.005423308,7.406741e-05,-0.005872918,0.002584565
0.7909924,0.4185495,0.4628856,0.002509709,0.002276871,-0.007117764,-0.003295197,-0.006907665,0.000421105
0.7901191,0.4175808,0.4634554,0.001663016,0.001284655,-0.006551303,-0.003197881,-0.00446915,0.002239522
0.7898339,0.4151029,0.4622787,0.001403054,-0.001216726,-0.007728302,-0.001218997,-0.002450137,0.001946444
0.789756,0.4134095,0.4619736,0.00134909,-0.002933312,-0.008030599,-0.00357163,-0.002808484,0.005236348
0.7885546,0.4131018,0.4637619,0.0001702608,-0.003263981,-0.006236037,-0.003257715,-0.003311447,0.007590708
0.7898799,0.4132362,0.4652371,0.001516798,-0.003151937,-0.004751272,1.673205e-05,-0.002327087,0.007374822
0.791795,0.4097859,0.4702318,0.003451656,-0.006624002,0.0002564669,-7.93966e-05,-0.001325871,0.007312494
0.7917374,0.409649,0.4717024,0.003412412,-0.006781573,0.001743314,0.0005300021,-0.0009483466,0.005631771
0.7916913,0.4132047,0.4667367,0.003383036,-0.003245287,-0.003203088,0.0003460521,0.001863123,0.004671573
0.7916095,0.4133612,0.4630083,0.003316342,-0.003106808,-0.006909458,0.0009280917,0.003388097,0.0023424
0.7920279,0.415318,0.4631941,0.003748018,-0.001166338,-0.00669898,0.001839211,0.003975725,-0.002346076
0.7935189,0.4180649,0.4662493,0.005250499,0.001565874,-0.003616228,-0.002382122,0.005849952,-0.006258403
0.7950699,0.4164176,0.46659,0.006810866,-9.458092e-05,-0.003245185,-0.004617581,0.006050133,-0.007434258
0.7950972,0.4161166,0.4673865,0.006845369,-0.0004072824,-0.002415664,-0.003794336,0.008600262,-0.005866824
0.7931577,0.417324,0.4708269,0.004910679,0.000789795,0.001060236,-0.004192275,0.01241513,-0.00525917
0.7918524,0.416354,0.4676158,0.003607681,-0.0001892857,-0.002113084,-0.006113795,0.01440801,-0.005882466
0.7913314,0.4165536,0.4650284,0.003086393,2.51797e-06,-0.004660597,-0.007561821,0.01493774,-0.007494562
0.7883613,0.4170288,0.4678211,0.0001134914,0.0004711329,-0.001826009,-0.002382613,0.008215877,-0.008666989
0.7846837,0.4168423,0.4673993,-0.003569328,0.0002790445,-0.002204043,0.002466464,-0.002122398,-0.006647075
0.7856753,0.4195227,0.4679352,-0.002585135,0.002954949,-0.001622711,-0.0002222833,-0.004504746,-0.004092246
0.7883124,0.4211727,0.4673323,4.266369e-05,0.004601205,-0.002178554,-0.004173912,0.005432583,-0.003190362
0.7907475,0.4182544,0.4601942,0.00246692,0.001679809,-0.009268047,-0.006226569,0.01510247,-0.004047084
0.7958441,0.4154807,0.4561797,0.007551014,-0.001096604,-0.01323245,-0.006502751,0.01049748,-0.004605424
0.7946257,0.4168327,0.4615406,0.006318402,0.0002531334,-0.007819677,-0.00725114,0.007095948,-0.003381589
0.7895846,0.4188833,0.468199,0.001261418,0.002301776,-0.001107323,-0.007109873,0.01035625,-0.0005286923
0.7901644,0.4176393,0.4655394,0.001823448,0.001056136,-0.003711077,-0.001779563,0.004977111,0.004332747
0.7869349,0.416353,0.4632119,-0.001425593,-0.0002316353,-0.005980723,0.002412729,-0.0007923158,0.005667331
0.7845679,0.4164426,0.4663707,-0.003813689,-0.0001433768,-0.002762334,-0.0006454279,-0.001421603,0.00138428
0.7883392,0.416242,0.46496,-6.478058e-05,-0.0003450975,-0.004111774,-0.005136802,-0.00267551,-0.001157079
0.7887323,0.4141951,0.4664342,0.0003049258,-0.002392975,-0.002574559,-0.005235717,-0.00127418,-0.0001899382
0.7906821,0.4113416,0.4668241,0.002230386,-0.005247142,-0.002120259,-0.004803577,0.001795295,-0.0001335923
0.7927808,0.4125575,0.4580233,0.004303863,-0.004031608,-0.01085519,-0.005430786,0.006585478,-0.001324999
0.7911538,0.4140941,0.4549923,0.002650789,-0.002494666,-0.0138189,-0.003687688,0.00911277,-0.00197279
0.7917431,0.4130194,0.4605124,0.0032131,-0.00356835,-0.008229835,5.611025e-05,0.003220303,-0.001089031
0.791787,0.4115438,0.4662011,0.003229105,-0.005042058,-0.002470158,0.004700765,-0.001447006,0.002147206
0.7914759,0.4091724,0.4644786,0.00288919,-0.007410602,-0.004119801,0.004721795,-0.0005781373,0.002940323
0.7915231,0.4118889,0.4618088,0.002906586,-0.004689979,-0.006714913,0.0006428137,-0.001573367,-3.109698e-05
0.7896773,0.4184679,0.4685364,0.001030091,0.00189455,8.903154e-05,0.0008747472,-0.004475302,-0.001333166
0.7884936,0.4204227,0.4725727,-0.0001852167,0.003856104,0.004203196,0.0008050557,-0.003392406,-0.00321416
0.7889738,0.4192159,0.4733657,0.0002626604,0.002657292,0.005075054,-0.000188413,0.002085811,-0.003506859
0.7910433,0.4168608,0.4736327,0.002299086,0.0003110396,0.005421597,0.001316403,0.009510217,-0.0007401826
0.7921399,0.4144538,0.4691992,0.003362111,-0.002086345,0.001067635,-0.0002365254,0.01455148,-0.002536961
0.7912764,0.4132281,0.4676907,0.002464422,-0.003301769,-0.000361617,-0.001408769,0.009894416,-0.003729346
0.7898321,0.4122484,0.4685197,0.0009853695,-0.004270427,0.000546175,-0.003140208,0.002666563,-0.00327427
0.7882827,0.4105596,0.4696704,-0.000599271,-0.005947416,0.001774838,-0.007545653,0.0007813417,-0.004005955
0.7887998,0.4099936,0.4681334,-0.0001178764,-0.006500547,0.0003149449,-0.00570857,0.001251608,-0.00166112
0.7892409,0.4140015,0.4654267,0.000287304,-0.00247851,-0.00231587,-0.001785956,0.003811233,-0.0030414
0.7886168,0.4153581,0.4691123,-0.0003729352,-0.001106538,0.001444459,0.0001224515,0.002597575,-0.005007451
0.7888016,0.4128234,0.4698311,-0.0002243247,-0.003624593,0.002236629,0.0009617807,0.0001578594,-0.00321464
0.7878585,0.4152592,0.4671999,-0.001203495,-0.001170862,-0.0003227674,-0.001162512,0.001172775,-0.004682573
0.7862462,0.4176664,0.4664639,-0.002851639,0.001255445,-0.0009884695,-0.0002943199,-0.0001925213,-0.004346335
0.7858066,0.4198161,0.466456,-0.003326672,0.003425375,-0.0009278207,0.0002446431,0.0003875292,-0.002173815
0.786526,0.4231135,0.4691607,-0.002642046,0.006743781,0.001843697,-0.001156115,0.0001162238,-0.001320946
0.7880214,0.4187887,0.4696996,-0.001180723,0.002440498,0.002447574,0.001572965,-0.00312624,-0.001087403
0.7896411,0.4146573,0.4693892,0.000405935,-0.001669208,0.00220021,0.002723347,-0.002480666,-0.00283454
0.7909676,0.4173777,0.4689386,0.001700368,0.001072976,0.001810592,0.002912499,-0.00110705,-0.002269241
0.7918094,0.419011,0.4654388,0.00251099,0.002727914,-0.001630397,0.00328713,0.002054206,-0.001863031
0.7916559,0.4187011,0.4637853,0.002327224,0.002439594,-0.003227229,0.001555245,0.002769505,-0.002722411
0.7896302,0.4160959,0.4673452,0.0002720306,-0.0001443488,0.000387114,0.001838188,-0.00288532,-0.002769153
0.788259,0.4116439,0.4767353,-0.001127955,-0.004575466,0.009829649,0.001584361,-0.006236724,-0.004191031
0.7889756,0.4117379,0.4807549,-0.0004393635,-0.004460979,0.0138993,0.0004400842,-0.005026926,-0.004340377
0.7890285,0.4134766,0.4741215,-0.0004136061,-0.00270185,0.007313071,-0.001716641,0.000558312,-0.008330145
0.7887699,0.4118997,0.4692357,-0.0006985618,-0.004258369,0.00247122,-0.005410099,0.004757011,-0.01337776
0.7889318,0.4115693,0.4686831,-0.0005620226,-0.004568228,0.001959164,-0.005082212,0.002878869,-0.009421842
0.7887015,0.4129869,0.4655977,-0.0008167836,-0.003129841,-0.001089067,-0.00389742,-0.0005083479,-0.00584076
0.7881931,0.4159318,0.4605651,-0.001348668,-0.000163769,-0.006087757,-0.002427103,-0.001795066,-0.004674177
0.7880848,0.4205449,0.4626581,-0.001479411,0.004470912,-0.003963859,0.0009730504,0.0005796408,-0.002647308
0.7890847,0.4196169,0.4676738,-0.0005009656,0.003564626,0.001080109,0.0007335931,0.001850447,-0.002427781
0.7893837,0.4164732,0.4684749,-0.0002222218,0.0004426006,0.001907122,-0.001679239,0.003617231,-0.000142098
0.7894318,0.4157645,0.4706658,-0.0001932138,-0.0002446556,0.004121468,-0.00344268,0.006627867,-0.0009826831
0.7906751,0.4137332,0.4692514,0.001031936,-0.002254711,0.002728075,-0.003571677,0.006052744,-0.002268045
0.7901268,0.4136452,0.465377,0.0004666116,-0.00232176,-0.001127764,-0.001377558,0.007764379,0.002679704
0.7880933,0.4142481,0.4665127,-0.001582948,-0.001697987,2.41893e-05,-0.00117152,0.008724574,0.003787899
0.7880973,0.4136948,0.4670858,-0.001593963,-0.002230653,0.0006112497,-0.002078273,0.007611587,0.00471854
0.7917521,0.4148759,0.4660284,0.002046756,-0.001028862,-0.0004343499,-0.002034677,0.01008007,0.004664831
0.795874,0.4147543,0.4638464,0.006155519,-0.001129942,-0.002606428,-0.006233521,0.01301781,-0.001523891
0.793193,0.4144954,0.4626659,0.003462049,-0.001368275,-0.003778859,-0.01033016,0.01797153,-0.001046244
0.7870674,0.4156642,0.466775,-0.002675436,-0.0001789387,0.0003366764,-0.006149874,0.0216331,0.003173905
0.7859272,0.4161483,0.4707667,-0.003827037,0.000325687,0.004333503,-0.003459673,0.0221922,0.006239174
0.7887328,0.4159445,0.4681989,-0.001032166,0.0001422673,0.001769406,-0.008598181,0.02025366,0.006983989
0.7922937,0.414501,0.4649893,0.002518584,-0.001280961,-0.001437921,-0.01099578,0.01151777,0.00244392
0.7916719,0.412429,0.4681126,0.001887281,-0.003332884,0.001686277,-0.005831837,0.004631418,0.001942574
0.787129,0.4105358,0.4687502,-0.002664555,-0.005205947,0.002323486,0.002075857,0.001188663,0.001712318
0.785529,0.4108302,0.4662476,-0.00427291,-0.004891421,-0.0001808011,0.005989609,9.345408e-06,3.309646e-05
0.7858058,0.4128321,0.4676846,-0.004003737,-0.002869116,0.001253371,0.003362242,0.00254385,-5.772546e-05
0.7862226,0.4133889,0.4700067,-0.003593681,-0.002291525,0.003571363,0.001408576,-0.001367006,-0.004250299
0.7854119,0.4142866,0.4730831,-0.004410209,-0.001372629,0.006642365,0.004470854,-0.004215366,-0.006664896
0.7839157,0.4150565,0.4721234,-0.005910967,-0.0005810141,0.005676003,0.00731427,-0.003078915,-0.00564015
0.7863392,0.4151154,0.4692203,-0.003490699,-0.0005000286,0.002764694,0.00713969,-0.008027029,0.002333296
0.7910661,0.4154819,0.4715449,0.001234506,-0.0001111632,0.0050794,0.002622125,-0.007037698,0.01261868
0.7957903,0.4141777,0.4707087,0.00595833,-0.001392587,0.004231577,-0.00357378,-0.002194175,0.005278263
0.7938718,0.4135076,0.4683254,0.004040719,-0.002039722,0.00183503,-0.002521945,-0.001104252,-0.003922674
0.7865076,0.4142704,0.4678681,-0.003321753,-0.001253683,0.001362629,-0.001601926,0.006742237,-0.0005239765
0.7854822,0.4146855,0.4654781,-0.004344651,-0.0008151288,-0.001044229,-0.005614237,0.01015383,0.000133926
0.7863682,0.4159482,0.4642634,-0.003455226,0.000471216,-0.002277112,-0.001501264,0.005451139,0.001436229
0.7870288,0.417011,0.4638313,-0.002790176,0.001557762,-0.002728783,0.00394531,0.005272765,0.005948692
0.789141,0.4174165,0.4657026,-0.0006725069,0.001987093,-0.000878115,0.002882943,0.001656218,0.003162519
0.7883531,0.4168357,0.4688271,-0.001453799,0.001430009,0.002224991,0.003391682,-0.00204875,-5.604745e-05
0.7872937,0.4157083,0.4694446,-0.002505562,0.0003260082,0.002820442,0.003571877,-0.000552066,0.001097808
0.7856007,0.4152427,0.4723022,-0.004189852,-0.0001166128,0.005655128,0.004110576,-0.004047865,0.0007330442
0.7857371,0.4137942,0.4746888,-0.004043597,-0.001542472,0.008018009,0.005456366,-0.00667011,0.001182756
0.7880927,0.4150747,0.4731645,-0.001677017,-0.0002396728,0.006468951,0.002714189,-0.003823637,0.002540282
0.7878772,0.4180209,0.4715148,-0.001880197,0.002728324,0.004793281,0.0001020359,0.0004870236,0.003391057
0.7882492,0.4164871,0.4704839,-0.001494663,0.001215895,0.003734958,-0.0001483172,0.004076163,0.003989453
0.7866375,0.4161007,0.4706648,-0.003091684,0.0008502173,0.003886962,0.0005354913,-9.541004e-05,-0.001837566
0.7848685,0.4173441,0.471089,-0.004844878,0.002113714,0.004280877,0.0008165073,-0.00668027,-0.007500656
0.7859314,0.4162747,0.4707328,-0.003764826,0.001063577,0.003892898,-0.001613068,-0.005865344,-0.0007227163
0.7844704,0.4166799,0.4706099,-0.005207345,0.001487249,0.003736689,-0.006184754,-0.003437673,0.005144399
0.7852393,0.4162053,0.4700184,-0.004418499,0.001030246,0.0031104,-0.008765785,-0.0002370981,-0.002900753
0.7870442,0.4127644,0.4696809,-0.002592225,-0.002393915,0.002736607,-0.005386159,0.004987713,-0.008836838
0.7857072,0.4109791,0.4719783,-0.003906362,-0.00416344,0.004996325,-0.0006572383,0.001450326,-0.005225395
0.7867987,0.4141739,0.4745228,-0.002790365,-0.0009534633,0.007501777,0.002326239,-0.00561589,-0.004773029
0.7899018,0.4185172,0.4721864,0.0003386288,0.00340431,0.005124658,0.003682994,-0.004875738,-0.005427726
0.7925261,0.4168488,0.4676905,0.002990169,0.0017498,0.0005865781,0.001290514,-0.003725055,-0.003874809
0.7915446,0.4154959,0.465961,0.002037108,0.0004101118,-0.001186617,0.0005795836,-0.001918203,-0.005226342
0.7871801,0.4176566,0.4660289,-0.002298194,0.002583192,-0.001163785,0.0009217894,0.001459757,-0.005258214
0.7858,0.4160415,0.4653545,-0.003648215,0.0009795722,-0.001884171,-0.002047455,0.002079116,-0.004548666
0.7876673,0.4144953,0.4644734,-0.001750217,-0.0005559425,-0.002812061,-0.004252603,0.01010412,-0.005763824
0.7893894,0.4140021,0.469663,3.351524e-06,-0.001039318,0.002330369,-0.004116406,0.02109934,-0.005499
0.7870195,0.4131332,0.4766831,-0.002334445,-0.001899182,0.00930292,0.0009128121,0.01699568,-0.004718
0.7830069,0.4146858,0.4753379,-0.006314305,-0.0003382342,0.007909723,0.005274007,0.003701745,-0.001753468
0.7834875,0.4154402,0.4727021,-0.005800311,0.0004238519,0.005225188,-0.0001259792,-0.002688253,0.001343201
0.7852897,0.4186819,0.4699884,-0.003963971,0.003672641,0.002462017,-0.005018028,0.001106264,-0.002645309
0.7864728,0.42246,0.4648231,-0.002745791,0.007457157,-0.002753544,-0.002462585,0.00600775,-0.007421531
0.7867404,0.419723,0.4680044,-0.002442073,0.004725668,0.0003768533,-0.0008878137,0.003525899,-0.006043467
0.7865486,0.4185341,0.4716503,-0.002597002,0.003541147,0.003971439,-0.002076438,0.00234249,-0.003456052
0.788789,0.4196613,0.4683284,-0.0003188604,0.004671276,0.0005977857,-0.001811595,0.006329654,-0.0006415212
0.7883518,0.4173442,0.4705874,-0.0007174232,0.002355767,0.002804872,-0.001601081,0.005575457,0.002668938
0.7856196,0.4145886,0.4764834,-0.003410414,-0.0003996771,0.008648614,-0.0008190568,0.004277817,0.0003831835
0.7851715,0.4127896,0.4793356,-0.003818705,-0.002200057,0.01144815,0.001147987,0.002244391,-0.003251383
0.7844606,0.41302,0.4759541,-0.004489225,-0.001972289,0.008013312,-0.0014584,-0.003061465,-0.001720308
0.7849644,0.4149029,0.4691815,-0.003944223,-9.312397e-05,0.001186443,-0.00456261,-0.00123807,-0.000679295
0.7869819,0.4142093,0.4713726,-0.001884868,-0.0007914202,0.003322266,-0.003886717,0.0008941283,0.000165662
0.7886675,0.4121428,0.4732434,-0.0001566883,-0.002863361,0.005136816,-0.003963208,-0.0008747092,0.002265148
0.7895181,0.4125164,0.470675,0.0007370054,-0.002495979,0.0025113,-0.001921572,-6.211942e-05,0.001496674
0.7882231,0.412756,0.4732236,-0.0005143851,-0.002262975,0.005001892,0.001306699,0.0001275601,0.000632512
0.786641,0.4124566,0.472844,-0.002052534,-0.00256931,0.00456339,0.000294238,0.0007281055,0.001448205
0.7841046,0.4145955,0.4736168,-0.004544841,-0.000437492,0.005276487,-0.0005560328,0.0001486413,0.003667342
0.7827942,0.4157765,0.4765476,-0.005810877,0.0007364738,0.008146571,0.0008511742,-0.004314236,0.006752182
0.7863747,0.4150932,0.4722918,-0.002185715,4.603626e-05,0.003829074,0.0004903204,-0.007338814,0.007088773
0.7883775,0.4143184,0.4708897,-0.0001378221,-0.0007358379,0.002364319,-0.0003191236,-0.003646872,0.00488162
0.7864868,0.4138801,0.4707822,-0.001983069,-0.001181146,0.002193061,0.001149943,0.0006577738,0.000847159
0.7855496,0.4159439,0.4688537,-0.002874561,0.0008757027,0.0001999957,0.004244687,-0.005928409,-0.002270715
0.7865607,0.4180008,0.4712607,-0.001817604,0.0029257,0.002541697,0.007189817,-0.01080315,-0.001403047
0.7881394,0.4175082,0.4722108,-0.0001928106,0.002426241,0.003426004,0.004638391,-0.004125509,-0.001236728
0.7886328,0.415886,0.4735102,0.0003467872,0.0007971569,0.004659043,9.265561e-05,-0.0001793221,-0.00115692
0.7861589,0.4148079,0.4755067,-0.002080984,-0.0002879828,0.006588797,0.00226185,-0.001594341,0.0006453037
0.7821628,0.414717,0.4758677,-0.006031048,-0.0003860907,0.006882481,0.004461288,-0.002976729,-0.0007062187
0.7828618,0.4150354,0.4785944,-0.005285931,-7.494173e-05,0.009541138,0.003136212,-0.005474913,-0.002559469
0.786125,0.4159529,0.4766576,-0.001976493,0.000835249,0.007535475,0.002085046,-0.008006993,-0.003562176
0.7854509,0.416568,0.4735135,-0.002604206,0.001442965,0.00432148,-4.976187e-05,-0.006756873,-0.003496188
0.7848977,0.4193003,0.4749878,-0.003110857,0.004167825,0.005724917,-0.000593469,-0.004935852,0.00171813
0.7849191,0.422088,0.4722328,-0.003042729,0.006947807,0.002897969,-0.0009875353,-0.008093906,0.004916975
0.7834736,0.4195094,0.471556,-0.004441228,0.004361115,0.002148159,-0.003220055,-0.009985814,0.003615284
0.7841858,0.4176175,0.4751004,-0.003681868,0.002460417,0.005618695,-0.001505173,-0.008119167,0.002659835
0.7859386,0.4173942,0.4738309,-0.001881518,0.002227517,0.00427458,0.001948675,-0.00543571,-0.00025911
0.7891405,0.4157475,0.4698872,0.001368137,0.0005704617,0.0002554267,0.003307171,-0.000359676,-0.003788038
0.7926866,0.4149668,0.4650657,0.004962136,-0.0002213891,-0.004642135,0.003571083,-0.000632626,-0.004164779
0.7903463,0.4135444,0.4655841,0.002669569,-0.001655673,-0.004200009,0.003023198,-0.0119275,-0.001662855
0.7873785,0.4137725,0.4685333,-0.0002508617,-0.001440085,-0.001326928,0.004202191,-0.02032812,-0.0008943278
0.7893555,0.4162785,0.4655926,0.001772918,0.001053017,-0.004343335,0.005176978,-0.009753696,-0.001617334
0.7903284,0.4174615,0.4673951,0.00279178,0.002222666,-0.002615652,0.003478234,0.008759485,0.0007871282
0.7893555,0.4196529,0.4721245,0.00186386,0.004400391,0.002040125,0.002885404,0.01278533,0.001564369
0.7874851,0.4222332,0.4738637,3.745047e-05,0.006966362,0.003706862,0.00327175,0.005139659,0.001546425
0.7825126,0.4213234,0.474105,-0.004892293,0.006041665,0.003876967,0.003687861,-0.008514638,0.005940123
0.7810883,0.4175723,0.4691471,-0.00627484,0.002274736,-0.001150956,0.005807417,-0.02091539,0.008567801
0.7853239,0.4151065,0.4678825,-0.001998332,-0.0002079581,-0.002484392,0.008450517,-0.01282056,0.00617393
0.7865964,0.4134589,0.4701856,-0.0006856489,-0.001873403,-0.0002487034,0.007649989,0.0007399696,0.001671117
0.7842667,0.4083983,0.4690581,-0.002975873,-0.00695265,-0.001442123,0.000550312,8.615303e-05,-0.004391148
0.78292,0.4066378,0.468682,-0.004283768,-0.008732161,-0.001882457,-0.006946312,9.930575e-05,-0.00732452
0.7851505,0.4144403,0.4682046,-0.002014859,-0.0009486818,-0.002422242,-0.008754841,-0.0001285964,-0.003257596
0.7884917,0.4204203,0.4705853,0.001364132,0.005012421,-0.0001020468,-0.008910341,-0.004356888,-0.0007254614
0.7893234,0.4164972,0.4740604,0.00223326,0.001070763,0.003314536,-0.00816655,0.0001473761,-0.003601807
0.7894976,0.4140524,0.47416,0.002444263,-0.00139253,0.00335762,-0.001324432,0.003852193,-0.004966509
0.785415,0.4202876,0.4746035,-0.001602372,0.004824443,0.003746376,0.007180891,-0.0003403214,-0.004660744
0.7802051,0.4259367,0.4737643,-0.006777132,0.01045529,0.002854083,0.009716502,-0.005659362,-0.003638895
0.7843016,0.4263304,0.4746895,-0.002646204,0.01083046,0.003727588,0.00964612,-0.01020955,0.001587582
0.7882675,0.4230429,0.4770548,0.001353625,0.007523763,0.0060427,0.007122498,-0.001751571,0.006964422
0.7854808,0.4192003,0.4760064,-0.001399679,0.003660893,0.004945133,0.0008730819,0.01219184,0.005701936
0.7855926,0.4203049,0.4761747,-0.001255012,0.004744076,0.005065277,-0.0004167542,0.009456211,0.003861143
0.7869118,0.420074,0.475884,9.649053e-05,0.004490315,0.004727103,0.001282309,0.0009252683,0.007151212
0.7859823,0.4166449,0.4739078,-0.0008012323,0.001037142,0.002703956,0.0002468,-0.002504699,0.008429082
0.7879061,0.4182681,0.4730248,0.001153681,0.002634873,0.001774466,0.000938316,-0.00397522,0.007370962
0.7897537,0.4196721,0.4701084,0.003031776,0.00401207,-0.001187936,0.00158979,-0.003274268,0.00748649
0.7887171,0.4186103,0.4683585,0.002024889,0.002922155,-0.002983246,0.0008943828,-0.004223411,0.006502438
0.7887141,0.4174291,0.4705988,0.002050606,0.001711602,-0.0007877848,0.0006515425,-0.0040655,0.005441989
0.7890794,0.4123815,0.4731569,0.002443609,-0.003366567,0.001726422,-0.00125812,-0.002269346,0.003147084
0.788801,0.4096094,0.4750144,0.00219166,-0.006170265,0.003540861,-0.003180883,-0.002111107,0.001302271
0.7888988,0.4129095,0.4721553,0.002314701,-0.002902345,0.0006394376,-0.0041341,-0.0002045649,0.001837271
0.7888973,0.4185462,0.4674043,0.002337119,0.002701852,-0.004152933,-0.003076091,-0.00288887,-0.001571598
0.7890739,0.423165,0.4693715,0.002536111,0.00728787,-0.002226295,-0.0009286956,-0.006865661,-0.005315403
0.7897641,0.4187513,0.4709458,0.003247125,0.002841166,-0.0006913757,-0.00215363,-0.002187478,-0.003955381
0.7903808,0.4122962,0.4702069,0.003883049,-0.003647324,-0.001468438,-0.003130024,0.001667035,-0.002328491
0.7891519,0.4152793,0.4731009,0.002671651,-0.0006978748,0.001388627,-0.00290699,0.002144904,-0.001065186
0.786579,0.415814,0.4723969,0.0001144017,-0.0001969645,0.0006489966,-0.002263738,0.002420886,0.002414482
0.7854338,0.4123716,0.4694094,-0.001016988,-0.003673162,-0.002372843,0.001573375,0.0007897313,0.005984574
0.7852156,0.4155736,0.4701608,-0.001222952,-0.0005046028,-0.001654496,0.004239266,-0.001018025,0.00760343
0.7848345,0.4180969,0.4717832,-0.001593525,0.001985577,-6.368542e-05,0.005062188,-0.003156643,0.007225141
0.7855647,0.4186697,0.4744906,-0.0008540867,0.002525655,0.002613442,0.005410174,-0.002996564,0.002088719
0.7872643,0.4200711,0.4742579,0.0008534296,0.003894666,0.002351831,0.002958918,-0.00308793,-0.002828955
0.7872003,0.4172464,0.4728434,0.0007961804,0.001037919,0.0009096371,-0.001049444,-0.005099177,-0.0003077426
0.786465,0.4158972,0.4757301,6.643871e-05,-0.0003430724,0.003769794,-0.003866526,-0.001739328,0.002633905
0.7880727,0.4170257,0.4746514,0.00167856,0.0007538773,0.002665473,-0.003023089,0.004596573,0.001400425
0.7896967,0.415803,0.470042,0.003305918,-0.00049995,-0.001968779,-0.003817441,0.01323844,-0.004213824
0.7900102,0.4131986,0.4686644,0.003621511,-0.003135189,-0.003370279,-0.007265293,0.01874567,-0.0119747
0.7883536,0.4099599,0.4693093,0.001965901,-0.006404167,-0.002748443,-0.00584865,0.01084391,-0.01345982
0.7839567,0.4109942,0.4700038,-0.002431433,-0.005399306,-0.002075793,-0.003950573,0.002597948,-0.01286194
0.7826335,0.4140789,0.4699784,-0.00375612,-0.002342871,-0.002121932,-0.003229845,-0.003979584,-0.01127369
0.785497,0.415393,0.4738164,-0.0008951243,-0.001055808,0.001696614,-0.001601303,-0.01350516,-0.001226228
0.7867651,0.4197379,0.4769336,0.0003696917,0.003263517,0.004795508,-0.003013298,-0.008236245,0.004220913
0.785559,0.423773,0.4701914,-0.0008403095,0.007274302,-0.001963885,-0.004736762,0.004507409,-0.0003440437
0.7831682,0.423943,0.4648856,-0.003235588,0.007420862,-0.007285805,-0.007043696,0.007792055,-3.778395e-05
0.7812904,0.4218723,0.4709239,-0.005118415,0.005327509,-0.00126254,-0.009141305,0.009245994,0.004171188
0.7818576,0.4181226,0.4760098,-0.004556254,0.001555393,0.003809525,-0.005738675,0.007928867,0.00591078
0.7836283,0.4159657,0.4714224,-0.002790617,-0.0006236371,-0.0007904214,-0.002184606,0.001349576,0.005422519
0.7854406,0.4172091,0.4691797,-0.000983098,0.0005977625,-0.003044584,-0.001044192,-0.00388845,0.003627401
0.787473,0.4189449,0.4725984,0.001044842,0.00231187,0.0003638133,-0.0002119683,-0.003887854,0.004147239
0.7880548,0.4183277,0.4742158,0.001622564,0.001673195,0.00197197,-0.001394997,-0.0007481018,0.004277928
0.7867803,0.4193329,0.4774476,0.0003442616,0.002656981,0.005195607,-0.00319249,-0.003812396,0.003696581
0.7857083,0.421971,0.4791862,-0.000731299,0.005273759,0.006926703,-0.002941049,-0.008293643,0.00456494
0.7844338,0.420751,0.4778681,-0.002009061,0.004032404,0.005601588,-0.001223222,-0.008134015,0.003907875
0.7842069,0.4197815,0.4773282,-0.002238947,0.003041322,0.005054865,-2.523123e-05,-0.007194978,0.003913105
0.7853191,0.4187264,0.4739838,-0.001129487,0.001964312,0.001703433,0.002125053,-0.003060229,0.004427053
0.7843428,0.4158787,0.4731109,-0.002107964,-0.0009056615,0.0008231946,0.00370084,-0.004208799,0.004734614
0.7835932,0.4181557,0.4710497,-0.002859217,0.001348727,-0.001245522,0.002925282,-0.009023614,0.00699057
0.7836811,0.420802,0.4646552,-0.002772415,0.003972049,-0.007647877,0.003530241,-0.007784859,0.007357019
0.7837477,0.4192717,0.4687383,-0.002706194,0.002418545,-0.003572635,0.002451914,-0.008951755,0.004340823
0.7853357,0.4200061,0.473703,-0.001117713,0.003129385,0.001384581,0.002401102,-0.008393101,0.002258174
0.7848496,0.4215641,0.4706262,-0.001602615,0.004663285,-0.001699478,0.005176796,-0.006679631,0.005255589
0.7836616,0.420695,0.4732584,-0.002788491,0.003769608,0.0009259151,0.0036319,-0.009729689,0.009165018
0.7825436,0.4205972,0.4785708,-0.00390353,0.003646524,0.006231804,0.005303484,-0.01230861,0.008606592
0.7800418,0.4207673,0.4796134,-0.00640127,0.00379062,0.007268017,0.006853394,-0.01677783,0.00855469
0.7830188,0.4183599,0.4735921,-0.003419149,0.001356474,0.001240167,0.001404085,-0.01446171,0.009331462
0.7873274,0.4148052,0.4644831,0.0008959389,-0.002225779,-0.007875513,-0.001164186,-0.007475318,0.007211558
0.7860941,0.4133501,0.4665519,-0.0003296756,-0.003708991,-0.005813538,-0.004237555,-0.006322402,0.002987862
0.785675,0.4156193,0.4670536,-0.0007398586,-0.001468237,-0.005318513,-0.005588186,-0.002645056,-0.001512283
0.7865124,0.417724,0.4595352,0.0001075489,0.0006078086,-0.0128429,-0.003064651,-0.002117672,-0.0004165241
0.7864701,0.4164857,0.4624915,7.611993e-05,-0.0006592378,-0.009891643,-0.005206087,-0.002896018,0.00369351
0.7887604,0.4170047,0.4652551,0.002378213,-0.0001689001,-0.007131634,-0.004041304,0.002062063,0.004721113
0.7912254,0.4206895,0.4623594,0.004855702,0.003487451,-0.01002913,7.991575e-06,0.001109677,0.007515671
0.7899433,0.4223581,0.4655021,0.003586462,0.005127687,-0.006885995,0.001828698,-0.001475492,0.008958409
0.7870246,0.4187059,0.4675524,0.0006808862,0.001447111,-0.004832808,0.004089799,-0.003233958,0.006063853
0.7856231,0.4131308,0.4697066,-0.0007074781,-0.004156467,-0.002673279,0.004849473,-0.01073656,0.004401439
0.7858496,0.4131228,0.4708843,-0.0004678297,-0.004192809,-0.001487695,0.008644039,-0.01903016,0.003591319
0.7868078,0.4146283,0.4675638,0.0005033589,-0.002715389,-0.004797839,0.01140437,-0.02520825,0.005184868
0.7887554,0.4128651,0.4680204,0.002464003,-0.004506044,-0.004328523,0.009549421,-0.02562788,0.004659408
0.7936672,0.4136361,0.465766,0.007388501,-0.003761634,-0.006567667,0.01145723,-0.02193338,-8.106301e-05
0.7967945,0.4142739,0.463525,0.01052806,-0.003149486,-0.008790884,0.01306723,-0.01732562,-0.003421869
0.7913585,0.4119655,0.466208,0.005103372,-0.005482387,-0.006087521,0.01228325,-0.01092383,-0.01185686
0.7867931,0.4131147,0.4651497,0.0005481007,-0.004356262,-0.007122589,0.01282596,-0.01228709,-0.01491639
0.790225,0.4187404,0.4653527,0.003988781,0.00124797,-0.006893535,0.01248935,-0.01529954,-0.008898632
0.7920729,0.4244691,0.4650653,0.005844012,0.006956705,-0.007151952,0.007580541,-0.01056521,-0.01184066
0.7898365,0.426047,0.4641117,0.003613416,0.008516012,-0.00807356,-0.002819946,-0.00823461,-0.01136367
0.7874855,0.4240054,0.467007,0.001266518,0.006456755,-0.005143061,-0.008181268,-0.00521946,-0.004735501
0.785466,0.421045,0.4661848,-0.0007506521,0.003479148,-0.005927054,-0.005019058,0.001362168,-0.003159137
0.7871872,0.4168167,0.4666555,0.0009712317,-0.0007659605,-0.00541504,-0.003989703,0.008965457,-0.002222045
0.7910087,0.4131514,0.4674605,0.004791982,-0.004447888,-0.004565678,-0.004456982,0.01570144,-0.005911194
0.7912697,0.4120363,0.4655408,0.005050548,-0.005579112,-0.006438043,-0.0001679438,0.01035904,-0.006842074
0.7900487,0.4132439,0.4674572,0.003825504,-0.004386971,-0.004471442,0.003148257,0.004742165,-0.005095606
0.7900353,0.4146062,0.4666022,0.003806164,-0.003039331,-0.005273407,0.002318894,0.007210179,-0.006434444
0.7902519,0.4137512,0.4667709,0.004015127,-0.003907929,-0.005049037,0.006693903,0.002131973,0.0009382988
0.7887795,0.4142973,0.4711488,0.002533103,-0.003374151,-0.0006126978,0.01533325,-0.01117097,0.005491696
0.7846329,0.417868,0.4729114,-0.001624861,0.0001856014,0.001210581,0.02157462,-0.03193684,0.001839376
0.7813936,0.420288,0.4747398,-0.004877306,0.002595834,0.003101884,0.03129289,-0.05484434,0.001173496
0.7814834,0.4198758,0.4745664,-0.004802029,0.002175172,0.002992932,0.04083883,-0.07388453,0.0003749927
0.7834555,0.4187928,0.4716736,-0.002845497,0.001084753,0.0001657722,0.03895726,-0.08097082,0.001060377
0.7872821,0.4196164,0.4640131,0.0009647218,0.001901746,-0.007428105,0.02712175,-0.04816139,0.003319159
0.7916185,0.4199644,0.4559991,0.005284263,0.002243972,-0.01537463,0.008755543,-0.001379706,0.005786574
0.791072,0.4201784,0.457451,0.004720143,0.002452779,-0.0138541,-0.00748257,0.01510564,0.009476731
0.7879905,0.4234085,0.4557694,0.001620305,0.005678158,-0.01546543,-0.009346741,0.01834124,0.0108058
0.78949,0.4251611,0.4525345,0.003100528,0.007426275,-0.018628,-0.004375609,0.01752378,0.009529191
0.7914283,0.4235624,0.4556865,0.005018808,0.005822903,-0.01540102,-0.003303731,0.01464812,0.006067913
0.7932455,0.4180321,0.452921,0.00681494,0.0002875838,-0.01808852,-0.004889893,0.01969003,0.001910678
0.7953264,0.4118167,0.4512762,0.008873564,-0.005933269,-0.01965184,-0.009580424,0.02280046,-0.002707361
0.7913334,0.4162072,0.4562338,0.004857014,-0.001548519,-0.0146087,-0.01443085,0.025941,-0.005528288
0.7889903,0.4251886,0.4571083,0.002488738,0.007426842,-0.01364437,-0.01552344,0.03098853,-0.004513601
0.7907995,0.4274731,0.4584773,0.004271189,0.009705089,-0.01218105,-0.01638841,0.03674122,-0.00698371
0.7898396,0.4266572,0.4620123,0.003283003,0.008882281,-0.008547142,-0.02100585,0.04906482,-0.01038087
0.7877533,0.4258734,0.4652256,0.001166864,0.008090468,-0.005230528,-0.02579359,0.05067888,-0.006187962
0.783423,0.4264216,0.4730222,-0.003194776,0.008629327,0.002673701,-0.02483452,0.03179072,0.00100649
0.7808936,0.4264597,0.4786456,-0.005756732,0.008656302,0.008408335,-0.02355229,0.01506221,0.003988628
0.784091,0.4230315,0.4787948,-0.002592649,0.005215134,0.008671736,-0.02399367,0.0175437,0.002548475
0.7865496,0.4177607,0.4781455,-0.0001679682,-7.086754e-05,0.008138423,-0.02187844,0.03116948,0.001561247
0.7862976,0.4123088,0.4753658,-0.0004541537,-0.005539903,0.005475829,-0.02142392,0.04102743,0.002627591
0.7859837,0.4112335,0.475738,-0.0008023601,-0.006634125,0.005965434,-0.02051741,0.04116057,0.00293275
0.7871723,0.4118893,0.4766592,0.0003518853,-0.00599851,0.00700377,-0.01517421,0.02867998,0.004255624
0.7878199,0.4101913,0.4738001,0.0009651964,-0.007717488,0.004260694,-0.01211191,0.01532555,0.006931255
0.787399,0.4117402,0.475299,0.0005102203,-0.006189839,0.005874208,-0.01365626,0.01544484,0.006409386
0.7875407,0.4133652,0.4765247,0.000618088,-0.004586025,0.007212463,-0.01371922,0.01050687,0.006306443
0.7874309,0.4136329,0.4747668,0.0004746051,-0.00433913,0.00556473,-0.008295503,-0.006498471,0.009077919
0.78757,0.4147436,0.4717188,0.0005803385,-0.003248494,0.002623863,-0.002667466,-0.01131108,0.0081206
0.7874938,0.4132863,0.4662345,0.000471069,-0.004725006,-0.002756356,-0.001641503,-0.005822973,0.004093742
0.7874139,0.4138192,0.4681797,0.0003585546,-0.004210172,-0.0007103354,0.002202576,-0.00758698,0.0008359342
0.7874709,0.4145003,0.4717964,0.000383347,-0.00354597,0.003003869,0.009044111,-0.01560775,-0.0002575975
0.7864601,0.4131492,0.4701869,-0.000659294,-0.004912392,0.001488503,0.009732881,-0.02405561,0.001958352
0.7859188,0.4143678,0.4726613,-0.001231823,-0.003707537,0.004053603,0.01166654,-0.02861466,0.005249041
0.78602,0.4126035,0.4731871,-0.001161224,-0.005483878,0.00466651,0.01640422,-0.02820877,0.007722626
0.7865775,0.4072862,0.4710195,-0.0006336911,-0.01081123,0.002582249,0.0149014,-0.02337501,0.005997308
0.7879307,0.4040282,0.4741088,0.0006903551,-0.01407711,0.00575092,0.01587331,-0.01371197,0.001064979
0.7890978,0.4092217,0.4785701,0.001829079,-0.008888773,0.01028754,0.01799886,-0.009239909,-0.002700894
0.7882046,0.4178193,0.482406,0.0009082632,-0.000293318,0.01419425,0.01644848,-0.01288778,-0.004393615
0.7858313,0.4163204,0.4788404,-0.001491911,-0.001791262,0.0106946,0.01808547,-0.01243622,-0.002646446
0.7858977,0.4183914,0.4716318,-0.001451589,0.0002836367,0.003546598,0.01522016,-0.008999035,-0.003186909
0.7866062,0.4264352,0.4748424,-0.0007683255,0.008333984,0.006812256,0.00752061,-0.003701265,-0.004493172
0.7865429,0.4246599,0.4768954,-0.0008560169,0.006567573,0.00891484,-0.0003072401,0.005091452,2.451101e-05
0.7872275,0.4224724,0.4732209,-0.0001948233,0.004390804,0.005284226,-0.007638337,0.005497137,0.001492731
0.7870007,0.4210614,0.47247,-0.0004440452,0.002991768,0.00457154,-0.01210894,0.001154954,-0.004665223
0.7894782,0.4165384,0.471995,0.002011968,-0.001518083,0.004129038,-0.02082079,-0.005192585,-0.02160072
0.7969192,0.4148252,0.4760642,0.00943237,-0.003217399,0.008225025,-0.02252348,-0.02452714,-0.05288071
0.8046422,0.4130173,0.4785174,0.01713523,-0.005010464,0.01069951,-0.01826084,-0.03048676,-0.08853431
0.8073281,0.414816,0.4700919,0.01980096,-0.003195946,0.002289625,-0.02984266,0.02070805,-0.1026811
0.8017908,0.4225809,0.459769,0.0142426,0.004585721,-0.008023286,-0.04613816,0.114762,-0.06633279
0.7886135,0.4354916,0.4566546,0.001042556,0.01751406,-0.01113272,-0.05487524,0.1580987,-0.01046416
0.7681981,0.4460339,0.4702131,-0.01939715,0.02807407,0.002426299,-0.04762685,0.09440804,0.01006802
0.7564867,0.437924,0.4863541,-0.03113395,0.01998086,0.01856393,-0.03108079,0.01775584,0.007567362
0.767189,0.4263667,0.4841559,-0.02045687,0.008438138,0.01635827,-0.02835238,0.005918951,0.003719292
0.7793222,0.4238595,0.4787527,-0.008347394,0.005942743,0.01094303,-0.02162236,0.007759163,-0.001465033
0.7836237,0.417635,0.480139,-0.004067449,-0.000272781,0.01231236,-0.007904182,-0.0002849002,0.00108851
0.7855506,0.4070831,0.484147,-0.002159594,-0.01081869,0.0162982,0.00576064,-0.01814213,0.004448881
0.7824674,0.391906,0.491119,-0.005259306,-0.02599218,0.02324265,0.03158985,-0.0608929,0.00230718
0.7865732,0.3842568,0.4916399,-0.001167424,-0.03363893,0.02372982,0.04036786,-0.07857795,-0.001419137
0.7916486,0.3925119,0.4813755,0.003896628,-0.02538116,0.01342526,0.03171284,-0.04745939,-0.007468061
0.7867,0.3984655,0.4721898,-0.001061022,-0.01942329,0.004192402,0.0346172,-0.01710859,-0.003945254
0.7840333,0.4080188,0.4723306,-0.003734469,-0.009863029,0.00427917,0.03595162,-0.01321543,0.00588494
0.7795802,0.4237511,0.47505,-0.008192091,0.005879348,0.006938198,0.03665409,-0.02524738,0.01076816
0.7770898,0.4304077,0.4735325,-0.01068475,0.01254898,0.005354184,0.0396098,-0.03260282,0.0166277
0.7811555,0.43526,0.470636,-0.006618572,0.01741673,0.002385399,0.02927132,-0.02788692,0.01311085
0.7806524,0.4379446,0.466471,-0.007118473,0.02011805,-0.00185714,0.01108237,-0.01608055,0.004081511
0.7834192,0.436161,0.4625633,-0.004345379,0.01835161,-0.005847122,-0.002608506,0.003539547,0.004703616
0.7874445,0.4355813,0.4613319,-0.0003106901,0.01778828,-0.007164825,-0.01178253,0.02047671,0.002507024
0.786964,0.4330523,0.4576293,-0.0007789677,0.01527393,-0.01095686,-0.02228242,0.02093755,0.001506401
0.7866792,0.4361364,0.45748,-0.001048727,0.01837032,-0.01119775,-0.03092176,0.018486,0.005428124
0.781829,0.4409818,0.4647169,-0.005881352,0.02322481,-0.004053667,-0.03591477,0.02098776,0.003709444
0.7798318,0.4351911,0.47029,-0.007858413,0.01743905,0.001426009,-0.0390006,0.009259125,0.002797057
0.7846153,0.4266096,0.4764877,-0.003052198,0.008857916,0.007530068,-0.03447891,-0.00619699,-0.00186859
0.7873722,0.4178364,0.4803914,-0.0002700812,7.992796e-05,0.01133997,-0.0256612,-0.008903364,-0.008197015
0.7872183,0.4109792,0.4827579,-0.0003962067,-0.006786916,0.01361238,-0.01392926,-0.01391354,-0.001769291
0.7862074,0.407995,0.4898462,-0.0013771,-0.009785081,0.02060574,0.0003697046,-0.01989882,0.006895023
0.7870567,0.4026351,0.4875958,-0.0004957593,-0.01516254,0.01825927,0.01176877,-0.02028023,0.01074541
0.7870307,0.4029549,0.4831863,-0.0004878998,-0.01486305,0.01375176,0.02280644,-0.02133366,0.01218036
0.7864672,0.4070554,0.4848136,-0.001015969,-0.01078456,0.01527882,0.02432993,-0.02496809,0.008056002
0.7882041,0.4048717,0.4773045,0.0007579299,-0.01299107,0.007666855,0.02439554,-0.02529454,0.003273665
0.7883927,0.4054769,0.4721376,0.0009847346,-0.01240873,0.002394503,0.03939631,-0.01567216,0.002816417
0.7887586,0.4082202,0.4749521,0.001389889,-0.009687677,0.005100938,0.04185577,-0.006745262,0.002287819
0.7883698,0.4116543,0.4721977,0.001041019,-0.006274739,0.002236303,0.03432996,-0.007592107,-0.002845387
0.7867786,0.4204967,0.4658761,-0.0005095441,0.002548043,-0.00419737,0.03699917,-0.008046555,-0.01006109
0.7876759,0.4242225,0.4611275,0.0004287116,0.006255782,-0.009059554,0.03044826,-0.003741299,-0.01472702
0.7874834,0.4253226,0.463497,0.0002773792,0.007339212,-0.006804287,0.0241973,-0.008338537,-0.01500524
0.7863613,0.4300152,0.468641,-0.000803411,0.01201605,-0.00177446,0.02440952,-0.0190294,-0.01353215
0.7862087,0.4298163,0.4678713,-0.0009146943,0.01180171,-0.002657756,0.01740217,-0.01963837,-0.01420213
0.7869692,0.4285484,0.4675554,-0.0001129074,0.01051819,-0.003086293,0.0135654,-0.01567863,-0.01510795
0.7890917,0.4304278,0.4664642,0.002050603,0.01238135,-0.004288774,0.00389803,-0.008836453,-0.01541733
0.7904206,0.4303373,0.4619325,0.003420267,0.01227341,-0.008929951,-0.01259592,-0.003343515,-0.01505556
0.7921621,0.4277755,0.4603262,0.005201847,0.009692433,-0.01064344,-0.01805024,-0.004937732,-0.01129785
0.7934144,0.4258714,0.4594641,0.006493493,0.007767155,-0.0116098,-0.01873926,-0.001124314,-0.007093309
0.791075,0.4279412,0.4607112,0.004192289,0.009813418,-0.01046342,-0.01988145,0.003183088,-0.00624818
0.7885441,0.4295826,0.4673366,0.001698059,0.01142867,-0.003934653,-0.01945925,0.004188301,-0.005790317
0.7886306,0.4251185,0.4720845,0.001819701,0.006935672,0.0007210869,-0.01732473,0.005901521,-0.00272927
0.7888113,0.4197281,0.4714357,0.002033855,0.001513367,-1.548532e-05,-0.01658078,0.007035225,-0.001202703
0.7868163,0.4172956,0.4699019,7.046472e-05,-0.0009539786,-0.001632575,-0.01499685,0.01297509,-0.002197005
0.7847965,0.4145178,0.4716803,-0.001919438,-0.00376916,6.675245e-05,-0.009689624,0.01457001,-0.001605399
0.7852588,0.412878,0.474278,-0.001428853,-0.005448589,0.002589721,-0.009332943,0.009809992,-0.002252699
0.7865747,0.4142221,0.4768886,-8.624189e-05,-0.004145848,0.005129686,-0.00565067,0.008197436,-0.002083941
0.7860991,0.4150298,0.4786487,-0.000536616,-0.00338079,0.00682286,0.002670145,0.007580813,0.004870883
0.7848389,0.4179291,0.4737043,-0.001773039,-0.0005249372,0.00181501,0.003881687,0.007649171,0.0116405
0.7846813,0.4224882,0.4678765,-0.00190811,0.003990042,-0.004073124,0.00861802,0.002752,0.01195541
0.7846427,0.4213226,0.4660391,-0.001925416,0.002779877,-0.005967602,0.01319524,-0.005014014,0.009860271
0.7849046,0.4194676,0.4669034,-0.001643271,0.0008798494,-0.005157154,0.009252749,-0.008184312,0.008707657
0.7857414,0.4203087,0.4693475,-0.0007871588,0.001675372,-0.002763477,0.009165355,-0.01369862,0.005247557
0.7862118,0.4174287,0.4671987,-0.0002982689,-0.001250391,-0.004959009,0.008963699,-0.01638685,-0.005981784
0.7870378,0.416377,0.4647938,0.0005453007,-0.002348088,-0.007407096,0.002585161,-0.01135258,-0.02225258
0.789494,0.4225849,0.4643584,0.003018178,0.003813785,-0.007881823,-0.0006991452,-0.006370836,-0.03081696
0.7923805,0.4294698,0.4653395,0.005920487,0.01065267,-0.006936,0.001747524,-0.0003053065,-0.02692388
0.7903298,0.4321364,0.4718186,0.003884468,0.01327302,-0.000487971,0.006002823,0.005596958,-0.02261461
0.7860253,0.4303941,0.4743789,-0.0004066144,0.01148393,0.0020454,0.006446062,0.0093481,-0.02157941
0.7845229,0.4298051,0.4730434,-0.001896935,0.01084703,0.0006868385,0.003220925,0.009820953,-0.01516471
0.7784193,0.4313314,0.4730986,-0.007989532,0.01232397,0.0007227287,0.002248375,0.002715725,-0.008388361
0.7729827,0.4293692,0.4721285,-0.01341614,0.01031068,-0.0002634484,0.003682563,-0.005418395,-0.008632405
0.7793633,0.4258648,0.4749596,-0.007025729,0.006753101,0.002554914,0.005773006,-0.01120166,-0.009623032
0.7863889,0.4223854,0.4773631,9.714315e-06,0.003218235,0.004948464,0.005726493,-0.01124388,-0.008799156
0.78681,0.4201159,0.4746377,0.0004408816,0.0008911464,0.002215672,0.005910701,-0.004553567,-0.007210917
0.786696,0.4179762,0.4709187,0.0003373475,-0.001308138,-0.001508574,0.009734282,-0.002559201,-0.002323952
0.7867674,0.4140605,0.4680011,0.0004193416,-0.005285005,-0.004429242,0.01194064,-0.0004600931,0.002084209
0.7858497,0.4176528,0.4675393,-0.0004875698,-0.001755143,-0.004892027,0.01529365,-0.0002430878,0.002700547
0.7845833,0.4235739,0.4666952,-0.001743071,0.004102618,-0.00573504,0.01934628,-0.005971646,0.004823316
0.7828663,0.4250171,0.4662181,-0.003449072,0.005481988,-0.006208722,0.01855429,-0.005901084,0.009975762
0.7816796,0.4307165,0.4680644,-0.004624489,0.01111669,-0.004356731,0.01814542,-0.01019198,0.01193023
0.783541,0.431918,0.4675285,-0.002751447,0.01225279,-0.004884413,0.01605616,-0.01500696,0.01002875
0.786298,0.4267246,0.4643561,1.768277e-05,0.006992705,-0.008046031,0.01203215,-0.009495174,0.009074323
0.7873007,0.4251058,0.4624038,0.001032982,0.005305834,-0.009984971,0.01194972,-0.007301958,0.007015433
0.7892638,0.4234072,0.466441,0.003009112,0.003537817,-0.005931463,0.01101762,-0.007178801,0.004034991
0.7900391,0.4257016,0.4715321,0.003797681,0.005761391,-0.000821202,0.006325291,-0.005391757,0.00379244
0.7898296,0.4294717,0.4681244,0.003601453,0.009459207,-0.004206771,-0.002011784,0.00166771,0.003224225
0.7912147,0.4264867,0.4638589,0.004999596,0.006400528,-0.008447303,-0.009463537,0.009916754,0.00122035
0.7856092,0.4264709,0.4654361,-0.000593311,0.006309558,-0.006842258,-0.007795407,0.003316557,-0.002726279
0.7772597,0.4314639,0.4706584,-0.008930633,0.01122583,-0.001589213,-0.005662484,-0.007634792,-0.005201349
0.7795818,0.434099,0.4765779,-0.006596708,0.0137824,0.004363758,-0.009229664,-0.01229785,0.003622655
0.7862862,0.4320663,0.4711714,0.0001195576,0.01166924,-0.001006718,-0.01026447,-0.005422799,0.0160931
0.7910726,0.4290905,0.4588453,0.004918006,0.008610748,-0.0132945,-0.01260049,0.01515631,0.01767058
0.7928404,0.4309072,0.456044,0.006697754,0.01034239,-0.01605518,-0.01790223,0.02908527,0.01589944
0.7884032,0.4321588,0.4570847,0.002272233,0.0115064,-0.0149712,-0.02050174,0.03175829,0.01965505
0.7834584,0.4312079,0.4578167,-0.002661326,0.0104653,-0.0141927,-0.02313768,0.03097409,0.02126598
0.7820581,0.4310635,0.4595708,-0.004050904,0.01022791,-0.01238851,-0.02306539,0.02980507,0.01993635
0.7857014,0.4271058,0.461074,-0.0003972029,0.006174408,-0.01083129,-0.02216157,0.03236935,0.02076345
0.7904959,0.4231948,0.4677278,0.004407343,0.002164852,-0.004119508,-0.02248123,0.03177729,0.02142318
0.7855427,0.4218562,0.4764257,-0.000536186,0.0007252194,0.004640201,-0.01660037,0.02750602,0.02175386
0.7805926,0.4189758,0.4822998,-0.005476926,-0.002258392,0.01057956,-0.01060268,0.02323113,0.02205751
0.7834543,0.4189023,0.4812871,-0.002606176,-0.002436728,0.00963484,-0.0100115,0.02316766,0.02432778
0.7839144,0.4212331,0.4744063,-0.002137156,-0.0002118923,0.002823858,-0.01488708,0.03938059,0.02718852
0.7871118,0.4191972,0.4742844,0.001069224,-0.002354513,0.002772953,-0.02294258,0.06212497,0.02219207
0.7927744,0.4146487,0.4756722,0.006740709,-0.007009962,0.004232439,-0.02527321,0.07430514,0.009814241
0.7908226,0.413682,0.4723348,0.004797571,-0.008083305,0.0009671272,-0.0242001,0.07812479,-0.003979956
0.7881453,0.4156773,0.4694736,0.002128493,-0.006193817,-0.001822057,-0.02431747,0.07823717,-0.007448036
0.7844195,0.417548,0.4691775,-0.001589768,-0.004427365,-0.002046347,-0.02607384,0.07156451,-0.001611512
0.7764667,0.4190608,0.477596,-0.009535528,-0.003016956,0.006443555,-0.02576167,0.05367469,-0.004381036
0.7729109,0.421138,0.4863145,-0.01308468,-0.00103979,0.01523286,-0.01930635,0.02416406,-0.008037289
0.7712911,0.4260024,0.4903479,-0.01469748,0.003727008,0.01933559,-0.01210944,-0.009519673,-0.006778726
0.770737,0.4284436,0.4949797,-0.01524371,0.006073013,0.02403449,-0.006957879,-0.02312789,-0.006574066
0.7770221,0.4234281,0.4897593,-0.008949163,0.0009647752,0.01887765,-0.00694417,-0.01809623,0.001203142
0.7818587,0.4171898,0.4827831,-0.004101046,-0.005364023,0.01196075,-0.006878618,-0.01967231,0.008239711
0.7808131,0.4153357,0.4827719,-0.005132973,-0.007305987,0.01200381,-0.00123276,-0.01485244,0.01051186
0.7802536,0.416943,0.477405,-0.005676503,-0.00578384,0.00668565,0.002715946,-0.008581606,0.01625997
0.7820716,0.4153974,0.470725,-0.003840184,-0.00741131,4.876622e-05,0.01188558,-0.02055422,0.016641
0.785141,0.4108092,0.4682201,-0.0007500756,-0.01207791,-0.002418513,0.02406105,-0.02822255,0.01481356
0.7867755,0.4090142,0.469967,0.0009072587,-0.01394718,-0.000639268,0.02656729,-0.02719172,0.01471001
0.7876972,0.4086244,0.4727553,0.001853894,-0.01440681,0.00217656,0.02434204,-0.01799221,0.00751307
0.7929315,0.4067269,0.471899,0.007114799,-0.01636885,0.001343119,0.02079524,0.002320703,-0.001236304
0.7980211,0.4042101,0.4749551,0.01223233,-0.0189444,0.004417606,0.01903543,0.008374497,-0.002912306
0.7906425,0.4104815,0.4752071,0.004882275,-0.01272543,0.004683717,0.01764882,0.002797659,-0.0001815532
0.7789228,0.4224087,0.468376,-0.006808654,-0.0008438181,-0.002137544,0.01571559,0.000962005,0.0026574
0.7789059,0.4262197,0.4656843,-0.006796688,0.002928364,-0.004823438,0.01584187,-0.004928582,0.003558327
0.7777254,0.4291256,0.4671429,-0.007948009,0.005801849,-0.003362562,0.008087198,-0.01597174,-0.002968316
0.7734535,0.4322354,0.4727451,-0.01219008,0.008885005,0.002238706,-0.0001276792,-0.01889617,-0.0101055
0.7803934,0.4296266,0.4767002,-0.005219435,0.00625474,0.006189948,-0.001435207,-0.003646411,-0.005463676
0.7860558,0.4284782,0.474329,0.0004749285,0.005089238,0.003812009,-0.005710371,0.009231371,-0.001529574
0.7853447,0.4278076,0.471625,-0.0002029503,0.004405411,0.001098455,-0.01028512,0.0007088443,-0.005440581
0.7856991,0.4262234,0.4681696,0.0001856713,0.002811354,-0.002369339,-0.01557679,-0.01038115,-0.009516521
0.7856366,0.4230097,0.4653415,0.0001582263,-0.0004092016,-0.005212243,-0.01892332,-0.012114,-0.01504399
0.788552,0.414856,0.4613591,0.00310929,-0.008566959,-0.009211564,-0.01657559,-0.0114751,-0.01690375
0.7925453,0.4119162,0.4590638,0.007138764,-0.01150798,-0.01152527,-0.01323442,-0.005054745,-0.01453454
0.7928842,0.4158667,0.4712965,0.007513891,-0.007555781,0.0006881497,-0.002085673,0.0007424942,-0.01527222
0.7889468,0.4168481,0.4871265,0.003612389,-0.006569323,0.01649823,0.01174034,-0.01072611,-0.01206391
0.7820349,0.4180176,0.4863261,-0.003264374,-0.005391366,0.01567696,0.01349054,-0.01817005,-0.006879078
0.778897,0.4222942,0.478066,-0.006367899,-0.001102865,0.007394634,0.004447196,0.002298967,-0.006866141
0.7787378,0.4245567,0.4762888,-0.006493352,0.001174807,0.005593282,-0.002014794,0.02002427,-0.002716796
0.7771206,0.4238331,0.4751834,-0.008077057,0.0004695155,0.004461659,0.00371819,0.009355635,0.00300481
0.775109,0.4230646,0.477686,-0.01005522,-0.0002779856,0.00693598,0.01014745,-0.005639789,0.004099738
0.7744154,0.4238333,0.4822808,-0.01071489,0.0005142589,0.01150032,0.01036464,-0.01454295,0.007881355
0.7754725,0.4241706,0.4764055,-0.009623191,0.000877315,0.005592167,0.009047781,-0.02671647,0.01102882
0.777065,0.4250096,0.4712078,-0.007994958,0.001744003,0.000359068,0.003199813,-0.01967159,0.01203208
0.7817195,0.4277574,0.4696408,-0.003303334,0.004521171,-0.001245757,-0.003668754,0.005000288,0.01476983
0.7867384,0.4292468,0.4655698,0.001754161,0.006041316,-0.005356665,-0.005981975,0.01375809,0.01184858
0.7850469,0.4305843,0.4679385,0.0001025708,0.007410358,-0.003029509,-0.006610136,0.004397132,0.007309559
0.7833306,0.43048,0.4710322,-0.001572725,0.007337932,2.126942e-05,-0.00812277,-0.008556466,0.008657693
0.7846551,0.4282943,0.4688786,-0.0002062669,0.00518402,-0.002176219,-0.01183227,-0.004828445,0.01150856
0.7828407,0.4301104,0.4681376,-0.001977952,0.007031342,-0.002961855,-0.01767785,-0.0001077972,0.01849209
0.7818377,0.430557,0.4688253,-0.002937439,0.007508377,-0.002319104,-0.02153193,-0.01010856,0.02387288
0.7824583,0.4251279,0.4706232,-0.002272826,0.002108361,-0.0005663489,-0.02144831,-0.004580929,0.01852723
0.7815904,0.4201133,0.4746823,-0.003096042,-0.002878527,0.003447647,-0.0203366,-0.001894026,0.01455215
0.7833285,0.4172041,0.4780053,-0.001312652,-0.005761515,0.0067256,-0.01560824,-0.007923611,0.01656849
0.7856936,0.4162098,0.479092,0.001098196,-0.006730727,0.007767206,-0.009682101,-0.0009447162,0.01634827
0.7864505,0.4151108,0.4780581,0.001901147,-0.007805458,0.006687942,-0.0105559,-0.002063381,0.01464683
0.787398,0.4123513,0.4756673,0.002894886,-0.01054123,0.004251334,-0.01005711,-0.00272074,0.01388002
0.7873501,0.410062,0.4778221,0.002893062,-0.01280685,0.006359684,-0.002306222,-0.003087947,0.01399024
0.7873243,0.4092515,0.4807592,0.002912933,-0.01359309,0.009249607,0.007969093,-0.01134884,0.01574732
0.7857976,0.4113299,0.4779992,0.001431389,-0.01148938,0.006441503,0.01755357,-0.01031969,0.01663509
0.7834819,0.4170871,0.4760781,-0.0008400972,-0.005705396,0.004471125,0.01903541,-0.008135175,0.01485158
0.783097,0.4240879,0.4741067,-0.001181536,0.001323864,0.002449327,0.01496775,-0.004054459,0.0141102
0.7816205,0.4248481,0.4722082,-0.002615599,0.002114286,0.0004992741,0.01354061,-0.005210613,0.01442825
0.7814523,0.4212567,0.4708027,-0.00274217,-0.001445424,-0.000958844,0.01174296,-0.01265765,0.01484825
0.7825573,0.4216808,0.4649988,-0.001596277,-0.0009884807,-0.006816028,0.008070604,-0.009880071,0.01639796
0.7816383,0.4218605,0.4648258,-0.002475126,-0.0007747416,-0.007042663,0.004916118,-0.01236331,0.01562325
0.7818934,0.4227674,0.4660013,-0.002180539,0.0001671596,-0.005920711,0.004065427,-0.01953723,0.01403994
0.7821944,0.4245967,0.46059,-0.001840623,0.002032283,-0.01138485,0.00185134,-0.02729756,0.01348765
0.7822199,0.4217666,0.462538,-0.00177686,-0.0007613642,-0.009488559,-0.002744698,-0.03237839,0.01146798
0.785489,0.4195411,0.4667452,0.001530037,-0.002949962,-0.005331403,-0.001778766,-0.02186758,0.01007263
0.7904872,0.4166267,0.4661924,0.00656533,-0.005827043,-0.005932072,-0.0009810557,-0.01278743,0.009457954
0.7919285,0.4140312,0.4677491,0.008042853,-0.008384671,-0.004420799,-0.005379279,-0.008293545,0.008587909
0.7862197,0.4165835,0.4682352,0.002368974,-0.005793837,-0.003977492,-0.008498965,-0.007260916,0.007126217
0.7816218,0.4172019,0.4691646,-0.002195365,-0.005135901,-0.003088209,-0.01125546,-0.01027351,0.005016982
0.7861179,0.4156217,0.4686734,0.002332667,-0.00667564,-0.003616602,-0.006162442,-0.00399195,0.005271108
0.7902929,0.4132143,0.4650595,0.00653802,-0.009041345,-0.007264752,0.005417962,-0.0003049435,0.006452684
0.7886635,0.4101522,0.4668408,0.004937321,-0.0120603,-0.005514648,0.006115471,0.001188873,0.004874194
0.7888331,0.4118061,0.4678142,0.005133622,-0.01036165,-0.004569056,0.003470174,0.006154092,0.0003043139
0.7908399,0.414802,0.4667505,0.007164968,-0.007318978,-0.005657279,0.003266301,0.009025976,-0.004857314
0.7901195,0.4156625,0.4668811,0.006466727,-0.006409494,-0.005547646,-0.0003146426,0.01763235,-0.00794792
0.7885649,0.4178827,0.462013,0.004931732,-0.004138156,-0.01043325,0.0002133558,0.02110359,-0.008575012
0.7884609,0.4212525,0.461406,0.00484448,-0.0007149536,-0.01105385,-1.888531e-06,0.01969065,-0.004765041
0.7892542,0.4226185,0.4664575,0.005651683,0.0007064949,-0.00601196,-0.00480808,0.02275694,-0.0008418101
0.788587,0.420298,0.4693493,0.004995494,-0.001556796,-0.003125538,-0.003567573,0.01547499,-0.007156839
0.7862147,0.4162352,0.4750854,0.002631094,-0.005560928,0.002609366,0.001759972,-0.003671906,-0.01576438
0.7832335,0.4145238,0.4791777,-0.0003452994,-0.007212229,0.006704223,0.007476783,-0.0208178,-0.01588824
0.7816828,0.4144583,0.4790748,-0.001893983,-0.00721607,0.006607263,0.01232431,-0.01066935,-0.01689047
0.7863634,0.415676,0.4792766,0.002785931,-0.005935258,0.006817799,0.0103092,0.01508145,-0.01730989
0.7904321,0.4213207,0.4758201,0.006851466,-0.0002257545,0.003372326,0.005985336,0.01602688,-0.01256204
0.7860744,0.4271054,0.4694717,0.002487983,0.00562509,-0.002963245,0.006209414,0.01349046,-0.01375703
0.7832836,0.4264571,0.4649789,-0.0003110814,0.005043918,-0.007441664,0.002176207,0.01715302,-0.01423391
0.786361,0.4209332,0.4656934,0.002755672,-0.0004121861,-0.006710968,-0.007116259,0.01281644,-0.008981218
0.7885756,0.4166962,0.4672723,0.004957269,-0.004581258,-0.005114088,-0.009114778,0.01615029,-0.007960708
0.7890538,0.4150813,0.464255,0.005420102,-0.006128059,-0.008111362,-0.007509094,0.01430051,-0.01037571
0.7890773,0.4143193,0.4664478,0.005425934,-0.006821739,-0.005896427,-0.003188519,0.001585925,-0.01948462
0.787823,0.4179928,0.474828,0.00415163,-0.003079564,0.002508175,0.00920193,-0.01251534,-0.0272363
0.7843911,0.4221305,0.4810252,0.0006973458,0.00112703,0.008731789,0.01646246,-0.02406729,-0.01787618
0.7811165,0.4184944,0.4816931,-0.002602018,-0.002439995,0.009427762,0.01385595,-0.01676259,-0.008661314
0.7830266,0.4150954,0.4756466,-0.0007185597,-0.005769722,0.003410351,0.006923815,-0.007267754,-0.01153738
0.785997,0.4188052,0.4737271,0.0022234,-0.001990744,0.001520358,0.0006932437,-0.004524357,-0.006332322
0.7827318,0.4207113,0.4754567,-0.001071816,-1.539754e-05,0.003279828,0.005435264,-0.007406507,0.006564369
0.7806072,0.4187866,0.4725475,-0.003227792,-0.001870835,0.0004004378,0.0120447,-0.0219808,0.00577914
0.7826655,0.4199891,0.4710167,-0.001201956,-0.0005993766,-0.001100635,0.01001283,-0.02233084,0.001208728
0.781875,0.4224702,0.4702484,-0.002025768,0.001950318,-0.00183933,0.01078149,-0.01783699,0.001696941
0.7816284,0.4240189,0.4698544,-0.002306237,0.003567109,-0.002204072,0.01169371,-0.02053419,-0.003127768
0.7823742,0.4242205,0.4697401,-0.0015946,0.003835901,-0.002289116,0.004648046,-0.0144237,-0.002699205
0.7817734,0.4237855,0.4686512,-0.002229638,0.003467071,-0.003348972,0.0005159727,-0.01333644,0.001104338
0.7831844,0.4282997,0.4700776,-0.0008528847,0.0080459,-0.001893581,0.001756226,-0.01469519,0.0006483674
0.7850626,0.4313443,0.4698989,0.0009913663,0.01115335,-0.002043273,0.001373023,-0.01460368,0.005304139
0.7876095,0.4258861,0.4716714,0.003504513,0.005755626,-0.0002417442,-0.001674187,-0.01734743,0.005797272
0.7898347,0.4202355,0.4745887,0.005696297,0.0001629451,0.002704573,-0.005102563,-0.01358694,0.003856559
0.7889097,0.4190933,0.4706666,0.004737981,-0.0009242136,-0.001188598,-0.005986914,-0.0102164,0.006514819
0.7885058,0.4189331,0.4677072,0.004300756,-0.001032236,-0.004119217,-0.006224829,-0.005889781,0.003495703
0.7891393,0.4207604,0.4670791,0.004900596,0.0008446157,-0.004718724,-0.005650804,-0.003978456,0.0001265156
0.7887124,0.4246532,0.4656845,0.004439804,0.004784325,-0.006084824,-0.004748043,-0.007007721,-0.002142622
0.7876814,0.4216215,0.4664388,0.003374423,0.001796764,-0.005301705,-0.00489606,-0.000282821,-0.004104579
0.786622,0.4170825,0.4672379,0.0022801,-0.002700858,-0.004473372,-0.002611742,0.006312097,-0.0005793745
0.7864473,0.4201765,0.467032,0.002070024,0.0004319418,-0.004649602,-0.001063167,0.009913996,-0.0003540881
0.7868822,0.4200182,0.4690498,0.002468919,0.0003097873,-0.002601428,-0.0008268839,0.01438617,-0.003150638
0.7861759,0.4185863,0.4717222,0.001726117,-0.001088378,0.0001020195,-0.0007262156,0.01194384,-0.003169989
0.7859314,0.4211674,0.469154,0.00144471,0.00152404,-0.002434515,-0.001899035,0.009537594,0.0005561872
0.7882769,0.420251,0.4663982,0.00375286,0.0006367336,-0.005158083,-0.002629492,0.007878357,0.006215518
0.7891114,0.41809,0.4672717,0.004549581,-0.001497509,-0.004251637,-0.00441704,0.005360497,0.003984348
0.7868007,0.416273,0.4675556,0.002200573,-0.003289826,-0.003934058,-0.003712964,0.003539202,-0.0006057381
0.7846365,0.4168552,0.4697149,-2.421417e-06,-0.002684814,-0.001740296,-0.002613869,0.000413851,-0.001158232
0.7844092,0.419498,0.4700921,-0.0002689919,-2.103942e-05,-0.00132789,-0.001645752,0.003236786,-0.002877126
0.7861506,0.4183738,0.4666967,0.001432799,-0.001125745,-0.004687312,0.002461449,0.007827722,-0.002126845
0.7872683,0.4184522,0.466376,0.002510804,-0.001029373,-0.004971273,-0.0007682554,0.005250737,-0.00163447
0.7876246,0.4185726,0.4668266,0.002827103,-0.0008923494,-0.004483081,-0.002330779,-0.001007921,-0.003166278
0.7875432,0.4180611,0.4664995,0.002705517,-0.001388472,-0.004771816,0.004776948,-0.01264257,-0.001981301
0.7861065,0.4232501,0.4668711,0.00122851,0.003814754,-0.004360713,0.007104725,-0.02603066,-0.00299268
0.7851171,0.4272977,0.4665136,0.0001985153,0.00787529,-0.004677806,0.004361815,-0.02688372,-0.006084451
0.7844073,0.426729,0.4666863,-0.0005518498,0.007318087,-0.004463563,-0.003263332,-0.01583676,-0.006632876
0.784589,0.4254791,0.4667834,-0.0004107985,0.006077969,-0.004323825,-0.00896853,-0.003895265,0.0002787245
0.7852715,0.4234677,0.4664846,0.0002312869,0.004074384,-0.004578812,-0.007332115,0.001261133,0.01206056
0.7853013,0.4208753,0.46682,0.000220892,0.001487742,-0.004198438,-0.006361552,-0.003739253,0.01339359
0.7868321,0.419909,0.4666086,0.001711859,0.0005250872,-0.00436366,-0.005934658,-0.005061221,0.009168361
0.7881399,0.4214172,0.4657258,0.002980139,0.002034823,-0.005199029,-0.005545637,0.006354973,0.008949161
0.78897,0.4209513,0.462318,0.003771139,0.001568535,-0.008558219,-0.002494215,0.01439641,0.005783453
0.7894482,0.4202499,0.4589462,0.004210415,0.0008648716,-0.01187998,0.002034174,0.0103615,0.00463051
0.788027,0.4210893,0.4642666,0.002750375,0.001700216,-0.006507897,0.003149064,0.001328648,0.006982645
0.7868192,0.4187385,0.4745522,0.001503884,-0.0006564851,0.003831145,0.006814884,-0.005999797,0.005869041
0.7844489,0.417414,0.478423,-0.0009050904,-0.001988474,0.007756967,0.01270093,-0.009300648,0.006252871
0.7837435,0.4184063,0.4763022,-0.001648964,-0.001005063,0.005692285,0.01836514,-0.00894008,0.006991138
0.786453,0.4189105,0.4756257,0.001022278,-0.0005109766,0.005072378,0.02310092,-0.007998531,0.005644169
0.7860695,0.4194716,0.4763788,0.0006009328,3.895543e-05,0.005882116,0.02166696,-0.008108109,0.006417397
0.7871871,0.4172569,0.4732123,0.001681081,-0.002187876,0.002771943,0.01867634,-0.003143502,0.006965103
0.7903831,0.4141916,0.4683402,0.004839995,-0.005266043,-0.002044581,0.01894293,0.001714335,0.006418593
0.7886591,0.41404,0.4669304,0.003079325,-0.005431076,-0.003399605,0.01346285,-0.002105543,0.003351949
0.7882791,0.4189088,0.4664427,0.002662813,-0.00057582,-0.003833295,0.004455679,-0.00608957,-0.001619339
0.7896377,0.4280276,0.4650956,0.003985051,0.008529381,-0.00512721,0.005618875,-0.007136905,-0.0007540057
0.7884584,0.4328154,0.4659717,0.002769517,0.01330334,-0.00419845,0.0112157,-0.009937517,0.0005866212
0.7879988,0.4307088,0.4682356,0.002273619,0.01118221,-0.001882287,0.01314508,-0.01661338,-0.003385871
0.7847137,0.4292407,0.4681915,-0.001047863,0.009698559,-0.001874597,0.01190792,-0.02531336,-0.004702648
0.781111,0.4300279,0.4668409,-0.004686733,0.0104685,-0.003173782,0.008267042,-0.02712512,-0.003742617
0.7864815,0.426521,0.4665619,0.0006477436,0.006942529,-0.003401788,0.008674442,-0.02202255,-0.005578145
0.7926694,0.4213126,0.4665705,0.006800021,0.001712777,-0.003342524,0.009469732,-0.02037015,-0.006746528
0.7906872,0.4195207,0.4663791,0.004782492,-0.00010248,-0.003483506,0.0073946,-0.02233153,-0.003891002
0.7891188,0.4187625,0.4640651,0.00317889,-0.0008861678,-0.005747221,0.00534232,-0.02221369,0.0007386722
0.7915988,0.4201072,0.4595921,0.005623721,0.0004312489,-0.01017014,0.001539241,-0.0215821,0.004368976
0.7906344,0.4218953,0.4605256,0.004623974,0.002190496,-0.009186216,0.002924045,-0.02003059,0.006614136
0.7892301,0.4239119,0.4683033,0.003184008,0.00417686,-0.001357763,0.006847434,-0.01749206,0.006337404
0.7915157,0.426318,0.4728446,0.005433545,0.006551138,0.00323496,0.00703532,-0.01437732,0.006523601
0.7929498,0.424427,0.4711651,0.006831179,0.004626864,0.001607114,0.009334694,-0.004163531,0.008454535
0.7942458,0.4236801,0.468736,0.008089941,0.003845165,-0.000770075,0.009124382,0.00888027,0.005876181
0.7924758,0.4239119,0.4650297,0.006281799,0.004040523,-0.004424519,0.004948001,0.01386697,0.002069974
0.7877812,0.4219879,0.4615494,0.00154808,0.002078454,-0.0078531,-0.002254186,0.01175135,0.000775879
0.7893166,0.4222323,0.4614246,0.003043261,0.002283283,-0.00792595,-0.01327355,0.01181704,0.0005361645
0.7907398,0.4217855,0.4625647,0.004425171,0.001795522,-0.006733612,-0.0147617,0.01718865,0.00386542
0.7886414,0.4230353,0.4663247,0.002284359,0.003003121,-0.002920765,-0.01235721,0.02349685,0.004624747
0.7898634,0.426139,0.4692866,0.003463006,0.006063209,9.451084e-05,-0.01714082,0.03116445,0.002153721
0.7902286,0.4245631,0.4693169,0.003783864,0.004442532,0.0001787241,-0.01677012,0.03402215,0.001227033
0.7906674,0.4212853,0.4683857,0.004177289,0.001118694,-0.0006982947,-0.01738355,0.03620966,-0.001090715
0.7922766,0.4176578,0.4643441,0.005740153,-0.002556128,-0.004685517,-0.02333757,0.0565568,-0.0007562409
0.7896554,0.4160239,0.465142,0.003071593,-0.00423821,-0.003832971,-0.02081923,0.0873161,-0.0006128929
0.7879939,0.4202664,0.4702995,0.001361642,-4.44994e-05,0.001379183,-0.0208564,0.1087013,-0.005776609
0.7888273,0.4256098,0.4701268,0.002145659,0.005249733,0.001261294,-0.02832518,0.1104064,-0.009739432
0.7871706,0.4273986,0.4697658,0.000438786,0.006988992,0.0009550272,-0.03066384,0.1049177,-0.008497004
0.7850741,0.4254316,0.4747732,-0.001708668,0.004972032,0.006016757,-0.02824358,0.103573,0.001554173
0.7831104,0.4215201,0.4825704,-0.003723775,0.001009971,0.01386761,-0.02288185,0.08511881,0.01423342
0.7778367,0.4184049,0.4853575,-0.00904905,-0.002156242,0.01670696,-0.01909044,0.05894369,0.01693625
0.774007,0.418861,0.4853916,-0.01292988,-0.001751419,0.01679137,-0.01794686,0.04953532,0.0130418
0.7800417,0.4190893,0.4909879,-0.006945428,-0.00157456,0.02243494,-0.01611861,0.05277272,0.01213206
0.7852076,0.4126741,0.4949208,-0.001828312,-0.008041025,0.02641123,-0.01398466,0.05647572,0.01346853
0.7776788,0.4066325,0.4923207,-0.009403955,-0.01413331,0.02384957,-0.00734771,0.04245917,0.01358726
0.7723616,0.4085687,0.4881079,-0.01476592,-0.0122466,0.01966921,-0.000991245,0.02381554,0.01425628
0.7766253,0.4132119,0.4843454,-0.01054429,-0.007650965,0.01593247,0.002218723,0.01627069,0.01332448
0.7783235,0.4163232,0.4819358,-0.00888491,-0.004584796,0.01354141,0.005560805,0.01299765,0.01186868
0.7776593,0.4173006,0.4828034,-0.009584283,-0.003649968,0.01442003,0.005018069,0.01181118,0.01239406
0.7801617,0.4150432,0.4840725,-0.007113176,-0.005947032,0.01569234,0.006338432,0.0004592829,0.01144088
0.7829462,0.4119951,0.4834824,-0.004355776,-0.009031792,0.01509751,0.01041209,-0.00861579,0.01141635
0.7836828,0.4111433,0.4832142,-0.003642107,-0.009917025,0.01481635,0.01000309,-0.006318937,0.009098403
0.7824574,0.4134799,0.4803351,-0.004886234,-0.007610249,0.01191599,0.007400623,-0.006327855,0.003570693
0.7810177,0.4165255,0.4781028,-0.006340409,-0.00459061,0.009654131,0.001759279,-0.004375471,0.002003766
0.7806312,0.4155143,0.4802273,-0.006737319,-0.005623854,0.01174082,-0.00371974,-0.006250195,0.000964522
0.7806156,0.4145651,0.4827211,-0.006758973,-0.00659109,0.01418873,-0.001403188,-0.009640913,-0.0002017698
0.7823578,0.4175619,0.4850403,-0.005018475,-0.003608203,0.01645404,0.003140284,-0.01329018,0.0005701333
0.7845271,0.4204135,0.4816953,-0.00284667,-0.0007665965,0.01304702,0.004410535,-0.0192652,0.00333699
0.7841067,0.4226848,0.4770283,-0.003260328,0.001498787,0.008309904,0.005244279,-0.0134506,0.005804432
0.7822636,0.4204791,0.4794306,-0.005092693,-0.0007093434,0.01063425,0.00434251,-0.007296607,0.002637998
0.7797888,0.4142023,0.4799169,-0.007552782,-0.00698508,0.0110351,0.001605748,-0.005575845,-0.0006701854
0.7798871,0.4131309,0.4787541,-0.007435906,-0.008052061,0.00977943,-7.193099e-05,-0.008467005,-0.002544953
0.7813966,0.413932,0.4812804,-0.005903828,-0.007243115,0.01220576,-0.0007672693,-0.01696411,-0.003650193
0.7791637,0.4129315,0.4825818,-0.008110182,-0.008232118,0.01340028,0.001610198,-0.01469239,-0.001579324
0.7790237,0.4124162,0.4817119,-0.008219562,-0.008732325,0.01241681,0.002652119,-0.01430319,-0.00155109
0.7816861,0.412122,0.4808487,-0.005522657,-0.009007561,0.01143336,0.002174977,-0.01758359,-0.0004655595
0.7829402,0.4128787,0.4804342,-0.0042301,-0.008228027,0.01089233,0.007089792,-0.01391689,0.0004737001
0.7840347,0.4126281,0.4804455,-0.003093214,-0.008451647,0.01077084,0.009236628,-0.0135868,-0.0014371
0.7830866,0.4130972,0.4813796,-0.003995391,-0.0079516,0.01156621,0.0100206,-0.009645993,0.001625138
0.7830453,0.4146051,0.4841377,-0.003987288,-0.006408509,0.01417984,0.01359706,-0.003567122,0.001870704
0.7838879,0.4136488,0.4862047,-0.00309203,-0.007325599,0.01609686,0.009064495,-0.003139468,-0.00275154
0.7830235,0.4143131,0.4816554,-0.003900754,-0.006617996,0.01139207,0.004205981,-0.001401493,-0.001968377
0.7844309,0.4168351,0.474229,-0.002434816,-0.004048784,0.003804876,0.006529271,0.0008965803,0.0001116095
0.7851151,0.4185967,0.4749299,-0.001689399,-0.00223603,0.004340028,0.005659914,0.006240977,0.000288915
0.784671,0.4184015,0.4806089,-0.002069918,-0.002376544,0.009848829,0.0008135449,0.01111246,0.0009796094
0.7852503,0.4164471,0.4837539,-0.001424854,-0.004272879,0.01281974,-0.001927852,0.00585515,0.000362477
0.7835444,0.4166767,0.4833903,-0.003063108,-0.003982164,0.0122782,-0.0011192,-0.0006983281,-0.003656522
0.7809822,0.4169748,0.4791254,-0.00555591,-0.003619989,0.007831835,0.0006102055,-0.001432937,-0.006821117
0.7796357,0.4176239,0.4766574,-0.006831403,-0.002904183,0.005178946,-0.001118093,-0.002914914,-0.005641645
0.7795754,0.4204565,0.477877,-0.006819,-2.324164e-06,0.006210635,-0.00771684,-0.003678653,-0.005122868
0.7806741,0.4201914,0.4780212,-0.005646035,-0.000195938,0.006164379,-0.01386755,0.0007233153,-0.006323416
1.001389,0.1091559,0.184598,0.01365153,-0.01553904,-0.02805036,-0.2437969,0.1234371,-0.2679775
0.9989804,0.1129803,0.1858435,0.01135931,-0.01174454,-0.02587074,-0.2461694,0.1222626,-0.2596618
1.000395,0.1129377,0.1900889,0.01287139,-0.01179397,-0.02069877,-0.239132,0.1184104,-0.2523826
1.002246,0.1087614,0.1940087,0.01480015,-0.01595508,-0.0158609,-0.230182,0.1136433,-0.2489569
1.002519,0.1080056,0.188762,0.01513204,-0.01667442,-0.02019868,-0.2307295,0.1153698,-0.2479536
1.001403,0.107771,0.1790677,0.01405748,-0.01685223,-0.0289942,-0.2300467,0.1153132,-0.2460374
0.9994444,0.1068994,0.1768182,0.01212248,-0.01764748,-0.03035548,-0.2247363,0.1107056,-0.2433502
