accx,accy,accz,body_accx,body_accy,body_accz,body_gyrox,body_gyroy,body_gyroz
0.9246082,0.2003332,0.3788117,0.005259354,-0.05104676,-0.03441146,-0.06011569,-0.07807279,0.06551238
0.9232621,0.2040641,0.3770531,0.004227819,-0.04846169,-0.03610964,-0.06225851,-0.07730245,0.0715161
0.9217182,0.2052546,0.3781237,0.002980738,-0.04831207,-0.03493084,-0.06388194,-0.07696806,0.07499897
0.9230597,0.2080004,0.378432,0.004601399,-0.04650429,-0.03446853,-0.06275778,-0.07584911,0.07226124
0.9240472,0.2097211,0.381294,0.005850877,-0.04562141,-0.03140856,-0.0640714,-0.07618795,0.06974067
0.9225591,0.2110955,0.3841283,0.004607712,-0.04498707,-0.0283346,-0.06999243,-0.07709117,0.07313396
0.9218267,0.2134198,0.381572,0.004103624,-0.04330798,-0.03061151,-0.07921267,-0.07644918,0.07628568
0.9227917,0.2106087,0.3774555,0.005280658,-0.04667209,-0.03441104,-0.09022354,-0.07607552,0.07887593
0.9250814,0.2081378,0.3764256,0.007766397,-0.04960675,-0.03508821,-0.0983342,-0.07518922,0.08442656
0.9270329,0.2084956,0.3738232,0.009898165,-0.04962609,-0.03730397,-0.09649015,-0.07414439,0.08449455
0.9265829,0.2065951,0.3699773,0.009612948,-0.05181993,-0.04073101,-0.08275282,-0.07221446,0.07595616
0.9244115,0.2075145,0.3769096,0.007591085,-0.05111274,-0.03334912,-0.06610027,-0.06836967,0.07009842
0.9216807,0.2102328,0.390417,0.004994787,-0.04852812,-0.01936308,-0.04939658,-0.06858391,0.07814555
0.9167643,0.2098567,0.3976195,0.0001983591,-0.04896215,-0.0116549,-0.04026069,-0.06940664,0.08645794
0.9112178,0.2112257,0.3969963,-0.005242243,-0.0475781,-0.01174784,-0.03686457,-0.06797611,0.07804052
0.9078295,0.2151266,0.3959971,-0.008537792,-0.04359216,-0.01219482,-0.02402584,-0.07008941,0.07211472
0.9071948,0.2176845,0.3973762,-0.009091809,-0.04088221,-0.01024406,-0.01861954,-0.07541146,0.0776616
0.9142619,0.2170213,0.3931222,-0.001955122,-0.04132924,-0.01390922,-0.01940443,-0.08760317,0.07957271
0.9252839,0.2149911,0.3884506,0.009126185,-0.04308241,-0.01797713,-0.0133464,-0.1094413,0.08390032
0.9303241,0.2126207,0.3861279,0.01421588,-0.04511797,-0.0196832,-0.01747402,-0.1235205,0.08765368
0.9296623,0.2084948,0.3760987,0.01359378,-0.0488538,-0.02908443,-0.03100384,-0.1113182,0.07515765
0.9234655,0.2083657,0.3688768,0.007426893,-0.04854051,-0.03566823,-0.05284648,-0.09726198,0.06472349
0.9187181,0.209428,0.3691876,0.002699665,-0.04698595,-0.03471007,-0.06799395,-0.1086095,0.07422228
0.9277667,0.2060389,0.3657337,0.01175897,-0.04983527,-0.0375081,-0.0608553,-0.1169225,0.08073851
0.9362576,0.2083978,0.3650588,0.02025142,-0.0468917,-0.03751905,-0.06502265,-0.1141323,0.0681883
0.9263315,0.2124423,0.370803,0.01031757,-0.04222004,-0.03110339,-0.0806888,-0.1190293,0.05993469
0.9188381,0.2102159,0.3756984,0.002807127,-0.04377918,-0.02552969,-0.08239209,-0.1166687,0.06451394
0.9285884,0.2084073,0.3793697,0.01253149,-0.0448829,-0.02117413,-0.07831912,-0.1067382,0.06346275
0.933478,0.2037152,0.382965,0.01738636,-0.04883486,-0.0168897,-0.06693995,-0.1061358,0.06395587
0.9295154,0.2048111,0.3856378,0.01338028,-0.0469658,-0.01352421,-0.03553292,-0.1314997,0.08641174
0.9293544,0.2294078,0.3833168,0.01316711,-0.02156506,-0.01515014,-0.01017061,-0.1651727,0.1226625
0.9277959,0.2449641,0.3797718,0.01154773,-0.005176775,-0.01799909,-0.03436239,-0.1556406,0.1305814
0.9272232,0.203865,0.3798363,0.01090576,-0.04541904,-0.01723866,-0.07625126,-0.1409064,0.08162991
0.9330861,0.1567363,0.3760697,0.01669103,-0.09166838,-0.02031047,-0.08995509,-0.1444933,0.02382406
0.9344851,0.1744986,0.3704662,0.01800428,-0.07300529,-0.02522113,-0.09683558,-0.1082223,0.0226741
0.9337936,0.197161,0.3681164,0.01721869,-0.04942074,-0.02688064,-0.08434892,-0.06829558,0.06277554
0.9399313,0.192763,0.3702942,0.02325398,-0.05287606,-0.02401545,-0.0490738,-0.06498789,0.08434165
0.939767,0.207708,0.3759442,0.02297889,-0.03696925,-0.01768135,-0.03882916,-0.05754651,0.07139382
0.9332828,0.2108474,0.3725702,0.01637512,-0.03285065,-0.02037523,-0.04109371,-0.039231,0.06222296
0.9332957,0.2120851,0.3644784,0.01625981,-0.03061841,-0.02779117,-0.04361009,-0.03051977,0.07745664
0.9331526,0.2360075,0.361029,0.01597984,-0.005688493,-0.03056947,-0.0546907,-0.03639948,0.09181214
0.9325472,0.2329545,0.3603394,0.01522909,-0.007723673,-0.03059263,-0.06306413,-0.04565466,0.09891513
0.9314276,0.2298814,0.3678533,0.01395589,-0.009771654,-0.02241701,-0.0897512,-0.06394048,0.1029954
0.9276602,0.2362862,0.376131,0.01002693,-0.002337531,-0.01348238,-0.1351682,-0.08779685,0.09586448
0.932341,0.2194987,0.3782723,0.01453863,-0.01809402,-0.01068954,-0.1763906,-0.08520428,0.09116405
0.9423404,0.2056268,0.3759879,0.02436155,-0.03093561,-0.01232834,-0.197599,-0.06729248,0.09232799
0.9469541,0.1969349,0.3694971,0.02879155,-0.03859948,-0.01818036,-0.1908076,-0.04777676,0.1081933
0.933796,0.2005151,0.3666265,0.0154422,-0.03399457,-0.02041932,-0.1875029,-0.03592279,0.1401015
0.9107391,0.2094023,0.3594269,-0.007813345,-0.02408655,-0.02699464,-0.1811459,-0.0556861,0.1404841
0.9105156,0.1990645,0.3518768,-0.008242013,-0.03340853,-0.03392778,-0.1515386,-0.07777448,0.1267123
0.9217784,0.1889068,0.3592684,0.002810282,-0.04255616,-0.02592624,-0.1203681,-0.07783473,0.1325671
0.9238123,0.1670417,0.3705604,0.004629388,-0.06341733,-0.01403093,-0.08415342,-0.07443259,0.1281352
0.9241709,0.1468725,0.3803193,0.004769719,-0.08258808,-0.003675676,-0.05310115,-0.08082113,0.1136507
0.9212143,0.1520804,0.3789537,0.001592059,-0.07638609,-0.004452374,-0.04524297,-0.1063191,0.08211324
0.9199912,0.1417555,0.3672784,0.0001456267,-0.08571959,-0.01554704,-0.04521611,-0.1311733,0.04158062
0.9231642,0.128847,0.3628747,0.003093908,-0.09763759,-0.0193787,-0.04208289,-0.1212894,0.04173432
0.9283284,0.1441803,0.3579058,0.008032397,-0.08131278,-0.02378423,-0.02697298,-0.09302131,0.05905893
0.9353526,0.1629488,0.3569563,0.01483042,-0.06155017,-0.02417894,-0.004500842,-0.06071666,0.0604902
0.9304322,0.1752517,0.3622521,0.009683436,-0.04824963,-0.01833662,0.02148725,-0.02190286,0.06157416
0.9226536,0.1863718,0.3648019,0.001677916,-0.03612868,-0.01524844,0.05218053,-0.02334734,0.06418977
0.9270681,0.1928826,0.3736895,0.005865571,-0.02861442,-0.005830608,0.05951015,-0.04097917,0.0643364
0.9344879,0.2033325,0.3766665,0.01305887,-0.01715967,-0.002331772,0.04623735,-0.02606144,0.05477411
0.9426791,0.2152984,0.3701167,0.02102387,-0.004189388,-0.008368694,0.04745177,-0.0466331,0.03785059
0.9429543,0.2000084,0.3617986,0.02107317,-0.01847738,-0.01618334,0.04542524,-0.07189816,0.02993856
0.9334856,0.1819382,0.3473209,0.01137834,-0.03554975,-0.03016692,0.01164521,-0.04558186,0.02047186
0.9313565,0.1959096,0.3455204,0.009022713,-0.02058597,-0.0314822,-0.0239176,-0.03602688,0.01149646
0.9303192,0.2027538,0.3531205,0.007758581,-0.01275573,-0.023405,-0.02374305,-0.03350224,0.02646482
0.9295231,0.1971043,0.3564625,0.006735518,-0.01742696,-0.01959345,-0.002224093,-0.02559328,0.04691654
0.9355454,0.1981927,0.3682148,0.01253089,-0.0153693,-0.007378597,0.005515945,-0.03177584,0.05019148
0.9329177,0.1884173,0.3753575,0.009676585,-0.02418556,0.0002193998,0.003088994,-0.03098046,0.03915463
0.9298347,0.1811911,0.3731917,0.006367308,-0.03046352,-0.001498793,0.0002534385,-0.04408833,0.02186866
0.9345865,0.1863449,0.3749795,0.01089324,-0.02437292,0.0007283696,-0.009960272,-0.06133312,0.0180545
0.9327391,0.1910595,0.3695839,0.008820504,-0.01873337,-0.004236589,-0.01158495,-0.06022973,0.02494043
0.931058,0.1987291,0.3621088,0.006914797,-0.01015114,-0.01129035,-0.009484475,-0.05767468,0.02552438
0.9309362,0.2044012,0.3638366,0.006569279,-0.003579737,-0.009150536,-0.01731286,-0.05886844,0.02259944
0.9293985,0.2040466,0.3631275,0.004808825,-0.003049338,-0.009456824,-0.01839457,-0.05971189,0.02148533
0.9315472,0.2052331,0.3572627,0.00673612,-0.0009934042,-0.01492817,-0.01815194,-0.04566016,0.03043773
0.92979,0.2068956,0.3535297,0.004758894,0.001521799,-0.01827653,-0.02481751,-0.0331869,0.04211335
0.92734,0.2053207,0.3588355,0.002090672,0.0007818543,-0.01259474,-0.02924062,-0.04061321,0.04157638
0.9266592,0.2041676,0.3674737,0.001193623,0.0004448456,-0.003588754,-0.02270995,-0.05413128,0.03463966
0.9270485,0.2020676,0.3684967,0.001369067,-0.0008588173,-0.002206243,-0.01723495,-0.06390599,0.0188447
0.9335133,0.1970298,0.3707441,0.00762255,-0.005120773,0.0003922031,-0.03270583,-0.0554843,0.0009415521
0.9351312,0.196098,0.37181,0.009032044,-0.005297579,0.001800497,-0.04514973,-0.03421797,0.00658357
0.9299581,0.199185,0.3644333,0.003653215,-0.001476905,-0.005242902,-0.04361704,-0.01967888,0.02420704
0.9260693,0.2034652,0.361,-0.0004383863,0.003515355,-0.008352038,-0.04509196,-0.01722056,0.03215098
0.9250725,0.2037,0.3617877,-0.001634786,0.004440312,-0.007249273,-0.04528645,-0.01819107,0.03815389
0.9249547,0.199424,0.365187,-0.001948792,0.0008318743,-0.0035438,-0.04008299,-0.01712415,0.03944235
0.9223848,0.2001747,0.3705263,-0.004711063,0.002227451,0.002092849,-0.03349438,-0.03246563,0.04176918
0.9254087,0.1989194,0.3698241,-0.001875331,0.001594034,0.001678889,-0.02832785,-0.05790113,0.051919
0.9335146,0.1930862,0.3694694,0.006046985,-0.003640473,0.001603342,-0.0197309,-0.06409511,0.04345615
0.9376116,0.189818,0.3675613,0.009965109,-0.006332847,-3.500489e-05,-0.0168342,-0.04878271,0.0336926
0.9321566,0.1925589,0.3616499,0.004335609,-0.003038843,-0.005686026,-0.02518351,-0.0334523,0.04425176
0.9230151,0.2022705,0.3634997,-0.004976099,0.007203422,-0.003585195,-0.03157252,-0.0286297,0.04904528
0.9304268,0.2035117,0.3653603,0.00226975,0.008953028,-0.001482693,-0.04587338,-0.01796425,0.0487747
0.9374271,0.1962311,0.3629346,0.009108779,0.002158367,-0.003675373,-0.06084468,-0.006146041,0.03958946
0.9303221,0.1897198,0.365044,0.001846958,-0.003889326,-0.001341883,-0.0647251,0.003706334,0.02183069
0.9319387,0.1859885,0.366334,0.003310886,-0.007178894,0.0001634133,-0.06780975,0.02071823,0.02386217
0.9349098,0.1942881,0.3658109,0.006133581,0.001541003,-0.0001529051,-0.05565137,0.0169198,0.03699298
0.9329434,0.2038093,0.3656395,0.004022837,0.01146152,-0.000126008,-0.03961006,0.003360225,0.04585354
0.9304632,0.2078561,0.3634093,0.001402272,0.01588685,-0.002166495,-0.04671953,-6.85094e-07,0.04893806
0.9240074,0.2097743,0.3657028,-0.005190023,0.01816265,0.0003085303,-0.05246332,-0.02032338,0.04699086
0.925749,0.2014797,0.3712262,-0.003580815,0.0102044,0.006005225,-0.04302732,-0.0367622,0.04888089
0.9282695,0.1941799,0.3721146,-0.001188431,0.00321964,0.007058619,-0.03711157,-0.03629533,0.04920471
0.9249059,0.1965657,0.3699738,-0.004675583,0.005899433,0.005074456,-0.03383826,-0.03487506,0.04633799
0.9271857,0.1967147,0.3669769,-0.002514711,0.006321851,0.002225751,-0.03679708,-0.02517446,0.043128
0.9286153,0.1922327,0.3679576,-0.001199184,0.002093163,0.003346117,-0.04824006,-0.02360508,0.03659891
0.9290847,0.1923942,0.3723356,-0.0008389601,0.002488418,0.007855366,-0.04227083,-0.02373197,0.0339846
0.9309638,0.1953883,0.3740528,0.0009358656,0.005697315,0.009695293,-0.02748346,-0.01675675,0.03005535
0.9300977,0.1948171,0.3763179,-2.971215e-05,0.005322556,0.0120745,-0.02379457,-0.02435279,0.01991274
0.9304345,0.1963842,0.3779802,0.000212317,0.007068305,0.01384206,-0.02500468,-0.0325509,0.01572853
0.9284276,0.1976297,0.3788621,-0.001884759,0.008475028,0.01481995,-0.03306882,-0.03581983,0.01666111
0.9240579,0.198313,0.3789115,-0.006339886,0.009302606,0.01495589,-0.03426213,-0.0360131,0.02216895
0.9234333,0.2010891,0.3739098,-0.007045244,0.01220643,0.01003094,-0.02056812,-0.02979751,0.02800485
0.9255952,0.1974214,0.3724937,-0.004959187,0.008650144,0.008681626,-0.005531146,-0.02791416,0.01808468
0.9290758,0.1933879,0.3728651,-0.001549448,0.00471219,0.009109877,0.001103131,-0.02131109,0.006665827
0.9300112,0.1937912,0.368788,-0.0006798068,0.0051958,0.005079939,-0.003741075,-0.02042659,0.007849397
0.9301451,0.1969381,0.3674426,-0.0006066939,0.008408119,0.003772117,-0.01028317,-0.03158176,0.005191074
0.9335168,0.201874,0.3678763,0.002708991,0.01339535,0.004234077,-0.02004862,-0.03156744,0.0006714025
0.9347404,0.1986709,0.3690691,0.003881007,0.01022957,0.005446332,-0.02069513,-0.02776032,0.0003226378
0.9329036,0.1934453,0.3717121,0.001996902,0.005027782,0.008100303,-0.007035477,-0.0235913,-0.008079781
0.931784,0.193495,0.3742296,0.0008338524,0.00508839,0.01062051,-0.005746184,-0.0151644,-0.01684951
0.9308133,0.1967564,0.3745963,-0.0001766827,0.008348236,0.01098162,-0.006329777,-0.01372727,-0.01529272
0.9278889,0.2068933,0.3729946,-0.003137431,0.01847162,0.009366342,-0.005621483,-0.01476644,-0.004692741
0.92431,0.214379,0.3769895,-0.006749295,0.02593214,0.01333962,-0.01003323,-0.01513922,0.01272655
0.9230418,0.2128647,0.3809379,-0.008046898,0.02438073,0.01725838,-0.008269353,-0.01992597,0.01781475
0.9237757,0.2115424,0.3800962,-0.007338755,0.02300922,0.01637893,-0.0108067,-0.02324741,0.0141098
0.9259477,0.2113853,0.3780863,-0.00518866,0.02279047,0.01432309,-0.01174066,-0.01723242,0.02251231
0.9279211,0.2083431,0.3713172,-0.003233119,0.01967415,0.007499785,-0.0110981,-0.01090735,0.02753114
0.9287251,0.2058496,0.3669156,-0.002443028,0.01709406,0.00303593,-0.01519152,-0.01359614,0.02395676
0.928437,0.2079248,0.3688109,-0.002741273,0.0190705,0.004861269,-0.01388181,-0.01576306,0.0255094
0.9264626,0.2091905,0.3704476,-0.004721984,0.02022523,0.006420935,-0.01565307,-0.01960094,0.03082768
0.9259843,0.207664,0.3716911,-0.005202919,0.01857597,0.007580752,-0.01283683,-0.0266195,0.03627506
0.9266293,0.2074956,0.3740281,-0.004556832,0.01827306,0.009827687,-0.006990473,-0.02002004,0.03695039
0.9263053,0.206514,0.3763563,-0.004876123,0.0171455,0.01205975,-0.01315793,-0.01127158,0.03586452
0.9264161,0.2047911,0.3758563,-0.004757035,0.01526561,0.01145765,-0.01594695,-0.01629672,0.03778198
0.9263704,0.2038469,0.3767969,-0.004790803,0.01415366,0.01229035,-0.01377618,-0.01823669,0.03834348
0.9267466,0.2023366,0.3782469,-0.004399184,0.0124654,0.0136267,-0.01327636,-0.01661209,0.03669995
0.928216,0.2001826,0.3770752,-0.002910855,0.01012382,0.01233573,-0.0119223,-0.0191928,0.03127441
0.9287362,0.1987495,0.3814928,-0.002368375,0.00849401,0.01662844,-0.01010093,-0.01416923,0.02713636
0.9250155,0.2037509,0.3852073,-0.0060636,0.01329044,0.0202124,-0.008551023,-0.01009768,0.03265224
0.920542,0.2103458,0.3819739,-0.01050845,0.01967242,0.01684274,-0.008918744,-0.01826448,0.03847384
0.9237005,0.2077984,0.3771029,-0.007317981,0.01690471,0.01182957,-0.006375741,-0.02559851,0.03599805
0.9295168,0.2027043,0.3681159,-0.001466547,0.01158311,0.00269465,-0.003338319,-0.02443674,0.03495773
0.931191,0.2008664,0.3613115,0.0002461324,0.009510929,-0.004263024,-0.002907611,-0.01683195,0.03791293
0.9309809,0.2006874,0.3628742,7.732609e-05,0.009091424,-0.002858088,-0.0022567,-0.01150389,0.03644814
0.9298778,0.2024548,0.3644328,-0.000981761,0.01061269,-0.001460834,-0.003852627,-0.01426421,0.03427774
0.9296548,0.2031373,0.3669114,-0.001158468,0.01104399,0.0008534896,-0.004636452,-0.01735161,0.03347089
0.9289808,0.2039963,0.3727562,-0.001784085,0.0116473,0.006531944,-0.005141092,-0.01904188,0.03294165
0.9269461,0.2037848,0.3720439,-0.003768498,0.01117589,0.005651477,-0.006720363,-0.02264571,0.03429906
0.9271923,0.1999349,0.3701784,-0.003470271,0.007062518,0.003616392,-0.007831355,-0.02244206,0.03075761
0.9278406,0.2003808,0.375377,-0.002768256,0.007241812,0.008644296,-0.0108862,-0.01825726,0.02688858
0.9280917,0.2049276,0.3758253,-0.00246185,0.01151944,0.008921012,-0.0101848,-0.0174545,0.02822176
0.9283949,0.2079254,0.3741887,-0.002101992,0.01424584,0.007112106,-0.006520217,-0.01639225,0.02797405
0.927343,0.2075773,0.3763,-0.003095972,0.01362444,0.009050346,-0.00723683,-0.01503675,0.02752825
0.9262593,0.2045596,0.3741678,-0.004120495,0.01033165,0.006744513,-0.01014585,-0.01638689,0.02616575
0.9264075,0.2038843,0.3712877,-0.003912031,0.009379978,0.003690324,-0.01251837,-0.01340262,0.02306452
0.9294152,0.202619,0.3702952,-0.0008429504,0.007837109,0.00252357,-0.01281047,-0.01229746,0.0220926
0.9313653,0.2016885,0.3718448,0.001169327,0.006628366,0.003899022,-0.01201435,-0.01695953,0.02277948
0.9292881,0.2023999,0.3779469,-0.0008449559,0.007061214,0.009827416,-0.01222882,-0.0189595,0.02621211
0.9276885,0.1979699,0.3826063,-0.002381151,0.002352785,0.01431345,-0.01252448,-0.01734376,0.0287144
0.9266312,0.1960182,0.3809625,-0.003374625,0.0001234266,0.01249664,-0.01247455,-0.01484333,0.02633277
0.9261518,0.1978501,0.3726241,-0.003789979,0.001678988,0.003985311,-0.01263051,-0.0177844,0.02416409
0.9269961,0.1978769,0.3670132,-0.002881274,0.001431336,-0.001798202,-0.01359724,-0.02019155,0.02474021
0.9290103,0.2017683,0.3669481,-0.0008024715,0.005050688,-0.002035456,-0.01414392,-0.01545599,0.02335052
0.9314886,0.2048391,0.3647924,0.001740544,0.007852355,-0.004362133,-0.01395817,-0.01113063,0.01793004
0.9305796,0.200981,0.365478,0.0008962112,0.003728049,-0.003846011,-0.01372142,-0.007518323,0.01428008
0.9287156,0.1969183,0.3712077,-0.0009034272,-0.0005974996,0.001716477,-0.01229472,-0.008222696,0.01499669
0.927505,0.199294,0.3727728,-0.002050053,0.00151907,0.00311671,-0.008331252,-0.0109799,0.01596472
0.9263915,0.2015317,0.3686021,-0.003100162,0.003501649,-0.001216113,-0.004127325,-0.009200791,0.0147316
0.9298011,0.1986973,0.367008,0.000372381,0.0004164445,-0.002969394,-0.005458546,-0.008990358,0.01265851
0.9331782,0.198059,0.3682754,0.003811782,-0.0004680182,-0.001857973,-0.008489605,-0.007891686,0.01213852
0.9298822,0.1964117,0.3704065,0.0005771962,-0.002356436,0.0001206212,-0.009810336,-0.006383272,0.01344956
0.9260314,0.1945424,0.3727043,-0.003213166,-0.00446154,0.002269634,-0.01321529,-0.006437653,0.01439097
0.9264117,0.1968958,0.3686555,-0.002773406,-0.00233819,-0.001924158,-0.01071524,-0.00400664,0.01345148
0.9275972,0.1969376,0.3675835,-0.001529522,-0.002520299,-0.003137112,-0.005957453,-0.004899365,0.01293019
0.9288157,0.1990256,0.3694556,-0.0002535545,-0.0006497614,-0.001401895,-0.01068472,-0.007050512,0.01310587
0.9296905,0.2020268,0.3659988,0.0006776255,0.002140564,-0.004991265,-0.01286186,-0.006528127,0.01274266
0.9289505,0.2004033,0.3660672,-7.082243e-06,0.0003129525,-0.005050782,-0.01021928,-0.005873293,0.01390876
0.9289113,0.2006585,0.3638875,7.835837e-06,0.0003707328,-0.007353618,-0.01047857,-0.003810825,0.01586871
0.9284905,0.2016773,0.3640972,-0.0003600925,0.001198908,-0.007261855,-0.00900673,-0.003358363,0.01680745
0.9272923,0.2016435,0.3693766,-0.001506727,0.0009811452,-0.002095063,-0.008835109,-0.004562047,0.01636362
0.9281496,0.2022496,0.3668058,-0.0005991813,0.00141007,-0.004772778,-0.01202087,-0.007908719,0.01612048
0.929765,0.2023524,0.3687071,0.001065214,0.001342217,-0.002972742,-0.01281761,-0.01244289,0.0178291
0.9309166,0.2004629,0.3710615,0.002264441,-0.0007112588,-0.0007138683,-0.008715358,-0.009535782,0.01799925
0.9308498,0.197408,0.3688202,0.002243744,-0.003923635,-0.003045041,-0.004004605,-0.006267613,0.01634029
0.9299681,0.1980231,0.3749234,0.001406556,-0.003459439,0.002973949,-0.00688803,-0.008552625,0.01664075
0.929647,0.1976808,0.3823609,0.00112833,-0.003945888,0.01033252,-0.01080645,-0.008088394,0.02005102
0.9282969,0.194598,0.3855099,-0.0001806438,-0.007166032,0.0134074,-0.00920371,-0.007204914,0.02363102
0.927867,0.1954565,0.3792251,-0.000571138,-0.006437894,0.007052756,-0.007986025,-0.008043452,0.02129002
0.9295621,0.1946986,0.3693698,0.001161639,-0.007318997,-0.002868811,-0.00588104,-0.006723734,0.01482048
0.9310515,0.1922452,0.3694248,0.002686946,-0.009888151,-0.002876608,-0.004837873,-0.005374915,0.01123239
0.9329951,0.1949001,0.3697899,0.004664547,-0.007341502,-0.002570992,-0.007148116,-0.006571599,0.01194033
0.9326337,0.1965152,0.3690981,0.004335334,-0.005826867,-0.003318721,-0.006468644,-0.01063124,0.01314988
0.930642,0.1937969,0.3710055,0.00237371,-0.00863788,-0.001463777,-0.006395127,-0.01108796,0.0104047
0.9315121,0.1931587,0.3716943,0.003271629,-0.009360889,-0.0008239846,-0.008868655,-0.00288511,0.008335608
0.9306523,0.197609,0.3724975,0.002437356,-0.004987321,-6.629157e-05,-0.008146418,0.00258007,0.01057714
0.9295091,0.2020093,0.3713459,0.00131732,-0.0006559231,-0.001259999,-0.005049774,-0.000962439,0.01242391
0.9304866,0.2020576,0.3698765,0.00231575,-0.0006687128,-0.002768216,-0.002753406,-0.004396311,0.01454716
0.9282695,0.2023443,0.3694886,0.0001172207,-0.0004357416,-0.003191701,-0.005373862,-0.006516838,0.01437525
0.9269512,0.203439,0.368381,-0.001184769,0.0006122499,-0.004331704,-0.009488957,-0.01316617,0.009996715
0.9268516,0.2013262,0.3694352,-0.00127008,-0.001540645,-0.003306526,-0.008881913,-0.01937883,0.008714285
0.9264093,0.1996086,0.3700461,-0.001700065,-0.00329194,-0.002721371,-0.01069677,-0.01826393,0.007444174
0.9286697,0.1980505,0.3691407,0.0005709062,-0.004877634,-0.003649081,-0.01208471,-0.0169753,0.003685165
0.9277379,0.1943426,0.3709543,-0.0003519065,-0.008607322,-0.001854627,-0.005267758,-0.0190754,0.004345876
0.9263017,0.1930193,0.3740081,-0.001780712,-0.009946338,0.001183363,-0.002074215,-0.01788314,0.007568953
0.9279767,0.1934219,0.3756371,-9.970916e-05,-0.009553612,0.00279956,-0.001994994,-0.01513275,0.01006275
0.9285983,0.195341,0.3743894,0.0005266011,-0.007638285,0.001541823,0.004303705,-0.01312275,0.01303836
0.9309499,0.2005905,0.3694848,0.002881754,-0.002386505,-0.003370173,0.006007583,-0.00952264,0.01618838
0.9328025,0.204311,0.3642267,0.004736693,0.001342102,-0.008633311,0.002288244,-0.005365642,0.01925257
0.9329953,0.2039871,0.3628815,0.004930509,0.00103176,-0.009980875,0.002352066,-0.003306907,0.01925014
0.9321755,0.2003604,0.3660474,0.004110255,-0.002576384,-0.006814597,0.004436279,-0.001679652,0.01832025
0.9293992,0.1970048,0.3704058,0.001331909,-0.005908774,-0.002452746,0.009815162,0.00344812,0.02377619
0.930665,0.1967139,0.373113,0.002594106,-0.006171929,0.0002608246,0.01291561,0.00654393,0.02828768
0.9320282,0.1953502,0.3726889,0.003952063,-0.007503655,-0.0001538827,0.005163413,0.006774357,0.02534241
0.9305523,0.1925645,0.3699313,0.00246925,-0.01025306,-0.002899486,-0.002114655,0.00734561,0.0217182
0.9306057,0.191604,0.3686281,0.002514102,-0.0111728,-0.004188123,0.001325799,0.001958509,0.01778427
0.9293943,0.1931623,0.3696001,0.001292589,-0.009569447,-0.003199177,0.008049528,-0.005168995,0.01126348
0.9294013,0.195321,0.3745948,0.001287886,-0.007361043,0.001814935,0.01100042,-0.009367391,0.003096114
0.9320875,0.1946337,0.379677,0.003960758,-0.007994194,0.006918772,0.01089088,-0.01524064,-0.001610867
0.9335481,0.1948756,0.3767843,0.005406535,-0.007693597,0.004049374,0.008069963,-0.02207375,0.001050271
0.9320817,0.2002606,0.3726861,0.003923748,-0.002245666,-2.410343e-05,0.006559861,-0.02619875,0.004889201
0.9292984,0.2040286,0.3688301,0.001122466,0.001589317,-0.003854216,0.00640208,-0.02419461,0.008577731
0.9307394,0.201159,0.3652876,0.002543804,-0.001209631,-0.007369846,0.002447252,-0.0203789,0.01027619
0.9323924,0.1969675,0.3688749,0.004175567,-0.005327159,-0.003754532,0.001143164,-0.01625766,0.008610207
0.9322983,0.1947606,0.3689809,0.004058656,-0.007457233,-0.003619353,0.004034085,-0.009198161,0.009539477
0.9339403,0.1914505,0.3666227,0.005676323,-0.01068757,-0.005946938,0.005632192,-0.004030158,0.008612488
0.932429,0.1895589,0.3685037,0.004138942,-0.01249645,-0.004033992,0.005017504,0.001991493,0.00662854
0.9315063,0.1909152,0.3651848,0.003188478,-0.01105444,-0.007319609,0.003230627,0.01134527,0.007525049
0.9342483,0.1901388,0.3638668,0.005900932,-0.01174202,-0.008602609,0.004525023,0.01706766,0.00544607
0.9350754,0.1902107,0.3708956,0.006696808,-0.01157792,-0.001537289,0.004478695,0.01446732,0.00306982
0.9338211,0.1932635,0.3769631,0.005409433,-0.008429464,0.004568577,0.00223388,0.009790542,0.001625098
0.9287711,0.1957859,0.3758742,0.0003243975,-0.005808103,0.003519318,0.001663311,0.009558749,0.0008435487
0.9229422,0.1990546,0.3714158,-0.005541293,-0.002437205,-0.0008982627,-0.001473282,0.005885519,0.001751085
0.9227047,0.2010088,0.3719387,-0.005817012,-0.0003778487,-0.0003338171,-0.004250848,-0.0008128825,0.0001668611
0.9250142,0.2016978,0.3712861,-0.003546736,0.0004187922,-0.0009441864,-0.005289544,-0.005079293,0.0007041667
0.9271971,0.1977844,0.3694814,-0.001403587,-0.00338483,-0.002706094,-0.005115971,-0.007376309,0.003348945
0.9298188,0.1900079,0.371168,0.001177932,-0.01104987,-0.0009762161,-0.003923573,-0.008298222,0.004028733
0.930007,0.1930101,0.3678069,0.001325801,-0.007934528,-0.004293776,-0.004657342,-0.01333078,0.005257366
0.9285845,0.197373,0.3664524,-0.0001370709,-0.003456813,-0.005604247,-0.002600003,-0.0138797,0.002641687
0.9313269,0.1938051,0.3700433,0.002564931,-0.006908344,-0.001968778,-0.0001756669,-0.00764661,-0.0002519742
0.9340947,0.1937151,0.370501,0.005292418,-0.006880672,-0.001466147,-0.0002753374,-0.00435795,0.002901098
0.934119,0.1933645,0.3727538,0.005276281,-0.00711215,0.0008321404,0.0002488698,-0.0002599445,0.004603727
0.9360927,0.191827,0.3715716,0.007209312,-0.008529363,-0.0003042983,0.0002103623,0.003830363,0.003328915
0.9359344,0.1917858,0.3660723,0.0070099,-0.008448919,-0.005757691,0.00287316,0.01523355,0.003475022
0.9331067,0.191601,0.3663115,0.004140486,-0.008510963,-0.005472263,0.005913539,0.02787954,0.004529382
0.9310477,0.1952762,0.3650698,0.002039088,-0.004711642,-0.006667554,0.004969806,0.02219507,0.005466111
0.9292557,0.198503,0.361748,0.0002039727,-0.00135968,-0.00994238,0.004296744,0.01871032,0.006590075
0.9273971,0.199966,0.3637624,-0.001698331,0.0002293558,-0.007880237,0.003939064,0.02136747,0.006633028
0.9244673,0.2005326,0.368244,-0.004672182,0.0009225683,-0.003349915,0.00100529,0.01373954,0.005498781
0.9249787,0.1985251,0.3740328,-0.004205064,-0.0009582166,0.00248871,-0.004470779,0.008050849,0.005775639
0.9274965,0.1957102,0.3751716,-0.001731247,-0.003646679,0.003678141,-0.01005168,0.004544249,0.004282816
0.9278883,0.1908063,0.3718397,-0.001382979,-0.008424448,0.0003974418,-0.01400751,-0.001375823,-0.0009035147
0.9291499,0.1907013,0.372601,-0.0001642325,-0.008403829,0.001210184,-0.01410165,-0.00266121,-0.0044309
0.9291516,0.1939868,0.3734467,-0.0002046516,-0.004993056,0.002107401,-0.008412518,-0.00446602,-0.003282092
0.9290846,0.1925934,0.377548,-0.0003128779,-0.006261385,0.006260044,-0.002157892,-0.01226718,-0.0005909923
0.9296697,0.1930541,0.3822014,0.000231832,-0.005676091,0.01096419,-0.001099846,-0.0172387,-0.0011065
0.9299717,0.1940043,0.373394,0.0004944075,-0.004601636,0.002206613,-0.003172837,-0.01109205,-0.001381285
0.9329394,0.1951475,0.36235,0.003423705,-0.003334516,-0.008788961,-0.002116986,-0.004369134,-0.0006236057
0.9339492,0.1981634,0.3611757,0.00439594,-0.0001952852,-0.009916111,0.001131923,-0.001149069,-0.002703786
0.9330871,0.1955666,0.3688226,0.003497035,-0.002669413,-0.002223008,0.00272487,0.008203758,-0.003678114
0.9334205,0.1931532,0.3771307,0.003794159,-0.004961105,0.006130672,0.003065007,0.01413766,-0.004987698
0.9326853,0.1948594,0.3739611,0.003023191,-0.003134132,0.003005793,0.001331054,0.01207185,-0.005764235
0.9307915,0.1946311,0.3717097,0.001093996,-0.003242739,0.0007980068,0.0003624172,0.01409752,-0.002532604
0.9281018,0.194845,0.3752674,-0.001630753,-0.002910232,0.004398113,0.001359932,0.01661812,-0.002321559
0.9280601,0.1983632,0.3709688,-0.001707025,0.0007253414,0.0001405647,0.00346458,0.01494827,-0.002435587
0.9292192,0.2019998,0.3679141,-0.0005820803,0.004477897,-0.002874542,0.005747012,0.01326693,-0.0004528662
0.9287872,0.2019853,0.3690282,-0.001047494,0.004577474,-0.001722357,0.00329606,0.009309001,-0.002249642
0.929534,0.2007466,0.3655308,-0.0003334544,0.003450841,-0.005182966,0.002209364,0.003472019,-0.004955371
0.9291598,0.201586,0.3654847,-0.0007395602,0.004399708,-0.00519341,0.003396659,-0.000467315,-0.007679951
0.9290067,0.2014114,0.3686612,-0.0009236081,0.004331821,-0.001982185,-0.0004835584,-0.002923423,-0.00877735
0.930324,0.1999847,0.3692314,0.0003635611,0.003008678,-0.001378039,-0.003584511,-0.002551112,-0.006225028
0.9298141,0.1987053,0.3729298,-0.0001754132,0.001829403,0.002353574,-0.003850942,-0.0002177844,-0.006458011
0.9297547,0.1960596,0.3749622,-0.0002629579,-0.0007196871,0.004418363,-0.002566162,0.001540071,-0.006171833
0.929808,0.1932912,0.3708586,-0.0002368893,-0.003394927,0.0003462234,-0.0002813322,0.006147228,-0.002118822
0.9286683,0.1918734,0.3707273,-0.001402734,-0.004723082,0.0002452702,0.0009420264,0.00950795,-0.0007184738
0.927246,0.1923879,0.3740442,-0.002850122,-0.004122167,0.003591447,0.003366392,0.004545619,-2.032648e-05
0.9258918,0.1944327,0.37543,-0.004228273,-0.001994044,0.005005157,0.005043554,0.0006446698,0.000992832
0.9262823,0.1948261,0.3755573,-0.003860362,-0.001520109,0.005159044,0.006007143,0.00334523,0.001159941
0.9266675,0.1942045,0.3743433,-0.003496253,-0.002064102,0.003969933,0.007057428,0.005528427,0.002776082
0.926218,0.1943281,0.3751249,-0.00396524,-0.001865535,0.004774572,0.006858422,0.006571925,0.002712646
0.926414,0.1935812,0.3754443,-0.003787017,-0.002540125,0.00511494,0.005716837,0.007348807,0.0009195606
0.9264329,0.1927317,0.3743307,-0.003784031,-0.003319788,0.004020211,7.93955e-05,0.006840085,-3.34016e-05
0.9272427,0.193348,0.3751392,-0.002988063,-0.002635966,0.004845349,-0.005407423,0.004675164,0.0002106099
0.9308628,0.1951979,0.3729384,0.0006201623,-0.000720902,0.002658666,-0.003682555,-0.0009996592,0.001864478
0.9343486,0.1971927,0.3704929,0.00409602,0.001336983,0.000224928,0.0002383084,-0.004053488,0.001498617
0.9320844,0.1967604,0.3708364,0.001823613,0.0009654378,0.0005777841,0.002579689,-0.0003577412,-0.000933678
0.9289418,0.1925658,0.3708733,-0.001325672,-0.003170537,0.0006217597,0.005289465,0.003711019,-0.002978132
0.9308987,0.1888208,0.3714208,0.0006259773,-0.006859099,0.001174214,0.005148921,0.00684179,-0.005266487
0.9307823,0.1899368,0.3696822,0.000505671,-0.005688538,-0.0005614514,0.000722739,0.006659681,-0.005534227
0.9276394,0.1917311,0.3667344,-0.002639947,-0.003841366,-0.003508324,-0.001678212,0.003460071,-0.0039241
0.925893,0.192431,0.3651002,-0.004387792,-0.003089972,-0.005143164,-0.002280051,0.005227181,-0.003726509
0.9249707,0.1949938,0.3643823,-0.005310345,-0.0004769709,-0.005863075,0.001527816,0.006173288,-0.001363903
0.9284391,0.1943181,0.3679897,-0.001840678,-0.001103782,-0.002258638,0.008228066,0.005752519,0.001192648
0.932264,0.1920849,0.3714612,0.00198695,-0.003289221,0.001209138,0.006040304,0.01006641,-0.001378448
0.9302509,0.195221,0.3660285,-2.212721e-05,-0.0001064821,-0.004227835,0.003345747,0.01143331,-0.002075366
0.9286597,0.1964598,0.3595844,-0.001607947,0.001177704,-0.0106765,0.002623136,0.01159121,-2.053971e-05
0.9277057,0.1935382,0.3625564,-0.002555384,-0.001699567,-0.007709223,-0.001866427,0.009191519,-0.0004157801
0.9255182,0.1926287,0.3650516,-0.004735177,-0.002565953,-0.005218187,-6.455982e-05,0.002688051,-0.003061349
0.926631,0.1934513,0.3669842,-0.003613361,-0.001701279,-0.003289023,0.002492212,0.005540976,-0.005488373
0.9289016,0.1960005,0.3754965,-0.001332452,0.0008888697,0.005220682,0.002224886,0.008192872,-0.000700544
0.9299969,0.1980086,0.3759333,-0.0002254969,0.002936782,0.005655656,0.00504528,0.003891823,0.005296224
0.929885,0.1973045,0.3712366,-0.0003244684,0.002271327,0.0009576873,0.004123444,0.003126372,0.002856129
0.9269767,0.1969309,0.3724676,-0.00321872,0.001935036,0.00218776,0.003485861,-0.001522435,-0.000227372
0.9254707,0.1973073,0.3706787,-0.004709465,0.002347347,0.0003981536,0.006557223,-0.006495275,-0.0008599812
0.9267488,0.1971719,0.3703928,-0.003414977,0.002246199,0.0001116983,0.007536742,-0.001011851,-0.0005584754
0.9264859,0.1961717,0.3745583,-0.00366016,0.00127869,0.004276698,0.008665629,0.00297505,0.003238663
0.9261247,0.195592,0.3753367,-0.004002313,0.0007299015,0.005054495,0.009649258,-0.001174242,0.006243212
0.9266143,0.1958499,0.3746442,-0.003492302,0.001017078,0.004361245,0.01096172,-0.00341979,0.005806887
0.9268202,0.1951294,0.3721796,-0.00326458,0.0003240484,0.001895285,0.01253796,-0.0004076033,0.005953185
0.9290569,0.1923152,0.3698388,-0.001004565,-0.002464345,-0.0004473504,0.01134938,0.0009313144,0.005659678
0.9314555,0.1891093,0.3708949,0.0014185,-0.005645954,0.000606379,0.01141805,0.001980419,-0.0003660839
0.9307783,0.18987,0.3714852,0.0007670633,-0.004862395,0.001193687,0.01125284,0.005267295,-0.009149175
0.9300059,0.191541,0.3724054,2.138104e-05,-0.003169554,0.002110398,0.008199856,0.005744073,-0.01084892
0.9308314,0.1924072,0.3741946,0.0008744589,-0.002282381,0.003895461,0.006127971,0.006600958,-0.006308575
0.9303121,0.1980394,0.3738729,0.0003833133,0.003370162,0.003568999,0.005466498,0.007367869,-0.004589481
0.9284588,0.2016159,0.3738804,-0.001441245,0.006966126,0.003570839,0.006305903,0.001000818,-0.004943612
0.9282049,0.1973637,0.3773585,-0.00166605,0.002732561,0.007042353,0.006665827,-0.004379736,-0.006315363
0.9310731,0.1933995,0.3787992,0.001231686,-0.001214231,0.008475402,0.005073025,-0.000753192,-0.009276525
0.9343539,0.1928147,0.3712737,0.004542224,-0.001782859,0.000940835,0.003397273,0.002456231,-0.004591517
0.9318154,0.1938208,0.363581,0.00203343,-0.0007616403,-0.006762331,0.001621304,-8.54395e-05,0.00202283
0.9281848,0.1948235,0.3671684,-0.001567561,0.0002552112,-0.003186643,0.0017008,0.0002291632,-0.001272081
0.9299406,0.1933618,0.3739192,0.0002175566,-0.001193295,0.003551499,0.002957768,0.003719128,-0.004138497
0.9288276,0.1917635,0.3747406,-0.0008665319,-0.002779186,0.004359501,0.003156699,0.004174849,-0.005985503
0.9241248,0.1926505,0.3717724,-0.00554065,-0.001880617,0.001376898,0.00354862,0.002433787,-0.01097189
0.9235402,0.1942218,0.3671585,-0.006096789,-0.0002983847,-0.003252193,0.003925094,0.001124646,-0.00829278
0.9271769,0.1946598,0.3669829,-0.002431655,0.0001500916,-0.003443646,0.005007181,0.005826767,-0.003372454
0.9308261,0.1934889,0.3694939,0.00124603,-0.001010945,-0.0009490861,0.006022712,0.01173955,-0.003628814
0.9302391,0.1925947,0.3669885,0.000687489,-0.00189565,-0.003471307,0.004604639,0.008796856,-0.002457029
0.9299031,0.1931669,0.3659947,0.0003800606,-0.001314416,-0.004481908,0.002704975,0.005758754,-8.43483e-05
0.9314043,0.1931662,0.3663387,0.001909541,-0.001306463,-0.004154626,0.002350015,0.005424143,0.001395637
0.9298123,0.1921869,0.3677108,0.0003455827,-0.002277275,-0.002798814,0.003167799,0.003394964,-0.001250063
0.928576,0.1895834,0.3728423,-0.0008629885,-0.004872454,0.002316832,0.004083476,0.005352214,-0.005891821
0.9281036,0.1867394,0.3706032,-0.001308192,-0.007708035,6.255328e-05,0.003289213,0.008082098,-0.003349002
0.9290387,0.1891878,0.3667055,-0.000346212,-0.005251008,-0.003849776,0.0002897824,0.006992381,-0.0009378916
0.9326458,0.1934937,0.3666387,0.003287281,-0.0009358847,-0.003930518,-0.000648742,0.00476204,-0.003565824
0.931581,0.1933561,0.3638133,0.002248276,-0.001063523,-0.006768927,0.0009548267,0.005052762,-0.004456332
0.9277058,0.1930761,0.3660246,-0.001601795,-0.001332976,-0.004569642,0.0001215055,0.01052072,-0.005703423
0.9260228,0.1945518,0.3709616,-0.003260286,0.0001539566,0.0003566309,0.0002962443,0.01270417,-0.005929739
0.9266155,0.1935675,0.371611,-0.002643776,-0.0008185778,0.0009965765,0.00348464,0.007623398,-0.005225395
0.929349,0.1907162,0.370699,0.0001130314,-0.003657529,7.647612e-05,0.00605818,0.003861221,-0.007734407
0.9298832,0.1892336,0.3704924,0.0006700559,-0.005127077,-0.0001370452,0.007213529,0.005006396,-0.007731417
0.9297597,0.1895673,0.3725092,0.0005687846,-0.004779711,0.00187385,0.0036499,0.006724947,-0.004248668
0.9295014,0.1917911,0.373352,0.0003323026,-0.002541317,0.002711792,-0.0001542393,0.005561729,-0.0008436506
0.9282819,0.1965532,0.3745966,-0.000866133,0.002236377,0.003952302,-0.0003955426,0.005796088,-0.001314435
0.9297646,0.1985099,0.3757587,0.0006370922,0.004209423,0.005110936,-0.00326469,0.004973633,-0.006737342
0.9289007,0.1954723,0.3744415,-0.0002068541,0.001188864,0.003790632,-0.004396339,0.0004236571,-0.009466881
0.9270965,0.1941523,0.3752085,-0.001991731,-0.0001137626,0.004554569,-0.001307811,0.0008880107,-0.008584091
0.9283952,0.1926676,0.3742353,-0.0006743021,-0.001580737,0.003578151,0.0009456703,0.003142126,-0.00644766
0.9293683,0.1897772,0.3698225,0.0003168769,-0.004453263,-0.0008380925,0.002399448,0.003236896,-0.00505415
0.9312476,0.1901824,0.365324,0.002213886,-0.004029743,-0.005340421,0.001053207,0.004698807,-0.006859702
0.9304641,0.1904769,0.3654786,0.001447363,-0.003716395,-0.005189685,-0.002099426,0.005571833,-0.007527332
0.9280451,0.1904512,0.37445,-0.0009552938,-0.003722797,0.003777816,-0.002976997,0.006263963,-0.007171586
0.927889,0.1924055,0.3809397,-0.00109576,-0.001748461,0.0102638,-0.00174201,0.006759111,-0.00752958
0.9272587,0.1948925,0.3781429,-0.001711073,0.0007593082,0.007463005,-0.0004654928,0.00726139,-0.007498933
0.9281097,0.1976973,0.3727679,-0.0008456026,0.00358549,0.002083462,0.0009595269,0.007082422,-0.006512774
0.9282793,0.1983973,0.3705311,-0.0006620173,0.004307201,-0.000158682,0.003616658,0.005164694,-0.004305309
0.9290561,0.1951056,0.3717556,0.000128174,0.001037415,0.001059729,0.002193784,0.004844032,-0.004706515
0.931664,0.1909354,0.3724289,0.002749088,-0.00311093,0.001726187,-0.0007838177,0.005970762,-0.006431127
0.9304316,0.1920225,0.3722456,0.001529158,-0.002002042,0.001535247,0.001215652,0.007858404,-0.006156946
0.9301327,0.1952506,0.3711529,0.001242102,0.001247882,0.0004341901,0.000982406,0.006480211,-0.003178377
0.9310553,0.1939276,0.370445,0.002175842,-5.342956e-05,-0.000282744,-0.0001715255,0.003318602,0.001287361
0.9300452,0.1922614,0.3710833,0.00117609,-0.001697943,0.0003458466,0.002206796,0.003597246,-0.00031099
0.9299564,0.1906497,0.3706716,0.001096894,-0.003288154,-7.616318e-05,0.002196272,0.0005059079,-0.005284641
0.9300137,0.1895447,0.3708996,0.001162886,-0.004371668,0.0001410564,0.0009970924,0.0006646014,-0.006587415
0.9314817,0.1919146,0.37126,0.002638755,-0.001980197,0.0004901644,0.0004261706,0.006532345,-0.00662711
0.932683,0.1928253,0.3722395,0.003846899,-0.001047794,0.001458064,0.00140971,0.004725531,-0.005628443
0.9316175,0.1930523,0.3735248,0.002787281,-0.0007988595,0.002731263,0.003676,0.002501506,-0.004335989
0.931335,0.1934374,0.3719503,0.002509456,-0.0003917661,0.001144228,0.002691673,0.003477634,-0.00388092
0.9293299,0.1931427,0.3714201,0.0005078843,-0.0006642313,0.0006010699,0.001901516,0.002753854,-0.003803432
0.9258577,0.1959703,0.3718221,-0.002961971,0.00218568,0.0009896826,0.001346645,0.002267948,-0.004584963
0.9258763,0.1977482,0.3729717,-0.002942089,0.003985709,0.002125428,-0.0007154056,0.0005873814,-0.004251645
0.9274785,0.1953009,0.3767716,-0.00133949,0.00156037,0.005911013,-0.0001511794,0.002256382,-0.0043141
0.9286995,0.192706,0.3765557,-0.000118787,-0.001012926,0.005680251,0.0004633679,0.003296346,-0.004795578
0.9305127,0.1926521,0.3733933,0.001693515,-0.001045716,0.002502129,0.00118778,-0.002345711,-0.002429348
0.9303858,0.1935395,0.3710445,0.001565216,-0.000137613,0.0001368143,0.003672001,-0.005642685,-0.001748423
0.9298834,0.1926421,0.3667492,0.00106063,-0.001014746,-0.004175735,0.002790596,-0.00291652,-0.006801931
0.9310548,0.1920844,0.367837,0.002229388,-0.001552603,-0.003105914,-0.002487561,0.002771252,-0.01188128
0.9293888,0.1922121,0.3742351,0.0005599392,-0.001405507,0.003273797,-0.00678842,0.005769953,-0.009916857
0.9273731,0.1949943,0.3753174,-0.001459879,0.001395843,0.00433745,-0.003902651,0.005738574,-0.006239684
0.9271119,0.2024225,0.3743198,-0.001725639,0.008842699,0.003320719,0.0006246378,0.005110493,-0.007175057
0.9263651,0.2054632,0.3733372,-0.002477598,0.01190133,0.002318515,-0.0006680236,0.003198177,-0.006654472
0.9290701,0.2000785,0.3724469,0.000222028,0.006533398,0.001408068,0.000134465,0.00441252,-0.005811817
0.9317525,0.1923151,0.3718489,0.002898683,-0.001214818,0.0007893404,0.001802989,0.006580143,-0.008017869
0.9300666,0.1883156,0.3684683,0.001206919,-0.005200652,-0.002612558,-0.001568534,0.006928168,-0.007787089
0.9284402,0.1896479,0.3709168,-0.0004257751,-0.003856133,-0.0001856869,-0.002131561,0.007344715,-0.005792309
0.9273155,0.1912173,0.3755124,-0.001557021,-0.002275674,0.004388009,-0.001203076,0.009752002,-0.003558662
0.9262695,0.1917644,0.3756689,-0.002609735,-0.001718429,0.004522255,-0.00158324,0.01351859,-0.002253961
0.9246676,0.1933022,0.3786808,-0.004218464,-0.0001712637,0.007511607,0.0001778224,0.009967339,-0.00513059
0.9231698,0.195127,0.3780492,-0.005722958,0.001662183,0.006856643,0.0005994078,0.004409733,-0.006254085
0.9253396,0.1970413,0.3748516,-0.003559384,0.003584295,0.003634905,-0.0001195347,0.002672414,-0.003240656
0.927381,0.1970763,0.3752767,-0.001523701,0.003626413,0.00403488,-0.0003854529,0.002151841,-0.002210585
0.9262534,0.1955196,0.3749261,-0.002656297,0.002075784,0.003658007,0.0004938491,0.005492207,-0.0008400003
0.9260353,0.1952719,0.377112,-0.002878551,0.001833156,0.005816508,0.002565068,0.005996214,0.0009749547
0.9272888,0.1954709,0.3793054,-0.001628369,0.002036169,0.007981257,0.002807726,0.005477091,0.0007561272
0.9289372,0.1971103,0.3782616,1.765639e-05,0.003678347,0.00690745,0.003891138,0.002979571,0.002214911
0.9312702,0.1980601,0.3776443,0.002349225,0.004629764,0.006258455,0.00491988,-0.003709553,-0.001588876
0.931089,0.1946527,0.3774657,0.002167321,0.001222746,0.006046502,0.00415201,0.00164797,-0.006871046
0.9297498,0.1937245,0.3771956,0.0008280652,0.0002934383,0.005741192,0.003751374,0.007195163,-0.001352012
0.9307518,0.1953934,0.3729355,0.001830507,0.001959972,0.001443954,0.001622814,0.003840579,0.002391334
0.9294848,0.1958378,0.3674158,0.0005643952,0.002400755,-0.004114641,0.001100305,0.004728114,0.001277093
0.926629,0.1979157,0.3680564,-0.002290169,0.004473639,-0.003514478,0.004040426,0.003730678,0.003060874
0.9267119,0.1975602,0.3723703,-0.002205703,0.00411188,0.0007578421,0.004917119,0.002463182,0.002244047
0.9288789,0.1962941,0.3753694,-3.68093e-05,0.002837936,0.00371436,0.00180071,0.003747383,-0.0002807003
0.9315818,0.1969277,0.3747296,0.002668487,0.003462312,0.003031217,-0.001110031,0.001359499,-0.001259837
0.9312741,0.1955349,0.3751713,0.002363467,0.00205867,0.003428785,0.002425565,0.0008230802,-0.002160663
0.9314465,0.1964587,0.3824778,0.002538651,0.002970104,0.01069038,0.006166104,0.00302997,-0.003457061
0.9341485,0.1982361,0.3878232,0.005243475,0.004733584,0.01598968,0.004266769,0.002957354,-0.004167593
0.9317003,0.1977645,0.3820014,0.002798018,0.004246514,0.01012041,0.005470318,-9.731901e-05,-0.003698027
0.9292159,0.1981414,0.3761408,0.0003158717,0.004606318,0.00421052,0.006855713,-0.002792709,-0.004752127
0.9308762,0.1953269,0.3787077,0.0019781,0.001772957,0.006726224,-0.0008401593,-0.002319549,-0.007465286
0.9297987,0.1915778,0.3785936,0.0009019096,-0.001996685,0.006558795,-0.009532738,-0.0001216518,-0.009678621
0.9285431,0.1930217,0.3760784,-0.0003528239,-0.0005747775,0.003988302,-0.009538465,0.00338765,-0.009786899
0.9293456,0.1951332,0.3764256,0.0004500778,0.001513425,0.004278189,-0.004574553,0.007805224,-0.007442571
0.9292484,0.1959799,0.3725605,0.0003527521,0.00233571,0.0003539207,0.0004658869,0.009652213,-0.004846428
0.9292349,0.1976528,0.369564,0.0003387813,0.003982984,-0.00270354,0.005400635,0.008770949,-0.00286466
0.9302714,0.1956677,0.3697114,0.001374222,0.00197129,-0.002618356,0.005905257,0.008771012,-0.0006402637
0.9315789,0.1894694,0.3675339,0.002680345,-0.004254777,-0.004859182,0.003672499,0.008516352,0.0001911886
0.9310264,0.1867259,0.3695521,0.002125868,-0.007026839,-0.002904755,0.003403911,0.009991878,-0.001456513
0.9284076,0.189986,0.3721784,-0.0004954875,-0.00379585,-0.00034247,0.001415719,0.01298051,-0.0008703469
0.9274105,0.194654,0.3703738,-0.001495762,0.0008430197,-0.002210895,0.004905875,0.00971363,-3.978753e-05
0.9296422,0.1961348,0.3704931,0.0007323142,0.00229471,-0.002155088,0.0119231,0.006539072,-0.002937711
0.931394,0.1969339,0.3702895,0.002480072,0.003064753,-0.002421525,0.008678665,0.006858968,-0.003633758
0.9304873,0.1973464,0.3687205,0.001568863,0.003448257,-0.004052506,0.005885799,0.003117288,-0.004211006
0.9296873,0.194987,0.368031,0.0007638177,0.001059736,-0.004802822,0.005468529,0.0001020409,-0.002758292
0.9281868,0.1965494,0.3653057,-0.0007422542,0.002592943,-0.007587437,0.0009099065,0.001249945,0.005206171
0.9254694,0.1980615,0.3633474,-0.003465646,0.004075741,-0.009603194,0.00171048,0.001527897,0.006733536
0.9261593,0.1946048,0.3664714,-0.002782,0.0005895111,-0.006534383,0.002781484,-0.0003142509,0.003500863
0.9284245,0.194495,0.3694683,-0.0005233204,0.0004501058,-0.003589987,0.0001901708,-0.001929735,0.003263073
0.9294035,0.1962804,0.3683116,0.0004492902,0.002205629,-0.004796354,-0.001351368,-0.002431917,0.002281938
0.9311224,0.1971184,0.3692246,0.002161683,0.003013598,-0.003929909,-0.002601624,-0.001484605,0.003236451
0.9309541,0.1950844,0.371983,0.001986841,0.0009494773,-0.001214982,0.001271948,-0.000439665,0.004491966
0.9298513,0.1915839,0.3720675,0.000877408,-0.002581282,-0.001170688,0.004535927,-0.002370091,0.005647182
0.9309813,0.1941099,0.3765274,0.002000685,-8.56188e-05,0.003252125,0.003315847,-0.002078906,0.006275377
0.9305959,0.1952525,0.3829898,0.001608258,0.001026813,0.009680236,0.006374619,0.001555114,0.004192025
0.9303667,0.1928415,0.3809235,0.001371734,-0.001414295,0.00758221,0.01018508,0.003022262,0.004437626
0.9318755,0.1934152,0.3779177,0.002872955,-0.0008703059,0.004546645,0.01068351,0.003507366,0.003099159
0.9319542,0.1947717,0.3789757,0.002943728,0.0004567386,0.005576507,0.008120719,0.003992826,0.001645299
0.9317051,0.1962232,0.3770989,0.002686125,0.001879177,0.003672942,0.00395279,0.005205227,0.003219294
0.9301462,0.1947312,0.375381,0.001118233,0.0003586787,0.001929262,0.003681317,0.001946355,0.003110415
0.9286237,0.1904995,0.3753136,-0.0004138495,-0.003901258,0.001837009,0.004343762,-0.004259691,0.005106546
0.9301153,0.1879982,0.3744534,0.001067617,-0.006430011,0.0009527941,0.003216005,-0.001365706,0.005276287
0.9308576,0.18732,0.3755532,0.001799383,-0.007134987,0.002029239,0.002332574,0.003491129,0.003595638
0.9296095,0.1904408,0.3729764,0.0005401553,-0.004039634,-0.0005702834,0.000554738,0.003885281,0.005525195
0.9287269,0.1937592,0.3674332,-0.0003541008,-0.0007453358,-0.006135464,-0.002741201,-0.0002211609,0.003440992
0.9295336,0.1928458,0.3683624,0.0004406127,-0.001681174,-0.005227347,-0.006011775,-0.006967357,-0.002715525
0.931206,0.1906349,0.3729917,0.002100519,-0.003913006,-0.0006180519,-0.006106639,-0.002166611,-0.008102688
0.932227,0.1880749,0.375889,0.003108677,-0.006492243,0.002260353,-0.003634584,0.004029289,-0.00867538
0.9322796,0.1872907,0.3735249,0.003148071,-0.007293803,-0.0001215063,-0.00152928,0.001222087,-0.008108365
0.931575,0.1903242,0.369749,0.002429599,-0.004275516,-0.003913982,-0.0009516722,0.003992507,-0.01280783
0.9316379,0.1928961,0.3714874,0.002478145,-0.001716507,-0.002190983,-0.001968829,0.007105924,-0.009635438
0.930235,0.1931634,0.3738982,0.001060166,-0.001459838,0.0002055851,-0.002173941,0.004758903,-0.002259981
0.9273789,0.1960048,0.3753124,-0.001811581,0.001373189,0.001606803,-0.002362812,0.004445816,-0.00198918
0.9275202,0.2012147,0.375689,-0.001686487,0.006576789,0.001971558,-0.002695673,0.005069816,0.000250178
0.9278994,0.2015855,0.3738938,-0.001323929,0.006943056,0.0001655115,-0.001397667,0.006476928,0.0002407403
0.9267085,0.197371,0.3734288,-0.002531578,0.002725458,-0.0003093733,-0.001685266,0.00658686,-0.002302347
0.9270775,0.193868,0.3720091,-0.00217945,-0.0007796487,-0.001738026,-0.004321877,0.00401883,-0.003321853
0.9307349,0.1909013,0.371092,0.001461197,-0.003747522,-0.002663253,-0.005712234,0.001520016,-0.007681105
0.9345367,0.1869833,0.3712894,0.005246382,-0.007665733,-0.002472931,-0.0007993578,0.0004217307,-0.006231131
0.9318312,0.1845527,0.3691039,0.002524277,-0.01009532,-0.004664535,0.007376788,0.003902526,-0.001430182
0.9281638,0.184938,0.3716496,-0.001159873,-0.009707516,-0.002123796,0.008227468,0.006158466,-0.00160293
0.9297279,0.1851935,0.375415,0.0003874425,-0.009447634,0.001637917,0.006112602,0.005504715,-0.003607214
0.9285062,0.1885375,0.373922,-0.0008510743,-0.006096978,0.0001424168,0.006752139,0.00578224,-0.008401819
0.9249885,0.1973223,0.3767075,-0.004385515,0.002696938,0.002926563,0.005359512,-0.001728432,-0.008863509
0.925328,0.2012845,0.3807226,-0.004062634,0.006670529,0.006941036,0.004220363,-0.007271903,-0.005687796
0.9257263,0.1954012,0.3779415,-0.003680401,0.0008004984,0.004160009,0.003024682,0.0002593722,-0.005408961
0.9264372,0.1888555,0.374965,-0.002984915,-0.005730296,0.001183942,-0.0005883851,0.004591332,-0.001460107
0.9294463,0.1897207,0.374186,9.477103e-06,-0.004848622,0.000405394,-0.000601619,0.002205676,0.001761891
0.9297768,0.1910476,0.3711948,0.0003261838,-0.003503535,-0.002585158,0.0008626418,0.0003491539,-0.0002462968
0.9283939,0.1876889,0.3676569,-0.00106963,-0.006842413,-0.006122373,-0.001523925,0.0002754307,-0.002326703
0.9286778,0.1874529,0.3685119,-0.0007977409,-0.007056846,-0.005266281,-0.00233715,0.0008763137,-0.004818898
0.9285249,0.1894907,0.371579,-0.0009618592,-0.004995482,-0.002197486,-0.0003288616,-1.698625e-05,-0.00719467
0.9293961,0.1909472,0.3724873,-0.0001010081,-0.003513313,-0.001286856,0.000321025,0.0001281308,-0.006534409
0.9315311,0.1926106,0.3722347,0.002024545,-0.001822326,-0.001536307,0.0009919832,-0.001419571,-0.003442608
0.9320656,0.1927108,0.3715948,0.002550263,-0.001692529,-0.002172302,-3.368105e-05,-0.003280418,-0.003524097
0.9321683,0.1926724,0.3718256,0.002644948,-0.001699535,-0.001936778,-0.002874425,-0.001999237,-0.003772777
0.9316634,0.1912314,0.3728699,0.002132453,-0.003107363,-0.0008869213,-0.00253496,-0.002280264,-0.0007022053
0.9308668,0.1913593,0.3721928,0.00132859,-0.002944741,-0.001557702,-0.002399788,-0.002368641,-0.002285289
0.9306128,0.1932438,0.3722748,0.001067602,-0.001023893,-0.001468463,-0.00377418,-0.002490152,-0.003205631
0.9302017,0.1919828,0.3720628,0.0006496185,-0.002247152,-0.001672474,-0.003921492,-0.003532366,-0.001588667
0.9307894,0.1924914,0.3701748,0.00123071,-0.001699468,-0.003551604,-0.003870063,-0.003227998,-0.002878201
0.9306392,0.1934004,0.3722541,0.001073903,-0.0007501792,-0.001462576,-0.002564687,-0.001822217,-0.002195815
0.9302337,0.1928685,0.3734318,0.0006618824,-0.001240713,-0.0002742528,-0.001358273,0.0008944908,-0.006084214
0.9309039,0.1931249,0.3709893,0.001325604,-0.0009420743,-0.002705265,-0.0004120128,0.001453699,-0.01063131
0.9300106,0.1918808,0.3715745,0.0004257583,-0.002142999,-0.002107684,0.0006113033,0.002919385,-0.006447088
0.9287262,0.1915474,0.3710202,-0.0008651067,-0.002432505,-0.00264884,3.540998e-05,0.008356045,-0.004663938
0.9274549,0.1920025,0.3700181,-0.002142911,-0.001932843,-0.003636794,0.0002771186,0.01190389,-0.00586624
0.9274627,0.1937191,0.3715679,-0.002141587,-0.0001711862,-0.002071945,-0.0002912517,0.01227755,-0.005486752
0.92912,0.1970473,0.3709514,-0.000490444,0.003202662,-0.002672337,-0.001220186,0.008586883,-0.004817282
0.9282746,0.1976599,0.3723574,-0.001341835,0.003861067,-0.001249283,-0.0001029835,0.002547266,-0.005074714
0.927447,0.1966786,0.374669,-0.002175014,0.002925472,0.00108029,0.0005488794,-1.772491e-05,-0.006315779
0.9278716,0.1940082,0.3735413,-0.001755668,0.0003005267,-2.861368e-05,0.001522005,0.001859298,-0.003814649
0.9278749,0.1905013,0.3743021,-0.001757062,-0.003161448,0.0007517861,0.0006081797,0.003747244,-0.0008851597
0.9295183,0.1895823,0.3762654,-0.000117788,-0.004036077,0.002735289,-0.001044152,0.001516583,-0.001544819
0.9329024,0.1900417,0.3786714,0.003262718,-0.003532704,0.005161786,0.001355689,0.0001891942,-0.003758052
0.9359199,0.1888375,0.3824129,0.006277014,-0.004693339,0.008923903,0.002233077,0.0007829803,-0.00580215
0.9345359,0.1869188,0.3825529,0.004889989,-0.006568702,0.009084224,-0.001163711,-0.000447332,-0.007097025
0.9311123,0.1895668,0.3798194,0.001463342,-0.003877299,0.006370274,-0.005030311,8.520651e-06,-0.007334358
0.930545,0.1931998,0.3775359,0.000892702,-0.0002009196,0.004105108,-0.006203657,-6.292528e-05,-0.005411343
0.9310967,0.1934382,0.3750809,0.00144087,8.091954e-05,0.001667101,-0.004163719,-0.001248943,-0.004573408
0.9322587,0.1939919,0.3750972,0.002598943,0.0006780909,0.001698824,-0.001106362,-0.0001954276,-0.003182071
0.9313582,0.1945832,0.3774621,0.00169418,0.001312659,0.004077599,0.002113418,-0.0009034726,-0.002489884
0.9297935,0.1943941,0.3773244,0.0001248177,0.001166541,0.00395215,0.001988447,-0.002372758,-0.005081697
0.9318451,0.1934842,0.3778248,0.002171214,0.0002990413,0.004463063,0.0002596852,-0.002098553,-0.003658446
0.9318124,0.1926622,0.3802637,0.002132892,-0.0004810711,0.006910628,0.002062586,0.0002193546,-0.003095002
0.9289644,0.1931755,0.3806159,-0.0007212375,7.344545e-05,0.00726939,0.001731594,0.003451483,-0.003792301
0.9273519,0.1930823,0.379886,-0.002340368,2.074813e-05,0.00654379,0.0001978404,0.002034272,-0.001349301
0.9281917,0.1931647,0.3758659,-0.001507556,0.0001429451,0.002525564,0.002632583,-0.0003292451,-0.0006148792
0.9301432,0.1942072,0.3710784,0.0004366868,0.001224308,-0.002262543,0.002894186,-0.001745599,0.003295513
0.9291765,0.1955231,0.3711192,-0.0005374866,0.0025781,-0.002224712,0.001723935,-0.005602639,0.007755042
0.9295912,0.1959408,0.3689283,-0.0001303994,0.003032707,-0.004420655,0.001555821,-0.005530261,0.008375014
0.9316463,0.1935301,0.3638634,0.001917049,0.0006576585,-0.009492202,-0.001122413,-0.004188729,0.006145978
0.9313057,0.1906283,0.365522,0.001568736,-0.002209819,-0.007841593,-0.002272832,-0.00607949,-0.001601908
0.9329663,0.1897052,0.3730197,0.003221366,-0.003099723,-0.0003525094,-0.004571081,-0.004455898,-0.008044288
0.9338806,0.190325,0.3772424,0.004127441,-0.002447953,0.003861091,-0.01030179,-0.003212553,-0.01054689
0.9312914,0.191096,0.3750773,0.001529679,-0.001645993,0.001686399,-0.009891835,-0.004218401,-0.006261112
0.9281969,0.1926785,0.3699406,-0.001573877,-3.347104e-05,-0.003460273,-0.006513091,-0.002526569,0.0004030604
0.9258264,0.1955326,0.3672649,-0.003953809,0.002849694,-0.006146399,-0.004777802,-0.002637011,-0.001952196
0.929044,0.1955823,0.3692219,-0.0007459622,0.002927476,-0.004199778,-0.002824494,-0.002104897,-0.001757142
0.9340325,0.1942126,0.3699662,0.004232721,0.001584836,-0.003465752,-0.002172726,0.001377996,0.000127793
0.9333024,0.1938695,0.3690573,0.003492666,0.001267523,-0.004384514,0.0004005642,0.001463132,-0.002573064
0.9311209,0.1919759,0.3695018,0.001300939,-0.000601627,-0.003949295,0.001016676,0.00152422,-0.003625947
0.9299187,0.1907345,0.3684572,8.815534e-05,-0.001819764,-0.005002283,-0.001165602,0.004635908,-0.007867629
0.9282911,0.1914908,0.3680863,-0.001550377,-0.001041394,-0.005380657,0.0005198265,0.007052777,-0.00873908
0.9267161,0.1943114,0.3699139,-0.003136488,0.0018001,-0.003559272,0.0003169082,0.005559253,-0.004975855
0.9257927,0.197612,0.3713509,-0.004071188,0.005120532,-0.002127037,-0.00113573,0.001205342,-0.004023446
0.9270566,0.196936,0.3707906,-0.00281836,0.004463051,-0.002690797,-0.001088868,0.0002076533,-0.002731197
0.9293624,0.1958156,0.3688504,-0.0005233321,0.00335981,-0.004632917,-0.002850965,0.0009281219,-0.00255411
0.9307963,0.1938969,0.3695807,0.0009002138,0.001456644,-0.003902971,-0.00155099,-0.0003043392,0.0006714867
0.9298576,0.1900506,0.371287,-4.843085e-05,-0.002375739,-0.002195346,9.498288e-05,-0.0005385292,0.001999623
0.9265145,0.1900597,0.3710854,-0.003401012,-0.00235418,-0.002393975,-0.00186823,0.001127625,-0.0007741281
0.9263539,0.1904404,0.370599,-0.003570614,-0.001962411,-0.002875678,-0.002799731,0.002448787,0.001804573
0.9296365,0.1900556,0.3707495,-0.0002964469,-0.002337281,-0.002718806,-0.003950737,0.0009440548,0.0009600596
0.9322293,0.190963,0.3709348,0.002288598,-0.001420973,-0.002525442,-0.005273948,-0.0002662258,-2.354209e-05
0.9335174,0.1917451,0.3697206,0.003569581,-0.0006307919,-0.003729897,-0.00497161,0.0008935404,0.00206851
0.9325982,0.1937539,0.3691691,0.00264383,0.00138524,-0.004269978,-0.003998105,0.00217785,-0.002101434
0.9303403,0.1933598,0.36991,0.0003795822,0.0009976985,-0.003515936,-0.002308533,0.005385216,-0.005213887
0.9268014,0.192353,0.3711423,-0.003165401,-3.380271e-06,-0.00226867,-0.002013928,0.00758212,-0.003770847
0.9254822,0.1936072,0.3732437,-0.004490362,0.001255876,-0.0001505216,-0.0004168401,0.004484266,-0.00164414
0.9290839,0.1928809,0.3741334,-0.0008940071,0.0005338983,0.0007575255,0.004013878,0.0001405982,-0.001468056
0.9309974,0.1928957,0.3751156,0.001014733,0.0005522325,0.001759496,0.005424266,-0.002065384,-0.0001607812
0.9323117,0.1933792,0.375015,0.002324805,0.001038547,0.001679938,0.006823825,-0.002755818,0.002630027
0.9341708,0.1927453,0.3714349,0.004180047,0.0004067103,-0.001878153,0.01024521,-0.002050575,0.0022077
0.9326208,0.1932376,0.3683715,0.002626555,0.0009003206,-0.004918572,0.01107097,0.0002834457,0.003946159
0.9304813,0.1930346,0.3675802,0.0004835957,0.0006979494,-0.005685852,0.01183374,0.0006382959,6.517456e-05
0.9284043,0.1931278,0.3693687,-0.001596873,0.0007912082,-0.003872458,0.01276638,-0.00478734,-0.00680749
0.9277706,0.1941131,0.3718815,-0.002233963,0.001775717,-0.001333467,0.01157224,-0.01019541,-0.003120289
0.9286077,0.193853,0.3726388,-0.001400025,0.00151421,-0.0005489486,0.008464949,-0.007114668,-0.002576358
0.9292526,0.1910653,0.373302,-0.0007581558,-0.00127566,0.0001424833,0.0034773,-0.002039214,-0.003508854
0.9321105,0.1879394,0.3738469,0.002096904,-0.004404262,0.0007165745,0.0002137803,-0.002204672,0.002025987
0.9325196,0.1902915,0.37406,0.002503454,-0.0020554,0.0009596135,-0.0004840928,-0.001110722,0.004918991
0.9299648,0.1929989,0.3729704,-5.377994e-05,0.0006483944,-9.961784e-05,0.003280694,-0.0002391365,0.004453705
0.9291741,0.1903753,0.3717402,-0.0008468456,-0.001978847,-0.001298946,0.01099454,-0.001288176,0.0006281577
0.9290033,0.1895765,0.3738185,-0.001019983,-0.002781565,0.0008105908,0.01129583,0.001842508,-0.002082013
0.9307761,0.1909803,0.3744725,0.000750615,-0.0013816,0.001495965,0.006349179,0.004705718,0.000287844
0.9314164,0.1909828,0.3728497,0.001388836,-0.001382836,-9.53479e-05,0.005116654,0.005116621,0.00171552
0.9296934,0.1918696,0.3739409,-0.0003362117,-0.0004995976,0.001027229,0.004446106,0.004624753,-1.004438e-05
0.9306351,0.191964,0.3746664,0.0006035188,-0.0004085349,0.001783908,0.003753883,0.002176586,-0.001785615
0.9299977,0.1918034,0.3728456,-3.583814e-05,-0.0005721111,-5.92848e-06,0.003190098,-0.0005114111,-0.001198989
0.9281334,0.194744,0.3683679,-0.001902088,0.00236563,-0.004453034,0.002507327,-0.003826498,-0.0004940436
0.928806,0.1973881,0.3636866,-0.001231332,0.005007083,-0.009104092,0.002474942,-0.004780085,0.002101402
0.9290021,0.1962128,0.3674085,-0.001036955,0.003829162,-0.005351965,0.001478894,-0.003394523,0.006086213
0.931734,0.1923816,0.3745289,0.001693433,-4.842529e-06,0.001798773,0.001724488,-0.002891568,0.004786578
0.9347696,0.189826,0.3756174,0.004727696,-0.002563485,0.002917704,0.001601671,-0.001428611,0.00257926
0.9327772,0.190844,0.3749435,0.002733885,-0.001548615,0.002274361,-0.0001863809,-0.001334243,0.003126572
0.931052,0.1942135,0.3739384,0.001007169,0.001817501,0.001299549,0.0008697518,-0.001358495,0.003245419
0.9305373,0.1975761,0.3731458,0.0004906626,0.005176709,0.0005369145,0.004949442,0.0008193895,0.003804089
0.9295698,0.1961221,0.3741279,-0.0004788555,0.003719142,0.001548473,0.009207983,0.001401084,0.005812093
0.9287708,0.1903833,0.3743367,-0.001280178,-0.002023696,0.001786157,0.008618629,-7.952577e-06,0.008832254
0.9282429,0.1879995,0.3750646,-0.00181055,-0.00441186,0.002542228,0.005571088,-0.002035278,0.009049457
0.9307897,0.1911031,0.3740651,0.0007337571,-0.001312893,0.001570136,0.005209568,-0.00264951,0.004939028
0.9316342,0.1954475,0.3710455,0.001575615,0.003026816,-0.001423103,0.002857203,-0.003251194,0.005041771
0.9285519,0.1962415,0.3709014,-0.001509398,0.003815978,-0.001541692,-0.0002587652,-0.004975615,0.008237805
0.9290627,0.1937905,0.3727144,-0.001001364,0.001359975,0.0002958373,-0.00112268,-0.004793261,0.005738695
0.9296889,0.1924478,0.3750105,-0.0003779936,1.196287e-05,0.002615662,-0.0002894668,-0.004349832,0.005548955
0.9285273,0.1929638,0.3748231,-0.00154228,0.0005223336,0.002450944,0.002583064,-0.002887796,0.00880857
0.9297839,0.1933933,0.3731463,-0.0002883883,0.0009457999,0.0007958321,0.003523048,-0.0009975753,0.007597657
0.9303586,0.1928901,0.3729401,0.0002838603,0.0004363686,0.0006102102,0.003245216,-0.002790117,0.006408062
0.9319652,0.1918736,0.3712494,0.001888066,-0.0005866575,-0.001060994,0.003154621,-0.004144281,0.002355696
0.933191,0.1879555,0.3719967,0.003111554,-0.004511504,-0.0002953844,0.00279775,-0.002950848,-0.00210462
0.9323053,0.1839374,0.3750803,0.002223464,-0.008536405,0.002805535,0.002938442,-0.001086195,-0.0001455491
0.9351756,0.1894964,0.3744376,0.005091188,-0.002983983,0.002179048,0.0007538762,-0.0003235693,5.224074e-05
0.9356298,0.195878,0.3720235,0.005542471,0.003391536,-0.0002199991,-0.0007993146,-0.004161506,0.000306619
0.9326781,0.1909127,0.3683837,0.002587269,-0.001579299,-0.003845898,-0.0004107062,-0.007935195,0.0008925986
0.9334852,0.1847224,0.3668418,0.003390238,-0.007774601,-0.005374889,-0.0004599528,-0.005632232,-0.002489231
0.9335175,0.1840688,0.3687966,0.003417396,-0.008432416,-0.003407818,0.0008500197,-0.00338451,-0.003383465
0.9325893,0.1896381,0.3675009,0.002483306,-0.002866411,-0.004691851,0.001433847,-0.005165912,-0.002643333
0.9319282,0.2002183,0.3649277,0.001815224,0.007711798,-0.007253672,0.001131029,-0.003936665,-0.003373225
0.9298081,0.2008857,0.3637898,-0.0003128488,0.0083781,-0.008380117,0.000372192,0.001448763,-0.004713209
0.9308452,0.1921462,0.3655356,0.0007152822,-0.000361759,-0.006622456,-0.001559416,0.004881892,-0.005332887
0.9338524,0.1886381,0.3733789,0.003712699,-0.003869924,0.001233339,-0.002167618,0.003613551,-0.004812011
0.9340222,0.1892251,0.3787383,0.003871724,-0.00328246,0.006605875,-0.003434518,0.0008443351,-0.00476109
0.929769,0.190224,0.3783985,-0.0003931966,-0.002282505,0.006279685,-0.005382916,0.002368787,-0.003911764
0.924504,0.1907158,0.3815648,-0.005670828,-0.001789042,0.009459584,-0.004581023,0.003398316,-0.004977717
0.9270114,0.1918014,0.3853739,-0.003176834,-0.000701027,0.01328189,-0.002677236,0.001836949,-0.009622168
0.9314337,0.1940243,0.3787222,0.001231593,0.001524948,0.006642538,-0.001468914,0.003459176,-0.01181844
0.9296364,0.1927641,0.3694405,-0.0005798312,0.0002684808,-0.002628194,-0.0008733324,0.00434305,-0.006219335
0.9278686,0.1917533,0.3693514,-0.002361944,-0.000738026,-0.002707805,-0.0007294342,0.004141394,0.001366479
0.9260022,0.1922863,0.3667086,-0.004242843,-0.0002002519,-0.005342335,0.001149761,0.001231572,0.0004804538
0.9254411,0.1929366,0.3624874,-0.00481823,0.0004553543,-0.009556206,0.002513989,-0.004720578,-0.001188606
0.9280365,0.1946604,0.3704026,-0.002236822,0.002184825,-0.001634216,-0.0001760072,-0.003450892,0.001126232
0.9286329,0.1910424,0.3782802,-0.001653895,-0.001427106,0.006249724,-0.001616949,-0.001164736,0.0002812022
0.9308312,0.1872915,0.3784376,0.0005316018,-0.005171723,0.0064131,-0.001583794,-0.00166604,-4.615291e-05
0.9307773,0.1899646,0.3774365,0.0004655355,-0.002491924,0.005417372,-0.002209528,0.0001033297,-0.0009343578
0.9277177,0.1911202,0.3765678,-0.002605581,-0.00132916,0.004553056,-0.001197733,-0.0006033399,-0.003199671
0.9305891,0.1895424,0.3764817,0.000255018,-0.002899176,0.004470194,-0.001235308,0.0002865845,-0.001936689
0.9313066,0.1883801,0.3759898,0.0009623778,-0.004053028,0.003980314,-0.00101619,0.00216281,-1.368899e-05
0.9295653,0.187242,0.3755209,-0.0007883106,-0.005181979,0.00351196,-0.002435113,0.000837092,-0.0001284318
0.9298936,0.1872816,0.3749671,-0.0004688095,-0.005132265,0.002957193,-0.005309494,0.0008692684,-0.005699095
0.9268591,0.1891372,0.3740035,-0.003511499,-0.003265519,0.001990989,-0.003107471,-0.001211784,-0.008969673
0.925823,0.1909319,0.372792,-0.004555047,-0.001458591,0.0007753581,-0.002887153,-0.002093037,-0.003151134
0.9279645,0.1920177,0.3695085,-0.002419979,-0.0003593824,-0.002513723,-0.004007261,1.053073e-05,-0.0006005131
0.9297425,0.1920364,0.3688731,-0.0006474872,-0.0003261477,-0.0031561,-0.002955634,-0.001878414,-0.004543448
0.9312859,0.1909792,0.3701428,0.0008914163,-0.001367734,-0.001894438,-0.004720497,-0.002188719,-0.008082652
0.9302813,0.1909601,0.3697755,-0.0001167044,-0.001370445,-0.002270644,-0.005578646,-0.001594613,-0.005949146
0.9294064,0.1905791,0.3707474,-0.0009941909,-0.001734031,-0.001308377,-0.006495398,-0.003251881,-0.003643213
0.929191,0.1915298,0.3709604,-0.001211295,-0.0007650727,-0.001105481,-0.006796414,-0.003509035,-0.006145496
0.929045,0.1931119,0.3728843,-0.001358141,0.0008359404,0.0008079893,-0.005794193,-0.004636359,-0.004749536
0.9303423,0.1876668,0.379127,-6.087167e-05,-0.004589342,0.007039757,-0.008918121,-0.001795551,-0.003464243
0.9298418,0.183041,0.3825976,-0.0005605138,-0.009194717,0.01049898,-0.008351978,0.003113553,-0.003917717
0.9261035,0.1877271,0.3782965,-0.004297135,-0.004487168,0.006185673,-0.001755223,0.001601664,-0.0030602
0.9234731,0.1931329,0.3723437,-0.006924941,0.000941094,0.0002195254,0.0009932466,0.001764785,-0.005534542
0.9292592,0.1954839,0.3748786,-0.001135136,0.003315674,0.002739915,-0.001962709,0.004569624,-0.005835123
0.9364196,0.1973413,0.3757595,0.006029983,0.005197461,0.003605046,-0.005767591,0.004807561,-0.005311222
0.9334523,0.1949269,0.3686291,0.003068398,0.002808045,-0.00354226,-0.006765457,0.005661356,-0.006468423
0.9317019,0.1898947,0.3654625,0.001324383,-0.002198997,-0.006726689,-0.006230999,0.005381266,-0.005222554
0.9341616,0.1916511,0.3651953,0.003790941,-0.0004173092,-0.007012504,-0.004585657,0.004032723,-0.002019302
0.9299533,0.1956759,0.3677916,-0.0004102192,0.003632824,-0.004435019,-0.0007553373,0.003484279,0.002235464
0.9260389,0.1961289,0.3710948,-0.004317212,0.00411107,-0.001150558,0.000916306,0.002092709,-6.750187e-05
0.9263535,0.1976531,0.3703214,-0.003994936,0.005660089,-0.00194245,-0.001235603,0.001898984,-0.00378192
0.9265364,0.1975991,0.3763566,-0.003803919,0.005630386,0.004074751,-0.002219044,0.002458342,-0.0004095411
0.9280865,0.1960799,0.3831039,-0.002245195,0.00413445,0.01080428,-0.001596159,0.002378809,0.001424076
0.9278593,0.1949507,0.3799796,-0.002463092,0.003027496,0.007662243,-0.001745639,0.002460412,0.002861529
0.9258582,0.1919738,0.3776006,-0.004454125,7.137227e-05,0.005265179,-0.00172754,0.0004592378,0.004270466
0.9264577,0.1915054,0.3797316,-0.003843867,-0.0003775146,0.007377405,-0.001314694,-0.001813866,0.002972215
0.9284999,0.1913747,0.3787485,-0.001789814,-0.0004901192,0.006374633,-0.001005794,-0.001057114,0.004173541
0.9297043,0.1897334,0.3742413,-0.0005727318,-0.00211452,0.001846694,-0.001580579,-9.942887e-06,0.002869354
0.9291629,0.1921531,0.3727864,-0.00110051,0.0003208696,0.000369938,-0.003254889,0.0002829408,0.0003025042
0.9289482,0.1938753,0.3736625,-0.001300684,0.002057727,0.001223126,-0.003216502,5.416335e-05,0.003274629
0.9293597,0.1918513,0.3734808,-0.0008737313,4.728741e-05,0.001017428,0.0002241178,-0.002417711,0.005896061
0.9288931,0.1912588,0.3719858,-0.001324167,-0.0005327686,-0.0005024912,0.004121848,-0.004692863,0.006188949
0.9282932,0.1918,0.3712687,-0.00190722,1.981851e-05,-0.001245305,0.005447094,-0.00493997,0.003839029
0.9273456,0.1917141,0.3740525,-0.002837155,-5.559566e-05,0.001512209,0.002893304,-0.003714828,-0.002507333
0.9267389,0.1916094,0.3741195,-0.00342542,-0.0001508255,0.001552346,-0.001913482,-0.0004022735,-0.007071135
0.9269124,0.1913006,0.3709935,-0.003232729,-0.0004510435,-0.001600989,-0.002955164,0.0006288707,-0.005222213
0.9287981,0.1899385,0.3714206,-0.00132695,-0.001805292,-0.001201596,-0.002633735,-0.0002567546,0.001343467
0.9314188,0.1886465,0.3756628,0.001314638,-0.003090253,0.003012693,-0.003290463,0.0006975755,0.004612795
0.9299628,0.1904703,0.3806595,-0.0001197864,-0.001260061,0.007981162,0.0003948085,-0.0001351923,0.002420991
0.9279468,0.1924915,0.3794745,-0.002113524,0.0007671975,0.006767738,0.001563071,-0.001397173,0.001094788
0.9286604,0.1907158,0.3745412,-0.001377044,-0.00100294,0.00180526,-0.0002532424,-0.002655813,0.000546893
0.927715,0.1897404,0.3748158,-0.002299139,-0.001973076,0.002050175,-0.0001755743,-0.003886193,-0.00425774
0.9272348,0.1916605,0.3776506,-0.002755442,-4.811985e-05,0.004854458,-0.007270357,-0.002216175,-0.01094507
0.9285011,0.1928975,0.3798781,-0.00146463,0.001193525,0.007050655,-0.01378386,-0.001688431,-0.01036567
0.928477,0.193753,0.3805945,-0.001463787,0.002053403,0.00773491,-0.007372389,-0.0002895018,-0.005860657
0.9296266,0.1958187,0.3769142,-0.0002886158,0.004123062,0.004021293,0.002442649,0.000839382,-0.000363991
0.9314053,0.1975086,0.3737229,0.001516034,0.005816439,0.000795552,0.007638153,-0.001463079,0.008450827
0.931446,0.1956845,0.3758504,0.001583039,0.003995134,0.002887351,0.01032825,-0.0001198084,0.006006397
0.9297011,0.1920398,0.3773334,-0.0001353654,0.0003523283,0.004333569,0.009877511,0.001589638,-7.830219e-05
0.927019,0.1906334,0.3759937,-0.002790982,-0.001053097,0.00295595,0.005316914,0.002513077,0.004616544
0.9291315,0.1884906,0.3760715,-0.00065193,-0.00319585,0.002994708,0.003844894,0.005353151,0.004474895
0.9319458,0.1870426,0.3752985,0.002188974,-0.004644425,0.002181559,0.00506703,0.001578478,0.003835817
0.9289886,0.191396,0.3716205,-0.0007417251,-0.0002921659,-0.00153758,0.005520633,-0.003737964,0.005714918
0.9276418,0.1944995,0.3690592,-0.002062194,0.002809886,-0.004140756,0.007700813,-0.00118432,0.003478113
0.9280506,0.1931045,0.3691787,-0.001627205,0.001413145,-0.004063767,0.006464989,0.001950371,0.01120022
0.9275455,0.1931565,0.369688,-0.002106258,0.001462952,-0.00359701,0.004791491,0.002866084,0.01738559
0.9286076,0.1932464,0.369423,-0.001018191,0.001550152,-0.003904581,0.006759795,0.003155386,0.008398203
0.9276201,0.1912303,0.3700299,-0.001979821,-0.0004690745,-0.003339702,0.007540733,-0.000639473,0.003384993
0.9257536,0.1910578,0.3731522,-0.003820434,-0.0006450729,-0.0002586436,0.008955702,-0.007327152,0.01156053
0.9271492,0.1921698,0.3760445,-0.002398944,0.0004628832,0.002593131,0.008923542,-0.01290782,0.01790568
0.9311372,0.1898785,0.3753754,0.001614936,-0.001832745,0.001884394,0.007424786,-0.01205945,0.0086985
0.9346277,0.1861108,0.3742699,0.005131405,-0.005605083,0.0007400241,0.006789594,-0.008692248,-0.001629394
0.9335506,0.1847453,0.3753218,0.004080062,-0.00697519,0.001753951,0.004341287,-0.01085026,-0.0008844338
0.9312165,0.1878931,0.3746613,0.001771199,-0.003831712,0.001056103,0.003984559,-0.009023358,0.00440983
0.930339,0.1930387,0.371887,0.0009182825,0.001309963,-0.001754712,0.003095921,-0.003854429,0.01098715
0.9286269,0.1916198,0.3703524,-0.0007699336,-0.0001122156,-0.003324982,-0.002917834,-0.003687616,0.009944869
0.9289397,0.1876679,0.3700913,-0.0004339802,-0.004066844,-0.003620853,-0.007685979,-0.003665939,0.007511556
0.9307195,0.1866612,0.3694811,0.001368123,-0.005075643,-0.004264556,-0.009087459,-0.004987876,0.01418778
0.9304774,0.1852856,0.3678595,0.0011475,-0.006452561,-0.005918276,-0.008497648,-0.00499105,0.01767236
0.9309221,0.1866543,0.3697943,0.001612918,-0.005084085,-0.004014046,-0.008242672,-0.004308294,0.01822625
0.9325041,0.1885644,0.3749099,0.003214651,-0.003172983,0.001072842,-0.01102586,-0.007683857,0.0184819
0.933254,0.1895805,0.3756069,0.003983237,-0.00215455,0.001742926,-0.01318303,-0.008531852,0.01137068
0.9319773,0.1911433,0.3743744,0.00272407,-0.0005880284,0.0004853859,-0.01313898,-0.0120139,0.003796094
0.9295462,0.1889477,0.3733398,0.0003092308,-0.002778466,-0.0005727998,-0.01132502,-0.01859174,0.003291568
0.9304143,0.1879743,0.3715099,0.001192192,-0.003745354,-0.002424521,-0.005136696,-0.0195602,0.004642672
0.9312841,0.1873148,0.3713001,0.002075533,-0.004396973,-0.002654623,0.001149822,-0.01759061,0.0003023745
0.9302657,0.1833428,0.3675517,0.001069296,-0.008359556,-0.006421602,-4.903709e-06,-0.01174837,-0.004587828
0.9322049,0.1833281,0.3609442,0.00301929,-0.008363159,-0.01304588,-0.001543614,-0.00518382,-0.003507861
0.9322973,0.18732,0.3595436,0.003121016,-0.004358273,-0.01446088,0.005620598,-0.006048629,-0.001232024
0.929624,0.1936459,0.3600172,0.0004556734,0.00198272,-0.01399885,0.01036689,-0.007496211,0.005622467
0.9294239,0.1969506,0.358766,0.0002619424,0.005304384,-0.01525821,0.007215068,-0.001118792,0.01972053
0.9294982,0.1912367,0.3633608,0.0003412319,-0.0003908244,-0.01066772,0.005809829,0.006883706,0.02667208
0.9301451,0.1881874,0.3742594,0.0009917451,-0.003420192,0.0002308001,0.004262988,0.01074239,0.02322259
0.9327226,0.1961418,0.3798086,0.003571588,0.004555434,0.005784093,0.001538333,0.005763376,0.02506817
0.9340533,0.2030796,0.3794195,0.004903243,0.01151541,0.005402837,0.0006980149,-0.003521256,0.03339237
0.9334079,0.1988699,0.3780409,0.004257365,0.007328407,0.004035273,-0.006003032,0.002171931,0.03839614
0.9339493,0.1912754,0.3730751,0.004796697,-0.000243342,-0.0009166756,-0.01502172,0.007831325,0.04063173
0.935839,0.1842714,0.3667222,0.006682673,-0.007224849,-0.007253269,-0.01328813,0.002269266,0.03557567
0.9373665,0.1765092,0.3648183,0.00820453,-0.01496456,-0.009138407,-0.009339131,0.007283023,0.01978297
0.9392702,0.1760898,0.3640397,0.01010049,-0.01536118,-0.009895657,-0.00966003,0.01206197,0.005101072
0.9385873,0.1805716,0.3555688,0.009407392,-0.01085543,-0.0183423,-0.004952524,0.01075647,0.00302048
0.9359267,0.1810933,0.348307,0.006733999,-0.01030832,-0.02557651,-0.004245056,0.01197341,0.005430517
0.9350206,0.1745406,0.3538169,0.005812264,-0.01683358,-0.020035,-0.008789096,0.0106223,-0.01096334
0.9327542,0.1666388,0.3595867,0.003527302,-0.02470542,-0.01422869,-0.00834633,0.01619417,-0.03797427
0.9315634,0.1723113,0.3618314,0.002315015,-0.01899975,-0.01194216,-0.01082592,0.02424341,-0.04772538
0.9326389,0.1814327,0.3665153,0.003366166,-0.009841146,-0.007211087,-0.009797088,0.02664446,-0.04099944
0.9313319,0.1822823,0.3684287,0.002032236,-0.008950094,-0.005245013,-0.004761193,0.02871083,-0.03054911
0.9309158,0.1868709,0.371747,0.001586645,-0.004315605,-0.001868948,-0.006661503,0.02780402,-0.02395803
0.9308205,0.1903245,0.3783292,0.001459401,-0.0008117367,0.004775974,-0.00546111,0.02864679,-0.01896488
0.9300667,0.1871893,0.3796856,0.0006714925,-0.003892703,0.006199269,-0.001013117,0.03333833,-0.01497152
0.9319356,0.1843549,0.3798412,0.002504354,-0.006669176,0.006425364,0.007429587,0.03860094,-0.01522689
0.9316731,0.1824704,0.3821111,0.002203869,-0.008492139,0.008768378,0.01900154,0.04000715,-0.01488196
0.9284402,0.1831517,0.381403,-0.001068705,-0.007745693,0.008135383,0.01941984,0.03083862,-0.01413112
0.9245949,0.182707,0.3780496,-0.00495509,-0.008121856,0.004858292,0.01657586,0.01447712,-0.009820751
0.9223808,0.1803205,0.3747017,-0.007211395,-0.01043625,0.001587333,0.01654984,-0.001189361,-0.005941536
0.9256367,0.1808042,0.3754246,-0.003998384,-0.009876964,0.002387234,0.01759664,-0.003174612,-0.00992702
0.9292543,0.1823814,0.3792836,-0.0004238993,-0.008220679,0.006323024,0.02460962,0.003324044,-0.01452664
0.9310705,0.1838932,0.3792115,0.001349199,-0.006626231,0.006327048,0.02880597,0.00126874,-0.02072698
0.9312956,0.1841084,0.3769031,0.001531431,-0.006324989,0.004093778,0.02684454,1.86761e-05,-0.02487676
0.9296544,0.1854911,0.3748096,-0.0001524905,-0.004852854,0.002073809,0.02650717,0.002247698,-0.02587987
0.9312145,0.1886781,0.3725522,0.001365165,-0.001573444,-0.0001116901,0.02495049,0.004480415,-0.03104001
0.9327133,0.1881237,0.3720851,0.002821795,-0.002032573,-0.0005088021,0.02014708,0.01223696,-0.03417905
0.9331906,0.1895592,0.3727447,0.00325725,-0.0004993866,0.0002189178,0.0176298,0.01512266,-0.03496051
0.9334126,0.1979828,0.3758937,0.003437609,0.008023789,0.003434052,0.01303763,0.01398377,-0.03228778
0.9289546,0.2066564,0.3790416,-0.001061859,0.01679837,0.006645867,0.002035173,0.01692458,-0.02366181
0.9258198,0.2101828,0.3776986,-0.004237829,0.02042609,0.005364461,-0.004920878,0.01557789,-0.01730622
0.9261818,0.207854,0.3761391,-0.003916472,0.01819771,0.003863921,-0.007617125,0.01246281,-0.01638246
0.9266387,0.2041526,0.375757,-0.003499617,0.0145948,0.003537909,-0.01465073,0.01107144,-0.01824422
0.9275403,0.2005045,0.375513,-0.002637048,0.01104221,0.003346945,-0.01849697,0.007107936,-0.01642603
0.9278748,0.1943477,0.3767573,-0.002340327,0.004977196,0.004641161,-0.01162056,0.005301105,-0.01009637
0.9287674,0.1915292,0.3776496,-0.001484306,0.002246413,0.005580137,-0.00526282,0.005945558,-0.00540221
0.928471,0.1934049,0.3780363,-0.001815881,0.004205673,0.006010022,-0.008451986,0.004537988,-0.003239053
0.9273641,0.1933363,0.3802861,-0.002956334,0.004216183,0.008299604,-0.009624004,0.001274433,-0.002341858
0.927881,0.1932715,0.3837563,-0.002471517,0.004226082,0.01180565,-0.004047577,-0.004017229,-0.001431165
0.9275693,0.1960551,0.385065,-0.002813448,0.007079767,0.01314603,-0.003151339,-0.006681129,-0.001098127
0.9262007,0.1989279,0.3819624,-0.004210601,0.01001796,0.01007065,-0.008365826,-0.004760932,0.001126061
0.9225646,0.1979347,0.3781527,-0.007873197,0.009085092,0.006283265,-0.01491035,-0.006770435,0.004512552
0.9195152,0.1916498,0.3780126,-0.01094684,0.002855335,0.006160504,-0.01599632,-0.01132418,0.0007117074
0.9208089,0.1862244,0.3784321,-0.009674906,-0.002520229,0.006592271,-0.00705795,-0.01054486,-0.005179933
0.9217314,0.1868573,0.3790436,-0.008771059,-0.001842639,0.007210976,-0.00051596,-0.004199797,-0.007003001
0.9226221,0.1897752,0.3801652,-0.007895879,0.001115253,0.008334854,-0.002566918,0.003286511,-0.006020657
0.9259315,0.1912263,0.3745627,-0.004598407,0.002601766,0.002729541,-0.001949463,0.003307397,-0.002539522
0.9273613,0.1945262,0.3687433,-0.003177012,0.005932661,-0.003097636,0.002883026,0.000152001,-0.002185437
0.9260076,0.1973474,0.3733117,-0.004535541,0.008780513,0.001458375,0.001615982,0.001019624,-0.001124234
0.9261915,0.1959497,0.3771491,-0.004352909,0.007404952,0.005279188,-0.003524669,-0.0005440382,0.004354995
0.9266379,0.1981018,0.3747341,-0.003904222,0.009574579,0.002843555,-0.00365355,-0.0006437634,0.007037641
0.925155,0.2007731,0.3764135,-0.005381402,0.01225855,0.004498445,-0.003867747,0.001711982,0.005372992
0.9246493,0.196064,0.3800469,-0.005877864,0.00755706,0.008103681,-0.007501382,0.001067848,0.001098304
0.9243088,0.192007,0.378281,-0.006205734,0.003502585,0.006305775,-0.01047561,0.002385845,-0.003014015
0.9240091,0.1927957,0.3743521,-0.006489319,0.004288658,0.002341269,-0.01047708,0.002312311,-0.007705116
0.9244104,0.1934266,0.3712438,-0.006068413,0.004912021,-0.0008061636,-0.007900137,2.635562e-05,-0.008707224
0.923125,0.1919207,0.372139,-0.007330683,0.003393784,4.670083e-05,-0.006929332,-0.001481299,-0.004930186
0.9215103,0.1912318,0.3769172,-0.008918687,0.002687952,0.004779614,-0.004108807,-0.006347528,-0.006961966
0.9205819,0.1919237,0.3782593,-0.009816663,0.003358416,0.006073747,-0.0004234739,-0.01082637,-0.007695124
0.9205357,0.1917475,0.3769304,-0.009828762,0.003156654,0.0046943,0.0006243393,-0.01181574,-0.007753483
0.9218869,0.1925447,0.3760491,-0.008439485,0.003924361,0.003759874,0.001400174,-0.009204498,-0.01141836
0.9243099,0.1936083,0.3764152,-0.005974394,0.00495462,0.004070446,-0.005392766,-0.004816727,-0.008557185
0.9269899,0.1942573,0.3787487,-0.003248493,0.005566519,0.006345932,-0.009263218,0.0006823483,-0.008641768
0.9252408,0.1964534,0.3793882,-0.004947826,0.007722083,0.006925295,-0.003307247,0.00609038,-0.007690521
0.9220853,0.1978729,0.3796178,-0.008050004,0.009097437,0.007092376,-0.003218436,-0.00353721,-0.0008122887
0.9238338,0.1971062,0.3809823,-0.006244598,0.008282982,0.008392134,0.0004454607,-0.01853099,0.001391727
0.9246224,0.1943669,0.3816624,-0.0053956,0.005492304,0.009005069,0.00647052,-0.01631709,0.008551811
0.9246187,0.1877399,0.3796829,-0.005335667,-0.001189619,0.006955947,0.003230808,-0.00834042,0.01196374
0.9273431,0.1813719,0.3754255,-0.002544339,-0.00761573,0.002626497,0.004470606,-0.00666357,0.009517508
0.9264965,0.1869634,0.3757558,-0.003321069,-0.002085028,0.002882427,0.00534315,-0.01764786,0.01244004
0.9246936,0.2007198,0.3764082,-0.005051267,0.0116084,0.003458297,0.0006887648,-0.04093416,0.004930635
0.9264364,0.2080365,0.3743588,-0.003233295,0.01886003,0.001330386,-0.003281525,-0.04840838,-0.002906924
0.9300682,0.2098015,0.3769472,0.0004760608,0.02055744,0.00383867,-0.01472117,-0.02998026,-0.0004218637
0.9346042,0.2097263,0.3788766,0.005091669,0.02041153,0.005686421,-0.02783317,-0.01440499,-0.001990562
0.932306,0.2082222,0.3783691,0.002874584,0.01883303,0.005095795,-0.03284197,-0.01633215,-0.003381546
0.9276528,0.2032432,0.3794161,-0.00169637,0.01377535,0.006058344,-0.02968159,-0.01576328,-0.003816231
0.930472,0.1940972,0.3793118,0.001205771,0.004546208,0.005868342,-0.01935391,-0.006803254,-0.005987822
0.9313253,0.1926748,0.378998,0.002142369,0.003036311,0.005467481,-0.01192348,0.0002160602,-0.003211396
0.9294604,0.195267,0.3799236,0.0003608446,0.005536792,0.006304748,-0.01127692,0.00977022,0.00430648
0.9292477,0.1913374,0.3829557,0.0002313406,0.001511698,0.009247293,-0.01032705,0.01044619,0.0138836
0.9270805,0.1890585,0.3866869,-0.001853042,-0.0008661198,0.01288767,-0.003478779,0.002975786,0.02233727
0.9274219,0.1895157,0.386405,-0.001429418,-0.0005107297,0.01251335,0.006048123,0.006671115,0.02422012
0.928337,0.1888499,0.3826308,-0.0004328302,-0.001280839,0.008645,0.01477625,0.004923668,0.02374968
0.9263331,0.1879729,0.3773536,-0.00235615,-0.002264028,0.003271759,0.02292292,0.001437431,0.02504177
0.9262691,0.1860736,0.3722069,-0.002340299,-0.004270907,-0.001972814,0.02508687,0.005870079,0.01782586
0.9262825,0.1861697,0.3709402,-0.002248144,-0.004283107,-0.003338914,0.02507704,-8.34802e-05,0.008446955
0.9252029,0.1903896,0.3714219,-0.003249823,-0.000171887,-0.002957478,0.02210424,-0.003006284,0.00855916
0.924017,0.1935302,0.3705592,-0.004358865,0.002860221,-0.00392097,0.01430969,-0.0009227088,0.01097529
0.9232244,0.1944602,0.3721274,-0.005075459,0.003682067,-0.002453624,0.01451232,-0.003505268,0.0139009
0.9250651,0.1982286,0.3718238,-0.003159523,0.007342784,-0.002857535,0.01675359,-0.00202353,0.01209856
0.927365,0.1982494,0.3672749,-0.0007852454,0.007256288,-0.007505949,0.01572229,-0.004803474,0.007025835
0.9290554,0.1944273,0.3677978,0.0009787452,0.003327415,-0.007081177,0.0122729,-0.008593802,0.004955402
0.9296833,0.1953784,0.3706261,0.001679238,0.004171999,-0.004349175,0.005524819,-0.006306027,0.001052653
0.9286652,0.193462,0.3712946,0.000732661,0.002149607,-0.00377477,0.006743144,-0.002311362,0.003313023
0.9282946,0.1918395,0.3729081,0.0004322156,0.0004215878,-0.002252784,0.006426341,0.002715694,0.0065719
0.9278601,0.1941564,0.3744032,6.64289e-05,0.002633613,-0.0008463466,0.001619437,0.001124844,0.004017459
0.9283401,0.1925036,0.3765408,0.000613689,0.0008768853,0.001205469,0.002635986,-0.001186272,0.006241187
0.929807,0.1929697,0.3783885,0.002146147,0.001240052,0.002970221,-0.002630656,0.001368165,0.006681707
0.9287668,0.1936095,0.3780041,0.001169741,0.001777965,0.002505732,-0.008859105,0.0002624723,0.006124461
0.9270774,0.1925205,0.377287,-0.0004577638,0.0005884464,0.001711366,-0.003283405,-0.003286803,0.0103085
0.9261705,0.1939793,0.3767085,-0.001304669,0.001948043,0.001058178,0.003721881,-0.009025152,0.01205661
0.9260048,0.1910993,0.3745784,-0.00141231,-0.001029614,-0.001144086,0.004717888,-0.01341941,0.01086358
0.9273282,0.1856687,0.3695463,-3.261858e-05,-0.006556195,-0.006245664,0.003174282,-0.01025304,0.008890201
0.9293467,0.1822528,0.3650708,0.00204018,-0.01006612,-0.01078781,0.003646193,-0.006720064,0.008619838
0.9329312,0.1811086,0.3651678,0.005677064,-0.01130176,-0.01075434,0.009070435,-0.003388736,0.007139377
0.9345303,0.1809944,0.3692706,0.007326389,-0.01150423,-0.006711278,0.016993,0.001892396,0.003958799
0.9323395,0.1817419,0.3721319,0.005183368,-0.0108414,-0.003905772,0.01852908,0.002771128,0.002977326
0.931286,0.1884228,0.3707769,0.004174958,-0.004240801,-0.00531252,0.01517237,0.0023969,-0.0009079011
0.9295929,0.1946639,0.370887,0.002524073,0.001924329,-0.005249829,0.01179392,-0.0006077371,-0.004854438
0.928373,0.197003,0.3739103,0.001343483,0.004191993,-0.002269616,0.005109976,-0.007562649,-0.005776572
0.9306231,0.1996166,0.3760558,0.003629896,0.006738301,-0.0001628669,0.001432627,-0.005649318,-0.003981013
0.9306846,0.1996061,0.3763222,0.003724702,0.006664412,6.893657e-05,0.001730033,-0.003252574,0.001847625
0.9291764,0.1984985,0.3737013,0.002246903,0.005496665,-0.002582591,-0.001565029,-0.008299994,0.002034478
0.9284431,0.1969178,0.3687368,0.001540809,0.003858921,-0.007573809,-0.004069484,-0.008504435,0.001787115
0.9281027,0.1951769,0.3645482,0.001224746,0.002063601,-0.01178513,-0.006935407,-0.008208652,0.00716934
0.9297861,0.1967069,0.3614298,0.002929459,0.003541746,-0.01492207,-0.01270072,-0.00922916,0.006786665
0.930344,0.1970035,0.3587907,0.003505885,0.003788664,-0.01757508,-0.01253492,-0.007781539,0.008048315
0.9299473,0.1922043,0.3651035,0.003124807,-0.001058086,-0.011271,-0.01072385,-0.008296666,0.01211386
0.9292496,0.1869509,0.3749199,0.002439761,-0.006356963,-0.001458009,-0.01373555,-0.005487319,0.006558198
0.9269394,0.1866774,0.3711948,0.0001394845,-0.006673721,-0.005180976,-0.01312723,-0.0007859139,0.0003675654
0.9273398,0.1881969,0.3683814,0.0005469693,-0.005195089,-0.007986937,-0.01021997,0.0006258928,0.0005478436
0.9275847,0.187172,0.3730688,0.0007963994,-0.006258211,-0.003286958,-0.008728225,0.0009371321,0.002574854
0.9261232,0.1861886,0.3711581,-0.0006629693,-0.007276959,-0.005180015,-0.005327453,9.237099e-05,0.00237385
0.9290794,0.1852648,0.3717481,0.002293081,-0.008232898,-0.00456755,-0.003099123,0.002222344,-0.004048998
0.9317998,0.1852298,0.373789,0.005011126,-0.008296595,-0.002499406,-0.002335763,0.004751205,-0.01052393
0.9304349,0.1905315,0.372223,0.003641741,-0.003020064,-0.004033749,-0.003113181,0.004688854,-0.008331232
0.9301525,0.196897,0.3765079,0.003352552,0.003323944,0.0002870561,-0.003730865,0.006745826,-0.002987828
0.9307145,0.1979761,0.379875,0.003905583,0.004385079,0.003693904,-0.001540251,0.005813555,-0.001134472
0.9296021,0.1987609,0.3824956,0.002782022,0.00515492,0.006357743,-0.001661906,0.001666534,0.0007375932
0.9287525,0.2026658,0.3856173,0.001918952,0.009047676,0.009525333,-0.001038651,-0.0006859187,0.001192621
0.9292334,0.2036298,0.3797033,0.002384404,0.0100016,0.003659401,-0.002111843,-0.003673123,0.0009782689
0.9294716,0.2018791,0.3739599,0.002605015,0.008242318,-0.002034466,-0.009109456,-0.005858876,0.004668278
0.9299179,0.1998444,0.3753637,0.003031759,0.006200063,-0.0005799872,-0.01287023,-0.006222546,0.005639301
0.930901,0.1930204,0.3789934,0.003993283,-0.0006308027,0.0031014,-0.01464138,-0.006168996,0.004850978
0.9306655,0.1864679,0.3812491,0.003734455,-0.007189706,0.005409529,-0.01381767,-0.00700804,0.005031442
0.9303002,0.1882483,0.3789397,0.00334378,-0.005415108,0.003152836,-0.007502199,-0.009339417,0.002307475
0.930714,0.1900027,0.3766909,0.003730432,-0.003665719,0.0009566545,-0.001742777,-0.008823435,-0.001085989
0.9305567,0.1867372,0.3773214,0.003544046,-0.006935131,0.001639475,0.0007866005,-0.004550487,-0.007354593
0.9304548,0.1869041,0.3752101,0.003411262,-0.006770841,-0.0004199261,-0.001199564,0.001212194,-0.01134308
0.9306646,0.1895955,0.3705986,0.003588454,-0.004080536,-0.004980176,-0.001430979,0.003700552,-0.006321479
0.9299661,0.189601,0.3707339,0.002855582,-0.00407445,-0.004794297,0.0002765513,0.001257032,-0.0006777024
0.9278612,0.1909702,0.37543,0.0007145855,-0.002702802,-4.793702e-05,-0.0004658142,0.001044249,0.001866388
0.9261645,0.1936058,0.3790289,-0.001019728,-6.306848e-05,0.003600632,0.0005601235,0.0008716094,0.001301943
0.9286843,0.1955392,0.3800341,0.00146105,0.001876274,0.004654896,-0.001365406,-0.0007149357,0.0009242556
0.9318574,0.196947,0.3788153,0.004594083,0.003291584,0.003484176,-0.002592216,0.001251554,0.003367334
0.9293203,0.1962802,0.3783572,0.002015673,0.002633499,0.003073006,0.001939276,0.00156031,0.003957686
0.926325,0.1972287,0.3770271,-0.001021962,0.003591787,0.001788466,0.003941035,-0.001091185,0.007044074
0.9267966,0.1974473,0.3737605,-0.0005935544,0.003821016,-0.001434049,0.004566206,-0.002699185,0.01211719
0.9281277,0.193568,0.3740675,0.0006935914,-4.720519e-05,-0.001084621,0.001670253,-0.002435435,0.009997715
0.9306882,0.1913159,0.3722542,0.00320966,-0.002287856,-0.002856962,-0.0031921,-0.001750134,0.005184834
0.9312239,0.1895069,0.3682264,0.003700322,-0.004085009,-0.006845105,-0.0009218,-0.00381595,0.003810892
0.929922,0.1883161,0.3718936,0.002353011,-0.005263538,-0.003139511,-0.0002481979,-0.005347299,0.003368064
0.930818,0.188943,0.3768805,0.003203098,-0.004623764,0.001884805,-0.004471646,-0.004613974,0.002635748
0.9306682,0.1878848,0.3803229,0.003006939,-0.005668262,0.005363596,-0.006032022,-0.003217792,0.001543928
0.9298775,0.1880145,0.3860432,0.00216938,-0.005523969,0.0111192,-0.005612306,-0.001431462,-0.0001005747
0.9290985,0.1909803,0.3842701,0.001343056,-0.002542386,0.009379705,-0.003153329,-0.002757408,-0.001118077
0.9268602,0.1940275,0.3785022,-0.0009428179,0.0005217615,0.003643427,0.0009289913,-0.004047492,-0.001118413
0.9266783,0.1923815,0.3804711,-0.001172567,-0.001106183,0.005641496,0.004344439,-0.001662051,-0.001025901
0.9266745,0.1884817,0.3797056,-0.001224218,-0.004986782,0.004902744,0.004718849,-0.0001974191,-0.002320209
0.9264066,0.189085,0.3759974,-0.001539793,-0.004363277,0.001218709,0.001024659,-0.0004351184,-0.005918672
0.9293718,0.1902178,0.3788903,0.001378037,-0.00320913,0.004132982,-0.0001324496,-0.0006091616,-0.009245755
0.9314169,0.192052,0.3808238,0.003376316,-0.001352413,0.00608515,0.001637532,-0.0009182344,-0.006841695
0.9306121,0.1941427,0.3814696,0.002525016,0.0007620767,0.006746727,0.001827539,-0.002476416,-0.001769618
0.931462,0.1921431,0.3802768,0.003328921,-0.001212848,0.005566766,0.001784128,-0.004300946,-0.002011809
0.9369642,0.1902125,0.3759644,0.008785342,-0.003117714,0.001264094,0.0008187145,-0.002961753,-0.001499723
0.9414018,0.1891622,0.3777598,0.01317724,-0.004141429,0.003066125,-0.0003638225,-0.001068005,0.002138662
0.935991,0.1917825,0.3788135,0.007720419,-0.001493506,0.004123494,-0.00208525,-0.002104098,-0.0003817945
0.9292218,0.1962072,0.3768972,0.0009045761,0.002959556,0.002207819,-0.006143981,-0.003770612,-0.003068491
0.931638,0.1936059,0.3790234,0.003273388,0.0003874607,0.004331674,-0.009453295,-0.003827891,-0.001545985
0.9330687,0.1921138,0.3784347,0.004655942,-0.001074874,0.003737766,-0.00885906,-0.001581268,-0.002283268
0.9291299,0.1956446,0.3755656,0.0006684045,0.002486116,0.0008606952,-0.001507142,0.001106194,0.0006808099
0.9283247,0.1952078,0.3725573,-0.0001861452,0.002079691,-0.00215835,0.006501386,0.003153417,0.003925777
0.9283066,0.1898163,0.3687071,-0.0002541423,-0.003281216,-0.006021753,0.007350518,0.005339737,-0.001945793
0.9278765,0.1831886,0.3696928,-0.0007345021,-0.009878273,-0.005051347,0.007017464,0.004661893,-0.004774173
0.9299111,0.1821656,0.3736198,0.001249811,-0.01087039,-0.001141251,0.00756836,0.00316419,-0.002075465
0.9295536,0.186354,0.3758138,0.0008419523,-0.006650415,0.00103452,0.004017712,0.004844111,0.0006658536
0.9295585,0.1878095,0.3753847,0.0007966837,-0.00516229,0.0005860813,0.0005043442,0.00522825,0.006257384
0.9324919,0.1895916,0.3736262,0.003679924,-0.003346593,-0.001192749,0.001343425,0.005067754,0.00614688
0.9330113,0.1931319,0.371885,0.004149452,0.0002286092,-0.00295514,0.00114798,0.006037033,0.002584927
0.9324349,0.1943144,0.3694324,0.003523249,0.001446971,-0.005429612,3.625415e-05,0.004518317,0.002649256
0.9292451,0.1947087,0.3702764,0.0002837832,0.001878012,-0.004607768,0.00162763,0.003033239,-0.001328793
0.9251429,0.1944283,0.3722805,-0.003867951,0.001634994,-0.002625831,0.002176297,0.001497342,-0.001928864
0.9287384,0.1942397,0.3710096,-0.0003217873,0.001484249,-0.003918612,0.004034183,-0.0006926274,0.004455121
0.9319453,0.1947114,0.3721285,0.002836274,0.001993913,-0.002821225,0.008061333,-0.001726433,0.005422938
0.9274416,0.1942603,0.3721794,-0.001715621,0.001580694,-0.002791094,0.007867037,-0.004319961,0.003006223
0.925009,0.1944761,0.3696142,-0.004195799,0.00183419,-0.00537622,0.006462907,-0.005623192,0.002634111
0.9271394,0.1945526,0.3711665,-0.002112184,0.001947932,-0.003842881,0.006568069,-0.004703313,0.004849966
0.92862,0.1939081,0.3708765,-0.0006772395,0.001340229,-0.004150533,0.005584013,-0.004590246,0.009127193
0.9305753,0.1928247,0.3683581,0.001233557,0.0002928591,-0.006685221,0.005846989,-0.003086982,0.00983898
0.9330368,0.1906738,0.3684397,0.003651705,-0.001822875,-0.006618279,0.00722066,-0.0001318929,0.008571572
0.9335843,0.1898353,0.3699263,0.004156984,-0.002626929,-0.005144466,0.006911841,0.002183734,0.007805968
0.9332245,0.1895657,0.3741815,0.003755943,-0.002862817,-0.0008999494,0.006530108,0.001169521,0.005227067
0.932179,0.189111,0.375987,0.002670081,-0.003284372,0.0008970129,0.005963216,8.563175e-05,0.003359575
0.9307127,0.1889904,0.376354,0.001164049,-0.00337234,0.001257295,0.005030893,0.002641244,0.001492833
0.9303401,0.1876489,0.3802257,0.0007523719,-0.004681639,0.005124164,0.00525779,0.003471455,0.001387936
0.9305224,0.1872446,0.3799243,0.0008961718,-0.005053976,0.004819467,0.005131539,0.002700831,0.004495496
0.930679,0.1880489,0.3782478,0.001015101,-0.004217748,0.003140845,0.004810968,0.00152749,0.004887431
0.9305119,0.1893031,0.3805873,0.0008109208,-0.00293152,0.005479096,0.003932711,-0.0001263385,0.004299044
0.9304766,0.1916439,0.3802513,0.0007391993,-0.000558579,0.005142525,0.002441231,0.001184815,0.003662895
0.9305181,0.1910813,0.3766345,0.0007449761,-0.0010889,0.001525314,0.003123658,0.00159125,0.002969824
0.9291934,0.1886916,0.3748046,-0.0006147423,-0.003446128,-0.0003047375,0.003904301,-0.00184461,0.004108237
0.9274879,0.1888535,0.3784796,-0.002354507,-0.003251676,0.003370093,0.003619017,-0.00434089,0.003663868
0.9274136,0.1899214,0.3841787,-0.002462137,-0.00215092,0.009069036,0.002189172,-0.002165689,0.002932417
0.9286928,0.1905269,0.3829542,-0.00121527,-0.001512445,0.007843894,-0.001953041,0.001384117,0.002862873
0.9281465,0.1907269,0.3765511,-0.001792874,-0.001279162,0.001439519,-0.002820154,0.002528871,0.004004978
0.927304,0.1918494,0.3710016,-0.002665379,-0.0001232135,-0.00411218,0.00259617,0.004093682,0.0047623
0.9303591,0.1932079,0.3670484,0.000360971,0.001268819,-0.008068232,0.007747666,0.004734167,0.002173731
0.9330643,0.1905813,0.3626278,0.003038765,-0.001324206,-0.01249201,0.008816645,0.003451416,0.001689199
0.9335594,0.187568,0.3575334,0.00350765,-0.004303974,-0.01758953,0.005737653,0.003899378,-0.001308016
0.9329196,0.1887023,0.3629133,0.002842653,-0.003136285,-0.01221176,0.002455039,0.003912041,-0.006064136
0.9293392,0.1886313,0.3740895,-0.0007619836,-0.00317375,-0.001036079,0.003184053,0.002815345,-0.002641413
0.9272034,0.1867008,0.3734881,-0.00292105,-0.005070564,-0.001636368,0.00328988,0.00287108,0.001497824
0.9293244,0.1878628,0.3740684,-0.0008225462,-0.003874605,-0.001053032,0.000873892,0.004058035,0.001397112
0.931552,0.1897241,0.3810517,0.001383646,-0.001979027,0.005934884,-0.0005547594,0.004933378,-0.003921357
0.9307062,0.1907393,0.3798434,0.0005173874,-0.0009292615,0.004732729,-0.001771248,0.004139931,-0.008891076
0.9298266,0.1924741,0.373981,-0.000381666,0.0008405379,-0.001122483,-0.003230791,0.004262331,-0.006494645
0.931315,0.1932598,0.369976,0.001088091,0.001661422,-0.005119402,-0.004733353,0.00555595,-0.006966289
0.931373,0.1932433,0.3743287,0.00112834,0.001680155,-0.0007576183,-0.003953681,0.00569579,-0.004942787
0.9314858,0.1927806,0.3807421,0.001224191,0.00125251,0.005665863,-0.001340398,0.003129787,-0.0001762181
0.9308052,0.1921787,0.3755164,0.0005274044,0.000685448,0.0004509347,-0.002435717,-0.001995402,-0.003739674
0.928007,0.1922146,0.3704331,-0.002286289,0.0007557772,-0.004621011,-0.002920592,-0.002962729,-0.003349049
0.9291575,0.1912412,0.3696055,-0.001150567,-0.0001837927,-0.005436554,-0.000917091,0.00145076,-0.001583649
0.9296447,0.1900329,0.3702659,-0.0006772795,-0.001358734,-0.004763473,-0.001598566,0.004676033,-0.003407566
0.9275858,0.1899504,0.3774133,-0.002749359,-0.001408494,0.002397647,-0.00291518,0.005292078,-0.0020108
0.9280575,0.1904954,0.379805,-0.002289974,-0.0008313893,0.004803723,-0.003777901,0.005418488,-0.002466536
0.9290967,0.1900639,0.3735125,-0.001262029,-0.001231307,-0.001473674,-0.00275563,0.004407912,-0.002361342
0.9320791,0.1881474,0.3696828,0.001710061,-0.003116802,-0.00528777,-0.001280758,0.001698587,-0.00404276
0.9343014,0.1872192,0.3738324,0.00392306,-0.0040144,-0.001122049,-0.005077555,0.002210163,-0.007151689
0.9320802,0.1878064,0.378187,0.001693309,-0.003397048,0.003249169,-0.00822698,0.004560716,-0.004468217
0.9304798,0.1903725,0.3724453,8.498485e-05,-0.0008009247,-0.002475361,-0.006416428,0.004888323,-0.004108657
0.9306408,0.1922443,0.3686524,0.0002386613,0.001100616,-0.006250772,-0.004742838,0.005235114,-0.004260378
0.9316351,0.1896901,0.3724561,0.001226121,-0.001424058,-0.002428984,-0.004252419,0.0007879283,-0.000896062
0.9335226,0.1865928,0.3744703,0.003107122,-0.00449217,-0.0003960758,-0.004301683,-0.003774436,0.001209644
0.9354314,0.1845562,0.3772298,0.005009868,-0.006499724,0.002382692,-0.005102581,-0.001901407,0.0005063308
0.9362535,0.183675,0.3781285,0.005825898,-0.007351769,0.003301165,-0.005984065,-0.002171607,-0.001724769
0.9342238,0.187444,0.3769372,0.003790076,-0.003553396,0.002129781,-0.006910858,-0.001797916,-0.001020107
0.9314462,0.1920916,0.3771886,0.001005939,0.001123955,0.002401287,-0.006763489,-0.000306951,-0.003361383
0.9308972,0.1911013,0.3714457,0.0004500628,0.0001637584,-0.003321784,-0.005464834,-0.002728778,-0.007428929
0.9315112,0.1907409,0.3657389,0.001056652,-0.0001662046,-0.009008729,-0.007099012,-0.001481299,-0.004586921
0.9319958,0.1944655,0.3678598,0.00153348,0.003588935,-0.006867833,-0.008221174,0.004230748,-0.003283654
0.9314585,0.1933095,0.3694828,0.0009878516,0.002463519,-0.005224467,-0.003461041,0.009217857,-0.004311818
0.9282334,0.1912414,0.3692064,-0.002245895,0.0004256615,-0.005479831,-0.0006813143,0.00716389,-0.002398334
0.9257521,0.1904845,0.3712709,-0.004736228,-0.0003013145,-0.003393467,-0.0006962629,0.001539304,-0.001505345
0.9292022,0.1860178,0.3715637,-0.00129536,-0.004738524,-0.003077865,0.0009024361,0.003005791,-0.002934488
0.933827,0.1871812,0.3699593,0.003320357,-0.003545904,-0.004658375,0.0001972215,0.003516639,-0.004274061
0.9338166,0.1907283,0.3715176,0.003300747,3.004826e-05,-0.003075263,-0.000912549,0.00250256,-0.00352542
0.9326911,0.1899782,0.3729221,0.002165947,-0.0006913401,-0.001644799,-0.002231062,0.004532531,-0.003195919
0.9324424,0.1915748,0.3735408,0.001907754,0.0009337482,-0.0009990486,-0.003870202,0.003636339,-0.003895704
0.9308448,0.192161,0.3743559,0.0003004478,0.001548172,-0.0001559462,-0.002238094,0.00415569,-0.00315844
0.9298162,0.1914773,0.3733597,-0.0007382614,0.0008921705,-0.001123193,-0.001757932,0.00371767,-0.00185237
0.9297534,0.1901531,0.3754246,-0.000811317,-0.0004048085,0.0009712989,-0.002376792,0.0006782245,-0.0002210146
0.9280282,0.1862063,0.3772411,-0.002546954,-0.004324886,0.002818091,-0.001546286,0.0007197964,0.0009435162
0.9275831,0.187139,0.3748869,-0.003002531,-0.003365915,0.000494526,-0.001011325,8.957835e-06,0.002213805
0.9298417,0.1896538,0.3738657,-0.0007542013,-0.0008253131,-0.0004957332,0.0002906152,0.0007561786,0.003973259
0.9307462,0.1892015,0.3739005,0.0001401278,-0.001252001,-0.0004299261,0.0006810574,0.001155449,0.004386924
0.9288544,0.1896233,0.3765576,-0.001761453,-0.0008047784,0.002258235,-0.002184812,-0.0002028284,0.004640543
0.9269419,0.1879905,0.380698,-0.00368339,-0.002412496,0.006429603,-0.005399356,0.001821544,0.002782582
0.9280601,0.1869421,0.3798379,-0.002574139,-0.003436089,0.005599985,-0.004625351,0.001715142,-9.542047e-05
0.9300698,0.189783,0.3740917,-0.000572759,-0.0005703619,-0.000116447,-0.002929555,0.002112203,0.001525746
0.9305106,0.1908443,0.3691667,-0.000139601,0.0005155283,-0.00501244,-0.003775871,0.004654878,0.002910249
0.9299682,0.1905303,0.3720414,-0.0006889976,0.0002260205,-0.00210962,-0.001874969,0.004224671,0.002625282
0.9286596,0.1919952,0.3755842,-0.002004009,0.001715177,0.001460556,0.001257901,0.003745407,0.006010352
0.9289828,0.1932507,0.3729664,-0.001686365,0.002994699,-0.001130415,0.003087003,0.002528476,0.008491601
0.9293164,0.1915671,0.3733025,-0.001357624,0.001334562,-0.0007682298,0.006321039,0.002678373,0.006201717
0.9269804,0.1892254,0.3757095,-0.003697644,-0.0009842859,0.001664172,0.005660925,0.003450449,0.002882611
0.9259266,0.1902859,0.3766467,-0.004754627,9.84279e-05,0.00262613,0.001794455,0.001153888,-0.000523101
0.9269137,0.1906718,0.3794274,-0.00376967,0.0005058879,0.005430588,0.001048196,0.000517876,-0.002788326
0.9710242,0.1828342,0.2753452,-0.01292085,0.02003647,0.01003917,-0.1906477,0.06380983,-0.2966937
0.9669299,0.1860477,0.270209,-0.01738605,0.0219087,0.00641614,-0.1910374,0.05909857,-0.297998
0.9677683,0.1858935,0.2702331,-0.01687349,0.02042452,0.007876137,-0.1877439,0.06579694,-0.299219
0.9687003,0.1880238,0.2725866,-0.01622406,0.02123791,0.01158964,-0.1856194,0.06341031,-0.2976321
0.9653129,0.1883372,0.2718733,-0.01985196,0.0202491,0.01216178,-0.1825016,0.05917632,-0.2953434
0.9653223,0.1869712,0.2712415,-0.02004273,0.01759691,0.012742,-0.1748959,0.05885717,-0.2924821
0.9661893,0.1911378,0.2697792,-0.01933666,0.0204947,0.01241983,-0.1722995,0.05850751,-0.2927518
0.9667093,0.1905869,0.2687461,-0.01894,0.01869378,0.01245626,-0.1729907,0.06237889,-0.2962672
0.96744,0.1862057,0.2701149,-0.01829625,0.01308225,0.0148257,-0.1799909,0.05816265,-0.2980741
0.9668421,0.18742,0.2705107,-0.01894629,0.01308718,0.01615473,-0.1846956,0.05480808,-0.2968183
0.9685088,0.1902792,0.2728229,-0.01729834,0.01475883,0.01933427,-0.1838652,0.06112926,-0.2939761
0.9674299,0.1925336,0.2744889,-0.01836397,0.01584867,0.02180318,-0.1857572,0.06324767,-0.2911948
0.9656538,0.1929096,0.2733412,-0.02009629,0.01508362,0.02139546,-0.182379,0.0639412,-0.2853275
0.9672656,0.1903615,0.2735299,-0.01841143,0.01141884,0.02226265,-0.181269,0.06557882,-0.2798687
0.9665181,0.1869301,0.2739106,-0.01905797,0.006895639,0.02326181,-0.1813864,0.064521,-0.278818
0.9665033,0.1874044,0.2744667,-0.01894537,0.006303732,0.02437774,-0.176956,0.05889112,-0.2716437
0.9673415,0.19103,0.275254,-0.01795442,0.008889348,0.02566788,-0.1769887,0.05249695,-0.2634022
0.9682953,0.1914493,0.2752893,-0.01682398,0.008295536,0.02615044,-0.1735826,0.05300947,-0.263359
0.970957,0.1893023,0.2757366,-0.01396302,0.005162632,0.02699091,-0.1682483,0.05287537,-0.2593587
0.9699618,0.1864409,0.2763125,-0.01473778,0.001343001,0.02790729,-0.1647358,0.05173409,-0.253383
0.966496,0.1871535,0.2739518,-0.01796329,0.00112547,0.02583595,-0.1624408,0.05365162,-0.2545351
0.9634891,0.1897231,0.2682282,-0.02071126,0.002793334,0.02035222,-0.1653381,0.05270323,-0.2536303
0.9620162,0.1894205,0.2658072,-0.02190768,0.001617785,0.01812326,-0.1633128,0.05157524,-0.249731
0.9644384,0.191629,0.2693132,-0.01919243,0.002982245,0.02177534,-0.1607296,0.05079197,-0.2472001
0.9672727,0.1925411,0.272235,-0.01604949,0.003079454,0.02479916,-0.1610521,0.0476309,-0.2406094
0.9677945,0.1918259,0.2709948,-0.01520449,0.001578339,0.02361872,-0.1572974,0.04598198,-0.2355233
0.9680096,0.1936492,0.2715252,-0.01465283,0.002644622,0.02416826,-0.1583968,0.04959872,-0.2371329
0.9683244,0.192115,0.2753034,-0.01398907,0.0003823465,0.0279266,-0.1634365,0.05591619,-0.2391661
0.9678793,0.1910141,0.273745,-0.01407415,-0.001418096,0.02631094,-0.166513,0.05910705,-0.2405507
0.9678257,0.1922148,0.2676568,-0.01375751,-0.0008883337,0.02012952,-0.1663908,0.06082937,-0.2365802
0.9671973,0.192406,0.265571,-0.01400653,-0.001339846,0.01791636,-0.1661538,0.0594965,-0.2307963
0.9652773,0.1933877,0.2686103,-0.01553916,-0.0009727188,0.02079581,-0.1704033,0.05256915,-0.2290858
0.9655416,0.1931532,0.2715435,-0.01488016,-0.001793986,0.02353848,-0.1680585,0.04928753,-0.2223934
0.9681058,0.1924423,0.2733052,-0.01191492,-0.003064247,0.02508068,-0.1645348,0.055097,-0.2196416
0.9700311,0.191126,0.2766008,-0.00958314,-0.004912802,0.02812903,-0.1664923,0.06457944,-0.2241941
0.9687343,0.1878372,0.2757904,-0.01046879,-0.008706964,0.02704517,-0.1609686,0.06791346,-0.2241869
0.9663906,0.1867626,0.2726942,-0.01239772,-0.0102604,0.02365053,-0.156915,0.06241617,-0.2214733
0.9673507,0.188084,0.2719758,-0.01102003,-0.009391337,0.02260999,-0.1583981,0.05681705,-0.2148252
0.9673051,0.1894553,0.266753,-0.01064599,-0.008446016,0.01704288,-0.1562281,0.05731385,-0.2105101
0.9644178,0.190761,0.2657114,-0.01311223,-0.007540365,0.0156361,-0.153851,0.06106167,-0.2109221
0.9639882,0.1914893,0.2731991,-0.0131201,-0.007186585,0.02273957,-0.1510684,0.06294104,-0.2105581
0.9674532,0.1915905,0.2771832,-0.009233305,-0.007434659,0.02632172,-0.1499744,0.06172038,-0.2134209
0.9702993,0.1918179,0.2783185,-0.005965777,-0.007531898,0.02703845,-0.1506497,0.05945823,-0.2108452
0.9669987,0.1918668,0.2750682,-0.008846054,-0.007783489,0.02335412,-0.1503832,0.06066255,-0.2053696
0.9635683,0.1923696,0.2682208,-0.01185799,-0.007557508,0.01605814,-0.152114,0.06256161,-0.2055314
0.9655998,0.1933537,0.26568,-0.009410368,-0.006827179,0.01305561,-0.1509025,0.05920537,-0.2062781
0.9656498,0.1920154,0.2664475,-0.008946863,-0.008396876,0.01334958,-0.1477253,0.05857585,-0.2072736
0.963724,0.1900224,0.2688926,-0.01046249,-0.01059935,0.01531072,-0.1480478,0.060674,-0.1988035
0.9643119,0.1893031,0.2684733,-0.009467944,-0.01150682,0.01439852,-0.1474288,0.05703206,-0.1883711
0.9656088,0.1882107,0.2674824,-0.007768358,-0.01276646,0.01290694,-0.1444404,0.05511321,-0.1930035
0.9671612,0.1870804,0.2709256,-0.005817513,-0.01404358,0.01584298,-0.1408706,0.05707458,-0.194704
0.9670524,0.1862998,0.2733223,-0.005532631,-0.01495097,0.01772705,-0.1373951,0.05802269,-0.1859534
0.9660565,0.1883836,0.2755154,-0.006140014,-0.01297424,0.01940293,-0.1369381,0.06025626,-0.1805857
0.9669834,0.1916119,0.275829,-0.004830196,-0.009833908,0.01919568,-0.1382196,0.06006729,-0.1782622
0.9665854,0.1911064,0.2740054,-0.004851173,-0.01040858,0.0168483,-0.1367215,0.05705486,-0.1761539
0.9654269,0.1930837,0.2759636,-0.005638896,-0.008482504,0.01828041,-0.1377898,0.05617812,-0.1751862
0.9651757,0.1975412,0.2778804,-0.005525882,-0.004058776,0.01966952,-0.1420778,0.05590159,-0.1735106
0.9642806,0.1957642,0.279107,-0.006063534,-0.005853172,0.02036737,-0.1427313,0.0577451,-0.1714484
0.9646736,0.1927829,0.2778335,-0.005320138,-0.008836123,0.01856463,-0.1446149,0.05879505,-0.1696153
0.9657165,0.1924108,0.2731862,-0.003933883,-0.009195063,0.01338813,-0.1436743,0.0550283,-0.167339
0.9662135,0.190889,0.2725949,-0.003100895,-0.01068935,0.01226835,-0.1347027,0.05277788,-0.1650365
0.9669042,0.1906789,0.2714672,-0.002081792,-0.01085835,0.01061343,-0.1287528,0.05213877,-0.1626708
0.9665215,0.1909049,0.268237,-0.002143785,-0.01057827,0.006858145,-0.1265472,0.05106192,-0.1614095
0.9656725,0.1914156,0.2693221,-0.002680038,-0.0100008,0.007421066,-0.123589,0.04900794,-0.1615208
0.9652524,0.1942217,0.2707736,-0.002795417,-0.007116099,0.008354241,-0.1180145,0.04486783,-0.1581919
0.9660243,0.1941905,0.2725716,-0.001727132,-0.007057362,0.009638355,-0.1124348,0.0431088,-0.1484242
0.9671871,0.1939034,0.2761741,-0.0002761997,-0.007243853,0.01273207,-0.1136925,0.04332341,-0.1414792
0.9666255,0.1947094,0.2754132,-0.000558061,-0.006327264,0.01146793,-0.1141976,0.04587017,-0.1448267
0.9664508,0.1913184,0.273063,-0.0004617053,-0.009598431,0.008620397,-0.1137807,0.04929261,-0.148151
0.9668869,0.1897191,0.2738682,0.0002368788,-0.01106919,0.008934635,-0.1187783,0.04766097,-0.1478775
0.9663841,0.1922074,0.2733193,-1.222744e-05,-0.008444145,0.007901554,-0.1191858,0.04663133,-0.1468346
0.9659404,0.1938878,0.2707645,-0.0002110574,-0.006619201,0.004869824,-0.1146388,0.04699475,-0.1410696
0.9663251,0.19417,0.2672991,0.0004096912,-0.006185305,0.0009350528,-0.1127334,0.04609098,-0.1377066
0.9685493,0.1936253,0.2646326,0.002861119,-0.006571753,-0.002192475,-0.1121812,0.04798281,-0.1374908
0.9699862,0.1921991,0.2679575,0.004516277,-0.007833631,0.0006802305,-0.1115721,0.04859767,-0.1345911
0.9673799,0.1893529,0.2730202,0.002119158,-0.01051,0.005300197,-0.110478,0.04543253,-0.132786
0.9648546,0.1898348,0.2752545,-0.0002060624,-0.009853203,0.007101572,-0.109632,0.04437218,-0.1306217
0.9651749,0.1922755,0.2742578,0.0003053335,-0.007232863,0.005682131,-0.1089357,0.05010711,-0.1307003
0.9654397,0.1912661,0.2712129,0.0007522403,-0.008058177,0.00222449,-0.1075471,0.05602854,-0.1312206
0.9651839,0.191547,0.274723,0.0006697084,-0.007589287,0.005332293,-0.1057232,0.05212444,-0.1261643
0.9651299,0.1911265,0.2784083,0.0007803268,-0.007818239,0.008625681,-0.10259,0.04608393,-0.1210703
0.964207,0.1894382,0.2757293,1.349553e-05,-0.009311703,0.005565306,-0.0998572,0.04362414,-0.1154923
0.9628901,0.190648,0.2776527,-0.00115578,-0.0079044,0.007117624,-0.09930177,0.03879925,-0.1140392
0.9633846,0.1899569,0.2813562,-0.0005216748,-0.008395308,0.01046027,-0.09953702,0.03650491,-0.1161648
0.9660332,0.1882209,0.2818694,0.002258545,-0.009928993,0.01062268,-0.1015355,0.04224343,-0.1118126
0.9674422,0.1880099,0.2797938,0.003791497,-0.009935591,0.008206115,-0.1047443,0.04927583,-0.1115816
0.966514,0.1911081,0.2735184,0.002979522,-0.006631264,0.001599363,-0.1031628,0.04989864,-0.1157794
0.9662564,0.1973945,0.2704967,0.00283064,-0.000137207,-0.001744256,-0.09921205,0.04518521,-0.1148393
0.9660374,0.1982713,0.2706064,0.002712751,0.0009482194,-0.001946724,-0.09878532,0.04077425,-0.1117874
0.9645346,0.1959543,0.2691928,0.001303823,-0.001159826,-0.003662652,-0.0973593,0.03804674,-0.1072195
0.9633402,0.1947608,0.2694694,0.0001960934,-0.002144589,-0.0036781,-0.09612224,0.04017107,-0.1066683
0.9622822,0.1923232,0.271471,-0.0007822153,-0.004374108,-0.001958246,-0.09777454,0.04505444,-0.1082836
0.9624341,0.1929217,0.2728301,-0.0005571426,-0.003568556,-0.0008703286,-0.09758375,0.04456303,-0.1064384
0.9648834,0.195602,0.2722286,0.001958852,-0.0006825887,-0.001732288,-0.09589541,0.04480074,-0.1055812
0.9666505,0.1959988,0.2719276,0.003786572,-8.175785e-05,-0.002283205,-0.09231344,0.04735129,-0.1023815
0.9667305,0.1959493,0.2721457,0.003921317,7.06173e-05,-0.002304374,-0.08951634,0.045701,-0.09922825
0.9654338,0.1959407,0.2697568,0.002673405,0.0002613697,-0.004921842,-0.09155868,0.04520324,-0.09891828
0.963015,0.1966207,0.2662279,0.000297642,0.001137749,-0.008668681,-0.09319496,0.04502466,-0.0975097
0.9620238,0.1975122,0.2643221,-0.0006559283,0.002222465,-0.01078139,-0.09303249,0.04060753,-0.09877165
0.9622977,0.1959401,0.2661539,-0.0003497112,0.0008399747,-0.00914549,-0.09283748,0.03742909,-0.0989356
0.9617854,0.1935672,0.2702727,-0.0008345787,-0.001347183,-0.005211201,-0.09056568,0.03977545,-0.09431679
0.9609646,0.1926247,0.2729358,-0.001632497,-0.002108236,-0.00272124,-0.08446929,0.04291251,-0.08864565
0.9617861,0.1929316,0.2716559,-0.0007924182,-0.001624056,-0.004162928,-0.0787712,0.04018429,-0.0842739
0.9631435,0.1939019,0.2678821,0.0005797166,-0.0004808703,-0.008087497,-0.07837548,0.03596841,-0.08243487
0.9624153,0.1950374,0.2683491,-0.0001375091,0.0008229772,-0.007760214,-0.07827216,0.0340799,-0.07949603
0.9627477,0.1956433,0.2720712,0.000202333,0.001592762,-0.004166901,-0.07628342,0.03480435,-0.07807199
0.9655348,0.1943828,0.2743277,0.002993737,0.000491296,-0.002028336,-0.07623205,0.03917236,-0.08120631
0.9672675,0.1943299,0.2740889,0.004727558,0.0005924787,-0.002374567,-0.0770634,0.03973209,-0.08460413
0.9670069,0.1952378,0.2727632,0.004465034,0.00164949,-0.003797382,-0.07565254,0.03753356,-0.08590411
0.9661742,0.1928824,0.2766359,0.00362731,-0.0005618925,-1.209022e-05,-0.07099797,0.03689584,-0.08262806
0.9667856,0.1927697,0.2808849,0.004230688,-0.000535818,0.00415906,-0.06589429,0.03432459,-0.07884575
0.9669463,0.1949851,0.2788229,0.004380342,0.001813263,0.002028105,-0.06459716,0.0350139,-0.07719023
0.9662481,0.1959259,0.2765911,0.003668127,0.002882535,-0.0002643142,-0.06645705,0.03990384,-0.07491518
0.9664142,0.1975714,0.2753355,0.003817228,0.004651251,-0.001572769,-0.06752218,0.04297991,-0.07525791
0.9639717,0.1947266,0.2745049,0.001354929,0.001924301,-0.002448702,-0.0676901,0.04192118,-0.07427494
0.9616437,0.191467,0.2751525,-0.0009955924,-0.001222907,-0.001839317,-0.06357327,0.0392948,-0.0695774
0.9633795,0.193475,0.2750924,0.0007151562,0.0008919604,-0.001930787,-0.0558715,0.04091901,-0.06556996
0.9641864,0.1933363,0.2741665,0.001494799,0.0008548464,-0.00288159,-0.05533629,0.04172983,-0.06071049
0.9618062,0.1926358,0.2714568,-0.0009146861,0.0002505971,-0.005609912,-0.0552748,0.03970339,-0.06148982
0.9596051,0.1933427,0.2684042,-0.003146893,0.001048663,-0.008675052,-0.05075753,0.03674003,-0.06531662
0.9605655,0.1931112,0.2696698,-0.002219118,0.0009031535,-0.007415918,-0.05254958,0.03221756,-0.060878
0.9625273,0.1943286,0.2738591,-0.0002910514,0.002201659,-0.003227211,-0.05556551,0.03749455,-0.05879222
0.9627339,0.1968769,0.2757384,-0.0001192953,0.004826019,-0.001342619,-0.05561885,0.04485448,-0.05995693
0.9619155,0.1994518,0.2748133,-0.0009731734,0.007472007,-0.002256923,-0.05523749,0.04052067,-0.05775679
0.9597233,0.1998831,0.2738143,-0.003201415,0.007969251,-0.003239915,-0.05291202,0.0376528,-0.05948006
0.9577909,0.1994232,0.2761248,-0.005170192,0.007569942,-0.0009085546,-0.05266894,0.03401439,-0.05855799
0.9588986,0.201857,0.2805728,-0.004098959,0.01005889,0.003564858,-0.05233176,0.02492152,-0.05141943
0.9612465,0.2023208,0.2806048,-0.001787098,0.01057205,0.003626469,-0.05079871,0.02523145,-0.04618346
0.9632214,0.1955126,0.2815046,0.0001523114,0.003807308,0.004559421,-0.05036921,0.02891251,-0.04378302
0.9655798,0.189444,0.285204,0.002475857,-0.002223791,0.008294893,-0.04743024,0.02664224,-0.04349986
0.9644015,0.1933558,0.2790401,0.001263346,0.001719829,0.002169464,-0.04615259,0.02644844,-0.04147314
0.9608998,0.1983178,0.272225,-0.002271992,0.00670819,-0.004605256,-0.04660791,0.02561702,-0.03976029
0.9629491,0.1970022,0.2778832,-0.0002555412,0.005413632,0.001094937,-0.04449989,0.02209268,-0.0398979
0.9651778,0.1969762,0.2813667,0.001940912,0.005403399,0.004621952,-0.0446362,0.02201579,-0.03830755
0.9644702,0.1975275,0.278211,0.001201968,0.005965228,0.001510785,-0.04650817,0.0218254,-0.04008385
0.9642209,0.195519,0.2791309,0.0009219575,0.003962185,0.00247599,-0.04496654,0.0213535,-0.04117562
0.9616395,0.1939894,0.2807438,-0.001689411,0.00243303,0.004134698,-0.03894075,0.02111327,-0.03769911
0.9621519,0.1923018,0.2802611,-0.001206214,0.0007409328,0.003697936,-0.03506362,0.0151933,-0.03433528
0.9646724,0.1918792,0.281216,0.001285971,0.0003094193,0.004698506,-0.03663324,0.009046398,-0.02856262
0.9642138,0.1929125,0.2817417,0.0007997806,0.001329489,0.005269414,-0.03596301,0.008908501,-0.02350209
0.9658544,0.1955789,0.2811734,0.002413757,0.00397862,0.004745415,-0.0369564,0.01116494,-0.02267343
0.965738,0.1995233,0.2797797,0.002271342,0.007902093,0.003394868,-0.04139248,0.01420783,-0.02548301
0.9654188,0.1957402,0.2798328,0.00192677,0.004094293,0.003489742,-0.04226619,0.01862333,-0.02916641
0.9676478,0.1904969,0.2813938,0.004131055,-0.001177337,0.005090873,-0.04278496,0.0203607,-0.02676598
0.9664389,0.1935529,0.2793311,0.002897844,0.001846899,0.003066486,-0.03844404,0.01501123,-0.02457013
0.9661772,0.1937206,0.2784343,0.002612047,0.001979799,0.002205894,-0.03222567,0.009100552,-0.02642508
0.9660968,0.1912742,0.2793217,0.002507786,-0.0005044098,0.003127553,-0.0343909,0.01118687,-0.02553383
0.9635075,0.1928974,0.2760873,-0.0001052709,0.001078459,-7.485856e-05,-0.03486573,0.01503776,-0.02549955
0.9628328,0.1933855,0.274209,-0.0008035731,0.001523893,-0.001923281,-0.03412227,0.01545588,-0.03027343
0.962514,0.1942439,0.2749621,-0.001145703,0.002337567,-0.001142306,-0.03767649,0.01829309,-0.03344176
0.9635808,0.196655,0.2751988,-0.0001020892,0.004701873,-0.0008797107,-0.03782871,0.0183789,-0.02637021
0.9662444,0.1978029,0.2752432,0.002538673,0.005801236,-0.0008112088,-0.03493178,0.01330782,-0.01795844
0.9670891,0.1979906,0.2755932,0.003360939,0.00593848,-0.0004388202,-0.03285876,0.01312888,-0.02272407
0.9667571,0.1967009,0.276949,0.003006658,0.004596507,0.0009378696,-0.03381278,0.01558934,-0.02560536
0.9662204,0.1953704,0.2764297,0.002447781,0.003211765,0.0004378024,-0.03534726,0.01853584,-0.01804754
0.9655466,0.1945116,0.2756277,0.001751768,0.002297036,-0.000346386,-0.0336418,0.0197261,-0.01625758
0.9633078,0.1934543,0.2752276,-0.0005091586,0.001182256,-0.0007301932,-0.03255307,0.016976,-0.01920473
0.9618097,0.192808,0.2736855,-0.002029349,0.0004769131,-0.002257362,-0.03146084,0.0175652,-0.02015189
0.9637668,0.1928534,0.2750858,-9.435544e-05,0.00046204,-0.0008433202,-0.02868505,0.01632612,-0.0191664
0.9651042,0.1933891,0.2756994,0.001221205,0.0009365201,-0.0002171658,-0.02756155,0.01401511,-0.0158491
0.9646476,0.1929089,0.2741378,0.0007430741,0.0003942698,-0.001767146,-0.02783008,0.01575475,-0.01492452
0.9645797,0.1929212,0.2741945,0.0006537672,0.0003438484,-0.00169974,-0.02862896,0.01512132,-0.01453204
0.9654945,0.193541,0.2725825,0.001547465,0.0009005953,-0.003301959,-0.03199287,0.01573826,-0.0139207
0.9665624,0.1943701,0.2718752,0.002594467,0.001666428,-0.003999969,-0.03544527,0.01666753,-0.0143509
0.9661035,0.198422,0.2743993,0.002114765,0.005654843,-0.001467149,-0.03312154,0.01489935,-0.01141703
0.9640843,0.2007351,0.2755184,7.488258e-05,0.007904335,-0.0003396289,-0.02870538,0.01276806,-0.007140899
0.9622503,0.1969651,0.275039,-0.001779597,0.004070442,-0.0008107771,-0.027464,0.00897764,-0.002858845
0.9646851,0.1927482,0.2747869,0.0006347594,-0.0002107264,-0.001054919,-0.02781821,0.008750851,-0.002196418
0.9683027,0.1924671,0.2750802,0.004232135,-0.0005563534,-0.0007537836,-0.03053925,0.009401682,-0.004419016
0.9669456,0.1931962,0.2751014,0.002855038,0.0001082058,-0.000724891,-0.03290993,0.008429964,-0.002255795
0.9676518,0.1909292,0.276253,0.003541208,-0.002223328,0.0004342721,-0.03206184,0.01295563,-0.003757331
0.9704443,0.1887152,0.2822676,0.006313558,-0.004501412,0.006456228,-0.03196476,0.01690762,-0.007210236
0.9671635,0.188664,0.2870383,0.003012257,-0.004616073,0.01123404,-0.03082891,0.01541419,-0.005289387
0.9637757,0.1891247,0.2804428,-0.0003963914,-0.004217776,0.004644839,-0.0255082,0.01433365,-0.007039574
0.9637504,0.1899277,0.2716912,-0.0004429604,-0.003475788,-0.004101556,-0.02096241,0.01505002,-0.01098514
0.9635796,0.1903663,0.2729161,-0.0006353199,-0.003096658,-0.002872461,-0.02232218,0.01596512,-0.01267829
0.9630242,0.1904587,0.2742774,-0.001212484,-0.003061939,-0.001507747,-0.02603446,0.01729285,-0.01457731
0.9614411,0.1905076,0.2750751,-0.002817449,-0.003068691,-0.0007073084,-0.02617483,0.0180346,-0.01419312
0.961337,0.1921627,0.2807567,-0.002943231,-0.001467025,0.004976346,-0.02403592,0.01721626,-0.01247041
0.9623641,0.1950777,0.2773966,-0.00193763,0.00139675,0.001617695,-0.02070311,0.01705696,-0.01236836
0.9619421,0.1968562,0.2721138,-0.002380671,0.003126243,-0.00366443,-0.01772759,0.01596442,-0.01115771
0.9636383,0.1993308,0.2761703,-0.0007049039,0.005553991,0.0003921836,-0.01831425,0.01341166,-0.008509542
0.966131,0.1999442,0.2746761,0.00176795,0.006122283,-0.001102505,-0.0203112,0.01218555,-0.008323085
0.9649725,0.1953252,0.270334,0.000590341,0.001459836,-0.005445566,-0.02201239,0.009993686,-0.007291876
0.9624722,0.1914935,0.2702653,-0.001928552,-0.002413893,-0.005515415,-0.02120821,0.009410471,-0.003538161
0.9619365,0.1929452,0.2733137,-0.002482064,-0.00100284,-0.002468198,-0.01887524,0.01103989,-0.0009854703
0.9627845,0.1948862,0.2803418,-0.001651262,0.0008990508,0.004558984,-0.01912063,0.009784085,0.0004932221
0.9626131,0.1941599,0.279358,-0.001838903,0.000135146,0.003574278,-0.01846311,0.008508972,0.0008638112
0.9622115,0.1944491,0.2731748,-0.002255864,0.0003881003,-0.00260974,-0.01725791,0.007669942,0.002709321
0.9627191,0.1947448,0.2727331,-0.001762567,0.0006490452,-0.00305231,-0.01692173,0.007148751,0.005543653
0.9624678,0.1936794,0.2765133,-0.00202716,-0.0004495762,0.0007271655,-0.01486898,0.008174308,0.005722515
0.9629038,0.1927533,0.283816,-0.001603246,-0.001407595,0.008029154,-0.01360655,0.007290922,0.003710869
0.9653726,0.1902169,0.2839521,0.0008546285,-0.003974547,0.008164401,-0.01339876,0.007098404,0.0003441864
0.9668035,0.1895689,0.2771998,0.002275662,-0.004651384,0.00141081,-0.01420206,0.00755063,0.00332577
0.9643467,0.1909046,0.2748597,-0.0001899215,-0.00334289,-0.0009312006,-0.01323413,0.005563807,0.00792457
0.9611242,0.1900259,0.274443,-0.003420341,-0.004246888,-0.001350491,-0.006995297,0.003752021,0.005443398
0.9623607,0.1901831,0.2762519,-0.002190785,-0.004112877,0.0004552381,-0.002844092,0.0009776988,0.006572654
0.9633712,0.1905568,0.2768729,-0.001186206,-0.003760335,0.00107261,-0.002364323,-0.0003164387,0.008297597
0.9624869,0.1903436,0.274432,-0.002075326,-0.003992445,-0.001372422,-0.002767914,0.003447138,0.005267878
0.9662546,0.1922505,0.2734371,0.001688688,-0.002102006,-0.002371842,-0.006450686,0.006662046,0.004720296
