accx,accy,accz,body_accx,body_accy,body_accz,body_gyrox,body_gyroy,body_gyroz
0.8845955,0.4235529,0.2160278,-0.01932638,0.01425481,-0.04494948,-0.03788964,-0.102434,0.1991802
0.8861683,0.4243199,0.2131487,-0.01631299,0.009750343,-0.05014789,-0.04249238,-0.09086525,0.1911639
0.8897953,0.4239948,0.2148766,-0.01127022,0.004356577,-0.05061002,-0.04465764,-0.06948697,0.1823402
0.8940908,0.4215728,0.2152383,-0.005585249,-0.002932331,-0.0523099,-0.04518324,-0.03665798,0.1785923
0.8892424,0.4225736,0.2174298,-0.009071743,-0.006598197,-0.05205254,-0.04567058,-0.02245004,0.1733814
0.8806413,0.4261044,0.2180951,-0.01633977,-0.007535296,-0.05319519,-0.04588778,-0.04368742,0.1689208
0.8790642,0.4294063,0.2176357,-0.01661376,-0.008504421,-0.05533793,-0.04929737,-0.05312938,0.1708231
0.8792961,0.4349199,0.2201361,-0.01510905,-0.007067109,-0.05439775,-0.05179298,-0.05759894,0.1714243
0.8771719,0.4353081,0.222187,-0.01599134,-0.0105632,-0.05378599,-0.05119488,-0.0610278,0.1702693
0.8778449,0.4341169,0.2229937,-0.01410769,-0.01544927,-0.05429932,-0.05035125,-0.04686507,0.1682493
0.8800546,0.4400243,0.2180119,-0.01071889,-0.01305053,-0.06048417,-0.0509855,-0.04275184,0.1661577
0.8808225,0.4382839,0.211887,-0.008803758,-0.01811634,-0.06769748,-0.05083351,-0.03949613,0.1687253
0.8804273,0.43176,0.2181301,-0.008083729,-0.02778596,-0.06243007,-0.04996698,-0.03725218,0.1702278
0.8782984,0.4311089,0.2245161,-0.00912993,-0.03140623,-0.05690952,-0.05007223,-0.0447759,0.1621618
0.8762383,0.430094,0.2236425,-0.01013983,-0.03521693,-0.05854059,-0.05000152,-0.0424268,0.1531115
0.8751536,0.4335542,0.2267698,-0.01020686,-0.03438244,-0.05606571,-0.05094616,-0.04543842,0.1551213
0.8746283,0.4398509,0.2277923,-0.009747053,-0.03054473,-0.05559345,-0.05161796,-0.0482712,0.1595024
0.8738188,0.4427768,0.2250239,-0.009603799,-0.02991482,-0.0588129,-0.05268808,-0.04486338,0.1612132
0.8715306,0.443132,0.2264156,-0.01097119,-0.03169667,-0.05777608,-0.05617774,-0.04981586,0.166055
0.8710865,0.4406663,0.2251197,-0.01052629,-0.03614435,-0.05933369,-0.05600437,-0.04866557,0.1655259
0.8752997,0.4416459,0.2222289,-0.005455331,-0.03699595,-0.06239595,-0.05315978,-0.04863403,0.1609458
0.8788788,0.4425416,0.2234589,-0.001049626,-0.0377846,-0.06125033,-0.052097,-0.05173443,0.1615504
0.8751009,0.4420781,0.2212494,-0.00403159,-0.0397898,-0.06345982,-0.04736086,-0.05156166,0.1617466
0.8697468,0.445328,0.2177288,-0.008620414,-0.03794304,-0.06689908,-0.04139682,-0.05814288,0.1674411
0.8699389,0.444935,0.2184792,-0.007693207,-0.03960484,-0.0659886,-0.04252289,-0.0603074,0.1784493
0.8706959,0.4431265,0.2201423,-0.006230694,-0.04255216,-0.06408968,-0.04533767,-0.05984564,0.1779652
0.871475,0.4429524,0.2232605,-0.004775015,-0.0437391,-0.06066247,-0.04502106,-0.06037576,0.1751005
0.8728836,0.4429278,0.2258398,-0.002718327,-0.04465488,-0.05770406,-0.04652363,-0.06039461,0.1798975
0.8710767,0.4465143,0.2250186,-0.003905151,-0.041842,-0.05807914,-0.04902824,-0.06687736,0.1818978
0.8699372,0.4466463,0.2204851,-0.004451979,-0.0423703,-0.06210244,-0.04975262,-0.06753056,0.1806075
0.8694033,0.4428277,0.2136729,-0.004420127,-0.04673992,-0.06834339,-0.0501897,-0.06566802,0.1809628
0.8677071,0.4428477,0.215378,-0.005576811,-0.04716597,-0.06600862,-0.05055621,-0.06776852,0.1833494
0.8696524,0.444012,0.2242871,-0.003117543,-0.04634667,-0.05641397,-0.05069158,-0.06500925,0.1842279
0.8718619,0.4463498,0.2277007,-0.0004189804,-0.04425689,-0.05226179,-0.04993153,-0.06013436,0.1822549
0.8716119,0.449218,0.2247425,-0.0002043388,-0.04154366,-0.05443137,-0.04820725,-0.05479001,0.1816375
0.8749388,0.4454007,0.2150282,0.003563453,-0.04542699,-0.06330999,-0.0460144,-0.0556697,0.179616
0.8785781,0.4411827,0.2072124,0.007620166,-0.04962612,-0.07024557,-0.0437666,-0.06345831,0.1775022
0.8737719,0.444526,0.2136316,0.00320831,-0.04618274,-0.06290408,-0.04187666,-0.07118929,0.1805612
0.8682885,0.447288,0.2198321,-0.001903417,-0.04324337,-0.05574123,-0.03952957,-0.0782844,0.1828149
0.8713666,0.4470819,0.2158064,0.001524083,-0.04319849,-0.05876725,-0.03957444,-0.07472012,0.1807965
0.8735716,0.4477276,0.2135452,0.004056919,-0.04223192,-0.05999355,-0.04257359,-0.06966546,0.1817407
0.8721503,0.4479417,0.2136748,0.002942526,-0.04163103,-0.05879641,-0.04332127,-0.07786181,0.1926693
0.8720569,0.448957,0.2115999,0.003135478,-0.04016643,-0.05977325,-0.03901988,-0.08596938,0.2040142
0.8692758,0.4502417,0.2131047,0.0006208151,-0.03837373,-0.05714213,-0.03430893,-0.09468838,0.203409
0.8679534,0.4515967,0.2170313,-0.0004544422,-0.0364557,-0.05206299,-0.03837891,-0.1032509,0.2021399
0.8732475,0.4525702,0.2196043,0.005068169,-0.03486765,-0.04831354,-0.04321208,-0.09510193,0.2047041
0.8791582,0.4473448,0.2229783,0.01118933,-0.03943055,-0.04374157,-0.03951788,-0.08159822,0.1992496
0.8799069,0.4407911,0.2251289,0.01213069,-0.04527716,-0.04037393,-0.03742548,-0.0775545,0.1917042
0.8752346,0.4405055,0.2247748,0.007633618,-0.04481409,-0.03949445,-0.036038,-0.08382813,0.1880414
0.8713703,0.4417378,0.2198662,0.003927315,-0.04279438,-0.04315541,-0.03373853,-0.09468124,0.187212
0.870662,0.4429653,0.2154684,0.003360288,-0.04074332,-0.0462937,-0.03532375,-0.09425358,0.191724
0.872493,0.4436299,0.2182159,0.005316573,-0.03922175,-0.0422769,-0.03524628,-0.09031526,0.1923433
0.8760161,0.4407001,0.2176286,0.008949346,-0.04126401,-0.04158717,-0.03683462,-0.09288495,0.1908247
0.8769364,0.4400813,0.2163712,0.009964273,-0.04096713,-0.0415615,-0.03937673,-0.09224675,0.1904992
0.8777016,0.44338,0.2172044,0.01080941,-0.03672714,-0.03944114,-0.036981,-0.09297465,0.1847249
0.8775541,0.4450967,0.2106113,0.01072746,-0.03404597,-0.04474457,-0.03452346,-0.09520831,0.1851347
0.8753927,0.4440476,0.2057674,0.008617662,-0.03410978,-0.04829783,-0.02993821,-0.09536251,0.1867589
0.8767542,0.4403761,0.2045892,0.010017,-0.03677773,-0.04818577,-0.02781448,-0.09375152,0.1813962
0.8780455,0.4379022,0.2013649,0.01133284,-0.03823204,-0.05012103,-0.03217347,-0.07720321,0.1769409
0.8794389,0.4386069,0.2008991,0.01273784,-0.03649375,-0.04930004,-0.03324691,-0.05832467,0.1679313
0.8825239,0.4381811,0.2038415,0.01582176,-0.03587389,-0.04507401,-0.03415632,-0.05945361,0.1626089
0.8815547,0.4362276,0.2068791,0.01483908,-0.03677146,-0.04075656,-0.03638922,-0.0618338,0.1592085
0.8789307,0.4357549,0.2071314,0.01218927,-0.03617967,-0.03922944,-0.03701798,-0.05421989,0.1501993
0.8772634,0.4380063,0.2070027,0.01048419,-0.0328571,-0.03808927,-0.04040441,-0.05260474,0.1508136
0.8770811,0.4419545,0.2069627,0.01025242,-0.02783258,-0.03686741,-0.04192824,-0.0488482,0.1503092
0.8775867,0.4466385,0.2066718,0.01069746,-0.02206885,-0.03590437,-0.04042542,-0.0389426,0.1457965
0.8756545,0.4482123,0.2080755,0.008693846,-0.01941393,-0.03325586,-0.04094138,-0.0424102,0.1485109
0.8753515,0.4446842,0.2101978,0.008309167,-0.02186141,-0.02989867,-0.04171719,-0.04542845,0.1471568
0.8764724,0.4427951,0.2134524,0.009338645,-0.02267214,-0.02542027,-0.04000964,-0.04077682,0.1466761
0.877295,0.4432979,0.2122953,0.01006054,-0.02109495,-0.02536568,-0.03431427,-0.04547429,0.1501527
0.8802717,0.4437729,0.2095754,0.01292774,-0.01955109,-0.02688709,-0.02913417,-0.04695264,0.150525
0.8812977,0.4449349,0.211816,0.01383571,-0.01732723,-0.02346224,-0.03158435,-0.04303282,0.1513558
0.881327,0.4447913,0.2112768,0.01373878,-0.01641751,-0.02283227,-0.03681668,-0.03987557,0.1492646
0.8832631,0.4459706,0.2104924,0.01554075,-0.0141946,-0.02246351,-0.03688995,-0.03414774,0.1473425
0.8829002,0.4475237,0.2119175,0.01503587,-0.01160912,-0.01990223,-0.0360629,-0.03681635,0.1463457
0.8795142,0.4445688,0.2121739,0.01150028,-0.01354423,-0.01852722,-0.03617217,-0.04144031,0.1422766
0.8757551,0.4418724,0.2154913,0.007584292,-0.01523451,-0.01410965,-0.03468744,-0.04210322,0.1433771
0.8762081,0.4428164,0.2172608,0.0078735,-0.01329918,-0.01125934,-0.03579183,-0.04745467,0.1461823
0.8800878,0.4420473,0.2138014,0.01158313,-0.0130927,-0.01365807,-0.03695926,-0.04824896,0.1460706
0.8819107,0.4373914,0.2114139,0.01323001,-0.01678949,-0.01500575,-0.03650344,-0.03699828,0.1416147
0.8814822,0.4350937,0.2120427,0.0126198,-0.01814517,-0.01335876,-0.03777494,-0.02557665,0.1295301
0.8773869,0.4381646,0.2113344,0.008337445,-0.01414989,-0.0130709,-0.03767843,-0.02825569,0.1231599
0.8731613,0.4435016,0.2090906,0.003919874,-0.007906663,-0.01434103,-0.03651623,-0.03484371,0.1254419
0.8741623,0.4473269,0.2114739,0.004724458,-0.003193849,-0.0110068,-0.03477322,-0.03364794,0.1283074
0.8748412,0.4462507,0.2148656,0.005203062,-0.003401896,-0.00668737,-0.0335949,-0.03493926,0.1315186
0.8733809,0.4448397,0.2146624,0.003539186,-0.003965043,-0.005986341,-0.03479988,-0.03673716,0.1325317
0.8719028,0.4460208,0.2143355,0.00185487,-0.001956872,-0.005432987,-0.03381376,-0.03690533,0.1333665
0.87014,0.4441617,0.2102491,-0.0001160936,-0.003010419,-0.008663402,-0.03248511,-0.03848673,0.1341443
0.8706068,0.4420369,0.2057818,0.0001410569,-0.004351672,-0.01229927,-0.03262449,-0.037118,0.1347079
0.8714168,0.443455,0.2113697,0.0007406678,-0.002172353,-0.005904388,-0.03171412,-0.03962416,0.1372751
0.8704456,0.4442042,0.2182821,-0.0004409613,-0.000684562,0.001790463,-0.03214369,-0.04264317,0.1349918
0.8710081,0.4440278,0.2157277,-8.842438e-05,-0.000145447,-6.237636e-06,-0.0330073,-0.04278375,0.1308486
0.872012,0.4427838,0.2095329,0.0007065059,-0.0006969661,-0.005468297,-0.03406055,-0.04581821,0.1305382
0.8725163,0.4399933,0.2072986,0.001003329,-0.002818469,-0.006994975,-0.03646794,-0.04491154,0.1299935
0.8750243,0.4398073,0.2140722,0.003305752,-0.002358957,0.000461459,-0.03534058,-0.04725532,0.1328763
0.8789266,0.4407477,0.2231117,0.007004641,-0.0007963335,0.01015879,-0.03311362,-0.04986267,0.1365097
0.8816058,0.4400728,0.2192068,0.009482708,-0.0008723979,0.006886705,-0.03449192,-0.04193525,0.1324944
0.8797667,0.4405887,0.2121201,0.007444848,0.0002192344,0.0004074826,-0.03499001,-0.04089957,0.128745
0.8765515,0.4422369,0.2112192,0.004033194,0.002419955,8.875152e-05,-0.03414723,-0.04379986,0.1294859
0.8751812,0.4434283,0.2083831,0.002468786,0.004140913,-0.002190363,-0.03133671,-0.04186303,0.1264836
0.8721545,0.4433666,0.2091657,-0.0007494963,0.004585812,-0.0008755902,-0.02696966,-0.04038391,0.118199
0.8721795,0.4426346,0.2099677,-0.0009131711,0.004337594,0.0004342653,-0.02768961,-0.03595373,0.1119197
0.8751821,0.4430207,0.2085691,0.001903894,0.005184639,-0.0004805619,-0.02903213,-0.03611613,0.1156549
0.8751046,0.4423285,0.2146001,0.001644248,0.004930779,0.006010585,-0.0283791,-0.03722926,0.1211044
0.8763811,0.4410951,0.2162747,0.002742214,0.004113259,0.008122082,-0.02980753,-0.03423533,0.1157514
0.8762913,0.4423259,0.2144773,0.002477516,0.005737736,0.0067384,-0.02899948,-0.03824108,0.1121177
0.8744025,0.4445009,0.2124411,0.0004176196,0.008284518,0.005092991,-0.02775614,-0.04001415,0.1142844
0.8781178,0.4462554,0.2031184,0.003965741,0.01038911,-0.003861553,-0.02985137,-0.03516046,0.1103202
0.8810882,0.4448829,0.2029745,0.006772823,0.009345078,-0.003659309,-0.03168416,-0.03249055,0.1071916
0.879502,0.4408063,0.2093376,0.005027192,0.005575632,0.003028703,-0.03217839,-0.03312861,0.1071168
0.877896,0.4399978,0.2114518,0.003265466,0.005053199,0.005447186,-0.02985373,-0.03680834,0.1073563
0.877383,0.4426748,0.2173037,0.002600416,0.007995689,0.01158312,-0.02563031,-0.03983981,0.1135292
0.8779658,0.4463808,0.219053,0.003034766,0.01194699,0.01359661,-0.0246794,-0.04234794,0.1178135
0.8776555,0.4477339,0.2154447,0.002579621,0.01352536,0.01023274,-0.02744089,-0.04052898,0.1142583
0.8768735,0.4441297,0.2136598,0.001656488,0.01012684,0.008672665,-0.02985136,-0.03013882,0.1037026
0.877029,0.440702,0.2113951,0.001674486,0.006885342,0.006613455,-0.02921283,-0.02122039,0.09162994
0.8765717,0.4400112,0.2096372,0.00108331,0.006361785,0.005042186,-0.02929605,-0.02096427,0.09119983
0.8743039,0.4409686,0.2078596,-0.001314637,0.007468014,0.003433014,-0.03143271,-0.02438128,0.09572232
0.8709332,0.4446031,0.2085186,-0.004811637,0.0112334,0.004242646,-0.02931913,-0.02416039,0.09631356
0.8711204,0.4473298,0.2129632,-0.004746733,0.01407363,0.008820885,-0.02388379,-0.02566095,0.09856701
0.8756656,0.4466076,0.2169549,-0.0003195724,0.01344781,0.0129298,-0.02060727,-0.02844507,0.09768983
0.8784938,0.446896,0.2198921,0.002394975,0.01381585,0.01596796,-0.02121949,-0.02547417,0.09359749
0.8756035,0.4477386,0.2204392,-0.0006045595,0.01472152,0.01659995,-0.02397842,-0.02621661,0.09415899
0.8718461,0.4457598,0.2216272,-0.004466831,0.01278957,0.01785697,-0.02384665,-0.02952426,0.09389326
0.8735061,0.4443681,0.22464,-0.002907329,0.01142879,0.0209229,-0.0234408,-0.0294128,0.09298461
0.8736624,0.4436161,0.223438,-0.002846906,0.0106924,0.0197583,-0.02428124,-0.0288398,0.0965679
0.8711587,0.4429733,0.2198101,-0.005441844,0.01005025,0.01615193,-0.02281989,-0.0283136,0.09617321
0.8735986,0.4459421,0.2172636,-0.003088367,0.01300519,0.01361141,-0.02236549,-0.03012617,0.08944983
0.8751977,0.4481968,0.215875,-0.001570945,0.01523221,0.01221336,-0.02176381,-0.03086119,0.08523173
0.8747088,0.4472197,0.2167258,-0.002136621,0.01421382,0.01304,-0.02096936,-0.03259989,0.08933368
0.8754262,0.4465445,0.2169219,-0.0014911,0.01348417,0.01319757,-0.02232197,-0.03323851,0.09452971
0.8748784,0.4455767,0.2153332,-0.002106123,0.01244907,0.01155641,-0.02187492,-0.02595265,0.09053298
0.8759074,0.4438409,0.2149749,-0.001139593,0.01063368,0.0111324,-0.02188951,-0.02089147,0.0873694
0.8769061,0.4431247,0.2146209,-0.0001987775,0.009826052,0.01069983,-0.02238681,-0.019851,0.08772063
0.8756092,0.4433132,0.2144002,-0.001549149,0.009911787,0.01038825,-0.02125565,-0.021006,0.08371053
0.8737884,0.4424511,0.2156114,-0.003419015,0.008936338,0.01149712,-0.02052779,-0.02346108,0.08217801
0.8717494,0.4415544,0.2151007,-0.00550269,0.00791617,0.01087283,-0.01956543,-0.02364814,0.07858532
0.8740098,0.4418641,0.2131973,-0.00328281,0.008092948,0.008845454,-0.02057935,-0.02456159,0.07224675
0.877866,0.4435508,0.21231,0.0005372629,0.009637932,0.007824267,-0.02108365,-0.02288701,0.07601342
0.8772078,0.4465387,0.213148,-0.0001529157,0.01247585,0.008519059,-0.01949298,-0.02164882,0.07931613
0.8757421,0.4475198,0.2145296,-0.001646588,0.01329912,0.009748715,-0.02024952,-0.02154562,0.07492258
0.8754408,0.4473718,0.2138505,-0.001972031,0.01298589,0.008909775,-0.02008875,-0.01943822,0.07353604
0.8749268,0.4472381,0.2135594,-0.002506404,0.01267977,0.008451149,-0.01982117,-0.02130257,0.07386562
0.8751645,0.4463516,0.2151337,-0.002285607,0.01161403,0.009851093,-0.02097293,-0.02214773,0.07187394
0.8772842,0.4449523,0.2176485,-0.0001792665,0.01002902,0.01218501,-0.0193703,-0.02191905,0.07082838
0.8801414,0.4422318,0.2196562,0.002667923,0.007116894,0.01400574,-0.01829194,-0.02235628,0.07043687
0.8809952,0.4434649,0.2172672,0.003514677,0.008152815,0.01142392,-0.01843595,-0.02044067,0.07037209
0.8786994,0.4461097,0.21553,0.00121462,0.01059537,0.009488543,-0.01652019,-0.0214019,0.0734161
0.8741749,0.4455932,0.2159706,-0.003311778,0.009872088,0.009725909,-0.01513638,-0.02239363,0.07602812
0.8709814,0.4476909,0.2130858,-0.006504742,0.01175891,0.006633124,-0.01670416,-0.02434792,0.07376765
0.8723909,0.4470199,0.2142885,-0.005092421,0.01087307,0.007623772,-0.01841677,-0.02625335,0.07051706
0.8757136,0.4418098,0.2177606,-0.001764372,0.00544472,0.01088006,-0.01667293,-0.01946085,0.06765039
0.8766521,0.4396523,0.2161138,-0.0008180478,0.003065768,0.009014173,-0.01519572,-0.01295467,0.06260131
0.8756099,0.4409762,0.21649,-0.001850196,0.004165756,0.009168366,-0.01601939,-0.01374455,0.05771342
0.8745868,0.4447728,0.215899,-0.002860909,0.007736486,0.008352719,-0.01497409,-0.01617148,0.05499629
0.8748147,0.4468105,0.2125302,-0.002618585,0.00954679,0.004757127,-0.01447358,-0.01589931,0.05421336
0.8754133,0.4465447,0.2127574,-0.002003428,0.009052517,0.004755661,-0.0169297,-0.01275559,0.05444689
0.8747582,0.4442174,0.2146249,-0.002640032,0.006495692,0.006393322,-0.01868695,-0.01084786,0.05310629
0.8749245,0.4405369,0.2193312,-0.002453183,0.002585155,0.01086875,-0.01797861,-0.01358304,0.05234121
0.875297,0.444593,0.2235367,-0.002058398,0.006410955,0.01484277,-0.01641236,-0.0169873,0.05256046
0.8741485,0.4504959,0.2219833,-0.003182724,0.01208367,0.01305729,-0.01493929,-0.01353154,0.05110431
0.8730204,0.4499982,0.2184407,-0.004284935,0.0113561,0.009281941,-0.01290986,-0.01094398,0.05182356
0.8727433,0.4490978,0.2162162,-0.004534487,0.01022626,0.006824276,-0.01441083,-0.01566746,0.05446762
0.8752855,0.4479653,0.2153827,-0.001962927,0.008864672,0.005757371,-0.019963,-0.01719463,0.05651789
0.8762062,0.4462268,0.2135899,-0.00101127,0.006897559,0.003731223,-0.02226294,-0.01458977,0.05642592
0.8738753,0.4439795,0.2172446,-0.003309594,0.004422457,0.007153064,-0.01944086,-0.0132715,0.0529683
0.87506,0.4424571,0.2263224,-0.002090803,0.002673198,0.01599867,-0.01414615,-0.01428752,0.05230233
0.8746658,0.4462162,0.2276967,-0.00244952,0.006206738,0.01714146,-0.01156232,-0.01598843,0.05273649
0.8726879,0.4491241,0.2208668,-0.004390492,0.008890616,0.01008061,-0.01215043,-0.01531191,0.05281833
0.8749883,0.447917,0.2139135,-0.002051978,0.007461229,0.002896842,-0.01232241,-0.0149398,0.05426343
0.875191,0.4473817,0.2161487,-0.001809822,0.006705502,0.004902158,-0.01460401,-0.01433825,0.05121663
0.8737959,0.4469791,0.2207552,-0.003164308,0.006084312,0.009279908,-0.01516977,-0.0142722,0.04996591
0.8735971,0.445681,0.2184075,-0.003321407,0.004569696,0.006704577,-0.01232293,-0.01799079,0.05003053
0.8732846,0.4456266,0.2197205,-0.003591044,0.004300994,0.007791249,-0.01114664,-0.01951067,0.04605864
0.8739541,0.448222,0.2201305,-0.002877603,0.006684511,0.007976469,-0.01015208,-0.0168392,0.04556657
0.8733303,0.4501285,0.2182355,-0.003456551,0.008381579,0.005858253,-0.01014003,-0.01530554,0.04470509
0.8725404,0.4500526,0.2204945,-0.00420045,0.008098737,0.007895707,-0.01090126,-0.01723016,0.04499926
0.8724583,0.4497789,0.2190401,-0.004235582,0.007620608,0.006221689,-0.01149727,-0.01854116,0.04787719
0.8728816,0.4478408,0.2187576,-0.003764402,0.005480543,0.005721501,-0.01251253,-0.01652775,0.0471085
0.8751347,0.4458406,0.2184603,-0.001462345,0.003280831,0.005208691,-0.01207808,-0.01568105,0.04992695
0.874787,0.4456685,0.2152655,-0.001760099,0.002911953,0.001800595,-0.01200363,-0.01607725,0.05254296
0.8718098,0.447129,0.2164619,-0.004686552,0.004178409,0.002786207,-0.01048782,-0.01604819,0.05042927
0.8693672,0.4495261,0.2138051,-0.007077635,0.006384475,-7.861554e-05,-0.007295094,-0.01811652,0.04913102
0.8688893,0.4501852,0.2089657,-0.007503074,0.006855495,-0.00512298,-0.005453987,-0.02213831,0.04719007
0.8710614,0.4492352,0.2107316,-0.005277391,0.005720322,-0.003558419,-0.004461902,-0.02471105,0.04564089
0.8719745,0.4483075,0.2154563,-0.004309668,0.004610402,0.0009690464,-0.007203242,-0.02334144,0.04606285
0.872235,0.4493891,0.2183462,-0.003993286,0.005512763,0.003665908,-0.01098826,-0.02002471,0.04787529
0.8725803,0.4507117,0.2174806,-0.003590992,0.006659034,0.002611717,-0.01170944,-0.01772427,0.0469321
0.8721742,0.4497221,0.2162265,-0.003939039,0.00549599,0.001173631,-0.01061789,-0.01887988,0.04549678
0.8741876,0.4499073,0.2140296,-0.001866409,0.005510696,-0.001202778,-0.007255977,-0.02276748,0.04911777
0.8756578,0.450265,0.2131122,-0.000336127,0.005700642,-0.002294822,-0.005179578,-0.02619918,0.05046435
0.8750965,0.4493743,0.2168265,-0.0008365339,0.004645019,0.001249722,-0.00641024,-0.0290375,0.04985611
0.8757839,0.4483877,0.2215555,-8.761074e-05,0.003496368,0.005813954,-0.008032386,-0.02304943,0.04807314
0.8765099,0.4464518,0.225322,0.0007003806,0.001401197,0.009420725,-0.01021127,-0.006250129,0.04009845
0.8751469,0.4460496,0.2189244,-0.0006004778,0.0008425757,0.002868003,-0.01201908,0.0007447617,0.03165727
0.8717564,0.4461087,0.2098485,-0.003928852,0.0007483976,-0.006358453,-0.008513399,-0.01116809,0.02930149
0.8703624,0.4453795,0.2133522,-0.005260651,-0.0001307587,-0.003000614,-0.002837375,-0.02110529,0.03207716
0.8726551,0.4458841,0.2121736,-0.002905722,0.0002271128,-0.004320202,-0.003803931,-0.0118177,0.03299009
0.8745883,0.444854,0.2063541,-0.0009102869,-0.0009460868,-0.01027552,-0.007576131,-0.003597091,0.03284906
0.8745914,0.4430033,0.2130587,-0.0008450191,-0.002936108,-0.003701268,-0.009387215,-0.009634184,0.03107153
0.8751388,0.4438279,0.217848,-0.0002355597,-0.002247054,0.0009634859,-0.009690885,-0.009738607,0.02546823
0.8772466,0.4478648,0.2147099,0.001934007,0.001658434,-0.002293355,-0.007668229,-0.01009398,0.02717606
0.8777655,0.4528498,0.2157378,0.002514303,0.006516241,-0.001378437,-0.008981126,-0.01506853,0.03052528
0.8760195,0.4519007,0.2166946,0.000828866,0.005443956,-0.0005288066,-0.0119764,-0.008982533,0.03077509
0.8742533,0.4474698,0.2119614,-0.0008775934,0.000893596,-0.005363614,-0.01127396,-0.007693961,0.03574507
0.8737605,0.4469032,0.2093847,-0.001311586,0.000211251,-0.008036073,-0.008919276,-0.01222738,0.03661984
0.8741224,0.4449191,0.2157449,-0.0008920186,-0.001884815,-0.001765776,-0.005031082,-0.01047985,0.03443781
0.8741037,0.4416333,0.2209943,-0.0008540933,-0.005278809,0.003399524,-0.005213962,-0.0141589,0.03442641
0.8753128,0.443635,0.2133859,0.0004105818,-0.00338135,-0.004287206,-0.007112827,-0.01688822,0.03328149
0.8752745,0.4463936,0.2059422,0.0004265908,-0.0007228233,-0.01180364,-0.004744585,-0.01329475,0.03291998
0.8734215,0.4468845,0.2086974,-0.001373235,-0.0003277745,-0.009115399,-0.006179036,-0.01107677,0.03006995
0.8737614,0.4451023,0.2096664,-0.0009814286,-0.002201561,-0.008207344,-0.008538434,-0.007948332,0.02674873
0.8737092,0.4422732,0.2101485,-0.0009830511,-0.00511796,-0.007779936,-0.008843229,-0.008445396,0.02620844
0.874694,0.4454267,0.2152175,5.109729e-05,-0.002047371,-0.002759381,-0.009447463,-0.01087187,0.02555774
0.8774361,0.449054,0.215517,0.002841286,0.001501436,-0.002502018,-0.005288352,-0.009109509,0.02526331
0.8780416,0.4462332,0.2128697,0.003493433,-0.001393481,-0.005185405,-0.002505298,-0.007881528,0.02365237
0.8779889,0.4440584,0.2114518,0.003485718,-0.003638109,-0.006633367,-0.002605685,-0.005994553,0.02263639
0.8773444,0.4429331,0.2106484,0.00288452,-0.004828947,-0.00746102,-0.00132255,-0.005674288,0.02220472
0.8768629,0.4426413,0.2133553,0.002444385,-0.005181945,-0.004772475,-0.002369415,-0.008723372,0.01865284
0.8762411,0.4457286,0.2143756,0.001861921,-0.002151336,-0.003764741,-0.00260996,-0.008209744,0.01573137
0.8748221,0.4471496,0.2126976,0.0004801731,-0.0007826289,-0.00544963,-0.00291899,-0.004598949,0.01610707
0.8739414,0.4473066,0.2116678,-0.0003653666,-0.0006735802,-0.006480767,-0.005272149,-0.0002810688,0.01687458
0.871331,0.4471285,0.2093887,-0.00294263,-0.0008952873,-0.008755762,-0.004759501,-0.0004158629,0.01526005
0.8701383,0.4448537,0.20973,-0.00410413,-0.003209678,-0.008404994,-0.002576351,-0.004431983,0.01444023
0.871686,0.4432586,0.2130983,-0.002526927,-0.004840345,-0.00502171,-0.001933423,-0.00351777,0.01456333
0.873954,0.4426025,0.2131764,-0.0002308582,-0.005527976,-0.004923458,-0.003086525,-0.002090507,0.01198353
0.8785211,0.4434551,0.2098479,0.004362817,-0.004702845,-0.008226509,-0.003306162,0.0001334856,0.01054069
0.8799713,0.4455387,0.209099,0.005838168,-0.00264259,-0.008944988,-0.003786922,0.003926741,0.01085599
0.8769862,0.4477397,0.2106165,0.002876524,-0.0004609311,-0.00739191,-0.005091485,0.0002686555,0.01136191
0.8755036,0.449437,0.2111634,0.001415663,0.001220979,-0.006804572,-0.00388514,-0.003317545,0.01251833
0.8753619,0.4475544,0.2127607,0.001293748,-0.0006734174,-0.005161889,-0.004377832,-0.003349299,0.01185641
0.8737916,0.4462999,0.2111495,-0.0002586318,-0.001936192,-0.006722996,-0.004862304,-0.007151736,0.01038544
0.8715286,0.4466579,0.2083449,-0.002505465,-0.001583338,-0.009472873,-0.003869134,-0.008738848,0.01042924
0.872754,0.4439514,0.2104893,-0.001265544,-0.00429179,-0.007269332,-0.005902255,-0.002981199,0.01100148
0.876891,0.4413168,0.2121249,0.00288447,-0.006925246,-0.005570169,-0.006320299,0.008414732,0.009473536
0.8784885,0.440837,0.2143647,0.004493443,-0.00740075,-0.003262547,-0.006149456,0.016923,0.005974477
0.875588,0.4453613,0.2158883,0.001602912,-0.002868995,-0.001667174,-0.007392274,0.01154465,0.001921296
0.8721302,0.4518115,0.2121891,-0.001846528,0.003591847,-0.005290934,-0.007125725,0.004632015,-0.0007145573
0.8722979,0.4505931,0.2099436,-0.001671869,0.002387015,-0.00745764,-0.005660788,0.008000763,0.001526845
0.8742957,0.4483672,0.2102545,0.0003314301,0.0001772378,-0.007064654,-0.001091037,0.007644357,0.00488995
0.8763892,0.449012,0.2098009,0.002429201,0.0008404864,-0.007433112,0.002038636,0.005183288,0.006285076
0.8769827,0.4461123,0.2099454,0.003025696,-0.002038717,-0.00720038,0.00169147,0.008530717,0.003301907
0.8753971,0.4438578,0.2121593,0.001441858,-0.004270814,-0.004895283,0.001853026,0.006408304,-0.002611627
0.8738067,0.444089,0.2134419,-0.0001481386,-0.004015442,-0.003518711,-0.0009171364,0.002289598,0.0001899921
0.8716003,0.4466883,0.2125741,-0.002355311,-0.001390166,-0.004289955,-0.004097398,6.424811e-05,0.004568239
0.8721226,0.4518881,0.2146758,-0.001834834,0.003837402,-0.002089466,-0.00147034,-0.002429804,0.003733748
0.8757902,0.4507118,0.2164977,0.00182998,0.002690341,-0.0001666995,0.001323765,0.0007183392,0.005449423
0.8760714,0.4484956,0.2147073,0.002107579,0.0005044972,-0.001854554,-0.001409433,0.0005040318,0.005107481
0.872965,0.4520435,0.2149065,-0.001003245,0.004083683,-0.001551448,-0.003152391,-0.004160964,0.004927152
0.869624,0.4515871,0.2147469,-0.004349518,0.00365917,-0.001606086,-0.001950553,-0.005764923,0.006350638
0.8707563,0.450399,0.2120974,-0.003222989,0.002503213,-0.00414989,-0.002820247,-0.006346661,0.004308397
0.8747131,0.4503505,0.211535,0.0007275499,0.002486992,-0.004606082,-0.002963618,-0.002453584,0.003727256
0.8752951,0.4475191,0.2118232,0.00130309,-0.000312352,-0.004211155,-0.00417331,0.003854214,0.002511043
0.8759148,0.4485446,0.2119308,0.001916022,0.0007449064,-0.003996459,-0.007103637,0.010885,0.001709106
0.8752789,0.4492801,0.2128755,0.001273094,0.001511702,-0.002944489,-0.006065153,0.01190674,0.002768511
0.8717284,0.4475643,0.2136343,-0.002284791,-0.0001732991,-0.002078242,-0.003951932,0.0003120102,0.001239393
0.8707744,0.4472223,0.2147986,-0.00324631,-0.0004850238,-0.000806599,-7.089291e-05,-0.00701527,0.001538064
0.873188,0.4455964,0.2156915,-0.0008404498,-0.002081324,0.0001933037,0.002751511,-0.004918718,0.002076668
0.87631,0.4472018,0.218302,0.002273832,-0.0004468496,0.002910309,-0.001776018,0.000193322,0.001729526
0.873996,0.4500571,0.2236616,-4.785964e-05,0.002436976,0.008375533,-0.00268403,0.004340475,0.002669893
0.8677275,0.449242,0.2246033,-0.006323986,0.001649607,0.009421393,0.0004057471,0.002529498,0.00193099
0.8649605,0.4499264,0.2233171,-0.009098399,0.002361076,0.008237323,-0.001753308,0.0007000692,0.002180957
0.8683622,0.4499985,0.2257282,-0.005703521,0.002459257,0.01074798,-0.001528736,-0.00186067,0.003503757
0.8761065,0.446888,0.2253632,0.002034861,-0.0006260948,0.01047938,3.793642e-05,-0.005806266,0.004277292
0.8775657,0.4452888,0.2231009,0.003489028,-0.002201275,0.008309723,-0.002411972,-0.007363934,0.004575402
0.8751724,0.4465772,0.2234675,0.001091411,-0.0008897528,0.008764683,-0.001943521,-0.01068528,0.004533954
0.8755571,0.4478756,0.2204701,0.001472501,0.0004307613,0.005851056,-0.001549927,-0.01306225,0.006318526
0.873817,0.4475324,0.2156364,-0.0002706547,0.0001088052,0.00109641,-0.003864511,-0.01134399,0.00546009
0.873261,0.448673,0.2122376,-0.0008293181,0.001269773,-0.002228276,-0.004278152,-0.006733038,0.002304207
0.8713566,0.4508858,0.2099142,-0.002735856,0.003501955,-0.004482281,-0.004934926,-0.003710987,-2.262081e-05
0.8695504,0.449736,0.212047,-0.004543678,0.002370598,-0.002284474,-0.004821185,-0.005680556,-0.004261031
0.8728438,0.4476839,0.2126958,-0.001251252,0.0003357377,-0.001574753,-0.001796287,-0.005982894,-0.005851582
0.8724145,0.4472895,0.2101406,-0.001680703,-4.253407e-05,-0.004072883,0.0002182266,-0.004934138,-0.004275567
0.8727092,0.4477838,0.2088279,-0.001385425,0.0004666909,-0.005332205,-0.0006865483,-0.006295059,-0.001213374
0.8745515,0.4484321,0.2063891,0.000458289,0.001128744,-0.007720691,-0.0009214997,-0.005271211,0.003205795
0.8730396,0.4452017,0.2082659,-0.001051419,-0.002088926,-0.005796443,-0.001167352,0.001303471,-0.0009171688
0.8738235,0.4414628,0.2124912,-0.0002645655,-0.005816197,-0.001526152,-0.003782365,0.008632738,-0.008786357
0.8735178,0.4435732,0.2117608,-0.0005665904,-0.003694882,-0.002213677,-0.002655236,0.008377235,-0.01028498
0.8722343,0.4466455,0.2126428,-0.001845799,-0.0006122312,-0.001290899,-0.0001112699,0.005183306,-0.01199335
0.8712879,0.4486913,0.2140231,-0.002787176,0.001443462,0.0001283671,-0.0004757079,0.007189433,-0.01177953
0.8691864,0.4511476,0.2134918,-0.00488291,0.003909221,-0.0003657871,0.0008508575,0.01001429,-0.007605847
0.869666,0.4507151,0.214689,-0.004396783,0.00348562,0.000866748,0.001091603,0.01530061,-0.0064041
0.8705179,0.4469411,0.2155379,-0.003537234,-0.0002802208,0.00174918,-0.0005051404,0.02168181,-0.006212451
0.8718685,0.4430939,0.2169801,-0.002177968,-0.004119981,0.003223153,-0.002218492,0.018263,-0.005799887
0.8725127,0.4441252,0.2173029,-0.001523883,-0.003081937,0.00357576,-0.004170694,0.01011004,-0.00529826
0.8700303,0.4478107,0.2153478,-0.003995235,0.0006099493,0.001648521,-0.002814628,0.00296076,-0.004427655
0.8690043,0.4489437,0.214339,-0.005008994,0.001748915,0.0006655559,-0.0005672253,-0.001487915,-0.004234373
0.8693373,0.4508678,0.2125781,-0.004662532,0.003678661,-0.001071532,0.0004584722,0.001508471,-0.0007174526
0.8696518,0.4523145,0.2152606,-0.004333096,0.005130322,0.001632779,-0.0005376029,0.002722337,0.002635889
0.8694573,0.4524306,0.2202552,-0.004511193,0.005250744,0.006647333,-0.003620832,-0.0002799103,0.0009648232
0.8692017,0.4528484,0.2179266,-0.004748748,0.005671907,0.004336584,-0.003377571,-0.002323429,1.555873e-05
0.8702794,0.4488114,0.2163363,-0.003651388,0.001637096,0.002761937,-0.002076554,-0.004574087,0.001378806
0.8719489,0.4458529,0.2155066,-0.001960604,-0.001320381,0.001945631,-0.0007193744,-0.001163459,0.001521275
0.874399,0.4474871,0.2109415,0.0005124381,0.0003135826,-0.002608183,0.003252095,0.002473827,0.0005353312
0.8739539,0.4472216,0.2119501,9.180774e-05,4.673032e-05,-0.001590519,0.004356317,-0.003181413,-0.0001343714
0.8720115,0.4461995,0.2137795,-0.001824797,-0.0009777057,0.000246134,0.003870174,-0.008829458,-0.0007855478
0.8733517,0.4457471,0.2116323,-0.0004576263,-0.00143338,-0.001895598,0.004992414,-0.008318127,-0.0008826739
0.8740111,0.4466083,0.2125943,0.0002298355,-0.0005761289,-0.0009296653,0.003812437,-0.006329277,-0.0009198886
0.8743982,0.4478163,0.2129599,0.000645942,0.0006271207,-0.0005614918,0.002201031,-0.00597102,-0.001317664
0.8748966,0.4475621,0.2122662,0.001174044,0.0003677177,-0.001253895,0.002584416,-0.005914971,2.896503e-05
0.8722077,0.4498419,0.2146695,-0.001484407,0.002641629,0.00114954,0.001906758,-0.005075906,0.001693662
0.8699769,0.4518134,0.2155985,-0.003684386,0.004606655,0.002077542,0.0003501548,-0.002928468,0.00357354
0.870591,0.4488926,0.2141954,-0.003038948,0.00167866,0.0006725187,0.0002059081,0.0005637439,0.003991405
0.8719022,0.4462489,0.2124551,-0.0016958,-0.0009729683,-0.001070781,-4.824182e-05,0.002634299,0.0004607079
0.8731279,0.4489093,0.2113495,-0.0004376916,0.001678771,-0.002180354,-0.0008046022,0.002131006,-0.003230157
0.8747054,0.4513466,0.2118336,0.001172694,0.004106664,-0.001700889,-0.0004972399,-0.0008184965,-0.004748669
0.8738931,0.4495507,0.2111852,0.0003935631,0.002300566,-0.002354648,-0.0003962679,-0.004320163,0.0004521129
0.8716717,0.4497217,0.2083521,-0.001794453,0.002460589,-0.005193492,0.0001367367,-0.007257534,0.003825219
0.8730535,0.4505352,0.2084063,-0.0003792289,0.003262236,-0.005145167,0.00183421,-0.009165572,-0.001065666
0.875015,0.4495698,0.2192161,0.001615805,0.002284074,0.005658696,0.001692789,-0.005043226,0.001702748
0.8767078,0.4498143,0.2306281,0.003341953,0.002514927,0.0170647,1.973983e-05,0.0001561334,0.002958567
0.8773038,0.4482863,0.2246549,0.003971057,0.0009722244,0.01108503,5.584881e-05,-0.00212113,-0.000890626
0.875401,0.4464647,0.2162393,0.002100816,-0.0008650176,0.002661892,0.001570792,-0.004948977,0.004514419
0.8766711,0.4470593,0.2196071,0.003402783,-0.0002869141,0.006020832,0.003278236,-0.0063618,0.005265217
0.8770458,0.4465888,0.2215917,0.003808366,-0.0007746335,0.007995019,0.006248967,-0.01308418,0.003331587
0.8764547,0.4454013,0.2203614,0.003247044,-0.001979874,0.006752543,0.0073242,-0.01728838,0.004965269
0.8787326,0.4456974,0.2184834,0.005553375,-0.001701953,0.004860447,0.004178226,-0.01051848,0.002649815
0.876941,0.4461643,0.2135829,0.003788749,-0.001253453,-5.621609e-05,0.001945743,-0.0005413861,0.001058888
0.8733904,0.4461757,0.2115177,0.0002633319,-0.0012606,-0.002139415,0.002125007,0.00319141,-0.006763552
0.8699836,0.448464,0.2120901,-0.003119978,0.001009124,-0.001586852,0.003492479,-0.0001184047,-0.01264121
0.867965,0.4512064,0.2110583,-0.005116587,0.003733048,-0.002639974,0.003988654,-0.004343445,-0.0008949527
0.8700998,0.4513512,0.2100216,-0.00296132,0.003859264,-0.003699116,0.003690319,-0.007950112,0.01164624
0.8686414,0.4529355,0.2136696,-0.004400291,0.005424978,-7.451216e-05,0.004613851,-0.01317155,0.01145432
0.8681974,0.4542693,0.2188356,-0.004825704,0.0067397,0.005067353,0.00121652,-0.01434596,0.005759748
0.8740347,0.4496872,0.2168077,0.001029425,0.002138123,0.003014615,-0.00205296,-0.01122258,0.004680725
0.8777882,0.4453671,0.2154198,0.004800092,-0.002202181,0.00160124,-0.0001045102,-0.009158347,0.005202402
0.8767991,0.4467596,0.2168721,0.003827532,-0.0008304651,0.003027224,-0.001277058,-0.007107439,0.005420647
0.8744688,0.4463736,0.2114572,0.001512842,-0.001237636,-0.002414794,-0.002894454,-0.006139181,0.007238304
0.8747104,0.4432007,0.206299,0.001769073,-0.004431993,-0.007600584,-0.00183603,-0.006478836,0.005047382
0.8734084,0.4444887,0.2064473,0.0004805547,-0.003165452,-0.00748012,-0.0009171457,-0.005176638,0.002512886
0.8701667,0.445776,0.2072387,-0.002748617,-0.001899388,-0.006716264,0.0008516891,-0.003833508,-0.0005165792
0.871215,0.4441675,0.2071153,-0.001688891,-0.003528854,-0.006866684,0.002713382,-0.004222074,-0.004801797
0.8727848,0.4455149,0.2065668,-0.0001085224,-0.002201735,-0.007441124,0.004679132,-0.004683974,-0.004215802
0.8740791,0.4478356,0.2072039,0.001195659,9.930697e-05,-0.006828636,0.004396346,-0.002661865,-0.003303755
0.8750285,0.447651,0.2066068,0.002154124,-0.0001041647,-0.00744857,0.003355206,-0.00135376,-0.001885527
0.8747469,0.4467844,0.2052557,0.001880753,-0.0009889126,-0.008820491,0.004194594,-0.003596508,0.0005202185
0.8765534,0.4471899,0.2057477,0.003694518,-0.0006006737,-0.008346887,0.00342026,-0.003643601,-0.0007947103
0.8772596,0.447956,0.2077374,0.004407052,0.0001489339,-0.006373027,0.003634078,-0.003467386,-0.002579421
0.8767815,0.4486396,0.2112148,0.003934206,0.0008167771,-0.002908496,0.004296583,-0.005921709,-0.002503321
0.8756284,0.4506511,0.2118397,0.002784996,0.002813394,-0.002293577,0.002877847,-0.005315428,-0.002263505
0.8739104,0.4500512,0.206569,0.001069576,0.002199266,-0.007571246,0.002572255,-0.003788173,-0.002918795
0.8746904,0.4474441,0.2014727,0.001850817,-0.000421532,-0.01267158,0.001687688,-0.002903838,-0.003268868
0.8743933,0.4471948,0.206327,0.001553453,-0.0006841016,-0.007817926,0.0007634364,-0.003545864,-0.003048307
0.8748695,0.4469627,0.2129958,0.00202813,-0.0009288726,-0.001146302,0.001004798,-0.006341276,-0.001749343
0.8766925,0.447315,0.2091777,0.003848281,-0.0005886988,-0.004958023,0.0004094298,-0.005288229,0.002106898
0.8758899,0.4474629,0.2084181,0.003041411,-0.0004523933,-0.005707738,0.0006598082,-0.004500848,0.004127664
0.8756768,0.4462663,0.2113557,0.002822545,-0.001659922,-0.002756867,0.0006125728,-0.004183415,0.000314357
0.8750564,0.444884,0.2087643,0.002195047,-0.003052515,-0.005331654,9.802055e-05,-0.001134899,-0.004096591
0.8757355,0.4421493,0.2090248,0.002865389,-0.005796775,-0.005051239,0.0003186013,-0.00190949,-0.00209458
0.8790874,0.4425544,0.206807,0.006207096,-0.005400216,-0.007245794,-0.001332511,-0.001171409,-0.0003614758
0.8789404,0.4438335,0.2032912,0.006048355,-0.00412853,-0.01073505,-0.002508285,0.003439693,-0.00473386
0.8764194,0.4415372,0.2097329,0.003513803,-0.006430889,-0.004263474,-0.001140053,0.004649166,-0.008711646
0.8742313,0.4416196,0.2135183,0.001310384,-0.006352892,-0.0004446822,0.001491184,0.004059677,-0.01240803
0.8745018,0.4428257,0.2062644,0.001563848,-0.005149558,-0.007662009,0.00423836,0.00373926,-0.01337059
0.8758763,0.4430503,0.1999092,0.0029195,-0.004925658,-0.01397738,0.003679242,0.003781439,-0.0109567
0.8753986,0.4434048,0.2031749,0.002421461,-0.004569844,-0.01066845,0.002528801,0.002748406,-0.01261496
0.8793622,0.4428934,0.2074154,0.006363049,-0.005077676,-0.006381121,0.003581182,0.002569536,-0.01303397
0.8834497,0.4440334,0.2082126,0.01042678,-0.003931975,-0.005533473,0.002796189,0.008339501,-0.01345341
0.8799718,0.4450822,0.2108979,0.006923342,-0.002875112,-0.002794124,0.002013594,0.01375823,-0.01753835
0.8770003,0.4453082,0.2099001,0.003924082,-0.00263881,-0.003734612,0.003432384,0.01216377,-0.01803515
0.8772803,0.4470596,0.2079704,0.004174242,-0.0008747869,-0.005603687,0.00339361,0.009939545,-0.01825204
0.8751708,0.44724,0.2070242,0.002032825,-0.0006797485,-0.006486402,0.001127046,0.01222172,-0.0182979
0.8716755,0.4451269,0.2016858,-0.001496511,-0.002776214,-0.01175817,-0.001286977,0.01514675,-0.01733746
0.8720302,0.4426133,0.201896,-0.001177578,-0.005271216,-0.01147842,-0.001666625,0.01766914,-0.02208452
0.8746549,0.4411796,0.2044866,0.001409733,-0.006684415,-0.008815154,-0.001651301,0.01803268,-0.02743583
0.8752478,0.4422155,0.2036646,0.001963934,-0.005625973,-0.009561104,-0.004107973,0.014347,-0.02745359
0.8751364,0.4454511,0.206287,0.001812579,-0.002365801,-0.006859413,-0.005364866,0.01276286,-0.02382473
0.8752205,0.4486851,0.2066613,0.001855613,0.00089489,-0.006402628,-0.003627454,0.01222013,-0.01922991
0.8767071,0.448745,0.2072538,0.003300189,0.0009834021,-0.005724407,-0.00144527,0.01348454,-0.01535899
0.8782109,0.4471422,0.2112218,0.004760943,-0.000589212,-0.001667782,0.0001142565,0.01784913,-0.01348171
0.8754318,0.4453252,0.2099025,0.001937771,-0.002374458,-0.002895685,-0.0006189019,0.01582387,-0.01570199
0.8714511,0.4436622,0.209175,-0.002087872,-0.004004373,-0.003529361,-0.001779475,0.01347434,-0.01762072
0.8700924,0.4444949,0.2122493,-0.003492164,-0.003137343,-0.0003591877,-0.0006418816,0.01380615,-0.01633919
0.8709877,0.4453461,0.2122867,-0.002642978,-0.002250468,-0.0002240508,0.0001848665,0.01158084,-0.01455691
0.8721246,0.4467344,0.2098248,-0.001552357,-0.0008252944,-0.002586783,8.785172e-05,0.01479326,-0.01120302
0.872538,0.4494538,0.2074715,-0.00118512,0.001932093,-0.004839734,0.0007307714,0.01940885,-0.009437067
0.8741602,0.44805,0.2077473,0.0003912627,0.0005671977,-0.004462653,0.001107224,0.01970126,-0.01493133
0.8755101,0.446177,0.2073491,0.001695762,-0.001266255,-0.004758616,0.0004218741,0.01711666,-0.02092542
0.875079,0.4476034,0.2017543,0.001219648,0.0002003429,-0.0102505,0.0002245147,0.01117006,-0.01823998
0.8747924,0.447422,0.19843,0.000888641,5.950588e-05,-0.0134709,0.0004954079,0.008170433,-0.01477309
0.8746955,0.4469966,0.2006519,0.0007478104,-0.0003250436,-0.01114414,-0.001726221,0.00619101,-0.01732413
0.8733188,0.4484129,0.2035199,-0.000672314,0.001132258,-0.008169934,-0.002783627,0.005891117,-0.0184678
0.8715442,0.4489956,0.2075128,-0.002489609,0.001755845,-0.00406939,0.0006327769,0.01284376,-0.01732824
0.8720542,0.4494867,0.2131508,-0.002021555,0.002287772,0.001677531,0.001204759,0.01641273,-0.0141526
0.8723515,0.4502614,0.216173,-0.001765268,0.00310287,0.004809601,0.001825743,0.0106351,-0.009495225
0.8700936,0.4495219,0.2124369,-0.004063019,0.002403151,0.001183987,0.005589263,0.004311403,-0.0100984
0.8691202,0.4471979,0.206508,-0.005075,0.0001181941,-0.004634513,0.003940535,0.005049408,-0.01206233
0.8703038,0.4454192,0.2055874,-0.003928389,-0.001622432,-0.005444821,0.002980995,0.005824281,-0.01193141
0.8712811,0.4473236,0.2071537,-0.002986399,0.0003190841,-0.003768415,0.004165891,0.001655383,-0.01164572
0.8709044,0.4497451,0.209621,-0.003396549,0.002776867,-0.001191361,0.0007478669,0.002090897,-0.009815652
0.8705023,0.4485203,0.2120817,-0.003830055,0.001587216,0.001378569,-0.0002604043,0.002954217,-0.008129556
0.8710971,0.4482827,0.2101023,-0.003264448,0.001383648,-0.0004922193,0.001469783,0.0004355155,-0.00767534
0.8707945,0.4500146,0.2079111,-0.003594052,0.003148252,-0.002575824,0.002644428,0.0002901512,-0.008907642
0.8713862,0.4500728,0.2090411,-0.003027051,0.003237803,-0.001339334,0.002386331,-0.001304915,-0.01033516
0.8746424,0.4494537,0.2111295,0.0002068817,0.002648522,0.0008543435,0.0001688923,-0.0006874076,-0.01187334
0.8772987,0.4473848,0.2141357,0.002843243,0.0006078764,0.003964298,-0.0009383893,0.003967231,-0.01525246
0.8758011,0.4455883,0.2137701,0.001327831,-0.001162131,0.00370075,-0.002706121,0.006133448,-0.01620891
0.8702664,0.4494063,0.2080005,-0.004222631,0.002680815,-0.001968781,-0.002435628,0.006666571,-0.01704586
0.8674023,0.4539364,0.2022204,-0.007100579,0.007234184,-0.007651058,-0.001032828,0.008210262,-0.01685704
0.8712914,0.4527664,0.2003471,-0.003223195,0.006085547,-0.009428581,-0.002008706,0.01216857,-0.01240281
0.8752264,0.4502636,0.204278,0.0007023739,0.00360211,-0.005403666,0.000189017,0.01274205,-0.01157754
0.8729406,0.4496977,0.2098222,-0.001590718,0.003053387,0.0002329781,0.001766182,0.0111547,-0.01206604
0.8707953,0.4485734,0.2119603,-0.003741261,0.001944,0.0024619,0.0005963104,0.01287725,-0.01332472
0.8729837,0.446651,0.2122634,-0.00155596,3.410531e-05,0.002854111,0.0004494878,0.008587796,-0.01582782
0.8723652,0.4460201,0.2140143,-0.002175537,-0.0005863262,0.004692133,-0.0003586691,0.001892994,-0.009714034
0.871357,0.4491588,0.2163019,-0.003182827,0.002560645,0.007064502,-0.0009195784,0.0005013205,-0.003074216
0.8720506,0.4526139,0.2094683,-0.002486253,0.006022022,0.0003131194,-0.001575395,0.0008238864,-0.004420133
0.870172,0.4497786,0.2006317,-0.004359821,0.003190897,-0.008444013,-0.001519684,0.003895204,-0.005681553
0.8706693,0.4474695,0.2061526,-0.003855544,0.0008838029,-0.002846352,-0.0002193578,0.005853283,-0.002630402
0.8714311,0.4509401,0.2113207,-0.003084659,0.004354259,0.002396033,0.0003882857,0.005979328,-0.001712303
0.8702392,0.4521817,0.2078562,-0.004265418,0.005593655,-0.0009965858,0.002002074,0.004961074,-0.0055601
0.87134,0.4507239,0.2055584,-0.00315145,0.004131301,-0.003224884,0.003106353,0.001429671,-0.004872724
0.8720818,0.4495922,0.2019335,-0.002394315,0.002992862,-0.006782647,0.00331918,0.002558578,-0.003485051
0.8740418,0.44831,0.2047791,-0.0004170766,0.00170168,-0.003872059,0.003275675,0.003746207,-0.00566642
0.8759837,0.4492809,0.2177155,0.001544078,0.002661387,0.00912731,0.001530267,0.002056315,-0.00737759
0.874727,0.4506575,0.2239884,0.0003082272,0.004024607,0.01546108,0.001013963,0.004632502,-0.01237188
0.8748223,0.4500971,0.2175905,0.0004258534,0.003448623,0.009121305,0.001262976,0.007115466,-0.01269267
0.8752724,0.4504555,0.2098374,0.0008995138,0.003789454,0.001423218,0.0004055057,0.007742509,-0.00963958
0.8746419,0.4512099,0.2133181,0.0002937267,0.004524058,0.004955472,0.000152894,0.007404579,-0.01057771
0.8739887,0.4504641,0.2179538,-0.000333857,0.003756483,0.009639018,0.0009114105,0.006028523,-0.006322569
0.8720988,0.4507147,0.2154311,-0.002197354,0.003983068,0.007160474,0.002225597,0.006556531,-0.003600644
0.8703844,0.452106,0.2162389,-0.003884548,0.005348299,0.008008444,0.001941271,0.006047237,-0.005968145
0.8708064,0.452807,0.2154299,-0.003434655,0.006021204,0.007235231,0.001371152,0.004538586,-0.005768762
0.8726488,0.4524709,0.213238,-0.001563626,0.005654746,0.005074726,0.002424346,0.001670057,-0.006503046
0.8727214,0.4490067,0.2120792,-0.001461582,0.002157912,0.003942878,0.002263026,-0.002242246,-0.006957503
0.8720101,0.4471746,0.2071989,-0.002142657,0.0002911149,-0.0009149975,0.001425525,0.0003662098,-0.007311739
0.8741755,0.4534574,0.2120915,5.360452e-05,0.006537258,0.003995702,-0.0005577538,0.003321457,-0.009521803
0.8755875,0.4588349,0.2181095,0.001496993,0.011876,0.01002755,-0.002647015,0.0008708865,-0.0101529
0.8734327,0.4546506,0.2125743,-0.0006258587,0.007650841,0.004502021,0.001234712,0.0008088377,-0.009232063
0.8704826,0.4505468,0.2113715,-0.003543812,0.003503874,0.003304601,0.005634815,0.0007152266,-0.006150622
0.8687025,0.4531366,0.2132203,-0.005291293,0.006048036,0.005154561,0.002963383,-0.002367415,-0.002541946
0.8703249,0.4523026,0.2121093,-0.003636029,0.005166155,0.004040559,-0.001327149,-0.002103919,-0.004033827
0.8753188,0.4482433,0.2115915,0.001391353,0.001056586,0.003515673,-0.003632777,0.003217273,-0.01000228
0.8790984,0.4486116,0.2108536,0.005204747,0.001372526,0.002766751,-0.003532869,0.008062805,-0.01367336
0.8783941,0.4487998,0.2112337,0.00453442,0.001506483,0.00313206,0.001535861,0.005988654,-0.01326604
0.876771,0.4493095,0.2123207,0.002945149,0.001960102,0.004200644,0.004860718,0.003743803,-0.01112898
0.878134,0.4506693,0.2135797,0.004341478,0.003262334,0.005437586,0.0007884319,0.008940121,-0.006138823
0.8772693,0.4496875,0.2143011,0.003509348,0.002221492,0.006133553,-0.002923878,0.01119253,-0.001330859
0.8726353,0.4498459,0.2132263,-0.001092929,0.00231964,0.005029986,-0.001005468,0.007154427,-0.002375201
0.8699532,0.4492644,0.2107958,-0.003744336,0.001676739,0.002567259,0.003106315,0.005847577,-0.005368892
0.8704216,0.4486216,0.2071981,-0.003246182,0.0009715514,-0.001065858,0.004511848,0.008978711,-0.007080506
0.8722697,0.4516253,0.207295,-0.001369065,0.003912083,-0.001007302,0.003279524,0.01114721,-0.01197837
0.8717326,0.4545039,0.2136006,-0.001877816,0.006726747,0.005257281,0.003081007,0.006234559,-0.01443023
0.8708125,0.4543699,0.2186912,-0.00277017,0.006527965,0.01030447,0.003259796,0.001609435,-0.01034846
0.8721589,0.4517095,0.2167535,-0.00139655,0.003802049,0.008320844,0.001685321,0.005122441,-0.009055862
0.8715086,0.4501789,0.2134567,-0.002020087,0.002205027,0.004975463,-0.002295248,0.006422708,-0.008656364
0.8719861,0.4509041,0.2133324,-0.001516245,0.002863006,0.004799981,-0.005300112,0.002619035,-0.006579569
0.8729772,0.4524394,0.2128802,-0.0004991643,0.004330289,0.004293953,-0.001904042,0.001117924,-0.004680409
0.8716036,0.4530909,0.2129359,-0.001847064,0.004913225,0.004293238,0.001740276,0.001735034,-0.0005121417
0.8723991,0.4503126,0.2129471,-0.001026234,0.002065762,0.004245797,-0.001941467,0.001641676,-0.0008006745
0.8724458,0.4475658,0.2117536,-0.0009544691,-0.0007508425,0.002991311,-0.004366207,0.0003743925,-0.001691736
0.8716348,0.4468094,0.2126635,-0.00174074,-0.001577319,0.003838027,-0.0006162637,0.0004188823,0.001647439
0.871699,0.4472395,0.211675,-0.001652114,-0.00121748,0.00278445,0.001874963,0.001923534,-0.0002904407
0.8709036,0.4485436,0.2093608,-0.002423264,1.653983e-05,0.0004033197,0.003461551,0.001365037,-0.002779094
0.8733919,0.4485847,0.2098792,8.906084e-05,-1.206024e-05,0.0008532806,0.004609307,-0.000859488,-0.003780722
0.8760126,0.4487115,0.2099612,0.002733626,4.555445e-05,0.0008654351,0.00257351,-0.001797563,-0.006395136
0.8741075,0.4488403,0.2118202,0.0008520812,0.000105818,0.002653608,0.002475336,-0.0008577823,-0.004799679
0.8728513,0.4492689,0.215077,-0.0003809302,0.0004667859,0.005838528,0.003593703,0.001171175,-0.002784231
0.8736656,0.4507376,0.2156987,0.0004559482,0.00186874,0.006387497,0.002529149,0.002944648,-0.001375958
0.8729281,0.4508246,0.2155241,-0.0002593698,0.001889899,0.006139338,0.0009641321,0.003140546,0.0005464783
0.8716266,0.4514355,0.2158748,-0.001539191,0.002436051,0.00641542,-0.001978493,0.003432549,-0.002337327
0.8722971,0.4516059,0.2174643,-0.0008475845,0.002542697,0.007929272,-0.002965317,0.003809738,-0.004493308
0.8726456,0.4497192,0.2186622,-0.0004783862,0.0005931964,0.009050477,-0.001132803,0.002018373,-0.003077792
0.8728242,0.4484865,0.2194872,-0.000279587,-0.0007013108,0.009797506,-0.001864014,0.0005375389,-0.003458047
0.8737,0.4484246,0.2200703,0.0006159541,-0.000823979,0.01030113,-0.002916876,0.0005280234,-0.004130652
0.8715599,0.4503233,0.2185439,-0.001504922,0.001015229,0.008693723,-0.002019902,0.0008237197,-0.003267256
0.8681924,0.450755,0.2171781,-0.004853597,0.001388675,0.00724508,3.517389e-05,0.001032572,-0.002046604
0.8680755,0.4493742,0.2136426,-0.004952044,-4.909929e-05,0.003624995,0.001931837,-0.002432763,-0.00128158
0.8708636,0.4511557,0.2095193,-0.002145566,0.001676791,-0.0005846117,0.0003238091,-0.008650505,-0.001829055
0.8733659,0.4515899,0.2091559,0.0003751583,0.002056746,-0.001035714,-0.0007202086,-0.008881467,-0.004631623
0.8732672,0.4491905,0.2097656,0.0002948363,-0.0003956881,-0.0005148899,-0.00182295,0.001694861,-0.01073164
0.8727761,0.4484519,0.2151483,-0.0001779445,-0.001186002,0.004778228,-0.005392148,0.01182185,-0.01604127
0.871237,0.4494408,0.2208388,-0.001698847,-0.0002474281,0.01037851,-0.003428805,0.008302224,-0.01378468
0.867527,0.451474,0.218388,-0.005390618,0.001736869,0.007836937,0.0005149683,0.003651273,-0.007576501
0.8673124,0.4517455,0.2142185,-0.005586981,0.001960963,0.003575839,0.00229998,0.005962553,-0.004863965
0.8692487,0.4508465,0.2099268,-0.003632063,0.001015882,-0.0008082556,0.003242015,0.003225204,-0.004229786
0.8696633,0.4507356,0.2081711,-0.003198549,0.0008602892,-0.002656823,-0.0004157642,0.002292085,-0.003344106
0.8721127,0.4496534,0.2109369,-0.0007296849,-0.0002653202,1.596296e-05,-0.001450386,0.005198173,-0.002473137
0.8733145,0.4498093,0.2105859,0.0004921308,-0.0001515915,-0.0004280118,0.001693779,0.001529795,-0.002323115
0.8724064,0.4503938,0.2105465,-0.0003954269,0.0003921771,-0.0005598331,0.002518283,-0.001003871,-0.001243759
0.8740642,0.4496943,0.21111,0.00128313,-0.0003467675,-8.822332e-05,0.005468598,-0.002503109,0.001600333
0.8736155,0.4500993,0.2089397,0.0008555731,2.023712e-05,-0.00234946,0.009132019,-0.002671358,0.001551855
0.8710103,0.450084,0.2106338,-0.001728427,-3.173676e-05,-0.0007451521,0.00568941,0.001748078,0.00152825
0.869852,0.4498239,0.2117911,-0.002865353,-0.0003271638,0.0003237063,0.0008036143,0.0005931521,0.0009088846
0.8692101,0.4501721,0.2096405,-0.003485732,-1.291432e-05,-0.001913775,0.002584826,-0.0009164251,-0.001771122
0.8717075,0.4502525,0.2100258,-0.0009666762,3.501837e-05,-0.001613703,0.002723483,-0.0007831888,0.001491608
0.8748716,0.4518031,0.211452,0.002219384,0.001554423,-0.0002708064,0.0007056128,-0.002859438,0.004125817
0.8751267,0.4530213,0.2132264,0.002496603,0.002742724,0.00142224,0.002434546,-0.002416034,0.003828614
0.8742193,0.4511157,0.2137601,0.001611309,0.0008084607,0.001876715,0.0009923912,-0.004166174,0.001678854
0.8730754,0.4491227,0.2134867,0.0004892327,-0.001212181,0.001526129,0.0006289302,-0.003772311,-0.002568935
0.8736139,0.4499394,0.2146155,0.001049299,-0.0004219235,0.002579776,0.003798779,-0.001320853,0.00321159
0.8737714,0.4505079,0.2145532,0.001228089,0.0001212382,0.002444343,0.004678943,-0.003927476,0.006671616
0.8725225,0.4499463,0.2141083,-1.034612e-07,-0.0004645808,0.001928129,0.0051088,-0.004560521,0.0002985423
0.873228,0.4518624,0.209561,0.0007256794,0.001428398,-0.002688444,0.004130813,-0.004363641,-0.002339752
0.8746822,0.4535321,0.2033972,0.00219946,0.003076134,-0.00891968,0.004555334,-0.003996191,-0.002557151
0.8754181,0.4521507,0.2068757,0.002954439,0.001673555,-0.005506164,0.004024497,-0.003214489,-0.001242854
0.8750151,0.449726,0.210456,0.002569602,-0.0007714105,-0.001988326,0.0002986626,-0.005068838,0.0005845085
0.874328,0.4472331,0.2078171,0.001899888,-0.003283773,-0.004686857,0.0006209727,-0.006042113,0.005369088
0.8735361,0.4474941,0.2105161,0.001124302,-0.003041324,-0.002044564,0.001081366,-0.006959764,0.008744659
0.871545,0.4495375,0.2153083,-0.0008515622,-0.001015462,0.00269394,0.001252743,-0.004048466,0.002826935
0.8717352,0.4495432,0.213232,-0.0006471442,-0.001026136,0.0005669659,0.003920429,-0.001526917,0.0008830747
0.8719784,0.4498556,0.2075393,-0.0003906581,-0.0007290532,-0.005173477,0.004628524,-0.005717877,0.001673023
0.8702953,0.4501078,0.2052797,-0.002061326,-0.0004911177,-0.007478041,0.00170936,-0.00636394,0.0004128618
0.8716751,0.4479051,0.2075651,-0.0006699029,-0.002706835,-0.005234427,-0.001694325,-0.005313521,0.003125996
0.872761,0.4464736,0.207418,0.0004268371,-0.004150227,-0.005420008,0.00069262,-0.004406518,0.005020793
0.8710097,0.4465477,0.2062579,-0.001314277,-0.004086645,-0.006615069,0.003195867,-0.002155135,0.004142963
0.8705472,0.4465942,0.208797,-0.001767287,-0.004049353,-0.004107452,0.00209326,-0.004373845,-0.0001448071
0.8708772,0.4474996,0.2105101,-0.001428179,-0.00315148,-0.002421993,0.002366033,-0.008043626,-0.003537651
0.8712526,0.4483928,0.2122667,-0.001044259,-0.002264251,-0.0006894632,0.0002401801,-0.01129504,-0.001173979
0.8725997,0.4479218,0.2136876,0.0003110336,-0.002739555,0.0007109466,-0.001758465,-0.008361489,4.274654e-05
0.8739181,0.445193,0.2138372,0.001637256,-0.005470848,0.000843366,-0.0005522244,0.001307824,-0.002626251
0.8730288,0.4427544,0.2168777,0.0007554804,-0.007910199,0.003869856,0.00100961,0.005100265,-0.004666144
0.8716404,0.4474161,0.2163286,-0.0006259871,-0.00324721,0.003309437,0.003018178,0.003138958,-0.002782975
0.8732219,0.4541016,0.2103782,0.0009621546,0.003441726,-0.002649669,0.003209278,0.001242144,-0.001378458
0.8744052,0.4531612,0.2063862,0.002151606,0.002506647,-0.006647992,0.002639543,0.002236261,-0.001658353
0.8745522,0.4500385,0.2079602,0.002304184,-0.0006089843,-0.00507801,0.002040197,0.002233616,-0.001459878
0.8770843,0.4472469,0.2149011,0.004841346,-0.003392031,0.001861422,0.001089654,-0.0004380524,-0.004235882
0.878371,0.4439728,0.217575,0.006132292,-0.006656106,0.00453615,0.001814751,0.0007623458,-0.005364618
0.8765627,0.4491841,0.2122263,0.004327228,-0.001433188,-0.0008096552,0.002007809,0.0009939563,-0.003286937
0.8746681,0.455747,0.205899,0.002434805,0.005142945,-0.007132099,0.0007294237,0.0002364383,-0.002011127
0.8730212,0.4520508,0.2033074,0.0007887203,0.0014613,-0.009716841,-0.0004213815,0.001921715,-0.0004031387
0.8715686,0.4488259,0.2046181,-0.0006643434,-0.001747874,-0.008397259,-0.0003468946,0.002939252,-0.001536062
0.8711285,0.4486551,0.205701,-0.001106013,-0.001901967,-0.007302982,0.0002235931,0.005395366,-0.002927334
0.8709455,0.4464102,0.2081899,-0.001291635,-0.004129165,-0.004800092,0.001770867,0.004414109,-0.001339278
0.8710806,0.4470608,0.2106588,-0.001160104,-0.003459917,-0.002314424,0.005594166,0.001445642,-0.000942
0.8736206,0.4476335,0.2077768,0.001375546,-0.002867509,-0.005177135,0.006006381,0.002651367,-6.56021e-05
0.8759663,0.446172,0.2059611,0.003716244,-0.004308242,-0.00697077,0.003862193,0.002066436,0.0009067237
0.8748816,0.447204,0.2082606,0.002625715,-0.003254312,-0.004646629,0.004283389,0.0008161418,0.0006632142
0.8734939,0.4480501,0.2124918,0.001231271,-0.002385095,-0.0003881125,0.002576659,0.0005673879,0.001270136
0.8729127,0.4486983,0.2161814,0.000642484,-0.001712567,0.00333142,-5.183411e-05,0.0003967538,-0.0001424924
0.8727203,0.4505527,0.2130788,0.0004417225,0.0001672111,0.0002609036,2.376173e-06,0.001911783,-0.003814633
0.8738418,0.4505389,0.2082785,0.001554052,0.000179834,-0.004505357,0.001424647,0.001993401,-0.007088129
0.8736083,0.4503627,0.208352,0.001310523,3.092123e-05,-0.004396026,0.004022864,0.002327288,-0.00673748
0.8714247,0.4516855,0.2042836,-0.0008837276,0.001381732,-0.008426773,0.00188605,0.00338071,-0.002689641
0.8705968,0.4505998,0.1987944,-0.001722992,0.0003246448,-0.01387642,-0.0017819,0.003743243,0.0001575301
0.8716553,0.4482911,0.2066323,-0.0006764138,-0.001955039,-0.005996833,0.0003950262,0.005246369,0.002748294
0.8728402,0.4485788,0.2150026,0.0004962152,-0.001637937,0.002417494,0.0003891457,0.003758567,0.0008354532
0.8732003,0.4490847,0.2109374,0.00084366,-0.001102428,-0.001601455,-0.001125723,0.001566658,-0.006479846
0.8733853,0.4502147,0.2104803,0.001015743,5.75795e-05,-0.002010303,-0.0001202746,0.003542624,-0.008069536
0.872873,0.4516097,0.214233,0.0004901634,0.001482692,0.001792301,-0.001090238,0.003395745,-0.006198847
0.8708516,0.4487655,0.2122838,-0.001544769,-0.00133121,-0.0001054684,-0.0005203034,-0.001111267,-0.002823578
0.8703735,0.4463814,0.2126242,-0.002036513,-0.003685079,0.0002876061,0.001252935,-0.003648943,0.001792112
0.8717334,0.4489868,0.2133962,-0.0006904006,-0.001049435,0.001113155,0.0006457548,0.0011288,-5.331056e-05
0.8731888,0.4510779,0.2080427,0.0007513427,0.001072003,-0.004185962,0.0008081019,0.006664121,-0.001753576
0.8750554,0.4498494,0.2048734,0.002604293,-0.0001262007,-0.007300335,0.001858991,0.002929372,-0.0001943423
0.8747178,0.4495581,0.2065614,0.002253167,-0.0003873953,-0.005556702,0.001255993,-0.002680356,-0.001216695
0.8743485,0.4506665,0.2083334,0.001870195,0.000750964,-0.003728224,0.0008147201,-0.003643434,-0.002003393
0.8754099,0.4506848,0.2093892,0.002917797,0.0007989888,-0.002615085,0.004399897,-0.002779136,-0.0009270656
0.8729758,0.4515475,0.2116752,0.0004697367,0.001691094,-0.0002710916,0.005089005,-0.000218204,0.002368711
0.8713434,0.4512588,0.2148355,-0.001176746,0.001431199,0.002947912,-0.001063259,-0.0001861575,0.004317162
0.8725824,0.4482051,0.213186,4.794315e-05,-0.001594209,0.001357417,-0.00369999,0.001434705,-0.00231094
0.8721933,0.4470211,0.2097781,-0.0003555659,-0.002750602,-0.0019914,-0.002921941,0.008063794,-0.01042214
0.871955,0.4489292,0.2110763,-0.0006083135,-0.0008154665,-0.0006341257,-0.002688029,0.009174632,-0.008463209
0.8714459,0.4517904,0.2113335,-0.001131758,0.002072295,-0.0003180181,-0.001054483,0.008684275,-0.002773038
0.8704355,0.4516942,0.209044,-0.002156313,0.002002142,-0.002548883,-0.0002744727,0.01050558,-0.001157481
0.8708463,0.4498681,0.2086359,-0.00175952,0.0002013257,-0.002898744,0.0001684414,0.0091047,-0.001195645
0.8713103,0.4500992,0.2091654,-0.001309209,0.00045688,-0.002311279,-0.0001481371,0.007373405,-0.004746086
0.8725459,0.4498878,0.2089618,-8.682438e-05,0.0002692032,-0.002457303,-0.0007049171,0.005092771,-0.007369571
0.8736211,0.4501166,0.2081437,0.0009756906,0.0005208649,-0.00321827,-0.0001836712,0.004923736,-0.004872876
0.8711684,0.4513301,0.2079767,-0.001489298,0.001756472,-0.003328305,-0.0007358897,0.005944305,-0.003925462
0.8683937,0.4522368,0.2080017,-0.0042757,0.002684239,-0.003246764,0.003195617,0.0009776588,-0.001484611
0.8701749,0.453011,0.2080243,-0.002505566,0.003478474,-0.003167852,0.007061541,-0.002169754,0.002599945
0.8718782,0.4508799,0.208699,-0.0008126161,0.001366304,-0.002437082,0.003202102,0.0002644071,0.00308573
0.870889,0.4489979,0.2086728,-0.001811335,-0.0004979827,-0.002407494,0.001054041,0.004251683,0.001744162
0.8733877,0.4489365,0.2094908,0.0006787129,-0.0005428219,-0.001533886,0.001152551,0.008637128,-0.001668819
0.8764225,0.4463155,0.2101713,0.003705712,-0.003148521,-0.0007980864,-0.0006244538,0.01101207,-0.006639189
0.8758085,0.4432738,0.2075174,0.003084532,-0.006175847,-0.003397054,-0.001719077,0.01392383,-0.01220803
0.8758782,0.4427132,0.2061859,0.003147603,-0.006722778,-0.004673893,-0.00205676,0.01498853,-0.01301646
0.8750583,0.4444167,0.2076297,0.002321435,-0.005006094,-0.003175703,-0.0009209631,0.01039873,-0.0101908
0.8727811,0.4470467,0.2086977,3.819661e-05,-0.002362983,-0.002053593,0.001048375,0.004390428,-0.01181891
0.8733868,0.4494237,0.2101716,0.0006379156,2.712895e-05,-0.000525804,0.003534011,-0.00179541,-0.01035082
0.8736736,0.450688,0.2109727,0.0009189233,0.001304602,0.0003289585,0.00656619,-0.004935744,-0.00676202
0.8698384,0.4498998,0.213621,-0.002922029,0.0005296103,0.003030486,0.007495467,-0.005788704,-0.004160049
0.86503,0.449733,0.2183545,-0.007736023,0.0003759274,0.007816537,0.006045365,-0.01153059,0.003987439
0.8638392,0.450657,0.2170565,-0.008931896,0.00131283,0.006570119,0.005517106,-0.01456639,0.008932567
0.8691268,0.4516356,0.2144628,-0.003648655,0.002304179,0.004026614,0.005957631,-0.006076887,0.009722754
0.8743673,0.4529498,0.2156501,0.001588581,0.003630837,0.005262464,0.005143572,0.001592321,0.01034667
0.8714862,0.4511402,0.2139274,-0.001294644,0.001833176,0.003586319,0.004056307,-0.00492026,0.006974099
0.8701873,0.4478424,0.2104159,-0.002594731,-0.001453166,0.0001191337,0.001045632,-0.01314413,0.005828936
0.8761998,0.4475129,0.2056175,0.003417577,-0.001771957,-0.004637063,-0.001010392,-0.009808859,0.006099092
0.8791353,0.4475073,0.2012844,0.006353816,-0.001767298,-0.008929947,0.0007764772,-0.005000755,0.00163576
0.8777859,0.4480998,0.2062849,0.005005805,-0.001164903,-0.003890941,0.0003718127,0.0005941324,-0.005650828
0.8771458,0.4511311,0.2143244,0.004367406,0.001875886,0.004185592,0.0005698438,0.006628469,-0.01078052
0.8770614,0.4534438,0.2157833,0.004284668,0.004197701,0.005680082,0.002612666,0.003610925,-0.00637094
0.8763263,0.4555555,0.2127913,0.003550993,0.006317917,0.002722117,0.002281582,0.00414423,-6.608541e-06
0.8757551,0.4570791,0.2095709,0.002980838,0.007849267,-0.0004659717,0.003083844,0.008401603,-0.001354825
0.8753781,0.453574,0.2098896,0.002604432,0.004350864,-0.0001168293,0.00285621,0.005295267,9.554181e-05
0.8719943,0.4499361,0.2096561,-0.0007794832,0.0007183259,-0.000321526,-0.0009008951,0.002938687,0.00367216
0.8699725,0.4521763,0.2082414,-0.002802036,0.002962537,-0.001709151,-0.003270038,0.001273788,0.0006886665
0.8730992,0.4535528,0.2122623,0.000323468,0.004341574,0.002337148,-0.002266506,0.0007861239,-0.001059672
0.8752776,0.4501016,0.2172916,0.002500179,0.000891482,0.007390301,8.003485e-05,0.002306727,0.0001265263
0.8751843,0.4478778,0.2193803,0.002404726,-0.001332701,0.009501054,0.0001403241,0.0009428359,-0.001029509
0.8748686,0.4487234,0.2160516,0.002086302,-0.0004889608,0.006192239,-0.00220826,0.002514365,-0.005140028
0.8744097,0.4505037,0.2095198,0.001624202,0.001288219,-0.000322058,-0.003914834,0.004282696,-0.01064959
0.8724987,0.4520147,0.210333,-0.0002906746,0.002794979,0.0005062378,-0.003033762,0.00294177,-0.01054894
0.870194,0.4537512,0.2099561,-0.002599877,0.004525968,0.0001421372,-0.0009433886,0.003376825,-0.005188759
0.8725571,0.4562105,0.2061447,-0.0002418293,0.006978594,-0.003658599,-0.0005285478,0.003368181,-0.002032404
0.8757237,0.4542591,0.2086517,0.002919348,0.005018901,-0.001143005,0.00183606,0.002796847,-0.002432342
0.8750364,0.450838,0.2088881,0.002226241,0.001587959,-0.0008997719,0.005636294,0.00205967,-0.003741486
0.8747315,0.451817,0.2090588,0.001915124,0.002555523,-0.0007237458,0.004063629,0.001675241,-0.003391683
0.8746943,0.4518368,0.2102937,0.001871063,0.002562223,0.0005149713,0.0002461738,0.004796888,-0.003339718
0.872048,0.4532801,0.2042295,-0.0007826586,0.003990876,-0.005546729,-0.001183177,0.00765935,-0.002738718
0.8690938,0.4554585,0.2025222,-0.003744694,0.006152924,-0.007252623,0.0008238272,0.005578743,0.001686277
0.8689354,0.4525521,0.2085403,-0.003911398,0.003228491,-0.001233866,0.003008381,0.001201462,0.005153694
0.8700657,0.4521069,0.213683,-0.002789396,0.002763533,0.003909038,-0.002219287,-0.0005980162,0.004252978
0.8699086,0.4525211,0.2139719,-0.002954873,0.003156178,0.004197626,-0.00733395,-0.0003308019,0.002765514
0.8694726,0.4504114,0.2127724,-0.003398917,0.001023285,0.002997146,-0.004267757,-0.001492943,0.00303371
0.8696621,0.4506601,0.2166482,-0.003217039,0.001247147,0.006871082,-0.001615273,-0.004606224,0.001852247
0.8711682,0.4499603,0.2162956,-0.00171803,0.0005210133,0.006515737,-0.001718153,-0.005604773,0.001146524
0.873158,0.4497139,0.2131423,0.0002654232,0.0002468301,0.003358446,-0.001942192,-0.002257858,0.004348194
0.8728116,0.4514064,0.2140659,-8.676606e-05,0.001910361,0.004276593,-0.003148035,-0.0002753553,0.005440413
0.8720205,0.4513871,0.2113349,-0.0008829199,0.001861078,0.00153875,-0.001407946,-0.001192508,0.004997988
0.872387,0.4513038,0.2088064,-0.0005208031,0.001746632,-0.0009980789,0.001669606,-0.001870417,0.004703012
0.8730549,0.4504891,0.2076543,0.0001432844,0.0008998533,-0.002159829,0.001257058,-0.004159078,0.002101996
0.8740279,0.4495827,0.206757,0.001113136,-3.944977e-05,-0.003068005,0.002012191,-0.01015659,0.002787421
0.8738054,0.4501152,0.2090797,0.0008879086,0.0004593402,-0.000757156,0.005799826,-0.01847729,0.005189394
0.8742379,0.4500273,0.2099669,0.001318239,0.0003371819,0.0001174549,0.00812034,-0.02162308,0.006992367
0.875565,0.4503127,0.2100864,0.002643574,0.0005877314,0.0002238139,0.007004412,-0.01447961,0.008946218
0.8749309,0.4527099,0.2092749,0.002007924,0.002949758,-0.0006014588,0.004263591,-0.007202081,0.004265297
0.8748073,0.4577549,0.2085969,0.00188293,0.007959092,-0.0012936,0.001613401,-0.009425721,-0.001026136
0.8752182,0.4606385,0.2079741,0.002292344,0.01080653,-0.001931007,-0.0008248679,-0.01135833,-0.001300841
0.8748647,0.4554941,0.2040132,0.001937342,0.005625193,-0.005906625,0.0002311982,-0.00845017,-0.001349167
0.8750449,0.4487094,0.2021976,0.002115874,-0.001197591,-0.0077368,0.002023658,-0.01065435,0.001249936
0.8751909,0.447682,0.2024102,0.002259942,-0.002264025,-0.00753842,0.0001927935,-0.01405541,0.003006087
0.8758568,0.449133,0.2035924,0.002923488,-0.0008528691,-0.006369523,0.0004673803,-0.01914226,0.00599218
0.8767034,0.4496112,0.2066563,0.003767286,-0.0004150149,-0.003317737,0.002388035,-0.02787592,0.01342592
0.8760999,0.4500765,0.2110013,0.003160393,9.581593e-06,0.001016392,0.006040679,-0.0285323,0.01414477
0.8746054,0.4502024,0.2134911,0.001661797,9.448988e-05,0.003496634,0.01218244,-0.03416429,0.01640264
0.8740392,0.4498096,0.2086697,0.001090726,-0.0003393493,-0.001333028,0.01092075,-0.04599035,0.02278069
0.8754639,0.4500383,0.2083078,0.002509792,-0.0001515945,-0.001702162,0.006396228,-0.03818722,0.02210574
0.8772046,0.4491975,0.212167,0.004244018,-0.001033188,0.002150864,0.00446738,-0.01967213,0.02382106
0.8770946,0.4454087,0.2113405,0.004126642,-0.004862443,0.001319167,0.0001469207,-0.01205053,0.02388239
0.8735421,0.4417734,0.2146206,0.0005657533,-0.008537651,0.004594921,0.002310706,-0.02313298,0.0166586
0.8701558,0.4425107,0.2148697,-0.002830026,-0.007839315,0.004840356,0.01307431,-0.03929635,0.01156018
0.8749165,0.4436951,0.2106768,0.001920449,-0.006692385,0.0006441031,0.01850307,-0.03435274,0.006718578
0.8812621,0.4408178,0.2083634,0.00825481,-0.00960545,-0.001672264,0.01588931,-0.02617355,0.003672369
0.8792862,0.4401942,0.1994837,0.006266841,-0.0102626,-0.01055475,0.01192818,-0.02770737,0.000522602
0.8780748,0.4447666,0.1944386,0.005042025,-0.00572113,-0.01560198,0.01164291,-0.02197169,-0.002898547
0.8796057,0.449884,0.1976674,0.006558222,-0.0006318449,-0.01237408,0.01260083,-0.02239143,0.002724389
0.8761305,0.453324,0.1958678,0.003066742,0.002782968,-0.01417273,0.01218707,-0.02455017,0.00995508
0.8739434,0.4549073,0.1925634,0.0008617891,0.004343819,-0.01747386,0.01266984,-0.01824051,0.01098437
0.8752124,0.4568358,0.1907872,0.002111354,0.006252311,-0.01924373,0.009394494,-0.02146937,0.01036944
0.8751303,0.4578118,0.187338,0.00200838,0.007210257,-0.02268293,0.002453957,-0.02396823,0.01196525
0.874934,0.4573033,0.1864479,0.001789685,0.006685416,-0.02355845,-0.0028204,-0.02837412,0.01518689
0.874932,0.4580345,0.1885975,0.001763993,0.00740139,-0.02138905,-0.006425966,-0.04091034,0.02473646
0.8754432,0.4547116,0.1900476,0.002250165,0.004063947,-0.01991302,-0.00579659,-0.03998375,0.03934377
0.8766192,0.4493282,0.1945432,0.003399929,-0.001333386,-0.01538497,-0.00463633,-0.03692726,0.04086065
0.8772991,0.4491036,0.2014775,0.004052406,-0.001571442,-0.00841136,-0.004671262,-0.03945105,0.03966041
0.8765161,0.4487059,0.2034903,0.003240708,-0.001982278,-0.006352389,-0.0008415673,-0.03843872,0.04733219
0.8758988,0.4456437,0.2041192,0.002593477,-0.005056965,-0.005670677,-0.0003565906,-0.0407045,0.04541407
0.8779098,0.4419172,0.2041439,0.004573278,-0.008795129,-0.005586669,-0.005386072,-0.04008196,0.04136145
0.8798988,0.4364125,0.1994722,0.006529811,-0.01431038,-0.01019309,-0.009805245,-0.02689491,0.03883358
0.8835832,0.4318443,0.1942461,0.01018029,-0.01888754,-0.01534792,-0.01359082,-0.01265389,0.02793031
0.8880293,0.4288912,0.1902589,0.01459092,-0.02184712,-0.01925806,-0.009407883,-0.01385791,0.02130019
0.8869917,0.4257955,0.19004,0.01351581,-0.02494603,-0.01939366,0.003874329,-0.01878971,0.01768724
0.8852283,0.4288735,0.1944548,0.01171232,-0.02186694,-0.01488907,0.01265665,-0.01659249,0.01322995
0.8830807,0.4364883,0.1970715,0.009521975,-0.01424611,-0.01217615,0.01555546,-0.02235268,0.01486738
0.8790021,0.438156,0.1966859,0.005397486,-0.01256662,-0.01245886,0.01664964,-0.03148848,0.01830893
0.8803531,0.4391849,0.1962526,0.006699543,-0.01152009,-0.01278286,0.01551248,-0.03786519,0.01759009
0.8829459,0.4421861,0.1966441,0.009240276,-0.008495179,-0.01227571,0.01309986,-0.03961104,0.0122307
0.8831961,0.4411333,0.1964277,0.009435259,-0.009518179,-0.01237031,0.008296984,-0.02790515,0.009455696
0.8852822,0.4389242,0.1956314,0.01146297,-0.01169149,-0.01303869,0.003748185,-0.019422,0.006935096
0.8842874,0.4367857,0.1957482,0.01040642,-0.01378813,-0.01278807,0.0007256143,-0.01910802,-0.0004865527
0.8821637,0.4364449,0.1955478,0.00821741,-0.01408082,-0.01284886,0.000201282,-0.01910074,-0.005311163
0.8842017,0.4357142,0.1938951,0.01018659,-0.01475721,-0.01435631,0.001866567,-0.02026388,-0.007890573
0.8854477,0.4319664,0.1913843,0.0113601,-0.0184442,-0.01671621,-0.00191091,-0.01284091,-0.01226936
0.8870608,0.4335319,0.1899265,0.0128971,-0.01681121,-0.01801759,-0.003946989,0.001241093,-0.02078185
0.8875841,0.4370572,0.1884308,0.01334043,-0.01321162,-0.01935136,0.0003829747,0.01028922,-0.02520006
0.8824507,0.4382041,0.1860196,0.008123034,-0.01198346,-0.02159473,0.001289869,-0.0003637894,-0.01859931
0.879723,0.4416366,0.1871605,0.005307342,-0.00846291,-0.0202802,0.0002386853,-0.01719956,-0.01612828
0.8832718,0.4437742,0.1910216,0.00876438,-0.006230488,-0.01623946,-0.002004911,-0.00785113,-0.01867647
0.8870001,0.4431595,0.1932879,0.01239705,-0.006744154,-0.01378743,-0.005723248,0.00644122,-0.01927382
0.8865119,0.441653,0.1934526,0.0118096,-0.008143731,-0.01343114,-0.007499249,0.01427361,-0.01926447
0.8854969,0.4404044,0.1923762,0.01069155,-0.009279759,-0.01431027,-0.008151218,0.02048917,-0.01549923
0.8875373,0.4403046,0.191295,0.01262502,-0.009261735,-0.01518876,-0.004980503,0.01522113,-0.0152602
0.8873861,0.4401847,0.1899274,0.0123631,-0.009258635,-0.01634844,-0.00135496,0.02285489,-0.01973252
0.8845559,0.4413673,0.1898214,0.009418323,-0.007948321,-0.01624137,-0.002987179,0.0331275,-0.02172037
0.8800066,0.4423709,0.1908447,0.004750498,-0.006812332,-0.01500007,-0.003919004,0.02548728,-0.02443496
0.8768209,0.4434366,0.1900652,0.001442814,-0.005610012,-0.01555674,-0.002261178,0.02245454,-0.02521568
0.8822671,0.4458408,0.1909807,0.006763722,-0.00306528,-0.01441367,-0.002286588,0.02085571,-0.02323084
0.8869738,0.4453268,0.1951263,0.01134232,-0.003435263,-0.0100362,-0.003079229,0.02654802,-0.02384972
0.8835534,0.4438803,0.1973696,0.00779099,-0.004734826,-0.007556794,-0.004851942,0.04263931,-0.02485501
0.8791615,0.4442523,0.1934067,0.003265623,-0.004213296,-0.01127997,-0.008223616,0.04429759,-0.02708219
0.8753002,0.4437615,0.1876196,-0.0007316002,-0.004552236,-0.01682413,-0.009524875,0.03681041,-0.02920331
0.8739369,0.443039,0.1868106,-0.002232666,-0.005121048,-0.01738702,-0.009766028,0.02609611,-0.02620371
0.876466,0.4446607,0.1812878,0.0001573201,-0.003344112,-0.02266074,-0.00887376,0.01415313,-0.02059064
0.8769225,0.4467393,0.1745477,0.0004738854,-0.001109097,-0.0291485,-0.005154108,0.01378111,-0.01083924
0.8762407,0.4458436,0.1860783,-0.0003482358,-0.001847559,-0.01736191,-0.004542329,0.01856793,-0.004070383
0.8782437,0.445356,0.199455,0.00151448,-0.002177474,-0.003725751,-0.004398265,0.018803,-0.009201801
0.8792186,0.4468163,0.1978976,0.002349399,-0.0005593519,-0.00502027,-0.001405161,0.01588266,-0.01178212
0.879267,0.4483323,0.1962613,0.002258527,0.001114005,-0.006391032,-0.002242118,0.01283548,-0.008154587
0.8812173,0.4507359,0.1982361,0.004070428,0.003674287,-0.004148705,-0.00323855,0.01034833,-0.004061884
0.8824241,0.4503629,0.1996773,0.005139727,0.003456799,-0.002438625,-0.002748051,0.008808358,0.001511711
0.8820354,0.4482627,0.2011911,0.004614658,0.001510318,-0.0006551962,-0.005359994,0.008853974,0.0007518397
0.8817167,0.4482393,0.2001428,0.004160647,0.001638544,-0.001433805,-0.005442731,0.01239915,-0.002049498
0.8807621,0.4459345,0.1996218,0.003071956,-0.0005171719,-0.001685769,-0.001841961,0.01986355,-0.00291681
0.8758128,0.44359,0.2022484,-0.002010093,-0.002715344,0.001208599,2.93255e-05,0.01898818,-0.006282687
0.8697709,0.4453299,0.203214,-0.008183146,-0.0008320176,0.002439968,0.0008359038,-0.0001475198,-0.0005794736
0.8706946,0.4464925,0.2008186,-0.00738854,0.0004711242,0.0003078363,0.00185477,-0.02510818,0.009208641
0.8751948,0.4453299,0.1965989,-0.003014861,-0.0005541422,-0.003651759,0.001647193,-0.03056281,0.008882973
0.8790185,0.4438415,0.1932354,0.0006852591,-0.001908466,-0.006758659,0.002616397,-0.01588359,0.006677396
0.8828593,0.4427438,0.1949478,0.004405786,-0.00287536,-0.004793378,0.005036017,-0.004721183,0.005351316
0.8820239,0.4440187,0.1967446,0.003453193,-0.001473048,-0.002747635,0.003900989,-0.003022103,0.002504925
0.879312,0.4496261,0.1931834,0.0006272934,0.004258444,-0.006064004,0.001618529,-0.01663796,0.0007627195
0.8808235,0.4537598,0.1897579,0.002027815,0.008512651,-0.009248784,-0.002492138,-0.02862896,-0.002998124
0.8868846,0.4481376,0.1865177,0.007980992,0.003007079,-0.01225242,-0.01184877,0.005649457,-0.008576797
0.8928205,0.4396896,0.1842517,0.01381179,-0.005328547,-0.01428581,-0.0171704,0.04342845,-0.01229412
0.8850079,0.4401422,0.1893175,0.005896562,-0.004767536,-0.008991108,-0.0153365,0.02856932,-0.01558377
0.8724861,0.4455836,0.1951342,-0.006725761,0.0007782443,-0.002948901,-0.01095689,0.009322636,-0.01689544
0.8743432,0.448276,0.195998,-0.004966914,0.003571104,-0.001863101,-0.006601876,0.01127598,-0.009779882
0.8770397,0.4476624,0.1967062,-0.002366215,0.003054165,-0.0009367293,-0.006829853,0.0170015,-0.0001568804
0.8764692,0.4455717,0.1953539,-0.003029601,0.00105592,-0.002074686,-0.008124034,0.03215491,-0.0003909605
0.8806779,0.4422699,0.192888,0.001089152,-0.00215738,-0.004330414,-0.003850831,0.03359665,-0.002932531
0.8805164,0.4357193,0.1989502,0.000840762,-0.008623515,0.001937607,0.008332343,0.01559248,0.000300916
0.8796891,0.4335639,0.2057943,-7.032517e-05,-0.01069816,0.008983096,0.02516668,0.003506819,0.0002380855
0.8827945,0.4432427,0.2016385,0.002954299,-0.0009418239,0.005023591,0.02508412,-0.003837043,-0.006650451
0.8863318,0.4557265,0.1960596,0.006413842,0.01161661,-0.0003644088,-0.002278216,0.01109737,-0.02202149
0.8902597,0.4600061,0.1945475,0.01026659,0.01596754,-0.001691374,-0.02075051,0.03772355,-0.03408281
0.8824214,0.4472349,0.1960996,0.002355451,0.003264007,4.005881e-05,-0.0005021429,0.0328516,-0.01594653
0.8707893,0.4330565,0.1994528,-0.009347251,-0.01085084,0.003566785,0.0267159,0.006563021,0.006845679
0.8752023,0.4418321,0.1944643,-0.005002643,-0.002015398,-0.001254069,0.02649735,-0.01649609,0.001424745
0.8799529,0.4512162,0.189297,-0.0003178671,0.007424908,-0.006259831,0.01734667,-0.01486557,0.0003372307
0.8770523,0.4522729,0.1942701,-0.00328143,0.008534313,-0.001131023,0.01076001,-0.01350746,0.007746577
0.8746284,0.4620079,0.1965744,-0.005765541,0.01831812,0.001323301,-0.004766669,-0.03814607,0.002680254
0.8702941,0.4632122,0.1955438,-0.01015695,0.01956685,0.0004369977,-0.01513954,-0.03250117,0.007264354
0.8754901,0.4563748,0.1973798,-0.005014738,0.01276884,0.00241163,-0.01280134,-0.008902717,0.01598384
0.8865888,0.4533227,0.1991544,0.00603369,0.009750503,0.00431901,-0.009441893,-0.0001152616,0.01444187
0.8843432,0.4455685,0.2004466,0.003741352,0.00202425,0.005738199,-0.006563319,0.01519747,0.01753514
0.8791921,0.4453585,0.1985357,-0.001453349,0.001836334,0.00394818,-0.004889573,0.01013243,0.01875214
0.877384,0.449922,0.1948043,-0.003301962,0.006416316,0.0003315574,-0.004485441,-0.002358395,0.01667738
0.8766158,0.4467758,0.1944127,-0.004107775,0.003281052,4.859361e-05,-0.006635123,-0.0002871339,0.01467154
0.8790177,0.44815,0.1951856,-0.001740417,0.004660841,0.0009241874,-0.01177593,0.004470282,0.009804187
0.8774551,0.4470021,0.1929995,-0.00333446,0.003513305,-0.00116522,-0.01413477,0.02204634,0.01117086
0.8771371,0.4412872,0.1890726,-0.003680879,-0.002206196,-0.005001037,-0.0103946,0.02024826,0.01131667
0.8790174,0.4432825,0.1897387,-0.001825793,-0.0002200768,-0.004249258,-0.003229006,0.007100886,0.009984937
0.8778169,0.4437878,0.1943715,-0.003048527,0.0002717069,0.0004641643,-0.0005995265,0.01098461,0.01285753
0.8795371,0.4431973,0.1968012,-0.001347415,-0.0003362797,0.00296969,0.0003528439,0.006980478,0.01007599
0.8786988,0.445314,0.1971553,-0.002201866,0.001759466,0.003394842,0.004694174,0.007938195,0.008095134
0.8766346,0.4442617,0.1974688,-0.004279241,0.0006828409,0.003774728,0.007981226,0.006230652,0.008476754
0.8784358,0.4442165,0.1967515,-0.00248839,0.0006102831,0.003119061,0.00778596,-0.005624078,0.007710968
0.8776379,0.4449616,0.1942263,-0.003293588,0.001325157,0.000650749,0.006125646,-0.004985529,0.01058453
0.8779235,0.4450612,0.1924876,-0.00301256,0.001392083,-0.001035706,0.006874628,-0.006553831,0.01044512
0.879936,0.4462625,0.1929432,-0.001001761,0.002558327,-0.0005322497,0.002211423,-0.004611139,0.005931466
0.8807289,0.4455418,0.1942842,-0.0002078679,0.001800387,0.0008522911,-0.005372293,0.0001386161,0.002742312
0.8810307,0.4437956,0.1947696,9.747961e-05,1.486363e-05,0.001377278,-0.003058129,-0.0035373,0.00442849
0.8800441,0.4423482,0.1940258,-0.0008832104,-0.00147359,0.0006690397,-0.0008189487,-0.005637282,0.007711338
0.8812276,0.4409882,0.1934914,0.0003084401,-0.002876266,0.0001665224,-0.002240322,-0.01113313,0.006221261
0.8834994,0.4401268,0.1919246,0.002590298,-0.003781473,-0.001372102,-0.004596401,-0.01026719,0.00610046
0.8850911,0.4399022,0.1912818,0.004193955,-0.004050712,-0.001989979,-0.008462901,-0.00636285,0.00820345
0.8848885,0.4404116,0.1929198,0.004004683,-0.003586392,-0.0003303406,-0.004927004,-0.009865418,0.01036942
0.8817993,0.4394054,0.1933925,0.0009299268,-0.004637712,0.0001611979,-0.0003698519,-0.009277756,0.01349615
0.8820978,0.4385249,0.1943539,0.001243815,-0.005563088,0.001138652,-0.001570251,-0.01151166,0.01262396
0.883446,0.4399699,0.1960952,0.002607934,-0.004162421,0.002893326,-0.001154216,-0.01241138,0.01069586
0.8825671,0.4404357,0.195643,0.001745605,-0.003739993,0.002451946,-0.001351125,-0.007810834,0.007352491
0.8844112,0.439337,0.1921504,0.003606498,-0.004880831,-0.001032385,-0.002455127,-0.006181398,0.002971274
0.886381,0.4387283,0.1894809,0.005593153,-0.005530214,-0.003695923,0.0007321272,-0.002627353,0.004666124
0.8857517,0.4396929,0.1902114,0.004980457,-0.004604581,-0.002961693,0.003250167,-0.003455221,0.00497516
0.8842765,0.4408213,0.1886008,0.003521475,-0.003513158,-0.004570291,0.002172843,-0.007352882,0.001542346
0.8824983,0.4398387,0.1869381,0.001758707,-0.004530661,-0.006232569,-0.0007002845,-0.006498652,-0.001506145
0.8827074,0.4382851,0.1894969,0.001982496,-0.00611679,-0.003674405,-0.004577388,-0.006882353,-0.004703002
0.8872234,0.4370245,0.1911376,0.006512144,-0.007407496,-0.002035186,-0.003717409,-0.00471221,-0.003803015
0.8916819,0.4362466,0.191044,0.01098315,-0.008212714,-0.002130846,-0.001093125,0.0001046494,-0.002721001
0.8887653,0.4362687,0.1908956,0.008077533,-0.008214896,-0.002281705,-0.002472211,0.003742579,-0.004308464
0.8834936,0.4358763,0.1913473,0.002814921,-0.008628336,-0.001832708,-0.002445248,0.007921595,-0.004763271
0.8828528,0.4361308,0.1926451,0.002181209,-0.008391318,-0.0005378541,-0.001100186,0.006471674,-0.008136175
0.8818424,0.4366812,0.192917,0.001175694,-0.007854709,-0.0002689037,-0.0009476023,0.004251766,-0.01225198
0.8812048,0.438152,0.1897584,0.0005410925,-0.006393715,-0.003430415,-0.002173846,0.007348055,-0.01035511
0.8827333,0.4422877,0.1841493,0.002070505,-0.002263824,-0.009042326,-0.004243729,0.007625459,-0.008313597
1.041485,0.02293028,0.01446129,0.03367746,-0.06125145,-0.07634316,-0.1282493,0.01216663,-0.2401044
1.031611,0.02516033,0.01522761,0.02388923,-0.05964142,-0.07479278,-0.1307003,0.008533327,-0.2406723
1.01353,0.03396974,0.01789612,0.00587153,-0.05135842,-0.07131573,-0.1358421,-0.00269049,-0.241491
1.010591,0.03999044,0.01591942,0.002973712,-0.04577305,-0.07245962,-0.1367466,-0.02724453,-0.2289323
1.020908,0.03779659,0.02087579,0.01331053,-0.04831397,-0.06664652,-0.1472021,-0.03981167,-0.2246198
1.033652,0.0351895,0.02129349,0.02605453,-0.05118285,-0.06534869,-0.154945,-0.006706403,-0.2239737
1.039802,0.03655009,0.0209627,0.0321837,-0.05000172,-0.0647766,-0.1506783,0.03600063,-0.2230291
1.032026,0.03705964,0.02702226,0.02436806,-0.04959219,-0.05779222,-0.1518011,0.03826813,-0.2231263
1.024965,0.03901043,0.02141561,0.0172489,-0.04766491,-0.06245304,-0.1592132,0.02335798,-0.218934
1.027018,0.04267717,0.01290163,0.01922378,-0.04394816,-0.07000108,-0.1675273,0.02353182,-0.2166644
1.02722,0.0382965,0.01119386,0.01932943,-0.04820838,-0.07072354,-0.1774339,0.02985084,-0.2139209
1.025273,0.03339757,0.009892509,0.01726843,-0.05291944,-0.07102072,-0.1786526,0.03564236,-0.2110238
1.028473,0.03395374,0.01093329,0.02033758,-0.05211081,-0.06895738,-0.1671878,0.04133979,-0.2090495
1.034751,0.03088658,0.009571372,0.02646798,-0.05486359,-0.06927887,-0.1619261,0.05961168,-0.2047562
1.040059,0.02654792,0.008867403,0.03161229,-0.05882853,-0.06892513,-0.1700969,0.0906944,-0.2047863
1.036948,0.02106375,0.01149987,0.02832169,-0.06388202,-0.06521826,-0.1790847,0.0977919,-0.2159109
1.026598,0.01375778,0.01320763,0.01777534,-0.07070248,-0.06242012,-0.1859433,0.09351508,-0.2437257
1.022869,0.01320008,0.01937317,0.01383619,-0.07072171,-0.0551491,-0.1890468,0.1037599,-0.2714161
1.020314,0.01776536,0.02335797,0.01105628,-0.06556675,-0.05004483,-0.1875111,0.09840331,-0.2716433
1.017631,0.02436327,0.02336999,0.008133941,-0.05832981,-0.04890067,-0.1852357,0.08944821,-0.2533725
1.021019,0.03096921,0.02604509,0.01127122,-0.05103763,-0.04508221,-0.1818804,0.1026006,-0.2370909
1.021421,0.03041616,0.02475937,0.01141161,-0.05085969,-0.04521487,-0.1773774,0.1172168,-0.2289071
1.024404,0.02979888,0.02247495,0.01412156,-0.05070379,-0.04633803,-0.1724116,0.1376372,-0.2268945
1.029474,0.03684447,0.02241071,0.01890966,-0.04284545,-0.04523422,-0.1685418,0.1543345,-0.2206215
1.028379,0.04460573,0.02109331,0.01752331,-0.03423459,-0.04537813,-0.163436,0.1344627,-0.2112682
1.026616,0.0498596,0.01957884,0.01546173,-0.0280973,-0.04571492,-0.1610782,0.1094581,-0.2088762
1.022056,0.04662235,0.0155308,0.01059405,-0.03042048,-0.04858225,-0.1670306,0.1108486,-0.2067661
1.02006,0.03702715,0.01397842,0.008284283,-0.03907409,-0.04895192,-0.1706299,0.1143334,-0.1997023
1.021551,0.03585891,0.01796173,0.009455022,-0.03927602,-0.0437848,-0.16702,0.1131624,-0.187082
1.019234,0.03481436,0.02402797,0.006812982,-0.03933201,-0.03653463,-0.1572915,0.1192179,-0.1660886
1.020276,0.03028111,0.0315607,0.007524927,-0.04285674,-0.02781908,-0.1462562,0.1235787,-0.1576936
1.024109,0.03615198,0.03056698,0.01102475,-0.0359595,-0.0276325,-0.1398922,0.1207449,-0.1709468
1.027357,0.05036883,0.02614166,0.01393676,-0.02070063,-0.0308816,-0.1344478,0.1158132,-0.1761389
1.027421,0.06229665,0.03119756,0.01366173,-0.007717714,-0.02465502,-0.1398905,0.1055931,-0.1646012
1.025662,0.05654414,0.03505363,0.01156177,-0.01240502,-0.01963522,-0.1504617,0.09410654,-0.1567506
1.030615,0.04013213,0.03623875,0.01617196,-0.02774468,-0.01729483,-0.1417749,0.09963861,-0.1586884
1.031971,0.03549147,0.03657807,0.01718452,-0.03130826,-0.01581029,-0.1301434,0.1160648,-0.160367
1.023218,0.03542703,0.03134773,0.008086548,-0.03029275,-0.01990697,-0.1262182,0.1204259,-0.1585931
1.013359,0.0367618,0.02994016,-0.002117038,-0.0278768,-0.02019375,-0.1169896,0.1153096,-0.153672
1.01087,0.04076322,0.03166392,-0.004951295,-0.02279453,-0.01736322,-0.1182949,0.102633,-0.1433661
1.018391,0.04111976,0.03198674,0.002225878,-0.0213591,-0.01594872,-0.1259922,0.0869779,-0.1374696
1.023426,0.0405798,0.03250397,0.00691898,-0.02082377,-0.01435591,-0.1210695,0.08811271,-0.136757
1.023948,0.03605713,0.03146887,0.007101624,-0.0242763,-0.01433252,-0.1175873,0.09356461,-0.134102
1.025693,0.03510238,0.03325442,0.008511158,-0.02416746,-0.01150649,-0.1127254,0.09387768,-0.1390259
1.024751,0.03938395,0.03571365,0.007236223,-0.01883009,-0.008025704,-0.1067958,0.09719069,-0.1459717
1.023878,0.03849047,0.03889572,0.006033617,-0.01867679,-0.003841915,-0.112556,0.08546797,-0.1424987
1.023623,0.0383481,0.04358727,0.005453784,-0.01778259,0.001830511,-0.1143573,0.06445029,-0.1394908
1.02308,0.0345845,0.04175677,0.004590206,-0.02052099,0.0009589486,-0.1145116,0.06414871,-0.1456275
1.023288,0.03037559,0.04103399,0.004481746,-0.02371701,0.001172108,-0.1239176,0.08134142,-0.155656
1.022456,0.03540678,0.04521344,0.003338968,-0.01768607,0.006263497,-0.1296801,0.1031477,-0.1596349
1.022852,0.04030025,0.04963756,0.003428324,-0.01180673,0.01157459,-0.1214136,0.1170741,-0.1516503
1.021935,0.04582186,0.05502572,0.002209956,-0.005314077,0.01782368,-0.1041607,0.1081782,-0.1364602
1.018862,0.05121328,0.05337969,-0.001157499,0.001032418,0.01701133,-0.09299269,0.09172276,-0.1236589
1.018076,0.05057803,0.04585929,-0.002232863,0.001334967,0.01029626,-0.08974911,0.08118768,-0.120228
1.019657,0.04829036,0.04257914,-0.0009338167,-3.350306e-05,0.007792232,-0.09339734,0.0729523,-0.1228022
1.022609,0.04852035,0.04223771,0.001742777,0.00109588,0.008197219,-0.09773374,0.07631382,-0.1201305
1.022773,0.05003678,0.04266822,0.001638055,0.00349083,0.009344109,-0.09377501,0.07810077,-0.1123481
1.021536,0.04979935,0.04503539,0.0001401081,0.004110037,0.01239737,-0.09692181,0.07123948,-0.1066407
1.022619,0.05024627,0.04722848,0.0009692064,0.005390763,0.01524601,-0.102537,0.07131047,-0.1030648
1.022397,0.04952912,0.04855784,0.0005004687,0.005483717,0.0172001,-0.09856116,0.06423662,-0.1022374
1.023016,0.0459925,0.05139433,0.0008810373,0.00273276,0.02063019,-0.09706011,0.05704388,-0.09911411
1.025138,0.04112574,0.05234408,0.002772435,-0.001373354,0.02214206,-0.09451236,0.06415966,-0.09329963
1.0244,0.03697365,0.05122602,0.00181126,-0.004790095,0.02155432,-0.08742304,0.06686842,-0.09289711
1.021225,0.03991711,0.05503312,-0.001579269,-0.001136665,0.02585965,-0.0838485,0.06408925,-0.09106605
1.017457,0.04142135,0.06121559,-0.005555741,0.001052193,0.03250795,-0.08381824,0.05962054,-0.08856162
1.018541,0.03834614,0.06318082,-0.004671656,-0.001363748,0.0349062,-0.08319456,0.05545371,-0.09028012
1.02517,0.03991108,0.06001853,0.00176478,0.0008351526,0.03214362,-0.08194312,0.05587488,-0.09000741
1.028803,0.04374034,0.05623358,0.005214369,0.005273141,0.02872473,-0.08237073,0.05571955,-0.09008788
1.025487,0.04877322,0.05576989,0.001722101,0.0108895,0.02859329,-0.08010471,0.05595288,-0.08907779
1.020876,0.04950956,0.05410131,-0.00305828,0.01218391,0.02722321,-0.07594705,0.05727984,-0.08522088
1.02196,0.04455765,0.05305538,-0.002134434,0.007764453,0.02644221,-0.0740651,0.06024976,-0.0823296
1.023195,0.04289525,0.0553229,-0.001053153,0.006608781,0.02894141,-0.07594014,0.06270166,-0.07996976
1.020665,0.04193594,0.05578039,-0.003729688,0.006130571,0.02959765,-0.08360105,0.06114786,-0.08034875
1.018923,0.04126899,0.0604679,-0.005609698,0.005919283,0.03445132,-0.08637691,0.05642623,-0.08436374
1.016231,0.04270023,0.06796198,-0.008432962,0.007781045,0.04207919,-0.0773876,0.04904676,-0.08681099
1.01743,0.04518891,0.06713976,-0.007357319,0.01067536,0.04135842,-0.06752032,0.04814329,-0.07830306
1.021373,0.04913105,0.06253588,-0.003529406,0.01499847,0.03682365,-0.06585772,0.05262778,-0.06501439
1.018983,0.04829373,0.05615261,-0.006027541,0.01451755,0.03047732,-0.0694354,0.05526678,-0.06432469
1.018781,0.04478831,0.04945499,-0.006329125,0.01134405,0.023785,-0.07243384,0.05945746,-0.07381326
1.02134,0.04410451,0.05217593,-0.003861313,0.01096791,0.02648042,-0.07357635,0.06103393,-0.08094529
1.023183,0.04304843,0.05743831,-0.002102233,0.01019554,0.03168737,-0.06825414,0.05851971,-0.07659408
1.02724,0.04473657,0.05607491,0.001879056,0.01214385,0.03023951,-0.06225762,0.05635042,-0.06864483
1.022898,0.04879149,0.05858385,-0.002532084,0.01643578,0.0326357,-0.06679356,0.05430567,-0.06974168
1.01464,0.04905407,0.06506236,-0.010852,0.01691253,0.03897388,-0.07051334,0.05361322,-0.06945496
1.015442,0.04815089,0.0644866,-0.01010441,0.01620091,0.03823075,-0.06681455,0.05414782,-0.0662997
1.019212,0.04727833,0.06399894,-0.00638202,0.01549758,0.03754916,-0.06265565,0.0522577,-0.06643772
1.021758,0.04371592,0.06530606,-0.003877013,0.01208242,0.03863628,-0.05928063,0.04519914,-0.06556379
1.021403,0.03945147,0.06020811,-0.004265148,0.007943743,0.03329283,-0.06241869,0.03745262,-0.06664204
1.019844,0.03796687,0.0550241,-0.005850868,0.006564131,0.02783852,-0.06999865,0.03642952,-0.06621043
1.021358,0.03977583,0.05476629,-0.004356556,0.008458096,0.02728654,-0.070644,0.03856451,-0.06258327
1.021165,0.04278352,0.05682128,-0.00456239,0.01153161,0.02902457,-0.06775938,0.03661698,-0.06256078
1.021165,0.04499301,0.05923467,-0.004569301,0.01378845,0.03109926,-0.06620113,0.03382895,-0.0612437
1.022523,0.04413432,0.06149965,-0.003212619,0.0129592,0.03300474,-0.06122363,0.03107053,-0.05860954
1.019371,0.04202328,0.06116387,-0.006359418,0.01086026,0.03228954,-0.05538879,0.02606198,-0.05826351
1.018201,0.04316735,0.05822621,-0.007518623,0.01199969,0.02895336,-0.05558025,0.02651718,-0.05679681
1.02459,0.04342991,0.05897283,-0.001113834,0.01224148,0.02928326,-0.05685578,0.03328318,-0.05680328
1.030875,0.04150938,0.05865528,0.005192828,0.0102847,0.02853172,-0.05433868,0.03922393,-0.06236657
1.030017,0.04173693,0.05634085,0.004361775,0.01046113,0.025767,-0.05391701,0.03907483,-0.0692059
1.027565,0.0428836,0.05751024,0.001939649,0.0115425,0.02647082,-0.05466847,0.03189635,-0.06771333
1.028608,0.04776979,0.05687489,0.003017532,0.0163498,0.02535564,-0.05305556,0.02916177,-0.05875492
1.025997,0.05360263,0.05809282,0.0004438301,0.02209062,0.02608049,-0.05221952,0.03487738,-0.05267466
1.022641,0.05148329,0.06193762,-0.002872474,0.0198664,0.02941992,-0.050316,0.04377077,-0.05090234
1.021291,0.04792296,0.06240422,-0.004179763,0.01618852,0.0293697,-0.04691072,0.04930925,-0.05040425
1.016858,0.04707948,0.06083154,-0.008567784,0.01521512,0.02726952,-0.04437296,0.0434001,-0.04772876
1.018165,0.04547899,0.05710609,-0.007213282,0.01347278,0.02300667,-0.04363828,0.03666267,-0.04267186
1.022189,0.04728247,0.05703509,-0.003140193,0.01512298,0.02238926,-0.0444969,0.03648953,-0.04126433
1.020468,0.04989658,0.05950339,-0.004808677,0.01757284,0.02430308,-0.0436939,0.03639686,-0.04238998
1.021588,0.04833013,0.05925524,-0.00363444,0.01583162,0.02349327,-0.04349768,0.0369478,-0.04379465
1.023045,0.04802085,0.06170641,-0.002120614,0.01533745,0.02537645,-0.04159901,0.03598811,-0.0430776
1.021726,0.04846416,0.06338556,-0.003381257,0.01558615,0.02648199,-0.03762966,0.03445172,-0.03481161
1.022392,0.04748162,0.0624193,-0.002653994,0.01439975,0.02493718,-0.03950072,0.0347,-0.02739493
1.022276,0.0489968,0.06313996,-0.002707648,0.01570226,0.02507497,-0.04031318,0.03412476,-0.02900719
1.022045,0.04984613,0.06351969,-0.002875394,0.01633053,0.02486812,-0.03830657,0.03521166,-0.03059618
1.022079,0.04859493,0.06344754,-0.00277558,0.01485031,0.02420627,-0.03820006,0.03514993,-0.02710198
1.020258,0.0478509,0.06553685,-0.004530219,0.01386969,0.02570332,-0.03676802,0.03137862,-0.02597481
1.018993,0.04669743,0.07047807,-0.005727242,0.01247254,0.03005021,-0.03799135,0.02708707,-0.02617444
1.019413,0.04715078,0.07295209,-0.005238082,0.01267559,0.03192818,-0.03921028,0.01981857,-0.02338313
1.02085,0.04819639,0.06966458,-0.003730644,0.01346479,0.02804308,-0.03566429,0.01023926,-0.02215901
1.021913,0.04946927,0.06672127,-0.002596771,0.01447563,0.02450091,-0.03225717,0.006229165,-0.02021331
1.022413,0.05186156,0.0666873,-0.002024029,0.01660062,0.02386714,-0.03065936,0.01128692,-0.0167915
1.022056,0.04894126,0.06261255,-0.002307302,0.01340812,0.01919212,-0.03015285,0.01597741,-0.01236035
1.020126,0.04462533,0.05617135,-0.004163584,0.008815451,0.01215081,-0.02882841,0.01340853,-0.005627364
1.019419,0.04617847,0.05939253,-0.004795951,0.0100878,0.0147728,-0.0274133,0.01179993,-0.005835852
1.021089,0.04809731,0.06392774,-0.003050801,0.01172234,0.01871054,-0.02528516,0.008995489,-0.005969138
1.022953,0.04853646,0.06181015,-0.001110549,0.01187415,0.01599789,-0.02108168,-0.001341628,-0.0005391813
1.022478,0.04742073,0.06410877,-0.001508759,0.01046846,0.01770444,-0.02086371,-0.006599733,-0.001758524
1.021581,0.04298651,0.0649224,-0.00232947,0.005742094,0.0179295,-0.0232115,-0.001420678,-0.003434975
1.022649,0.04159605,0.06165578,-0.001184646,0.004057852,0.01407828,-0.02301643,0.004763558,-0.005047834
1.022236,0.04704459,0.06286582,-0.001521482,0.009211581,0.01470817,-0.02348011,0.006375465,-0.009601377
1.021875,0.0518654,0.0625794,-0.001805288,0.01373703,0.01384656,-0.02398727,0.00156621,-0.003863683
1.023006,0.04915318,0.06096325,-0.0005983458,0.01072924,0.01166068,-0.02201762,-0.004253037,0.00403994
1.023729,0.04469895,0.05774287,0.0002011962,0.00597947,0.007876541,-0.02133746,-0.00361379,0.002590212
1.025218,0.04333825,0.05226156,0.001765626,0.004323618,0.001838092,-0.02192019,-0.00144723,-0.001512885
1.023258,0.04091882,0.05471395,-0.000119846,0.00160993,0.003740701,-0.02064918,-0.0006065459,-0.007135348
1.019187,0.04115272,0.05835623,-0.004117226,0.001551055,0.006841335,-0.01952553,0.003359355,-0.009276302
1.019318,0.04368186,0.05721577,-0.003914108,0.003789464,0.005168006,-0.01807074,0.004217,-0.003757969
1.020506,0.04266692,0.05862962,-0.002654348,0.002486377,0.006058293,-0.01572573,0.001405395,-0.001711523
1.021046,0.04307966,0.05971593,-0.002042987,0.002613984,0.006630791,-0.01499183,0.001618035,-0.005633901
1.021367,0.04416713,0.06211273,-0.00165166,0.00341977,0.008523904,-0.01507067,7.977612e-05,-0.006943254
1.022303,0.0460276,0.06706087,-0.0006467478,0.005002344,0.0129787,-0.01524309,-0.0003618439,-0.002013656
1.024363,0.05018525,0.06580291,0.001481084,0.00888615,0.01123782,-0.01485202,0.001582397,0.006461415
1.023645,0.04818062,0.0637751,0.0008304038,0.006611843,0.008737482,-0.01430499,-0.0005508394,0.009490898
1.022146,0.04398721,0.06507441,-0.0006029722,0.002153017,0.009574679,-0.01373869,-0.0007998377,0.004185177
1.022358,0.04280985,0.06268955,-0.0003267374,0.0007146755,0.006738156,-0.01167845,0.000478646,0.001425039
1.021692,0.04253528,0.06157958,-0.0009291279,0.0001838622,0.005187038,-0.009051993,-7.83241e-05,0.009582112
1.020455,0.04457291,0.06270864,-0.002105246,0.0019703,0.005885581,-0.006803899,-0.0004414706,0.01719604
1.019058,0.04400187,0.05936501,-0.003441619,0.001153384,0.002122209,-0.007729969,-0.004063895,0.01219795
1.019185,0.04045734,0.055408,-0.003255559,-0.002631464,-0.002243595,-0.009547298,-0.007135571,0.008910421
1.021446,0.03751409,0.05135399,-0.0009370896,-0.005809163,-0.006695092,-0.009574349,-0.005916481,0.01376323
1.023559,0.03459714,0.0478419,0.001232482,-0.008954265,-0.01059289,-0.01106128,-0.004735104,0.01265817
1.025743,0.03365668,0.05201183,0.003470861,-0.01011604,-0.006796285,-0.01093196,-0.004308827,0.006229104
1.025142,0.0355421,0.05805846,0.002923813,-0.008444539,-0.001110084,-0.01144952,-0.002384693,0.001289689
1.022357,0.03956668,0.05745657,0.0001903284,-0.004625982,-0.002059227,-0.01358902,0.0004843845,0.0015275
1.02215,0.03982647,0.05593033,3.357287e-05,-0.004563977,-0.003919424,-0.01315008,0.003151573,0.004864689
1.022118,0.03746798,0.05655478,5.010887e-05,-0.007111795,-0.003615536,-0.01420158,0.009814756,0.003309943
1.022155,0.03867172,0.05367099,0.0001336697,-0.006088724,-0.006806376,-0.0137044,0.01591086,0.002420153
1.02253,0.03735741,0.04706283,0.0005530823,-0.007574847,-0.01370792,-0.01236964,0.01382989,0.002299158
1.022216,0.03670329,0.04159829,0.0002824704,-0.008391729,-0.01945179,-0.01345473,0.01488316,-0.0009032805
1.024207,0.03868609,0.0438432,0.002314104,-0.006562467,-0.01747165,-0.01322062,0.02387138,-0.001683376
1.025968,0.03759322,0.0503973,0.004114781,-0.007799508,-0.01116719,-0.0153263,0.02804421,-0.006698916
1.026372,0.0381093,0.05070769,0.004556054,-0.007418129,-0.01109099,-0.01516612,0.02593228,-0.01186871
1.026446,0.03689979,0.05186586,0.004665336,-0.008752812,-0.01015141,-0.01060573,0.02647085,-0.007574533
1.024292,0.0350647,0.05439078,0.002543571,-0.01070346,-0.007829509,-0.01044638,0.02691475,-0.006085485
1.022526,0.03789965,0.05174539,0.0008078777,-0.007974343,-0.01066241,-0.01122096,0.02200942,-0.007993653
1.021313,0.03860716,0.05371886,-0.0003770502,-0.007362915,-0.008861089,-0.009344629,0.01859466,-0.006757709
1.020191,0.03924076,0.05795868,-0.001473589,-0.006815664,-0.004778239,-0.006862092,0.0188678,-0.006220503
1.020807,0.04181064,0.05958067,-0.0008337823,-0.004322529,-0.003298356,-0.004361065,0.01851078,-0.004814092
1.020178,0.04526487,0.05813714,-0.001441462,-0.0009356397,-0.004869569,-0.003655907,0.01746027,-0.003749184
1.019037,0.04867479,0.05203353,-0.002562812,0.002415956,-0.0110869,-0.003324566,0.01524199,-0.005091826
1.02075,0.04614261,0.05113215,-0.0008330072,-0.0001660187,-0.0120883,-0.002668106,0.0111158,-0.003157847
1.023139,0.04345419,0.0504856,0.001572711,-0.002896206,-0.01282134,-0.006673924,0.008063705,9.292354e-05
1.024004,0.04309837,0.04893003,0.002452212,-0.003286177,-0.01444998,-0.01116133,0.0129009,-0.0003638293
1.023553,0.04088104,0.05415593,0.002014406,-0.005530328,-0.009283821,-0.006574459,0.02001636,-0.001148139
1.022451,0.04160054,0.05564468,0.000923474,-0.004830571,-0.007841712,-0.001554299,0.01897434,-0.004861579
1.022058,0.04321396,0.05541769,0.0005403094,-0.003230028,-0.008102582,-0.002308674,0.01849675,-0.009328013
1.022221,0.04318523,0.05615666,0.000711741,-0.003265021,-0.00738515,-0.001573019,0.01899451,-0.001815932
1.022225,0.04507853,0.05440301,0.0007233788,-0.001371669,-0.009148415,-0.004012895,0.01409019,0.007432485
1.022101,0.04669961,0.05431306,0.0006048414,0.0002554336,-0.009236476,-0.009633621,0.01055411,0.005279351
1.021435,0.04729711,0.05220237,-5.765066e-05,0.0008645083,-0.01133413,-0.008422244,0.007359559,0.003516096
1.021477,0.04757074,0.05193767,-1.286709e-05,0.001154819,-0.01157497,-0.005626115,0.007531266,0.006887168
1.02244,0.04748574,0.05296856,0.0009522512,0.001091122,-0.01050966,-0.006107803,0.0114358,0.007977571
1.02226,0.04953335,0.05033874,0.0007727375,0.003164208,-0.01309479,-0.005371412,0.009083893,0.008481729
1.020933,0.05027229,0.05163104,-0.0005548542,0.003932317,-0.01174779,-0.004530808,0.009571328,0.009874461
1.019865,0.04602422,0.05284386,-0.001623896,-0.0002834045,-0.0104705,-0.002822842,0.01341421,0.008477661
1.019912,0.04293781,0.05288791,-0.001579862,-0.00333465,-0.01035255,0.0009185558,0.01137194,0.01041359
1.020349,0.04378526,0.05588234,-0.001145957,-0.002449477,-0.007275126,0.003558227,0.006991539,0.01761349
1.020505,0.04416384,0.05649488,-0.0009936962,-0.002030778,-0.006570939,0.006570754,-0.0007292886,0.02090509
1.021605,0.04423836,0.05558181,0.0001019565,-0.001913896,-0.007384216,0.007414737,-0.003403858,0.0175789
1.022861,0.04409729,0.05479504,0.001353226,-0.002010535,-0.008063533,0.00532188,0.003249111,0.01048312
1.022187,0.04072333,0.05386484,0.0006740943,-0.005338159,-0.008879068,0.006225767,0.005977808,0.008813851
1.021847,0.03784917,0.05256711,0.0003281844,-0.008164124,-0.01005533,0.007073841,0.003391223,0.01128308
1.022618,0.04138328,0.05260439,0.001093437,-0.004579912,-0.009890109,0.008449596,-0.0006220944,0.01090069
1.022065,0.05013537,0.05619938,0.0005343656,0.004224139,-0.006161049,0.01151863,-0.005038394,0.01676064
1.022099,0.05626035,0.05756809,0.0005611291,0.01040267,-0.004652561,0.01031427,-0.008979527,0.02584153
1.022506,0.05229639,0.05581191,0.0009605364,0.006493302,-0.006263718,0.01010098,-0.01026693,0.02836936
1.02195,0.0446944,0.05106523,0.0003973775,-0.001053648,-0.01086059,0.011717,-0.008203749,0.02405904
1.022356,0.04401605,0.04408327,0.0007951561,-0.001676841,-0.01768825,0.01056572,-0.00787201,0.01915063
1.022444,0.04650165,0.04345273,0.0008753048,0.0008638704,-0.01816002,0.01068164,-0.009031547,0.02199716
1.022942,0.04728462,0.04647667,0.00136514,0.001701782,-0.01497276,0.01089426,-0.01371799,0.02493834
1.024272,0.04584481,0.04778916,0.002685385,0.0003165523,-0.01349232,0.0123074,-0.01932591,0.02863354
1.024279,0.04366065,0.04902553,0.00268379,-0.001813538,-0.01208343,0.01447803,-0.01756239,0.03565733
1.024394,0.04641218,0.04883327,0.002788543,0.0009914501,-0.01209871,0.009931641,-0.0162664,0.03551753
1.024508,0.04917646,0.04826188,0.002892045,0.003808462,-0.01248887,0.005179729,-0.01760088,0.03467917
1.025398,0.0474628,0.0485693,0.003771346,0.00214663,-0.01199612,0.005634275,-0.01788208,0.03689749
1.028126,0.04666136,0.04781609,0.006487242,0.00139589,-0.01256007,0.004763278,-0.01888667,0.03734413
1.028828,0.04540066,0.0467694,0.007176267,0.0001846284,-0.01341374,0.00374588,-0.01393331,0.03697225
1.024954,0.0433739,0.04722068,0.003288885,-0.001794035,-0.01276583,0.005037819,-0.008437317,0.03452428
1.020507,0.0417095,0.04746377,-0.001172991,-0.003411687,-0.0123226,0.00446506,-0.01307419,0.03348708
1.021901,0.03907174,0.04680493,0.000204401,-0.006003912,-0.01277797,0.003793139,-0.01673124,0.03610075
1.024588,0.03711895,0.04643837,0.002873756,-0.007912193,-0.01293786,0.004978831,-0.01273457,0.03774037
1.023959,0.03505905,0.04559389,0.002226224,-0.009928302,-0.01357261,0.004180511,-0.008298295,0.03374999
1.025148,0.03481995,0.04578162,0.003395542,-0.01012393,-0.01317221,0.004281085,-0.001509312,0.02735696
1.024474,0.03699515,0.04725433,0.002701879,-0.007905197,-0.011484,0.007218008,0.00547693,0.02425016
1.021613,0.03736391,0.04800658,-0.0001812286,-0.007492497,-0.0105136,0.009745518,0.00165022,0.02015867
1.021324,0.03903331,0.04826632,-0.0004928801,-0.005778516,-0.01003325,0.01160657,-0.006414121,0.01635665
1.015503,0.04499419,0.04949761,-0.006337471,0.0002277512,-0.008579161,0.01184087,-0.02277962,0.01812181
1.00482,0.05153478,0.05653537,-0.01704354,0.006814434,-0.001316739,0.0141422,-0.06995841,0.0308497
1.002492,0.05417114,0.06235456,-0.01939509,0.009497281,0.004728445,0.02055019,-0.1237193,0.05952452
1.015514,0.05107944,0.05006081,-0.006396534,0.006451933,-0.007338661,0.02273546,-0.1377487,0.08364428
1.033739,0.04678335,0.02920583,0.01180811,0.002201573,-0.02796676,0.01497926,-0.1133749,0.08726596
1.03767,0.04532299,0.02425817,0.01571954,0.0007860211,-0.03268709,0.002429009,-0.07217157,0.08162309
1.031189,0.04545538,0.03597526,0.009220034,0.0009621208,-0.02074152,-0.003722551,-0.03780533,0.07558357
1.028275,0.04623698,0.04516448,0.006287434,0.001786241,-0.01132209,-0.005092335,-0.03909755,0.0738035
1.027545,0.04517396,0.04163847,0.005539019,0.0007644605,-0.01461597,-0.008315919,-0.04733464,0.07155507
1.02677,0.04076686,0.03669401,0.004744416,-0.003602742,-0.01932643,-0.007280355,-0.02680817,0.0677905
1.024512,0.03426919,0.0335516,0.002467456,-0.01006175,-0.02223285,-0.003881306,-0.0210279,0.0693588
1.021082,0.0279213,0.02632727,-0.0009829441,-0.01637187,-0.02921892,-0.004345485,-0.03488175,0.0667696
1.021639,0.02250092,0.02497067,-0.0004471134,-0.02175473,-0.03033447,-0.002514819,-0.03862829,0.0609468
1.023231,0.01386974,0.02475221,0.001123777,-0.03034774,-0.03030846,0.004555772,-0.04077333,0.05141773
1.021752,0.0108318,0.01981696,-0.0003774754,-0.03334567,-0.03499518,0.0106036,-0.01319013,0.02153051
1.021979,0.01572684,0.02266516,-0.0001725505,-0.02840747,-0.03189367,0.009544585,0.0216861,-0.008161869
1.022835,0.01201885,0.02340834,0.0006613301,-0.03206789,-0.03089176,0.007284896,0.01639051,-0.01193512
1.021692,0.009319136,0.02072194,-0.0005049127,-0.03471448,-0.03331346,0.01141473,0.02097854,-0.02064162
1.022391,0.01402583,0.02517566,0.000171295,-0.02994798,-0.02858859,0.01522897,0.03869607,-0.04205768
1.022438,0.0152213,0.02831813,0.0001953404,-0.02868503,-0.02516818,0.02063596,0.03603433,-0.03635264
1.022152,0.01968063,0.03229211,-0.0001131147,-0.02414977,-0.02090932,0.03271008,0.0312185,-0.03239331
1.024414,0.02441143,0.03266049,0.002126439,-0.01933407,-0.02024921,0.04032187,0.03165306,-0.04802463
1.02534,0.02828202,0.02576466,0.003029518,-0.01536938,-0.02684662,0.0425857,0.04915016,-0.04008049
1.024985,0.03581323,0.02457556,0.002652323,-0.007734896,-0.02773068,0.04629077,0.071916,-0.03729825
1.023936,0.03869437,0.02710736,0.001579946,-0.004741673,-0.0248872,0.04688414,0.05959609,-0.04162907
1.023234,0.04527709,0.03389261,0.0008553018,0.001961332,-0.01778365,0.04008803,0.0396487,-0.02300908
1.023828,0.05690154,0.04009098,0.001426886,0.01371334,-0.01126064,0.02984465,0.03903497,-0.01478191
1.023497,0.06172128,0.03645905,0.001073055,0.01866667,-0.01456212,0.0193364,0.02829252,-0.007782278
1.023996,0.06374134,0.03506601,0.001548732,0.02082475,-0.01561951,0.008800388,0.01851055,0.008768781
1.025472,0.0635529,0.03766487,0.003001279,0.02077708,-0.01268036,0.005100457,0.02578508,0.02207762
1.026768,0.0604731,0.03776427,0.004274068,0.01783919,-0.01223658,0.001247418,0.02765465,0.03635891
1.026805,0.0578956,0.03666185,0.004287538,0.01540325,-0.01299109,-0.01312127,0.0215675,0.03870061
1.025457,0.05153797,0.03436942,0.00291583,0.009185669,-0.01493265,-0.02072496,0.01314452,0.03431927
1.024325,0.04122293,0.03284623,0.001759083,-0.0009917028,-0.01610244,-0.01897023,0.007595126,0.02940635
1.020536,0.03413446,0.03185984,-0.002055348,-0.007945308,-0.01673326,-0.02150253,0.008145757,0.02805441
1.018028,0.02916444,0.02900249,-0.004588481,-0.01278322,-0.01923314,-0.02230249,0.01730886,0.02989688
1.019914,0.02296889,0.02823605,-0.002727193,-0.01884906,-0.01964043,-0.01722098,0.03191628,0.02022363
1.020209,0.02172593,0.03407706,-0.002458312,-0.0199641,-0.01343872,-0.0095662,0.03195005,0.01171919
1.021695,0.02214307,0.04104828,-0.0009972602,-0.01942008,-0.006105547,0.001233651,0.03553831,0.004737653
1.024922,0.01867841,0.04597382,0.00220562,-0.02275815,-0.000817389,0.01349653,0.05638752,-0.005226319
1.024896,0.02065889,0.04754258,0.002155986,-0.02065062,0.001113837,0.02172573,0.06682505,-0.01486175
1.025491,0.02493419,0.04452973,0.002726896,-0.0162471,-0.001537634,0.02569258,0.06434908,-0.02595931
1.026658,0.02549193,0.04603508,0.003870336,-0.01555947,0.0003271062,0.03111974,0.05696717,-0.02767457
1.023625,0.03396135,0.04772393,0.000814013,-0.006958163,0.002372515,0.03564549,0.04869875,-0.02683629
1.02101,0.04413343,0.04606396,-0.001823489,0.003347816,0.001065451,0.03700424,0.04511514,-0.02548086
1.021983,0.04181293,0.04724533,-0.0008733925,0.001162875,0.002595295,0.03870858,0.04707564,-0.01937418
1.020506,0.04330264,0.04637176,-0.002373307,0.002789251,0.002065039,0.03858424,0.04870899,-0.01459284
1.016532,0.05722064,0.05076583,-0.006369111,0.01684436,0.006796539,0.03770449,0.0326113,-0.006318121
1.015158,0.06377953,0.05782629,-0.007764283,0.02353986,0.01418779,0.03706735,0.004860914,0.00286683
1.016001,0.06334441,0.05337248,-0.006941612,0.02323956,0.0100572,0.03274295,-0.02067707,0.01567975
1.020216,0.07019755,0.04406556,-0.002745989,0.03022429,0.001065102,0.02429247,-0.03519535,0.03163683
1.029305,0.07391499,0.03610255,0.006325849,0.03406855,-0.006592022,0.009376435,-0.02380655,0.03721713
1.035445,0.06585214,0.03640327,0.01244996,0.02612619,-0.00599446,-0.005088237,-0.01058103,0.0386445
1.033591,0.05696854,0.03979043,0.01058042,0.0173554,-0.002319392,-0.01233538,-0.0144988,0.04315402
1.030621,0.05152043,0.03652353,0.007596126,0.01201154,-0.005307227,-0.01814186,-0.01460784,0.03776468
1.026054,0.04165196,0.03919044,0.00301439,0.00223834,-0.002370011,-0.01678299,-0.01183579,0.02506254
1.018334,0.02686572,0.04299131,-0.004721167,-0.01246153,0.001692443,-0.01137844,-0.00788208,0.02768196
1.019237,0.02247157,0.04086068,-0.003833908,-0.01677757,-0.0001853424,-0.01080269,0.01004362,0.03053502
1.021469,0.0290006,0.04358806,-0.001617098,-0.01017768,0.002786031,-0.005578528,0.02436164,0.02134281
1.013457,0.02954215,0.04989534,-0.009643833,-0.009571527,0.009328329,0.002858122,0.01930413,0.02002731
1.011189,0.03088925,0.05572336,-0.01192684,-0.008165257,0.01538206,0.01300372,0.01650096,0.02029253
1.017757,0.03864425,0.05395875,-0.005372525,-0.0003558924,0.01383331,0.0222472,0.0255188,0.02246669
1.025218,0.04213742,0.04854621,0.00207634,0.00318727,0.008626248,0.02146471,0.02710544,0.02735716
1.031934,0.04617175,0.05218601,0.008781598,0.007267328,0.01246071,0.02209477,0.01915763,0.02410621
1.029863,0.04994579,0.05115689,0.006700456,0.01108275,0.01161511,0.02030223,0.01642717,0.02227309
1.028723,0.04869427,0.04258954,0.005551395,0.009868032,0.003219906,0.01176676,0.02677681,0.01499373
1.034919,0.04676521,0.03651495,0.01173838,0.00797093,-0.002693903,0.0126818,0.04492663,0.002312509
1.033761,0.0404546,0.0328454,0.01057192,0.001687259,-0.006213701,0.01313471,0.05626938,-0.001808345
1.025295,0.03391857,0.03778825,0.002096471,-0.004826776,-0.001131576,0.007669858,0.063428,-0.004676006
1.0155,0.03528508,0.04221324,-0.007708473,-0.003442884,0.003422724,0.006437538,0.06675697,-0.007992379
1.011733,0.03891985,0.04471703,-0.0114865,0.0002050845,0.006046191,0.01115358,0.0569156,-0.005147135
1.015707,0.04022736,0.05662234,-0.007523736,0.00152197,0.01806162,0.02035275,0.05148914,-0.0002120936
1.018333,0.04547906,0.0643853,-0.004907641,0.006779414,0.02592488,0.02404252,0.05729365,-0.004456921
1.026968,0.05143013,0.06652739,0.003717137,0.01273261,0.02815683,0.02890864,0.06517302,-0.01081972
1.034402,0.04825348,0.06804223,0.0111422,0.00955426,0.02975022,0.03683264,0.07081826,-0.01075544
1.023701,0.04780036,0.06562427,0.0004323624,0.009095373,0.02739866,0.03193863,0.05467897,-0.01160249
1.015999,0.05180472,0.06657351,-0.007278705,0.01308968,0.02840138,0.02468362,0.03183341,-0.009368251
1.023608,0.05106499,0.06554175,0.000322253,0.01233538,0.02740951,0.01990484,0.03452036,-0.006403407
1.026186,0.05173085,0.05967979,0.002891646,0.01298188,0.02157334,0.01383402,0.04148957,-0.005740167
1.017528,0.05176866,0.05869955,-0.005774305,0.01299529,0.02060448,0.01341191,0.03704943,-0.004150397
1.011094,0.05270192,0.06414026,-0.01221566,0.01389887,0.02604201,0.01167883,0.03262625,-0.004553997
1.012633,0.05504403,0.0699092,-0.01068251,0.01620578,0.03179304,0.008980854,0.02137517,-0.001646511
1.015849,0.05202716,0.06513804,-0.00747124,0.01314793,0.02698892,0.009682931,0.009482016,-0.0003651206
1.01702,0.05063781,0.05945432,-0.006303598,0.01171161,0.02125693,0.009294164,0.009190929,0.001420585
1.016003,0.05192121,0.06346987,-0.007322313,0.01294195,0.02520885,0.009337461,0.00202418,0.008865665
1.015132,0.05429885,0.06300776,-0.008192275,0.01526038,0.02466779,0.005055438,-0.01163337,0.00666978
1.018746,0.06012649,0.06001943,-0.00457473,0.02102251,0.0215853,-0.005261804,-0.01620705,0.003971205
1.024139,0.06359475,0.0599788,0.0008240007,0.02441863,0.02143546,-0.01201046,-0.01598036,0.007530667
1.02591,0.05958459,0.05721432,0.002603912,0.02032929,0.01854699,-0.009737873,-0.009865465,0.00859188
1.023696,0.05259571,0.05698673,0.0004001939,0.01325383,0.01818102,-0.004658375,-0.0007898583,0.01584577
1.02108,0.05073405,0.05662882,-0.002202652,0.01129807,0.0176708,-0.003449534,0.004388024,0.02241716
1.020562,0.0494265,0.05389401,-0.002706232,0.009889056,0.01477027,0.002559674,0.005217757,0.01945448
1.020783,0.04591575,0.05381303,-0.002469082,0.006269739,0.01451074,0.01168173,0.002623403,0.01738362
1.020754,0.04621377,0.05457169,-0.002480259,0.006452471,0.01507868,0.01288758,0.001605029,0.01809304
1.019965,0.0493594,0.06141059,-0.003249565,0.009476534,0.02171528,0.007322117,-0.001711173,0.0181957
1.019401,0.05263042,0.06963023,-0.003792038,0.01262007,0.02972142,-0.0002981256,-0.001548424,0.01929257
1.021248,0.05185626,0.06799586,-0.001922577,0.01171273,0.02786251,0.001308082,0.002830204,0.02135008
1.022939,0.05046113,0.06548301,-0.000206716,0.01017892,0.02511404,0.009729667,-0.00155174,0.02018213
1.022628,0.05304748,0.06595242,-0.0004915183,0.01262127,0.02533685,0.01459048,-0.001656883,0.01688451
1.024202,0.05243972,0.067378,0.001109565,0.01186437,0.02650498,0.018537,0.003792521,0.01539311
1.028444,0.04975095,0.07070962,0.005380083,0.009021528,0.02956845,0.01961377,0.004845473,0.0159332
1.028617,0.04909115,0.06976629,0.005582683,0.008202946,0.02834633,0.02144959,0.003126573,0.01951454
1.020146,0.05240995,0.0682625,-0.002859525,0.01135855,0.0265532,0.02279192,-0.01071068,0.02322938
1.010387,0.05771356,0.06934234,-0.01258797,0.01649478,0.02733327,0.01846496,-0.03124635,0.0260516
1.010455,0.05565825,0.06686824,-0.0124899,0.01426799,0.02454917,0.01678673,-0.04283315,0.02850538
1.017755,0.05326837,0.06406723,-0.005158116,0.01170254,0.0214282,0.01508936,-0.04315612,0.02675888
1.021143,0.05486798,0.06213321,-0.001737424,0.01312258,0.01916467,0.01196187,-0.04350358,0.02349701
1.020325,0.05265769,0.06100833,-0.002520776,0.01072885,0.01770127,0.009727984,-0.04333252,0.02008109
1.020968,0.0512531,0.06042377,-0.001842737,0.009137161,0.0167698,0.004956125,-0.02898511,0.01671536
1.022955,0.05069683,0.05553218,0.0001813586,0.008390366,0.01152361,0.002034647,-0.02265068,0.01885757
1.023565,0.0492228,0.0541604,0.0008287566,0.006722701,0.009790336,0.004638515,-0.02882865,0.02150191
1.020967,0.05033497,0.05674778,-0.001730911,0.0076385,0.01201022,0.009175977,-0.02824578,0.01956744
1.018396,0.0499146,0.05510747,-0.004262997,0.007019379,0.009997311,0.006895912,-0.03126816,0.01872124
1.019475,0.04877586,0.05532314,-0.003143953,0.005679843,0.009836087,0.003338789,-0.03059451,0.01540406
1.021089,0.04887991,0.05613978,-0.001490079,0.005581441,0.01027238,0.004696847,-0.02311329,0.005249063
1.021659,0.04932859,0.05497547,-0.0008783976,0.005826366,0.008725037,0.003683027,-0.01876045,0.001518825
1.02254,0.0514415,0.05624654,4.430021e-05,0.007734578,0.009611147,0.007287896,-0.01410524,0.01131537
1.022412,0.05158488,0.0578652,-4.200088e-05,0.007672602,0.01084362,0.01302488,-0.01565622,0.01955794
1.021852,0.04998299,0.0613178,-0.000559243,0.005864919,0.01390941,0.01499901,-0.0147409,0.01591059
1.022087,0.04904204,0.06334248,-0.0002823413,0.004717998,0.01554712,0.0191745,-0.00726275,0.0119949
1.01959,0.04796451,0.05942893,-0.00273678,0.003434617,0.0112468,0.0188923,-0.00283986,0.01351592
1.014196,0.04798437,0.05723889,-0.008087276,0.003249094,0.008670563,0.01652753,-0.0004201585,0.0123445
1.011185,0.04803836,0.05843633,-0.01105583,0.003098514,0.009482857,0.01388508,-0.007750839,0.01231479
1.013302,0.04921652,0.05868458,-0.008894809,0.004073242,0.009347497,0.008556448,-0.02081421,0.01442032
1.019035,0.05270027,0.0573783,-0.003117842,0.007354966,0.007659624,0.009708842,-0.03120999,0.01518835
1.023812,0.05470114,0.05541475,0.001703943,0.009155366,0.005316966,0.01096693,-0.03551297,0.0216148
1.024451,0.05371092,0.0551565,0.002389066,0.007966275,0.004682605,0.007887474,-0.02975686,0.02871649
1.022031,0.0519464,0.05696485,1.66221e-05,0.006004485,0.00611837,0.006758188,-0.02768681,0.02954415
1.020408,0.05202822,0.05636274,-0.001559828,0.005890705,0.005147695,0.004635777,-0.0272207,0.02787676
1.019307,0.04961622,0.05400861,-0.002613277,0.003284882,0.002429465,0.003037161,-0.02465899,0.02709194
1.017155,0.04429491,0.05548102,-0.004717527,-0.002228283,0.003542715,0.002816873,-0.02957162,0.02823281
1.01867,0.04374641,0.05595195,-0.003155007,-0.002966313,0.003659874,0.000342633,-0.0290626,0.02629801
1.022991,0.04431952,0.05398707,0.001213953,-0.002579976,0.001347021,-0.0003522229,-0.01511227,0.02137932
1.027638,0.04387714,0.0521382,0.00590902,-0.003205906,-0.0008436159,0.002242639,0.004959061,0.01722959
1.030095,0.04528733,0.04942878,0.00841344,-0.001975638,-0.003888101,0.007068954,0.01476755,0.01717147
1.024202,0.0454969,0.05509332,0.0025685,-0.001942005,0.001448571,0.01418029,0.008434434,0.02061212
1.019204,0.04774987,0.06137001,-0.002383241,0.0001393045,0.00740497,0.01616504,0.00858926,0.01934499
1.020814,0.05070726,0.05726398,-0.000728517,0.002929503,0.002986388,0.01357361,0.01140159,0.01904587
1.020299,0.05001657,0.0553267,-0.001198494,0.002076159,0.0007443757,0.01224716,0.006535144,0.01944907
1.019242,0.05046591,0.0538191,-0.002212559,0.002367386,-0.001059982,0.007410926,0.00554142,0.01406279
1.0212,0.04990226,0.05185827,-0.0002121162,0.001650151,-0.003309367,0.003580518,-0.002243272,0.01443071
1.023008,0.04701555,0.054021,0.00163735,-0.001385607,-0.001426693,0.004280145,-0.01766077,0.01703068
1.022323,0.04693541,0.05136786,0.0009923777,-0.001610196,-0.004351107,0.003758665,-0.02290578,0.01511313
1.021879,0.0484089,0.04986377,0.000586956,-0.0002764312,-0.006117431,0.004415608,-0.02350309,0.01812817
1.023546,0.04890727,0.05264308,0.00229188,8.700905e-05,-0.003591011,0.001251463,-0.02917484,0.02474845
1.023245,0.04854893,0.05116833,0.002027524,-0.0004014155,-0.005309039,-0.00534112,-0.03393441,0.03055204
1.020491,0.04851958,0.05098255,-0.0006913821,-0.0005559992,-0.005728268,-0.005904044,-0.03356897,0.0338212
1.01695,0.04909566,0.05341013,-0.004198079,-0.0001002806,-0.003524129,-0.008263658,-0.03584005,0.03173805
1.01688,0.05030198,0.05438255,-0.004235856,0.0009905221,-0.002765013,-0.01553433,-0.03902422,0.03108847
1.023492,0.05197436,0.05599963,0.002408022,0.00255216,-0.001351096,-0.02010807,-0.03709977,0.03583326
1.028336,0.04805124,0.05504936,0.007282249,-0.00147701,-0.002494456,-0.01668091,-0.03554118,0.03834378
1.027112,0.03304496,0.05419019,0.006086652,-0.01658464,-0.00353671,-0.002752046,-0.02480044,0.03609489
1.027488,0.01880298,0.05996266,0.006490316,-0.03092279,0.002062544,0.01087529,0.002455532,0.02983732
1.03251,0.02700104,0.06411028,0.01153805,-0.02281475,0.006046597,0.01247526,0.0207209,0.01560591
1.03569,0.04969344,0.06144436,0.01474024,-0.0002052741,0.003226352,0.0107211,0.01541183,-0.004373876
1.033033,0.0589019,0.05771241,0.01210356,0.008927646,-0.0006511269,0.01638463,0.01070144,-0.01424409
1.021531,0.05059612,0.05429112,0.0006189299,0.0005533613,-0.004209445,0.0177692,0.01156653,-0.003430799
1.008184,0.03541267,0.04824087,-0.0127145,-0.01469197,-0.01038834,0.01613867,-0.003069667,0.004936563
1.014063,0.02880588,0.04438552,-0.006825765,-0.02135397,-0.0143638,0.02102652,-0.01277976,-0.006169815
1.023299,0.03528601,0.04949585,0.002418291,-0.01492193,-0.009364803,0.01538505,-0.005294239,-0.0108492
1.016116,0.03884045,0.05347573,-0.004758419,-0.01140798,-0.005487222,0.005333678,-0.009024826,-0.0005297642
1.017707,0.04088687,0.04997947,-0.003163648,-0.009394159,-0.009076699,-0.0008525271,-0.02132207,0.004384733
1.025055,0.04593262,0.04645414,0.004187341,-0.004373091,-0.01268614,-0.0105126,-0.02780121,0.002419547
1.025046,0.04526389,0.04297359,0.004179772,-0.005058719,-0.01624156,-0.007504995,-0.0181325,0.002470768
1.029753,0.04383912,0.04003015,0.008886335,-0.006492835,-0.01925036,-0.004740949,0.008038415,0.004666888
1.030924,0.04744821,0.03899654,0.01005433,-0.00288579,-0.02033944,-0.01177047,0.01837522,0.004407971
1.02836,0.05024114,0.03972795,0.007486018,-8.792042e-05,-0.01965315,-0.01286984,0.009964727,0.002420875
1.02787,0.04936996,0.0451402,0.006988781,-0.0009475808,-0.01427533,-0.01952212,0.008530416,0.00266993
1.02674,0.04802069,0.04991443,0.005849936,-0.002279222,-0.009524672,-0.02003499,0.02073074,0.005782115
1.027163,0.04477865,0.05132058,0.006260626,-0.0054979,-0.008131312,-0.004333108,0.03071534,0.01186938
1.019553,0.04098597,0.05459874,-0.001364469,-0.009261761,-0.004855452,0.007907073,0.02125697,0.0137488
1.012841,0.04112869,0.0565398,-0.008094547,-0.009084877,-0.002906608,0.0129379,0.009374953,0.01021596
1.019012,0.04315639,0.04992904,-0.001942956,-0.007017715,-0.009500015,0.01148995,0.005413631,0.009302954
1.023561,0.04640149,0.04011955,0.002584149,-0.003727954,-0.01928291,0.01063844,0.002702845,0.007026102
1.024275,0.04326368,0.04228485,0.003275336,-0.006816085,-0.01708183,0.009506672,0.009396812,0.003303236
1.026577,0.03779641,0.0542447,0.005552622,-0.01222884,-0.005076998,0.00631436,0.01669313,0.003908989
1.027175,0.04360769,0.06090815,0.006123832,-0.006358268,0.001640393,0.009903444,0.01563519,0.005215047
1.023829,0.04915855,0.05918596,0.002749945,-0.0007434486,-1.951298e-05,0.0117765,0.01511518,0.005644328
1.022593,0.0511272,0.05302934,0.001484797,0.001293528,-0.006106243,0.01247096,0.01491887,0.00678554
1.022625,0.05292977,0.05018694,0.001485577,0.003168303,-0.008871718,0.01195401,0.01261955,0.006682876
1.016924,0.051255,0.05151306,-0.004248114,0.001569027,-0.007462044,0.006852072,0.008957309,0.004142551
1.014318,0.05190571,0.05194681,-0.00688897,0.002297983,-0.006938397,0.004952863,0.004471553,0.002443722
1.017219,0.04728546,0.0542555,-0.004022552,-0.002241783,-0.004533819,0.00320277,0.001138957,0.00184112
1.019813,0.04021485,0.05618161,-0.001463736,-0.009229991,-0.002506245,0.007603495,-0.0002986032,0.002884281
1.020396,0.04414894,0.05526302,-0.0009151798,-0.005211716,-0.003318268,0.0147859,-0.003203993,0.01057741
