accx,accy,accz,body_accx,body_accy,body_accz,body_gyrox,body_gyroy,body_gyroz
0.990639,-0.1066127,-0.2575832,-0.003932639,0.003721301,0.02550234,0.02589117,-0.0793692,0.0745836
0.9916965,-0.1041933,-0.2533119,-0.005269968,0.003902081,0.0255915,0.0322966,-0.07458283,0.07103883
0.9960283,-0.1032849,-0.253654,-0.003229639,0.002660673,0.02119576,0.03590723,-0.06579398,0.06890329
0.9955657,-0.1039813,-0.2547878,-0.005881352,-9.737231e-05,0.01613729,0.03691442,-0.06197005,0.07239118
0.9908435,-0.10484,-0.2516169,-0.01269131,-0.002930457,0.01551295,0.03687939,-0.06294817,0.0709795
0.9879762,-0.1073245,-0.251603,-0.01754616,-0.007302877,0.01186122,0.03595077,-0.06067911,0.07121472
0.989178,-0.1096648,-0.2541295,-0.01823293,-0.01144547,0.005798587,0.03902022,-0.05889746,0.07187767
0.9915256,-0.1077818,-0.2562822,-0.01767593,-0.01127989,0.0002391651,0.03861073,-0.05789043,0.07088678
0.9900125,-0.1069667,-0.2559316,-0.02088304,-0.01209839,-0.002687789,0.039071,-0.05514334,0.07185515
0.9895268,-0.1067199,-0.2537801,-0.02296745,-0.0134022,-0.003685226,0.04203127,-0.05261881,0.07019078
0.9901923,-0.1027043,-0.2546727,-0.02380679,-0.01085555,-0.007598421,0.0384604,-0.05042764,0.06833233
0.9882708,-0.100997,-0.2560713,-0.02714066,-0.01053667,-0.01189021,0.03734076,-0.05461355,0.06595222
0.9900634,-0.103432,-0.256378,-0.02666967,-0.01428106,-0.01496347,0.03820581,-0.06115221,0.06487531
0.9929147,-0.107744,-0.2538884,-0.02505079,-0.01982491,-0.01511477,0.0372735,-0.05923683,0.06542053
0.99309,-0.1094728,-0.2486777,-0.02602038,-0.02270952,-0.01242041,0.03912314,-0.05955305,0.0635161
0.9930661,-0.1077647,-0.2495006,-0.02710365,-0.02208223,-0.01563659,0.03864106,-0.06194392,0.06654946
0.9909329,-0.1083796,-0.2518096,-0.03021257,-0.02370453,-0.02021733,0.03783058,-0.05828636,0.06991252
0.9900984,-0.108567,-0.2529069,-0.03194096,-0.02482713,-0.02346662,0.03804925,-0.05842625,0.07072992
0.9921554,-0.1078278,-0.2579937,-0.03069811,-0.02495243,-0.03058728,0.03461489,-0.06190493,0.07121064
0.9936009,-0.1072058,-0.2587613,-0.02998889,-0.02512576,-0.03327217,0.0320252,-0.06392184,0.06560636
0.9933713,-0.1037942,-0.2570554,-0.03087902,-0.02244187,-0.03336867,0.03099496,-0.06357961,0.06330914
0.9924826,-0.1019058,-0.2573057,-0.03235448,-0.02121517,-0.03530816,0.02968213,-0.06201823,0.0647587
0.9935192,-0.102575,-0.2533835,-0.03183313,-0.02248194,-0.03296375,0.03157996,-0.06594803,0.0634452
0.9946388,-0.1025792,-0.2489598,-0.03115942,-0.0230216,-0.03000843,0.03492706,-0.06893041,0.06360415
0.9969669,-0.1027608,-0.2474796,-0.02920985,-0.02367823,-0.02988967,0.03460503,-0.06891042,0.06526202
0.9999659,-0.1049758,-0.2477547,-0.02652458,-0.0263098,-0.03142158,0.03142418,-0.07213526,0.06939464
0.9981513,-0.1075757,-0.2460895,-0.02859035,-0.02926961,-0.03091108,0.03026403,-0.07347146,0.07097026
0.9960598,-0.1085829,-0.2446069,-0.03087282,-0.03058169,-0.03048394,0.03145829,-0.07145413,0.06998141
0.994836,-0.1097333,-0.2515074,-0.0322299,-0.03198361,-0.03834323,0.03217058,-0.06782011,0.06924444
0.9927426,-0.1093877,-0.2549781,-0.03440086,-0.03183786,-0.04267858,0.03342098,-0.06562545,0.0652304
0.9932668,-0.1077499,-0.252836,-0.03390087,-0.03034962,-0.04130941,0.03226863,-0.07083583,0.066178
0.9940441,-0.1067776,-0.2573846,-0.03309619,-0.02947837,-0.04654177,0.02760381,-0.07728515,0.0678208
0.9945021,-0.1067169,-0.2612793,-0.03256158,-0.02947183,-0.05103314,0.02574127,-0.07501968,0.06538523
0.9946311,-0.1091084,-0.2620089,-0.03230874,-0.03187229,-0.05227466,0.02446242,-0.06683564,0.06650498
0.9929742,-0.1093362,-0.2569044,-0.03379657,-0.03206563,-0.04759944,0.02407044,-0.06208389,0.06814115
0.9920426,-0.1076398,-0.2455776,-0.03451604,-0.03029294,-0.03662168,0.02597577,-0.06493137,0.07718727
0.9915952,-0.1071797,-0.2424777,-0.03471015,-0.02971634,-0.03379314,0.0239344,-0.06917893,0.08647401
0.9923779,-0.1048692,-0.2441346,-0.03363485,-0.02725082,-0.0356467,0.02370786,-0.06672861,0.07740755
0.9936995,-0.103546,-0.2473852,-0.03198324,-0.02573584,-0.03902244,0.02747434,-0.06443581,0.06828528
0.9928896,-0.1043611,-0.2525165,-0.03242779,-0.02632419,-0.04421029,0.02834422,-0.06677221,0.06752511
0.9927082,-0.1055903,-0.2507535,-0.03221021,-0.02729353,-0.04243776,0.02547182,-0.06919288,0.06300556
0.9924304,-0.1076025,-0.2480407,-0.03205741,-0.02901445,-0.03965219,0.02135718,-0.0752981,0.06420017
0.9917217,-0.1089686,-0.2486703,-0.03230556,-0.03005942,-0.04014831,0.02310994,-0.07767712,0.0735642
0.9943256,-0.1094822,-0.2488685,-0.02921309,-0.03022365,-0.04015498,0.02515239,-0.07437064,0.07572401
0.9968847,-0.1093754,-0.249628,-0.02613921,-0.02974065,-0.04066778,0.02212113,-0.07406974,0.06715297
0.9957836,-0.1089292,-0.2516708,-0.02670103,-0.028893,-0.04241112,0.02267066,-0.06878206,0.05987989
0.9941983,-0.1071591,-0.2547258,-0.02772457,-0.02669735,-0.04511639,0.02276884,-0.06516481,0.06270365
0.9936263,-0.1062639,-0.2568845,-0.02771403,-0.02535431,-0.04687759,0.02069055,-0.06870383,0.06659624
0.9929068,-0.1074439,-0.2565805,-0.02783189,-0.02606539,-0.04613032,0.01898015,-0.06968944,0.06658989
0.9937489,-0.1069773,-0.2549597,-0.02637064,-0.02511044,-0.04402281,0.01567173,-0.07341008,0.06881227
0.9949452,-0.1078524,-0.2553481,-0.02453929,-0.0254791,-0.04388314,0.01834459,-0.07576653,0.06876399
0.9933867,-0.1096516,-0.2559442,-0.02544849,-0.02675522,-0.04391187,0.02442154,-0.071719,0.06621553
0.992748,-0.1088751,-0.2545684,-0.02542496,-0.0254402,-0.04193178,0.02715663,-0.06781093,0.06695013
0.9941685,-0.1079897,-0.2557885,-0.02333094,-0.0240023,-0.04251267,0.02839226,-0.06487769,0.06692191
0.9945029,-0.1070216,-0.2581248,-0.02231298,-0.02246872,-0.04417695,0.0240815,-0.06684659,0.06499495
0.9936356,-0.1059966,-0.2596974,-0.0224882,-0.02086671,-0.04504663,0.01914116,-0.06989017,0.06324158
0.9926035,-0.1061094,-0.2595729,-0.02282113,-0.02039233,-0.04419029,0.02096562,-0.06823019,0.06214174
0.9931925,-0.1098581,-0.2507378,-0.02152689,-0.02354474,-0.0345962,0.02177391,-0.06786963,0.06100252
0.9942541,-0.1137434,-0.240698,-0.01975545,-0.02682588,-0.02377247,0.02042323,-0.06763101,0.05778041
0.9946083,-0.1100298,-0.2433074,-0.01868789,-0.02250128,-0.02557522,0.02128526,-0.06408278,0.05650822
0.9957429,-0.1065278,-0.2490639,-0.01683771,-0.01838222,-0.03050494,0.0195522,-0.06320584,0.06035055
0.9968479,-0.1081921,-0.2528091,-0.01501606,-0.01942456,-0.03340557,0.0162464,-0.06994181,0.06409879
0.9970116,-0.1059891,-0.2617977,-0.01413578,-0.01659581,-0.04153351,0.01649509,-0.07661403,0.06258323
0.9946461,-0.1018338,-0.25969,-0.01578617,-0.01181197,-0.03855097,0.01786991,-0.07262723,0.06092897
0.9917366,-0.1024597,-0.2508567,-0.01798293,-0.01180772,-0.02882982,0.01885439,-0.06818754,0.06336231
0.9917422,-0.1039428,-0.254631,-0.01726783,-0.01266041,-0.03170514,0.01835673,-0.07291274,0.06341518
0.990184,-0.1050535,-0.2481949,-0.01812074,-0.01314129,-0.02436047,0.01631699,-0.07583802,0.06250653
0.9883174,-0.1074453,-0.2385758,-0.01928692,-0.01490511,-0.01382501,0.01390507,-0.07837886,0.0633496
0.9916691,-0.105698,-0.2479718,-0.01524015,-0.0125324,-0.02229901,0.008395116,-0.08411104,0.06292168
0.994347,-0.1027071,-0.2562749,-0.01187334,-0.008919533,-0.02967622,0.004550615,-0.08365597,0.06377298
0.9928962,-0.1049988,-0.2607045,-0.01264209,-0.01059362,-0.03317758,0.00617638,-0.08222451,0.06425111
0.9926209,-0.1075197,-0.2589345,-0.01224285,-0.01250209,-0.03047805,0.004944063,-0.08372593,0.06516026
0.9934707,-0.1093943,-0.2494954,-0.01072672,-0.01377015,-0.02010939,-0.00133245,-0.08636035,0.07191327
0.9931071,-0.1107085,-0.2496851,-0.01043283,-0.01448433,-0.0193707,-0.00438984,-0.0932267,0.07813109
0.9943552,-0.1089977,-0.2518584,-0.008536683,-0.01218039,-0.02061798,0.003590903,-0.0935289,0.07345178
0.9976186,-0.1087004,-0.2537419,-0.004635412,-0.01129727,-0.02157932,0.01585582,-0.0796279,0.06235544
0.9986598,-0.1085868,-0.2576089,-0.002966961,-0.01060561,-0.0245291,0.01823185,-0.06608061,0.05674851
0.9951854,-0.107523,-0.2569882,-0.005825682,-0.008972161,-0.02299713,0.0164898,-0.06749689,0.05433415
0.991343,-0.1079016,-0.2598322,-0.009064401,-0.008789747,-0.02493655,0.01776721,-0.07176982,0.05457966
0.9919539,-0.1062897,-0.2626128,-0.007862301,-0.006626008,-0.02682014,0.01554791,-0.06690216,0.05878138
0.991989,-0.104711,-0.2621495,-0.007248723,-0.00450506,-0.02546791,0.01310176,-0.0663922,0.05860284
0.9890661,-0.1039286,-0.2630922,-0.009606196,-0.003190589,-0.0255303,0.01319767,-0.06704578,0.05719705
0.9886389,-0.1020916,-0.2619635,-0.009481066,-0.0008321815,-0.02353027,0.01262601,-0.0638389,0.05602089
0.9891432,-0.1030809,-0.2615241,-0.008437776,-0.001311212,-0.0222292,0.01422569,-0.06578901,0.05412184
0.9896356,-0.1047488,-0.2610699,-0.007419782,-0.002480545,-0.02092325,0.0145194,-0.06442166,0.05522301
0.9908099,-0.1055788,-0.2585613,-0.005733137,-0.002824041,-0.01757348,0.0123219,-0.06301224,0.05429105
0.9901544,-0.1075256,-0.2556887,-0.005889862,-0.004296843,-0.0138708,0.01281371,-0.06535415,0.05377279
0.9904828,-0.1087985,-0.2546657,-0.005076146,-0.005108268,-0.01202952,0.01271966,-0.06239516,0.0545851
0.9923176,-0.108811,-0.259817,-0.002769727,-0.004672115,-0.01637485,0.01246503,-0.05921034,0.05357131
0.9933697,-0.1087592,-0.2602559,-0.001259674,-0.004184511,-0.01602079,0.01476486,-0.05555247,0.05397481
0.9934099,-0.1103193,-0.256837,-0.0007754716,-0.005321577,-0.01182228,0.01567734,-0.05539103,0.053388
0.9926141,-0.1106265,-0.263862,-0.001141188,-0.005218594,-0.01808155,0.01586559,-0.05833396,0.0532286
0.9931839,-0.1089326,-0.2683074,-0.0001555263,-0.003127231,-0.02177534,0.0191031,-0.05239733,0.05292339
0.993275,-0.1083657,-0.2645358,0.0003372686,-0.002175611,-0.01726621,0.02196975,-0.04716964,0.04947051
0.992146,-0.1078537,-0.2594446,-0.0004043329,-0.001291551,-0.01145174,0.01657499,-0.04604525,0.0479061
0.9912116,-0.1085512,-0.2511862,-0.0009655752,-0.001629617,-0.002484488,0.008531752,-0.0472097,0.04937952
0.9903026,-0.1086184,-0.2497541,-0.00151575,-0.001350179,-0.0003584623,0.006607408,-0.05308628,0.05185856
0.991998,-0.1079427,-0.2536238,0.0005244137,-0.0003403811,-0.003549913,0.004381579,-0.05388277,0.05150863
0.9927148,-0.1097101,-0.2554584,0.001571852,-0.001786313,-0.004722423,0.006037078,-0.05255371,0.0497185
0.9922048,-0.1091373,-0.2608818,0.001378632,-0.0009044936,-0.009500382,0.01193374,-0.0524327,0.05034435
0.9938403,-0.1060295,-0.2622051,0.003316887,0.002499955,-0.010195,0.006451193,-0.04999407,0.0496993
0.992007,-0.1033102,-0.2589191,0.001772565,0.005503489,-0.006297307,0.001292216,-0.049378,0.04850912
0.9909253,-0.1042997,-0.2575459,0.0009661472,0.004785858,-0.004329287,0.005710201,-0.05087842,0.04627064
0.9933487,-0.1097503,-0.253603,0.00365123,-0.0004053991,0.0001914817,0.00816009,-0.05324651,0.04286231
0.9929531,-0.111788,-0.2520691,0.003503783,-0.002196131,0.002285878,0.01192172,-0.05201981,0.04453614
0.993079,-0.1104582,-0.2554342,0.003864635,-0.0006314802,-0.0005362558,0.01348672,-0.05011804,0.04964647
0.9927218,-0.1093382,-0.2583128,0.003729094,0.0007115677,-0.002889674,0.009865832,-0.0546084,0.05393492
0.9899729,-0.1103043,-0.258166,0.001188931,-4.31168e-05,-0.002235641,0.007482569,-0.06031077,0.05660689
0.9890237,-0.1121387,-0.2553397,0.0004357108,-0.001677388,0.001080092,0.002183509,-0.06438217,0.05790676
0.9910157,-0.1101171,-0.2558209,0.002611156,0.0005332339,0.001070318,0.00281499,-0.06146005,0.0562875
0.9944511,-0.1082563,-0.2571176,0.006217995,0.002572404,0.0002272217,0.009048696,-0.05416901,0.05080394
0.9933486,-0.1066825,-0.2556756,0.005274877,0.004314102,0.002104955,0.007818891,-0.05176745,0.04778821
0.9914042,-0.1063756,-0.2570163,0.003478087,0.004778411,0.001182147,0.008166948,-0.04736691,0.0451231
0.9913249,-0.1099228,-0.2599676,0.003534926,0.001378407,-0.001369105,0.008527139,-0.04416402,0.03993192
0.9879578,-0.1107987,-0.2615856,0.0002925998,0.0006396691,-0.00260451,0.005637107,-0.0444075,0.04028334
0.9891209,-0.1108746,-0.2597868,0.001569663,0.0006910977,-0.0004403506,0.006119882,-0.04133294,0.04184955
0.9918256,-0.1094027,-0.2542338,0.004377796,0.002280911,0.005460973,0.00477493,-0.04160105,0.04103228
0.9896626,-0.1053194,-0.2516539,0.002308117,0.006472848,0.008372348,0.005938801,-0.04176114,0.04248229
0.991131,-0.1052968,-0.2530152,0.003859985,0.006595063,0.007325788,0.009801701,-0.03825516,0.04148757
0.9926346,-0.105678,-0.2549846,0.00543747,0.006304482,0.005654307,0.01089504,-0.03671113,0.03829414
0.9924375,-0.1052709,-0.2556682,0.005305032,0.006793307,0.005251743,0.0114607,-0.03628925,0.03710071
0.9952912,-0.1045276,-0.2536947,0.008214323,0.007609459,0.007489718,0.009147502,-0.04288049,0.03889331
0.9959614,-0.1016273,-0.2519905,0.008931232,0.01057381,0.009441935,0.008614581,-0.0505227,0.04190594
0.9930523,-0.1002652,-0.2517322,0.006059968,0.01199127,0.009931824,0.007928249,-0.04551066,0.03976527
0.9906804,-0.1012611,-0.2514699,0.003717354,0.01104181,0.0104094,0.006010125,-0.03929467,0.03675022
0.9916265,-0.1053071,-0.2506353,0.004684354,0.007033285,0.01144299,0.007841593,-0.03936203,0.03727837
0.99326,-0.10837,-0.2494332,0.006330696,0.003999165,0.01282792,0.005728101,-0.03836055,0.0361797
0.9928393,-0.106642,-0.2500184,0.005915122,0.005747332,0.01240935,0.004129857,-0.03894507,0.0329982
0.9931946,-0.1052258,-0.2525694,0.006267964,0.0071754,0.01000902,0.002404983,-0.03997706,0.03035281
0.9931565,-0.1038793,-0.2530026,0.006220136,0.008525636,0.009710551,-0.002009459,-0.03667575,0.03037354
0.9927643,-0.1025844,-0.2506459,0.005811067,0.009816471,0.01218641,0.002184383,-0.03498906,0.03137678
0.9928243,-0.1053246,-0.2495123,0.005847501,0.00706451,0.01342373,0.005922636,-0.03528819,0.03428957
0.9902175,-0.1075032,-0.2475232,0.003210499,0.004866593,0.0155013,0.006797463,-0.03742437,0.03822063
0.988028,-0.1034126,-0.2466212,0.0009847061,0.008930446,0.01647669,0.009171955,-0.04157301,0.03435816
0.9887588,-0.09980418,-0.2511205,0.001673311,0.01250513,0.01203585,0.00605397,-0.04156681,0.03115489
0.9894628,-0.1025963,-0.2540406,0.002329875,0.009672238,0.00915935,0.005377154,-0.04106019,0.03366692
0.9896366,-0.1050018,-0.2552329,0.002451251,0.007219036,0.007996256,0.006857857,-0.03992806,0.03154119
0.9911011,-0.1056771,-0.2538782,0.003858831,0.006489277,0.009366335,0.00313385,-0.03934857,0.02931978
0.9942293,-0.1072559,-0.2461136,0.006925933,0.004849684,0.01713283,0.003085554,-0.04399027,0.02856783
0.996552,-0.1052495,-0.2423598,0.009183355,0.006789025,0.02087546,0.007419807,-0.04218454,0.02765271
0.9961498,-0.1019643,-0.2496045,0.008711978,0.01000147,0.01360642,0.007365879,-0.03414426,0.02960325
0.9938046,-0.1017729,-0.2603384,0.006293766,0.0101144,0.002835367,0.004557221,-0.02513849,0.02982263
0.991558,-0.1014201,-0.2591674,0.003970231,0.01038319,0.003957029,0.00368582,-0.01943092,0.03069496
0.9899461,-0.1012162,-0.2461873,0.00227784,0.0104977,0.01687606,0.00219127,-0.03027514,0.03246285
0.9907272,-0.1025933,-0.2370257,0.002975135,0.009025994,0.02596549,0.001417639,-0.04074076,0.03091356
0.9936127,-0.1031523,-0.2379589,0.00577379,0.008367206,0.02494895,0.003298448,-0.03567808,0.0298452
0.9931968,-0.1036378,-0.2457868,0.005268419,0.007776873,0.01702638,0.002231133,-0.03407142,0.03008943
0.9925767,-0.1040998,-0.2496751,0.004556188,0.007205442,0.01303207,0.000598276,-0.03762181,0.0314916
0.9936062,-0.1024153,-0.2509614,0.005491223,0.00877587,0.01162872,0.001703428,-0.03506132,0.03297527
0.9926772,-0.100726,-0.2548516,0.004465519,0.01034695,0.007611022,0.003502201,-0.03182602,0.03341284
0.9932982,-0.1008764,-0.2545502,0.004987709,0.01007416,0.007774885,0.006496758,-0.02988852,0.03336024
0.9940082,-0.1000251,-0.2520015,0.005597041,0.01079913,0.01017683,0.007494782,-0.02618713,0.03058388
0.993424,-0.09784044,-0.2474524,0.004910514,0.01285343,0.01457051,0.01215761,-0.02558162,0.02681952
0.9932642,-0.09902187,-0.2445536,0.004646744,0.01153781,0.0173055,0.02057232,-0.02610165,0.02228096
0.99254,-0.1028702,-0.2467477,0.003817106,0.007551493,0.0149397,0.01682229,-0.02454061,0.01792003
0.9936935,-0.1048042,-0.248524,0.004863909,0.005475837,0.01298393,0.009515405,-0.02655932,0.01957435
0.994997,-0.1046044,-0.2520679,0.006059523,0.005530509,0.00925316,0.006934119,-0.03227013,0.02385771
0.995928,-0.1038289,-0.252871,0.00688173,0.006157949,0.008256169,0.0009639058,-0.03862796,0.02629241
0.9965145,-0.1050762,-0.2521947,0.00735836,0.004759977,0.008732239,0.001428359,-0.03979191,0.0293242
0.994984,-0.1062525,-0.2534194,0.00571707,0.003430567,0.007301562,0.004460809,-0.03392082,0.03168237
0.9951059,-0.1051646,-0.250924,0.005727243,0.004363365,0.009585658,-0.000794928,-0.03255303,0.02838368
0.9945216,-0.1055952,-0.2494644,0.005030352,0.003776074,0.01082926,-0.002829808,-0.03788633,0.0232403
0.9937592,-0.1059452,-0.2486377,0.004154642,0.003268035,0.01143563,-0.003279365,-0.04111748,0.02463446
0.9947714,-0.1063096,-0.2498102,0.005052918,0.002744684,0.01003881,-0.004146905,-0.03768932,0.02545602
0.9923837,-0.1083927,-0.2528282,0.002550703,0.0005020815,0.006792927,-0.0005890458,-0.0323289,0.02114128
0.9919996,-0.1080324,-0.2508147,0.002051747,0.000702752,0.008575324,-0.0004968756,-0.03267361,0.02053985
0.9974559,-0.1048128,-0.2501603,0.007393041,0.003762863,0.008995923,-0.001003356,-0.03279117,0.02170906
1.002478,-0.09983184,-0.2503,0.0122999,0.008584789,0.008620137,0.00107041,-0.03095892,0.02281965
1.001832,-0.09712476,-0.2494121,0.01153879,0.01113342,0.009270055,0.004119494,-0.03279944,0.02534597
0.9971281,-0.09856051,-0.2506458,0.006718838,0.009539696,0.007796617,0.00912651,-0.03422037,0.02474473
0.9950419,-0.0972487,-0.2507494,0.004516146,0.0106939,0.00745212,0.007383895,-0.03462649,0.02300422
0.9934913,-0.09443564,-0.2504403,0.002848558,0.01334957,0.007519322,0.002544894,-0.03158063,0.01967062
0.9913311,-0.09406212,-0.2458968,0.0005709933,0.01356571,0.01182023,0.001346534,-0.0263888,0.01525932
0.9909731,-0.09315415,-0.2387837,9.540024e-05,0.01431608,0.0186904,0.0003632106,-0.02843718,0.01729549
0.9933379,-0.09370553,-0.2403778,0.002342888,0.01360658,0.01685284,0.002061359,-0.02951163,0.0212405
0.9993398,-0.09753202,-0.2449985,0.008227827,0.009621259,0.01198802,0.002825018,-0.02397348,0.02116243
0.9990227,-0.1008823,-0.2453238,0.007794125,0.006111303,0.01141796,0.001308501,-0.01755319,0.02115577
0.9936712,-0.1036689,-0.2489601,0.002326403,0.003164304,0.007536331,0.000481149,-0.01352487,0.02329657
0.9929593,-0.1045771,-0.2517202,0.001498664,0.0020953,0.004530514,-0.004021759,-0.02129621,0.02501732
0.9934458,-0.1011124,-0.2453564,0.001869888,0.005398905,0.0106486,-0.008195487,-0.03167996,0.02278979
0.9952489,-0.09916489,-0.2436736,0.003558382,0.007185386,0.01208591,-0.006731057,-0.0281825,0.01926971
0.9957222,-0.1010118,-0.2455288,0.003917989,0.005177629,0.00998566,-0.003641594,-0.02483144,0.0193834
0.9951645,-0.1015545,-0.2399138,0.003247409,0.004474482,0.01535603,-0.001206321,-0.0245641,0.0193007
0.9962253,-0.09954957,-0.2418077,0.004196379,0.006319324,0.0132178,0.0008463873,-0.01690795,0.01907979
0.9926714,-0.0983557,-0.247465,0.0005315925,0.007353722,0.007316625,0.0002379715,-0.01427893,0.02124036
0.9906384,-0.1014789,-0.2484849,-0.001611024,0.004071671,0.006053307,-0.002278708,-0.01642977,0.01939344
0.9923943,-0.1048837,-0.2547158,3.65648e-05,0.0005088378,-0.0004202608,-0.002031825,-0.01441038,0.01685015
0.9933202,-0.104385,-0.2537332,0.0008556615,0.0008505247,0.000320882,-0.001997362,-0.01655232,0.01850125
0.9951453,-0.1034484,-0.2485883,0.00257579,0.001631389,0.00522607,-0.003490984,-0.02237469,0.01971741
0.9945208,-0.1021847,-0.2510928,0.001848124,0.00274087,0.002484068,-0.001779406,-0.02651576,0.02159416
0.9938326,-0.09910471,-0.2495719,0.00105859,0.005668457,0.003769866,-0.0005414468,-0.02606197,0.02193178
0.9939815,-0.09772587,-0.2495198,0.001108167,0.006896691,0.003589564,-0.0005847548,-0.02322191,0.02056405
0.9925118,-0.09907095,-0.25089,-0.0004589302,0.005402807,0.001989997,0.0006663605,-0.02532233,0.02132136
0.9933976,-0.09991189,-0.2475112,0.0003316492,0.004414835,0.005142594,0.0001017516,-0.02420323,0.01927815
0.9950998,-0.1006098,-0.2458668,0.001940796,0.003571657,0.00656436,-0.0005828203,-0.01895911,0.01695623
0.996137,-0.1005912,-0.241827,0.002887209,0.003446884,0.01038498,-0.0004535574,-0.01769199,0.01740108
0.9961821,-0.09691845,-0.2414817,0.002843737,0.006978176,0.01051438,-0.0005599317,-0.01909245,0.01671532
0.9953708,-0.09501008,-0.248454,0.001945982,0.00874692,0.00332958,0.0008096954,-0.02169889,0.01606566
0.9956866,-0.09857705,-0.2525445,0.002177453,0.005042079,-0.000970156,0.001600781,-0.01650733,0.01502199
0.9941356,-0.1030109,-0.2525348,0.0005442565,0.0004720421,-0.001166199,0.0004349195,-0.01104119,0.01433256
0.9924423,-0.1051668,-0.2498389,-0.001229198,-0.001818213,0.001327882,-0.0005763792,-0.01886967,0.01517393
0.9939676,-0.104112,-0.249612,0.0002181157,-0.0008957957,0.001356988,0.0004235378,-0.02272552,0.01577372
0.9948401,-0.102166,-0.2490697,0.001014932,0.0009201188,0.001705808,0.001828055,-0.0167216,0.01649219
0.9934351,-0.1002126,-0.2461341,-0.0004635737,0.00274591,0.004452351,0.002404311,-0.0133307,0.01498853
0.9925948,-0.09803406,-0.2446772,-0.001375042,0.004799364,0.005724664,0.003247859,-0.01493823,0.01261666
0.9933432,-0.100041,-0.2403686,-0.0006954815,0.002669845,0.009852997,0.0003968503,-0.01627123,0.01244116
0.9938968,-0.1027311,-0.2432063,-0.0002082214,-0.0001402692,0.006839187,-0.003942077,-0.01472085,0.01234306
0.9945442,-0.1007508,-0.2506474,0.0003752331,0.001722592,-0.0007739612,-0.003690623,-0.01526029,0.01562008
0.9967485,-0.09915481,-0.2488434,0.002518022,0.003203804,0.0008619332,-0.005406487,-0.01648149,0.0205192
0.997458,-0.09865618,-0.2456526,0.003168355,0.003590276,0.003888625,-0.008944101,-0.02059466,0.01883241
0.9939793,-0.09840415,-0.2412001,-0.0003672981,0.003732745,0.008181194,-0.006355995,-0.02701607,0.01659946
0.9920781,-0.1013594,-0.2410976,-0.002323181,0.0006704681,0.00812776,-0.001795725,-0.02359369,0.01774719
0.9941078,-0.1046376,-0.2467152,-0.0003460815,-0.002712243,0.002357878,0.0005516438,-0.01990405,0.01661229
0.9938709,-0.1056789,-0.2465152,-0.0006333078,-0.003855222,0.002409243,-0.001930831,-0.02278814,0.01891182
0.9942285,-0.1032184,-0.2478154,-0.0003237029,-0.001493613,0.000963933,-0.01073634,-0.02162749,0.02351873
0.996298,-0.09953894,-0.2436573,0.001699912,0.002090062,0.004980555,-0.01479701,-0.02036916,0.02096472
0.9948694,-0.09965001,-0.2354618,0.0002276853,0.001886329,0.01303815,-0.01054582,-0.02212623,0.01827094
0.9932777,-0.0991766,-0.2400487,-0.001405575,0.002270149,0.008316583,-0.007178931,-0.02450927,0.01689847
0.9912097,-0.09942266,-0.2423663,-0.003513105,0.001937474,0.005867249,-0.006970773,-0.02635357,0.01298976
0.9908682,-0.1025186,-0.2415889,-0.003891864,-0.001242193,0.006515491,-0.006185882,-0.01843425,0.01386308
0.9937659,-0.1002498,-0.2485607,-0.00102923,0.0009458431,-0.000582959,-0.003901432,-0.01012827,0.01654932
0.9928019,-0.09708068,-0.2510315,-0.002025847,0.004037044,-0.003177792,-0.004667375,-0.02153676,0.01561153
0.992829,-0.09756796,-0.2461289,-0.002029034,0.00347461,0.001603449,-0.00736602,-0.03516617,0.01485777
0.9935093,-0.09811086,-0.2428691,-0.00137677,0.002859167,0.004744732,-0.00849589,-0.03157283,0.01417263
0.9910793,-0.1004925,-0.2446299,-0.003832361,0.0004074422,0.002868314,-0.009617898,-0.02480496,0.01293154
0.9900797,-0.09988669,-0.2459589,-0.004855163,0.0009455609,0.001426525,-0.00731372,-0.02136483,0.01354737
0.9887397,-0.09499885,-0.2443317,-0.006215767,0.005768024,0.00294366,-0.005015503,-0.02360907,0.01842079
0.9911958,-0.09508317,-0.2426921,-0.003777724,0.005620483,0.004475966,-0.007948613,-0.04010269,0.02629717
0.9947441,-0.1028258,-0.2389636,-0.0002446106,-0.002183448,0.008099694,-0.01200337,-0.05469009,0.03158671
0.9933547,-0.1106049,-0.2373879,-0.001646638,-0.0100218,0.009573161,-0.02102279,-0.05167672,0.03059854
0.9962724,-0.1092997,-0.2398412,0.001261138,-0.008773676,0.007019643,-0.03563002,-0.04976208,0.028008
1.000215,-0.105483,-0.2414825,0.00519581,-0.005011442,0.005279973,-0.04463576,-0.06159662,0.02916912
0.9974385,-0.1035738,-0.2505159,0.002414315,-0.003153815,-0.003850214,-0.04177362,-0.06628628,0.02273674
0.9914851,-0.09712624,-0.264239,-0.003542621,0.003245291,-0.01766817,-0.02672932,-0.04959167,-0.0008430839
0.9865012,-0.09661025,-0.2690177,-0.008528311,0.003715802,-0.02253923,-0.003029447,-0.00984977,-0.03289033
0.9865782,-0.1013541,-0.2736839,-0.00845118,-0.001070733,-0.02729423,0.01556183,0.05055771,-0.06149909
0.9888188,-0.1004026,-0.2787012,-0.006208243,-0.0001593452,-0.03239554,0.02018444,0.1000196,-0.08286903
0.9898273,-0.1058638,-0.2771101,-0.005195077,-0.005658077,-0.03088216,0.02298324,0.1305681,-0.1058822
0.9941104,-0.1127679,-0.2782685,-0.0009047833,-0.01259695,-0.03211073,0.02950485,0.1703978,-0.1200553
0.999317,-0.1110983,-0.2735168,0.004311454,-0.01095913,-0.02742046,0.03111391,0.202582,-0.1112248
1.00171,-0.1111161,-0.2636502,0.006715688,-0.01100527,-0.01760538,0.02575576,0.2139734,-0.1066233
1.007662,-0.1066612,-0.260437,0.01268152,-0.006574894,-0.01443329,0.02027697,0.2428572,-0.1129981
1.012207,-0.09872519,-0.2479354,0.01724122,0.001340644,-0.001962222,0.02455669,0.2959477,-0.1133156
1.007808,-0.09569194,-0.2305428,0.01285665,0.00435733,0.01541,0.03238039,0.3375187,-0.1165039
1.002807,-0.09008026,-0.2195203,0.007869447,0.009955991,0.02642139,0.04005337,0.3510296,-0.1232612
0.9997967,-0.08789933,-0.2100228,0.004871887,0.01212688,0.03591533,0.05883144,0.3615868,-0.1318955
1.003054,-0.08740932,-0.2041943,0.008140854,0.01260909,0.04174566,0.07984109,0.390809,-0.1473598
1.012889,-0.0790648,-0.1965528,0.01798543,0.02094724,0.04939201,0.09218518,0.4188338,-0.1635751
1.014543,-0.0744529,-0.1906636,0.01964571,0.0255532,0.05528655,0.09914794,0.4394036,-0.1773165
1.011565,-0.07362885,-0.1876179,0.01667245,0.02637059,0.05833537,0.102348,0.4592115,-0.180423
1.00928,-0.06932585,-0.1783488,0.0143873,0.03066495,0.0676024,0.101122,0.4592284,-0.1730457
1.00606,-0.0667787,-0.166125,0.01116328,0.03320016,0.07981627,0.09699159,0.4290607,-0.166819
1.010706,-0.06593879,-0.153822,0.01580084,0.03402346,0.09209801,0.09971625,0.3939425,-0.1614028
1.017101,-0.06318482,-0.146635,0.02218183,0.03675482,0.09924905,0.1032711,0.3998556,-0.1647818
1.019455,-0.05596625,-0.1382153,0.02451629,0.04394339,0.1076142,0.1004373,0.4291075,-0.1758774
1.02435,-0.04398976,-0.1215906,0.02938532,0.05588098,0.1241621,0.101477,0.4328703,-0.1781329
1.025502,-0.0353729,-0.109566,0.03050387,0.0644482,0.1360833,0.1008927,0.4239652,-0.1736462
1.019967,-0.03454693,-0.1064466,0.02492761,0.06521169,0.1390682,0.09999164,0.4119732,-0.1615841
1.016698,-0.03325727,-0.1016414,0.02160863,0.06642381,0.1437036,0.1027166,0.4017902,-0.1464533
1.018813,-0.03091091,-0.09062329,0.02366396,0.06867548,0.1545121,0.1000621,0.3812905,-0.1472988
1.020868,-0.03311654,-0.08725667,0.02564975,0.06635606,0.1576252,0.1006216,0.3484164,-0.1591069
1.020813,-0.03122704,-0.08771784,0.02551601,0.06811087,0.1568624,0.1018122,0.3575887,-0.165312
1.022535,-0.02626358,-0.0808358,0.02714861,0.07291712,0.163391,0.09499339,0.3693296,-0.1635386
1.022926,-0.02473803,-0.07384695,0.02743937,0.07426137,0.1699709,0.08929463,0.3493745,-0.1646893
1.021426,-0.02022272,-0.06301258,0.02582805,0.07856974,0.1803374,0.08316571,0.3351791,-0.170102
1.022887,-0.01693994,-0.04975937,0.02716712,0.08161841,0.1930603,0.07369063,0.3066164,-0.1653757
1.024237,-0.012746,-0.03546638,0.02838269,0.08554955,0.2067568,0.06774375,0.2973868,-0.1574886
1.025055,-0.006734789,-0.03033416,0.0290544,0.09126775,0.2112227,0.06916332,0.3127648,-0.1569291
1.025286,-0.01023627,-0.03660444,0.02912709,0.08744152,0.2042123,0.07042503,0.303268,-0.1539122
1.022629,-0.01097659,-0.02272285,0.02630056,0.08634336,0.2172767,0.06633259,0.3062057,-0.1481358
1.021769,-0.007182528,-0.01197596,0.02525805,0.08974532,0.2271261,0.06557272,0.295685,-0.1417731
1.02255,-0.006319345,-0.0212152,0.02584441,0.09018115,0.2169061,0.06461951,0.2545094,-0.1341488
1.02301,-0.001255849,-0.01971346,0.0260979,0.09478113,0.2173412,0.05725119,0.2475909,-0.1314507
1.024054,-0.000973985,-0.01898043,0.02692234,0.09456243,0.2169195,0.04596557,0.2615727,-0.1324389
1.023386,0.0005209646,-0.01410317,0.02602421,0.09551897,0.2205522,0.03424268,0.266809,-0.1318032
1.022532,0.01312847,0.004413155,0.02492747,0.1075495,0.2377329,0.03430247,0.2446655,-0.1235359
1.022195,0.01804093,0.01486453,0.02433606,0.1118454,0.2467558,0.03477662,0.2041336,-0.1121801
1.021737,0.01598195,0.01713529,0.02361318,0.1091294,0.2475035,0.02654234,0.1946404,-0.1091019
1.021644,0.02096091,0.01620974,0.02324313,0.1134099,0.2449587,0.03011536,0.2019135,-0.1049681
1.021347,0.02736003,0.02217678,0.02265909,0.1190683,0.249209,0.03281169,0.196396,-0.1013752
1.025249,0.02583078,0.03244758,0.02626468,0.116755,0.2576646,0.02364713,0.1666571,-0.1057268
1.030486,0.02384941,0.03134505,0.03119365,0.1139457,0.2546473,0.01592404,0.140712,-0.1052053
1.02911,0.03071151,0.03053679,0.02950077,0.1199354,0.2518242,0.009539826,0.1719534,-0.1062295
1.025626,0.03724412,0.03643219,0.02568907,0.1255507,0.2556043,0.01891808,0.2030544,-0.1122207
1.024626,0.0398873,0.04177983,0.02435274,0.127231,0.2587361,0.03118567,0.1831685,-0.1130364
1.024226,0.04140661,0.04775226,0.02360659,0.1277414,0.2623923,0.01873542,0.1741904,-0.1153219
1.021526,0.04553427,0.06094734,0.0205515,0.1308136,0.2731709,0.01186849,0.1809953,-0.1126605
1.014654,0.05411299,0.07449281,0.01331543,0.13829,0.2841996,0.02156192,0.1454402,-0.1003611
1.010861,0.05100398,0.07222026,0.009151699,0.1340311,0.2793099,0.02058646,0.08142628,-0.08649727
1.015391,0.04512904,0.06415281,0.01330343,0.1269585,0.268525,0.005427569,0.04589024,-0.06552207
1.018701,0.05140242,0.06402705,0.01622955,0.1319865,0.2655821,-0.01027275,0.05692334,-0.04916401
1.017767,0.05446982,0.07318113,0.0149074,0.1337607,0.2718203,-0.01221678,0.06457253,-0.04752809
1.018755,0.05855346,0.08313678,0.01550108,0.1365037,0.2787626,-0.01245626,0.02782258,-0.04283726
1.017466,0.06486512,0.07206398,0.0138153,0.1414273,0.2645803,-0.02249876,0.003383967,-0.03414106
1.011308,0.06847043,0.06144583,0.00725684,0.1435972,0.250758,-0.02555058,0.004166253,-0.01966627
1.005848,0.076524,0.08340833,0.00139403,0.1501681,0.2694239,-0.03075511,-0.02936685,0.004220952
1.005488,0.07464075,0.1103002,0.0006299023,0.1467547,0.2929288,-0.04252025,-0.1019957,0.01252575
1.012266,0.06896789,0.1152147,0.007003553,0.1395045,0.2943673,-0.03755622,-0.1708839,0.0164512
1.017278,0.06941596,0.09916567,0.01161204,0.1383281,0.2747544,-0.02611385,-0.1800539,0.0380119
1.013508,0.06091562,0.08312261,0.007439055,0.1281572,0.2550613,-0.02004193,-0.1830112,0.04836516
1.010955,0.05243441,0.08969338,0.004485772,0.1179602,0.2578981,-0.01513304,-0.2357619,0.04599397
1.013384,0.04239192,0.08985109,0.006515854,0.1061584,0.2542411,-0.01927625,-0.2634436,0.04377894
1.015141,0.03277338,0.07058614,0.007877401,0.09473926,0.2310838,-0.03306759,-0.2694087,0.04037532
1.01814,0.04282167,0.0617537,0.01048514,0.1029483,0.2182852,-0.05029618,-0.2821775,0.06179347
1.021684,0.0524983,0.05797787,0.01364104,0.1107495,0.210474,-0.05739766,-0.2988547,0.1004799
1.02247,0.0530914,0.04677886,0.01404337,0.1094335,0.1951753,-0.06411996,-0.334209,0.1296412
1.027415,0.04950391,0.03631497,0.01860838,0.1039052,0.1805531,-0.09214246,-0.3687204,0.1581803
1.034933,0.03653358,0.02821101,0.02575092,0.0889645,0.1682379,-0.1192087,-0.4320736,0.1937231
1.036235,0.02549126,0.002073387,0.02668017,0.07592496,0.1378427,-0.1491083,-0.4982139,0.2362534
1.042382,0.008437727,-0.03382507,0.0324582,0.05685053,0.09764767,-0.1803798,-0.5148166,0.2616694
1.049815,0.001143508,-0.02815484,0.03952366,0.04751551,0.09899057,-0.1737684,-0.5449021,0.2491306
1.032891,0.03346937,-0.02518111,0.02223403,0.07778471,0.09761499,-0.1836573,-0.6219957,0.2612018
1.008626,0.05227983,-0.06559025,-0.002395699,0.09452601,0.05284328,-0.2515866,-0.7577254,0.3842253
1.008309,0.01349009,-0.07878777,-0.003076278,0.05365722,0.03527907,-0.285663,-0.8666917,0.5509512
1.019556,-0.03720717,-0.07927168,0.007808824,0.0008740314,0.03043407,-0.2343977,-0.8425145,0.5919508
1.019122,-0.04639958,-0.08867857,0.007015911,-0.01040656,0.0166815,-0.1795557,-0.8663478,0.5521034
0.9958992,-0.02883244,-0.07923573,-0.01656288,0.005075823,0.02180357,-0.1829118,-1.011711,0.5909435
0.9704093,-0.02774603,-0.09322161,-0.0424041,0.004086445,0.003530904,-0.1794376,-1.075188,0.6379633
0.9766854,-0.04222291,-0.1134162,-0.03647276,-0.01245226,-0.02090768,-0.1544563,-1.085906,0.6234113
0.9883797,-0.06626076,-0.1146376,-0.02511459,-0.03853298,-0.02632143,-0.1756661,-1.123741,0.6285433
0.9911681,-0.08513495,-0.1247469,-0.02265161,-0.05942549,-0.04056264,-0.182522,-1.088284,0.6067896
1.024669,-0.06742549,-0.1292577,0.0105355,-0.04370382,-0.04913607,-0.107675,-0.9427679,0.4810261
1.05723,-0.04895574,-0.1356761,0.04279481,-0.02718569,-0.05953945,-0.03391139,-0.674902,0.3008098
1.046624,-0.05826526,-0.1318932,0.0318985,-0.03840592,-0.05965599,-0.03547773,-0.4063855,0.1539527
1.04668,-0.04321743,-0.09735751,0.03167278,-0.02522394,-0.02892686,-0.0650232,-0.2443947,0.09914213
1.086304,0.009471233,-0.04716211,0.07102179,0.02564686,0.01756054,-0.05764971,-0.03904412,0.05723782
1.106461,0.04041626,0.01317865,0.09090898,0.05482335,0.07429497,-0.02488433,0.1463173,-0.04040079
1.064208,0.01925619,0.02204038,0.04838766,0.03194376,0.07965241,0.07375605,0.1595528,-0.1218434
1.00664,-0.009809409,-0.03852178,-0.009449974,0.00120694,0.01568703,0.2164023,0.1204465,-0.1491701
0.9992358,-0.02901642,-0.1225444,-0.01712481,-0.01962279,-0.07163765,0.2241454,0.1330523,-0.1538762
1.026127,-0.08722271,-0.2123325,0.009494702,-0.07940173,-0.1646233,0.1604773,0.2171064,-0.1814539
1.040853,-0.1361769,-0.2504803,0.02395002,-0.129875,-0.2058573,0.1484355,0.3426557,-0.2086466
1.037113,-0.1146094,-0.243434,0.0199398,-0.109768,-0.2017764,0.08082782,0.4538751,-0.1985781
1.022706,-0.09622721,-0.2295493,0.005262947,-0.09278218,-0.1907268,0.02604627,0.5315785,-0.2003563
1.011459,-0.08270272,-0.1803616,-0.006254632,-0.08058543,-0.1442358,0.06146775,0.5514283,-0.2098567
1.019148,-0.04937288,-0.1440756,0.001165112,-0.04851171,-0.1105021,0.05756317,0.5188405,-0.2107749
1.029206,-0.04120947,-0.1404458,0.01095645,-0.04153119,-0.1092771,0.04063902,0.4913531,-0.22241
1.024681,-0.02545696,-0.1111995,0.006165524,-0.026888,-0.08228635,0.05724763,0.4974341,-0.2176699
1.01819,-0.001976432,-0.06984294,-0.0005888893,-0.004443832,-0.04303608,0.05365005,0.4582876,-0.20348
1.016176,0.00538849,-0.04568648,-0.002862802,0.001956066,-0.02083844,0.06411971,0.3568004,-0.1938694
1.022575,0.01547977,-0.05412896,0.003277953,0.01115128,-0.03109567,0.09032022,0.305648,-0.1779648
1.031255,0.00848137,-0.08186702,0.01170381,0.003322968,-0.06050823,0.09108673,0.3497289,-0.1809125
1.018182,0.008325307,-0.08339399,-0.001618829,0.002400309,-0.06357272,0.06945019,0.3953162,-0.1968646
1.003541,0.01852382,-0.05618466,-0.01650609,0.01189278,-0.03776683,0.0354424,0.3292922,-0.1981214
1.012831,0.01221451,-0.02085293,-0.007457886,0.004935193,-0.003707984,0.02389226,0.2471128,-0.1945528
1.02345,0.0130462,-0.01225303,0.002924966,0.005173575,0.003744796,0.0340914,0.2386829,-0.1870713
1.028296,0.007494089,-0.01774242,0.007540836,-0.0009195044,-0.002771683,0.03022531,0.2343495,-0.1820599
1.02676,0.001901128,0.004785776,0.005780475,-0.007003492,0.01884342,0.01994327,0.2575884,-0.190719
1.01887,0.006881681,0.0107393,-0.002327705,-0.002466166,0.02399159,0.01876642,0.2819956,-0.1969167
1.024112,-0.004406473,-0.002469404,0.002702122,-0.01415172,0.01007877,0.03858365,0.2817907,-0.202769
1.0278,-0.01599326,-0.003286413,0.006183723,-0.0260918,0.00865263,0.06916546,0.3017216,-0.204885
1.022382,-0.01911281,-0.01051247,0.0005650967,-0.02952177,0.000906674,0.0728701,0.2933927,-0.1868771
1.02388,-0.009791882,0.0006949118,0.001867672,-0.02046935,0.01167799,0.05675516,0.2689262,-0.1649533
1.021259,0.0155492,0.01830022,-0.0009421786,0.00464392,0.02892571,0.04634769,0.2256133,-0.1564927
1.020041,0.03637143,0.01161687,-0.002343075,0.02527705,0.02195758,0.0442206,0.1742528,-0.1541988
1.026833,0.04420022,0.01203677,0.004271905,0.03295248,0.02215981,0.06151329,0.1895928,-0.1367976
1.02698,0.04003019,0.01793704,0.004248946,0.02866133,0.02790401,0.08719364,0.2041715,-0.110684
1.019973,0.04929003,0.02117443,-0.002923232,0.03782867,0.03104158,0.08498609,0.1820611,-0.09306689
1.008768,0.06484804,0.02513044,-0.01428697,0.05331913,0.03494869,0.05950323,0.1287607,-0.06944901
1.005523,0.05588446,0.02527194,-0.01768397,0.04430911,0.03508697,0.0345318,0.03010816,-0.0437858
1.007868,0.05030132,0.02952663,-0.01548426,0.03869682,0.039379,0.01833455,-0.02294225,-0.03706879
0.9963356,0.0510323,0.03542882,-0.0271545,0.03941258,0.04535409,0.00923032,-0.04496505,-0.04370558
0.9873851,0.04488001,0.04639045,-0.03623342,0.03325601,0.05641916,-0.003524972,-0.1322883,-0.05021376
1.002838,0.05429983,0.0626468,-0.0208987,0.04267978,0.07280429,-0.004812608,-0.1905141,-0.07432598
1.037812,0.06897817,0.06656828,0.01396785,0.0573676,0.07687442,0.01012247,-0.1549665,-0.1139525
1.061475,0.0696519,0.0519743,0.03753344,0.05805338,0.06244345,0.01721066,-0.1353584,-0.1098567
1.046348,0.06526188,0.03209578,0.0223185,0.05367489,0.04273735,0.02526006,-0.1188244,-0.06635466
1.025764,0.05923382,0.02608206,0.001652965,0.04765504,0.03690154,0.03537582,-0.05082451,-0.03423196
1.028143,0.05178598,0.02980945,0.003958183,0.04020969,0.04080925,0.04036663,-0.01583855,-0.02297526
1.027047,0.05359787,0.02982787,0.002792686,0.04201645,0.04100767,0.04315368,-0.01790551,-0.03281363
1.022237,0.06219387,0.02871004,-0.002080129,0.05059802,0.04006697,0.03681081,-0.01294065,-0.03166709
1.023347,0.06766912,0.03013187,-0.001028705,0.05604788,0.0416607,0.03918541,-0.02898552,-0.01028786
1.017689,0.07328986,0.02976095,-0.00674056,0.06163037,0.04145423,0.03863451,-0.05230833,-0.002938538
1.019036,0.07545017,0.02256964,-0.005441225,0.06373762,0.03441794,0.01826219,-0.04977228,-0.002362705
1.026482,0.07815208,0.01454147,0.001961101,0.06636963,0.02653369,0.008035222,-0.0317771,0.002553317
1.025228,0.08572097,0.01439017,0.0006690081,0.07384983,0.02651401,0.0092077,-0.01481222,0.01687469
1.024383,0.08547186,0.0214958,-0.0002102842,0.07349124,0.03373802,0.01180492,-0.004514059,0.02893997
1.019479,0.08675749,0.03280318,-0.005144059,0.07464465,0.04514957,0.004782416,-0.008251156,0.02390779
1.017502,0.08991029,0.04230571,-0.007146306,0.07764065,0.05474074,-0.007379104,-0.01809952,0.03001443
1.021323,0.08528648,0.03871988,-0.003345933,0.07283378,0.05122642,-0.0063293,-0.01919952,0.03835212
1.017368,0.0854171,0.02704276,-0.007317794,0.07275365,0.03960214,-0.007734309,-0.01815017,0.03660954
1.017966,0.08192217,0.02557927,-0.00673203,0.06901907,0.03817167,-0.005841753,-0.01217519,0.03734785
1.019772,0.07344677,0.03594465,-0.004933876,0.0602743,0.04854945,-0.003698973,-0.007635962,0.03258447
1.018615,0.07073266,0.05064954,-0.006094986,0.05726064,0.06324523,-0.01129655,-0.01927686,0.03506216
1.020553,0.06636885,0.0558754,-0.004155927,0.05256705,0.06843923,-0.01374076,-0.03330216,0.03947706
1.018691,0.06672551,0.05167331,-0.006012327,0.05256395,0.06418098,-0.02056913,-0.04683668,0.04002164
1.019475,0.06565803,0.05640294,-0.005218755,0.05110716,0.06882864,-0.02313464,-0.05515037,0.04634695
1.019899,0.05726721,0.05702071,-0.004781329,0.04229807,0.06933728,-0.01457361,-0.04738116,0.03899962
1.017611,0.0585159,0.05132404,-0.007051498,0.04310036,0.06350308,-0.003611034,-0.03912712,0.03082162
1.018244,0.06404605,0.05339743,-0.006397221,0.04815693,0.06540956,0.006526552,-0.04064556,0.03355564
1.015772,0.06776502,0.05050159,-0.008842935,0.05137606,0.06231664,0.002416908,-0.04460329,0.03044114
1.01482,0.06972097,0.04797983,-0.009764454,0.05280664,0.05956714,-0.002513092,-0.04721004,0.02866184
1.01582,0.06776053,0.04930394,-0.008730419,0.05029593,0.0606325,-0.007329397,-0.05266104,0.03340389
1.016985,0.06890642,0.04720249,-0.007526627,0.05086732,0.05824115,-0.01448417,-0.05598005,0.03818122
1.019913,0.06847492,0.04659983,-0.00455583,0.04983779,0.05731744,-0.007185775,-0.05714836,0.03892796
1.019708,0.0675093,0.04367849,-0.004714082,0.04825138,0.05404408,-0.002561148,-0.06162475,0.04041202
1.020191,0.0717749,0.04580892,-0.004180263,0.05187422,0.05579182,-0.004289043,-0.05993877,0.04254602
1.021092,0.0737138,0.05378026,-0.003224478,0.05314914,0.06335018,-0.001962193,-0.05995574,0.04001187
1.019819,0.07385328,0.05613779,-0.004438768,0.05260409,0.06526469,-0.003901907,-0.06768842,0.04110898
1.019237,0.07386862,0.05426615,-0.004959599,0.05191502,0.06292014,-0.00978728,-0.07268471,0.0439299
1.019208,0.07427744,0.04910348,-0.004923743,0.05160022,0.05725486,-0.01328031,-0.07435359,0.04565521
1.01997,0.07660847,0.04661078,-0.00409436,0.05318908,0.0542303,-0.01153507,-0.07218983,0.04864193
1.020375,0.07655372,0.0421949,-0.003618401,0.05237431,0.049254,-0.009564071,-0.07171582,0.04858287
1.021665,0.07618855,0.03244145,-0.002254742,0.05123195,0.03891256,-0.009239514,-0.0687611,0.04915499
1.021698,0.0766055,0.03186705,-0.002146812,0.05085522,0.03772391,-0.00940764,-0.05781571,0.0479093
1.018148,0.0758111,0.03923373,-0.005619062,0.0492514,0.04445159,-0.01176733,-0.05393223,0.04382772
1.016594,0.07476812,0.0474383,-0.007093351,0.04738404,0.05199376,-0.01343398,-0.05884782,0.04261002
1.016561,0.0728388,0.04986324,-0.007044373,0.04461623,0.05373397,-0.01433367,-0.06353249,0.04238826
1.01695,0.0724175,0.04674817,-0.006571728,0.04334329,0.04991268,-0.01345825,-0.06345191,0.04408634
1.018854,0.07236761,0.04810031,-0.004581979,0.0424296,0.05053793,-0.01182089,-0.06379902,0.04411953
1.020477,0.07064238,0.04834918,-0.002872211,0.03982946,0.05004012,-0.008988034,-0.06930848,0.04280486
1.020545,0.06974894,0.04727647,-0.002714757,0.03805108,0.04820185,-0.002968382,-0.07006543,0.04301671
1.018892,0.06827297,0.04722059,-0.004277717,0.03568128,0.04736245,-0.003793682,-0.06702787,0.03891811
1.019191,0.06756331,0.04153596,-0.003886434,0.0340701,0.04087736,-0.008673418,-0.06459134,0.03575109
1.02002,0.06855446,0.03791314,-0.002965018,0.03415324,0.03643832,-0.01045769,-0.06038333,0.03506131
1.019183,0.06920222,0.04324368,-0.003708086,0.03388769,0.04093817,-0.01388258,-0.05453866,0.03163764
1.020267,0.0714502,0.0490844,-0.002529615,0.03521818,0.04593502,-0.01584565,-0.04957989,0.03003082
1.020394,0.0722973,0.04755085,-0.002307507,0.03514465,0.04354547,-0.01691763,-0.05385576,0.0339404
1.018794,0.06850318,0.04597784,-0.003812207,0.03042772,0.04110531,-0.01758386,-0.06059586,0.03870188
1.018142,0.06537663,0.04824485,-0.004367491,0.0263772,0.04249497,-0.01763245,-0.06384634,0.03761008
1.016189,0.06697124,0.04640382,-0.006225106,0.0270478,0.03976741,-0.0207304,-0.07504179,0.03663951
1.014523,0.07084013,0.04342635,-0.007793588,0.02999375,0.03589521,-0.01940648,-0.0863975,0.03599109
1.015439,0.07475204,0.03938613,-0.006780927,0.03298473,0.03095318,-0.01761075,-0.08562858,0.03243203
1.017068,0.07772102,0.03562893,-0.005054615,0.03503558,0.02628835,-0.02019161,-0.08052941,0.03789422
1.019894,0.07537344,0.03923936,-0.002130699,0.03177324,0.02898671,-0.02080697,-0.07281221,0.04447491
1.024432,0.0691675,0.04122173,0.002505036,0.02465651,0.03005392,-0.02542793,-0.05566785,0.04241903
1.025951,0.06586266,0.03961624,0.004121377,0.02044562,0.02753143,-0.03020992,-0.04472026,0.04385458
1.023505,0.06777229,0.03880947,0.001773223,0.02145485,0.02580699,-0.02757112,-0.05042061,0.0467134
1.022103,0.07245051,0.03693213,0.0004682302,0.02523923,0.0230125,-0.02436097,-0.04875448,0.04580401
1.021305,0.07406637,0.03591065,-0.0002347357,0.0259686,0.0210756,-0.02252593,-0.03976169,0.04687952
1.019855,0.07566915,0.0347278,-0.001589735,0.02669281,0.01898031,-0.02286077,-0.03611954,0.04820621
1.018245,0.07790088,0.03809479,-0.003107225,0.02805437,0.02143904,-0.02659503,-0.03031504,0.04765375
1.016326,0.07572897,0.04687205,-0.004934255,0.02502107,0.02931332,-0.02882432,-0.03516635,0.04818576
1.017978,0.07705794,0.05026113,-0.003192051,0.02549779,0.03180546,-0.02684909,-0.04714042,0.04733236
1.02071,0.07825769,0.04837563,-0.0003706233,0.02585477,0.02902957,-0.02296386,-0.04658607,0.04454567
1.019325,0.07332374,0.04558709,-0.001668486,0.02008786,0.02535764,-0.01933807,-0.04550033,0.04326786
1.018708,0.07094466,0.04341017,-0.002199114,0.01688605,0.02230481,-0.01985044,-0.04657638,0.04140173
1.018957,0.06980272,0.04313076,-0.001865855,0.01493213,0.02115761,-0.02280448,-0.04687259,0.0402542
1.01682,0.07026789,0.04345539,-0.003919819,0.01459668,0.02062319,-0.02103129,-0.05008802,0.0411841
1.016708,0.07287981,0.0420191,-0.003949626,0.01641991,0.01833725,-0.02093801,-0.0494281,0.04208014
1.017128,0.07221297,0.04084777,-0.003449538,0.01497682,0.01632632,-0.02401501,-0.0481309,0.04655545
1.015551,0.06994685,0.04575181,-0.004947748,0.01194732,0.02040143,-0.02365309,-0.04495849,0.05188011
1.017039,0.06791554,0.05103681,-0.003381632,0.00916599,0.0248687,-0.02365317,-0.03917901,0.0514419
1.020102,0.06802523,0.05348876,-0.0002416946,0.00853952,0.02651437,-0.02229918,-0.04170211,0.04675332
1.021117,0.06948472,0.0540452,0.0008481003,0.00927726,0.02627607,-0.01911532,-0.04266305,0.04039799
1.021189,0.0715152,0.04641135,0.0009943177,0.01060084,0.01785906,-0.0161469,-0.03363742,0.03601629
1.020525,0.07396618,0.04218087,0.0004030627,0.01236012,0.01285719,-0.01168127,-0.02227221,0.0377934
1.020413,0.07263349,0.05125759,0.000362433,0.01035114,0.02117465,-0.008686575,-0.0161455,0.04262177
1.019377,0.0681276,0.05971241,-0.0006036767,0.005184566,0.02888258,-0.004937943,-0.02344728,0.04114883
1.016826,0.06375658,0.05676665,-0.00308677,0.0001687646,0.02520224,-0.004100071,-0.03469428,0.02807156
1.016179,0.06484283,0.04952752,-0.003668405,0.0006265719,0.01724064,-0.01172046,-0.03767518,0.01518551
1.015977,0.06849764,0.0492403,-0.003805223,0.003669726,0.01624306,-0.01656473,-0.03609307,0.0199749
1.018178,0.06710928,0.05395052,-0.001541687,0.001686871,0.02025516,-0.009014334,-0.02980467,0.02693675
1.022325,0.06452208,0.0611008,0.002666883,-0.001477376,0.02671958,0.005206482,-0.02609024,0.01726384
1.019739,0.06209722,0.06518071,0.0001409388,-0.004461534,0.03012567,0.00939101,-0.03972237,0.01181683
1.015333,0.06490159,0.06241695,-0.004206222,-0.00219835,0.02669971,-0.002652557,-0.0648232,0.01495672
1.015579,0.07518323,0.05628801,-0.003903187,0.007560484,0.01991974,-0.01638823,-0.07958335,0.019254
1.01715,0.07950104,0.04498437,-0.002276416,0.01137381,0.007976091,-0.01772266,-0.07660762,0.0290322
1.020684,0.07584546,0.04472105,0.001311008,0.007231711,0.007083947,-0.01256693,-0.07158212,0.02673614
1.022718,0.07184959,0.05239081,0.00339893,0.002766892,0.01413648,-0.01386778,-0.06689989,0.02168189
1.021868,0.07166492,0.05060022,0.002599825,0.002130575,0.01174058,-0.01726169,-0.0553246,0.02676264
1.022105,0.07347078,0.05425866,0.002887044,0.003501913,0.01480575,-0.01878752,-0.0503912,0.02320202
1.02043,0.07512741,0.05174147,0.00125954,0.004740912,0.01170742,-0.01907034,-0.04904834,0.0232042
1.018671,0.08085423,0.04032003,-0.0004531506,0.0100667,-0.0002829112,-0.01623068,-0.04110192,0.02953232
1.019563,0.08350111,0.04173066,0.000482778,0.01232863,0.0005714297,-0.01665147,-0.04034185,0.03092822
1.019768,0.07979186,0.04353042,0.0007305378,0.008249878,0.001828002,-0.01748335,-0.04249777,0.0344258
1.02023,0.07755041,0.04633504,0.001232474,0.00565378,0.004103022,-0.01635616,-0.04403341,0.03148045
1.020938,0.07577973,0.0507256,0.001978271,0.003542813,0.007977839,-0.01781409,-0.05135997,0.02382609
1.019709,0.07510162,0.04734303,0.0007858201,0.002538429,0.004093541,-0.01799843,-0.04886038,0.02108179
1.017201,0.0726209,0.04578315,-0.001687192,-0.0002548329,0.002046009,-0.01853124,-0.04215405,0.02490363
1.01675,0.06763154,0.04551638,-0.002106527,-0.005543176,0.001305811,-0.01795538,-0.04179758,0.03300608
1.02073,0.06895949,0.05077857,0.001904464,-0.004500694,0.006108924,-0.0147598,-0.03694387,0.03175265
1.025238,0.07071261,0.05878336,0.006440872,-0.003019511,0.01366896,-0.01416536,-0.03276052,0.02724676
1.025462,0.06862993,0.05579714,0.006691813,-0.005360612,0.01025203,-0.01463084,-0.03021885,0.0260004
1.021779,0.07052897,0.05498479,0.003033437,-0.003706549,0.009022601,-0.01565073,-0.02881148,0.02452503
1.01719,0.07530941,0.06212304,-0.001532414,0.0008422561,0.01575702,-0.01436863,-0.03284625,0.02674079
1.014246,0.07903213,0.0653432,-0.004456026,0.004346409,0.01858605,-0.0110144,-0.03646027,0.02509078
1.015662,0.07960088,0.06257791,-0.003021975,0.004709196,0.01544166,-0.01042005,-0.04175956,0.02286662
1.017966,0.07789889,0.05612668,-0.000701791,0.002813296,0.00862271,-0.01112018,-0.04096727,0.02406047
1.016241,0.07780266,0.05090044,-0.002412206,0.002534682,0.003039719,-0.01318561,-0.03539887,0.02266802
1.017141,0.07603906,0.05152011,-0.00149797,0.0005997439,0.003313421,-0.01315732,-0.03854424,0.02542304
1.021883,0.07448278,0.05126645,0.003255882,-0.001117233,0.002724556,-0.01105228,-0.03571196,0.02576066
1.024213,0.07544536,0.04630601,0.005596826,-0.0003050474,-0.002560314,-0.01158099,-0.02936953,0.02024203
1.023061,0.07273989,0.04645996,0.004454376,-0.0031509,-0.002719918,-0.01434385,-0.02993809,0.02051892
1.018999,0.0721683,0.0494165,0.0004005835,-0.003853107,-6.590137e-05,-0.02065515,-0.02764662,0.02233411
1.017078,0.07631954,0.04886459,-0.001513731,0.000177071,-0.0009092053,-0.02298941,-0.02757003,0.02024347
1.016377,0.07867558,0.05258966,-0.002209685,0.002421326,0.002535604,-0.01599744,-0.02996938,0.01694651
1.014181,0.07914251,0.05742207,-0.0044025,0.00278532,0.007098784,-0.008103382,-0.03022021,0.01502308
1.014175,0.07718536,0.05716214,-0.004405623,0.000733619,0.00658036,-0.005113477,-0.02883358,0.01810526
1.014441,0.07508348,0.05590003,-0.004137793,-0.001454846,0.005070109,-0.008849983,-0.02416979,0.02357982
1.015547,0.07359208,0.05548104,-0.00303047,-0.003025195,0.004412958,-0.01209672,-0.02424691,0.02346798
1.016207,0.07559837,0.05742263,-0.002369053,-0.001090464,0.006126022,-0.01076274,-0.02795629,0.02361089
1.016222,0.08085578,0.05908688,-0.002353,0.004102496,0.007571034,-0.01219358,-0.03256321,0.02924285
1.019309,0.08008889,0.05823665,0.0007353997,0.00327787,0.00651043,-0.01439953,-0.03903277,0.0273381
1.019196,0.07964705,0.0581657,0.000623294,0.002784519,0.006237565,-0.01448899,-0.03914666,0.02098267
1.01881,0.0791251,0.05844316,0.0002392597,0.002216822,0.006321159,-0.01402125,-0.03729702,0.02046068
1.020223,0.07278454,0.05834753,0.001653273,-0.004164116,0.006039337,-0.01199477,-0.03804165,0.02229454
1.017938,0.07103271,0.05863575,-0.0006313102,-0.005951165,0.00614867,-0.01214454,-0.0381718,0.0261585
1.01798,0.07213349,0.06012121,-0.0005881484,-0.004880524,0.007462191,-0.01402818,-0.03734306,0.02605965
1.019285,0.07380288,0.06066639,0.0007185003,-0.003236212,0.00784199,-0.01348291,-0.03215804,0.02288912
1.019154,0.07867831,0.05584271,0.0005877111,0.001619091,0.002859107,-0.01350059,-0.02950649,0.0222105
1.019009,0.08111113,0.05171389,0.0004442647,0.004036453,-0.001422997,-0.01464631,-0.03475441,0.01911784
1.017375,0.080184,0.05714367,-0.00118962,0.003098136,0.003859307,-0.01482408,-0.0383287,0.02095339
1.018569,0.07716456,0.06378394,5.386425e-06,7.135935e-05,0.01035776,-0.01418651,-0.03697994,0.02530925
1.021195,0.07396822,0.0607053,0.002631703,-0.003128803,0.007142624,-0.01269306,-0.03400946,0.02204015
1.022166,0.07374333,0.05640198,0.003603409,-0.003354178,0.002707728,-0.01194197,-0.03165207,0.02114816
1.02108,0.07817611,0.05805233,0.002517748,0.001081314,0.004231157,-0.0114106,-0.03185862,0.02276881
1.018225,0.08218353,0.06223151,-0.0003370169,0.005094459,0.008287835,-0.01023306,-0.03225808,0.02153535
1.019368,0.07967914,0.06620537,0.0008055398,0.002598442,0.01214329,-0.01038454,-0.03082988,0.02234023
1.020252,0.07773305,0.06144417,0.00168801,0.0006630077,0.007267331,-0.01127206,-0.03060412,0.02550563
1.01865,0.07738923,0.05172901,8.429231e-05,0.0003318203,-0.002559283,-0.01200767,-0.03216294,0.02531367
1.019444,0.07319086,0.05039467,0.0008765597,-0.003852122,-0.004001869,-0.01212058,-0.03370171,0.01729786
1.017787,0.07127642,0.05365928,-0.0007822513,-0.005750411,-0.0008421426,-0.01238219,-0.03456782,0.01182986
1.01606,0.07450245,0.05885144,-0.002512439,-0.002506469,0.004248616,-0.01516576,-0.03372602,0.01394991
1.018861,0.07734106,0.06467252,0.0002853223,0.0003518111,0.009971709,-0.01676571,-0.03313887,0.01345274
1.020852,0.07908748,0.06446186,0.002273333,0.002119554,0.009666162,-0.0134097,-0.03123932,0.01232771
1.020067,0.08056603,0.06230805,0.001485447,0.003620832,0.007420133,-0.01044312,-0.02363729,0.01370086
1.018061,0.07739427,0.06292554,-0.0005244459,0.0004729389,0.007947701,-0.01240146,-0.01878706,0.01590976
1.017823,0.07319883,0.06526653,-0.0007663837,-0.00369773,0.0102007,-0.01395909,-0.02580267,0.01827519
1.019435,0.0756667,0.06728011,0.0008406618,-0.001204254,0.01212786,-0.01229419,-0.03384292,0.01721245
1.020483,0.0794898,0.0660705,0.001884817,0.002645214,0.01083296,-0.01201295,-0.03146162,0.0155321
1.021206,0.08052036,0.06407766,0.002602552,0.003702769,0.008755553,-0.01153898,-0.02880678,0.01491159
1.020815,0.07921861,0.06310186,0.002206223,0.002428378,0.007695581,-0.0100904,-0.02915521,0.01522884
1.020438,0.07560493,0.05963219,0.001823715,-0.001157811,0.00414191,-0.01132489,-0.02421114,0.0169881
1.020188,0.07497794,0.05686912,0.001568241,-0.001757295,0.001294948,-0.01277054,-0.0235106,0.01482817
1.019026,0.07588016,0.05863543,0.0003996991,-0.0008275883,0.002977509,-0.0139432,-0.02876852,0.01307801
1.019344,0.07614567,0.05883952,0.0007107118,-0.000534617,0.003098088,-0.01389837,-0.03068481,0.0174914
1.019749,0.07860587,0.0582075,0.001107577,0.001952968,0.002382869,-0.01014299,-0.03206931,0.01866024
1.019209,0.07783401,0.06140305,0.0005594181,0.001208321,0.005495574,-0.008728181,-0.03247842,0.01553558
1.019513,0.07508632,0.0633095,0.0008553807,-0.001512453,0.007319509,-0.009762218,-0.03296607,0.01544413
1.01951,0.07513375,0.06255983,0.0008436123,-0.001438432,0.006487555,-0.007214536,-0.03205392,0.01639797
1.019329,0.07481607,0.06221272,0.0006531666,-0.001729859,0.006058267,-0.005995293,-0.02712049,0.01750766
1.019002,0.0761781,0.06166841,0.0003166148,-0.0003418601,0.005431761,-0.01178993,-0.02603962,0.01732213
1.016728,0.07785286,0.05823256,-0.001967854,0.001358546,0.001913653,-0.01730994,-0.02393452,0.01637023
1.014801,0.07765202,0.05446615,-0.003905111,0.00118299,-0.001935009,-0.01517938,-0.0207403,0.01855825
1.016786,0.07808801,0.05782569,-0.001930229,0.001643786,0.001342464,-0.01286293,-0.0252375,0.01812059
1.018827,0.07755409,0.06148574,0.000100677,0.001134104,0.004920805,-0.01350541,-0.02912602,0.01578853
1.016197,0.07772975,0.05769479,-0.002539715,0.001333325,0.001048581,-0.009127988,-0.02868813,0.0154821
1.014728,0.07860746,0.05372196,-0.004018463,0.002233837,-0.003004982,-0.005726428,-0.02741357,0.0144033
1.018281,0.0797279,0.05143438,-0.0004751028,0.003376214,-0.005372554,-0.008546818,-0.02675157,0.01445436
1.020476,0.08159833,0.05049579,0.001710385,0.005267563,-0.006390016,-0.01015315,-0.02755245,0.01521523
1.019417,0.08067877,0.05197926,0.0006430588,0.004367726,-0.004983892,-0.01118553,-0.02799256,0.01731958
1.018519,0.08149055,0.05197257,-0.0002628636,0.0051978,-0.005066004,-0.01031667,-0.02916862,0.01970395
1.017018,0.08280355,0.05431714,-0.001771231,0.006527479,-0.00279463,-0.006246042,-0.02799736,0.01830857
1.01504,0.07939268,0.0604408,-0.003756291,0.003131463,0.003258276,-0.005895866,-0.02552214,0.01772208
1.017413,0.07819185,0.06192293,-0.001390179,0.001943518,0.004672095,-0.006600535,-0.02713831,0.0158667
1.020913,0.07796786,0.05905281,0.002104026,0.001730397,0.001735986,-0.006065393,-0.02719235,0.01200902
1.018507,0.07630249,0.05754929,-0.0003079539,7.391545e-05,0.0001686423,-0.006571801,-0.02517943,0.01353461
1.016934,0.07691449,0.05833469,-0.001885042,0.000692874,0.0008923465,-0.005843941,-0.02556217,0.01412962
1.018787,0.07572375,0.05947867,-3.676207e-05,-0.0004927148,0.001976725,-0.005004474,-0.02846338,0.01157386
1.018099,0.07409249,0.06152958,-0.0007283832,-0.002120526,0.003970055,-0.005628084,-0.03097043,0.01084192
1.018489,0.07568169,0.06469997,-0.0003411398,-0.0005294088,0.007084723,-0.007064619,-0.02537906,0.009294696
1.019243,0.07696287,0.06273306,0.0004107154,0.0007523138,0.005063716,-0.007145396,-0.01907186,0.01278081
1.017558,0.07762033,0.05941727,-0.00127677,0.001409045,0.001695216,-0.007015289,-0.02314595,0.0190919
1.017874,0.07645738,0.06155569,-0.0009616764,0.0002441335,0.003782149,-0.01113745,-0.02638485,0.0174856
1.018609,0.07433459,0.06250809,-0.0002274493,-0.001881766,0.00468417,-0.01326577,-0.02521333,0.01495511
1.018701,0.07668417,0.06480917,-0.0001361271,0.0004636689,0.006935816,-0.009428542,-0.02716915,0.01151465
1.019768,0.07897146,0.06994449,0.0009318561,0.002745862,0.01202239,-0.006471781,-0.02540638,0.005240188
1.019089,0.07708336,0.06777416,0.0002527852,0.0008517458,0.009803611,-0.00650536,-0.01937909,0.008055338
1.016462,0.07555071,0.06177772,-0.00237309,-0.0006878229,0.003758662,-0.006359403,-0.01771344,0.01291367
1.014617,0.07397417,0.05514453,-0.004215828,-0.002272097,-0.002923297,-0.005636237,-0.01909344,0.01051916
1.015172,0.07338123,0.04921677,-0.003659054,-0.002873461,-0.008899951,-0.008433987,-0.02201592,0.01092523
1.017013,0.07737748,0.05465913,-0.001814917,0.001113871,-0.00350625,-0.01153416,-0.02433105,0.01263989
1.018543,0.082271,0.06356558,-0.0002817634,0.005998034,0.005352136,-0.009524603,-0.02200806,0.01257035
1.019935,0.08440018,0.06432307,0.001114819,0.008117314,0.006062223,-0.00654026,-0.01560868,0.01587362
1.020104,0.08328386,0.06281583,0.001289477,0.006990278,0.004508081,-0.004700281,-0.006758984,0.01589661
1.020708,0.08158537,0.06025301,0.001898777,0.00528,0.001898712,-0.004754137,-0.004804731,0.01367875
1.023031,0.08126799,0.05916937,0.004227272,0.004949524,0.0007688089,-0.006006008,-0.01513115,0.01355366
1.022193,0.0798033,0.06206173,0.003395401,0.003470318,0.003615199,-0.007233165,-0.02323826,0.009619828
1.019328,0.07816681,0.06288958,0.0005374042,0.001817814,0.004397336,-0.009471635,-0.02013892,0.007590143
1.017637,0.07598063,0.06167581,-0.001147562,-0.0003858595,0.00313805,-0.008267536,-0.01750794,0.008238348
1.016207,0.07382539,0.05883324,-0.002571737,-0.002559945,0.0002500993,-0.005417301,-0.02055767,0.006648428
1.018346,0.07529176,0.05850377,-0.0004262827,-0.001113562,-0.000124608,-0.004766878,-0.02055529,0.00737358
1.020446,0.07542311,0.06367138,0.001679401,-0.00100314,0.004997985,-0.004164934,-0.02140337,0.006997047
1.017992,0.07507698,0.06376961,-0.0007684658,-0.001370945,0.005051378,-0.004319007,-0.02611435,0.007266603
1.016699,0.0792016,0.06102986,-0.002055432,0.002731413,0.002266897,-0.00299689,-0.02534477,0.01314391
1.017015,0.08243866,0.06298488,-0.001733372,0.00594567,0.004177182,-0.00107452,-0.02428674,0.01611894
1.018252,0.08244655,0.06241487,-0.0004909173,0.005930104,0.003562384,-0.001344037,-0.02536995,0.01416811
1.020241,0.08119779,0.05870028,0.001504053,0.004657082,-0.0001970837,-0.001719686,-0.02249784,0.01150501
1.019335,0.08023788,0.05623265,0.0006046182,0.003671964,-0.002709622,-0.00278947,-0.01938943,0.01044632
1.017765,0.07975569,0.05484896,-0.0009591435,0.003163527,-0.004138069,-0.003290085,-0.01674828,0.009888134
1.016333,0.07932039,0.05650179,-0.00238475,0.00270092,-0.002529579,-0.003454968,-0.0167945,0.005695625
1.014537,0.0795579,0.0576051,-0.004174707,0.002910057,-0.001469951,-0.004363645,-0.01738739,0.004413704
1.015173,0.07898485,0.05552858,-0.003532663,0.002307564,-0.003589297,-0.002976499,-0.01512669,0.007142942
1.015744,0.07995043,0.05536307,-0.002954686,0.003242675,-0.003796586,-0.001763456,-0.01736146,0.006696322
1.015822,0.08133027,0.05605504,-0.002869055,0.004590994,-0.003145119,-0.003414656,-0.0182672,0.009211848
1.019794,0.07941106,0.0571656,0.001110483,0.002639219,-0.002073612,-0.005172304,-0.01617196,0.01256193
1.023585,0.07702879,0.05786039,0.004910447,0.0002233224,-0.001416286,-0.004468391,-0.01673494,0.00858638
1.021453,0.07414596,0.05209347,0.002786427,-0.002694086,-0.00721896,-0.002144253,-0.01520946,0.007402795
1.01877,0.0742017,0.0465348,0.0001122312,-0.002673669,-0.01281144,-0.002962336,-0.01448002,0.01446025
1.019579,0.07617949,0.04976942,0.0009307303,-0.0007316889,-0.009608265,-0.009039055,-0.01361745,0.01899728
1.019637,0.07474591,0.05606411,0.0009975201,-0.002201328,-0.003342251,-0.01335364,-0.01263825,0.0122322
1.018763,0.07662304,0.06050361,0.0001315893,-0.0003603112,0.001071551,-0.006995447,-0.01431819,0.003396254
1.017736,0.07895956,0.06330756,-0.0008864306,0.001940175,0.003852727,0.002269569,-0.01219369,0.005263235
1.015159,0.07732617,0.05914551,-0.003454951,0.0002709077,-0.0003294139,0.002155467,-0.01154875,0.009219588
1.014674,0.07773484,0.04998432,-0.003931678,0.0006439088,-0.009508162,-0.0004201879,-0.01311881,0.009650561
1.015976,0.07853374,0.04769842,-0.002621232,0.00140738,-0.01180896,-0.001863827,-0.01210816,0.01041899
1.016167,0.08023354,0.05200556,-0.002421774,0.00307201,-0.007513774,-0.005650317,-0.01249337,0.009129028
1.017904,0.0825767,0.05719922,-0.0006751867,0.00538022,-0.00232884,-0.005043454,-0.01098447,0.00942308
1.019568,0.08036919,0.05832834,0.0009978547,0.003137867,-0.001205162,-0.003371466,-0.00813413,0.01029617
1.019394,0.0782235,0.05634604,0.0008330733,0.0009573211,-0.003189696,-0.005491108,-0.007366598,0.009086736
1.019563,0.08016547,0.05967587,0.00101258,0.002864409,0.0001409678,-0.00483265,-0.009874691,0.01080744
1.018851,0.0809484,0.06173107,0.0003099486,0.003612397,0.002199917,-0.004329106,-0.01475762,0.01154908
1.016697,0.07823709,0.05898913,-0.001833507,0.000866044,-0.0005356317,-0.004478209,-0.01304689,0.01064239
1.014792,0.07626112,0.05714602,-0.003728649,-0.001145054,-0.002369903,-0.003590543,-0.008989483,0.01083783
1.016054,0.07619797,0.05555295,-0.002456228,-0.00124333,-0.003951847,-0.008705295,-0.009721673,0.01015763
1.019432,0.07640941,0.05959908,0.0009319911,-0.001066861,0.0001076386,-0.01363385,-0.009214957,0.009236674
1.019448,0.07653741,0.0631578,0.0009588798,-0.0009735521,0.003681804,-0.01027565,-0.006201474,0.006154619
1.017452,0.07658798,0.05437234,-0.001025936,-0.0009572504,-0.005086321,-0.005563763,-0.003577386,0.004067908
1.016446,0.07821782,0.04694918,-0.002020473,0.0006388348,-0.01249034,-0.004809556,-0.003938953,0.006976646
1.0172,0.0796293,0.05164734,-0.001254844,0.002017143,-0.007771047,-0.006153309,-0.005717527,0.009761957
1.018845,0.07831609,0.05462365,0.0004014523,0.00067134,-0.004771365,-0.006665992,-0.006184515,0.01009156
1.017963,0.07724331,0.0499972,-0.0004686756,-0.0004334723,-0.009372043,-0.006315572,-0.007619215,0.009217992
1.017646,0.07780762,0.04981992,-0.0007738813,9.940837e-05,-0.009521009,-0.00645092,-0.007202972,0.0090378
1.018389,0.07767431,0.05431848,-1.878205e-05,-6.469544e-05,-0.004991435,-0.006391031,-0.005112294,0.01075127
1.016846,0.07576948,0.05660462,-0.001549333,-0.001999618,-0.002671482,-0.005722355,-0.00530735,0.01225906
1.016589,0.07448469,0.05784083,-0.001794172,-0.003313716,-0.001398762,-0.005754886,-0.005199661,0.01020717
1.017671,0.07493005,0.05822269,-0.0007001057,-0.002896726,-0.0009778612,-0.00598179,-0.006390289,0.00593124
1.018232,0.07521344,0.05865162,-0.0001264275,-0.002640617,-0.000507585,-0.004818221,-0.00956835,0.004426076
1.017948,0.07493718,0.0583842,-0.0003977552,-0.002942925,-0.0007315817,-0.001642958,-0.01046458,0.004775145
1.016278,0.07472054,0.05788489,-0.002054649,-0.003184247,-0.001185641,0.004450085,-0.009994123,0.005885059
1.017215,0.07424238,0.05795522,-0.001104719,-0.003685593,-0.001068437,0.007301828,-0.00979443,0.007583613
1.021167,0.07435691,0.05362213,0.002860665,-0.003592631,-0.005353185,0.001432541,-0.008069831,0.008629207
1.023049,0.07879886,0.04970087,0.004755977,0.0008294695,-0.00922469,-0.003437731,0.000615476,0.009337462
1.020405,0.08428067,0.05038452,0.002124507,0.006293122,-0.008489771,-0.001661787,0.01056691,0.007929452
1.017713,0.08396937,0.05048146,-0.0005548848,0.005965121,-0.00833985,-0.002290086,0.005663599,0.009110441
1.017156,0.0831298,0.05056064,-0.001099148,0.005109976,-0.008205832,-0.008734514,-0.006580932,0.01269683
1.015247,0.08352001,0.05130185,-0.002996854,0.005485404,-0.007407769,-0.01241371,-0.009587532,0.01135744
1.017159,0.08016082,0.04994547,-0.001072967,0.002111955,-0.00870517,-0.00829231,-0.002547324,0.009069223
1.020741,0.07804532,0.04819718,0.002520344,-1.745744e-05,-0.01039226,-0.004129472,0.007373978,0.005336456
1.016617,0.07796341,0.05115632,-0.001591819,-0.0001130116,-0.007369543,-0.006383827,0.005677719,0.001045745
1.013473,0.07472917,0.05553373,-0.004725084,-0.003360575,-0.002926114,-0.007681289,-0.003425934,0.001413193
1.015091,0.07170917,0.05873734,-0.003095952,-0.006393477,0.0003458623,-0.005536683,-0.004308736,0.002768331
1.014914,0.07222367,0.06434901,-0.003262149,-0.005891215,0.00602794,-0.006362493,-5.413749e-05,0.006313388
1.016294,0.07439073,0.06590938,-0.001870859,-0.003735467,0.007660279,-0.00629065,0.005007601,0.009142408
1.019284,0.07512297,0.0658401,0.001130629,-0.003013392,0.007663901,-0.00401066,0.002256717,0.009312203
1.019758,0.07321891,0.06835925,0.001616222,-0.004926332,0.01025621,-0.002213302,-0.003660837,0.0085543
1.019416,0.07153603,0.06195876,0.00128568,-0.006616657,0.003928482,0.001489975,0.001346227,0.003751824
1.019394,0.07223472,0.05635525,0.001275474,-0.005923772,-0.001603123,0.001699483,0.0046388,0.003930195
1.019426,0.07411587,0.06404477,0.001319423,-0.004046592,0.006157152,-0.0007453889,0.005922492,0.006017473
1.019348,0.07684189,0.06912862,0.001252753,-0.001322598,0.01131031,-0.0004235657,0.005549806,0.003409765
1.018123,0.08128572,0.06544596,3.950737e-05,0.003121155,0.007695041,-0.001346424,-0.001622242,0.004016155
1.016002,0.08247697,0.06375559,-0.002070574,0.004314091,0.006069658,-0.003968658,-0.0002610419,0.0006018542
1.014685,0.07786578,0.06382421,-0.003377266,-0.0002939186,0.00620049,-0.007320855,-0.0004535199,-0.005594267
1.015187,0.07568421,0.06005979,-0.002865037,-0.002471004,0.002495221,-0.007611407,-0.005308989,-0.005272869
1.015655,0.07904525,0.057565,-0.00238605,0.0008957185,5.637138e-05,-0.005144022,-0.001881406,0.0006776893
1.015555,0.08114029,0.05857678,-0.002475841,0.002997571,0.00112087,-0.005299679,-0.001777968,0.007641225
1.01831,0.07706079,0.05699111,0.0002900354,-0.001074149,-0.0004152451,-0.002157558,-0.0005750693,0.004364082
1.022246,0.07384887,0.05466401,0.004237353,-0.004277426,-0.002695869,0.0006290276,0.004511933,0.0004215648
1.021967,0.07878738,0.05443795,0.00396919,0.0006705755,-0.002878347,-0.001181221,0.003975835,0.002830296
1.017479,0.08235751,0.05648796,-0.0005077633,0.004251012,-0.000787455,0.0003797041,0.003883474,0.001405934
1.013816,0.07987585,0.05962888,-0.004159677,0.001780314,0.002391812,-0.0003833676,0.003873435,0.003014417
1.014948,0.07828425,0.05901224,-0.003017442,0.0002001305,0.001811027,-0.003081406,0.002665157,0.004641999
1.016215,0.07753861,0.06018528,-0.001740274,-0.0005337841,0.003017427,-0.001341265,0.001718627,-0.0001408319
1.015071,0.07653401,0.06403734,-0.002873365,-0.001526371,0.006900283,-0.0007475113,-0.001103253,-0.00285228
1.017358,0.07726753,0.06257153,-0.000575983,-0.0007805796,0.005462573,-0.0006843241,-0.002109523,-0.002918862
1.020835,0.0807764,0.06168761,0.002912004,0.002740794,0.004603894,-0.002166154,-0.0002848504,-0.002021207
1.021135,0.08398227,0.06391744,0.003223192,0.005959297,0.006855936,-0.003425871,0.001118431,-0.001401056
1.020491,0.08038584,0.06672592,0.00258951,0.002375404,0.009683465,0.001388292,0.0002311865,-0.0006419729
1.01891,0.07555373,0.07344754,0.001019589,-0.002444454,0.01642068,0.004743445,-0.002433422,-0.0001422984
1.017717,0.07788097,0.07498223,-0.0001634211,-0.0001053102,0.01796706,0.004285488,-0.003872717,-0.001673068
1.019043,0.07923826,0.06210368,0.001172502,0.001263566,0.005095783,0.002819276,-0.002450915,-0.001087594
1.020831,0.07847242,0.04649093,0.00297037,0.0005089804,-0.01051431,0.0001899391,-0.0005945213,-0.0004972611
1.020969,0.08098542,0.04426374,0.003116471,0.003032823,-0.01274303,-0.003775347,0.0007052401,0.0005164179
1.019744,0.0783746,0.05553494,0.001900484,0.0004323791,-0.001476832,-0.009855526,0.00332283,0.002890168
1.019191,0.07468307,0.06688539,0.001355094,-0.003249306,0.00986569,-0.01033535,0.003702504,-0.0004527589
1.019439,0.07776991,0.06997457,0.001609035,-0.0001530919,0.01294409,-0.001656239,0.002519314,-0.003938702
1.018975,0.07882969,0.0679406,0.001151144,0.0009156552,0.01089623,0.006178114,0.004223129,-0.003507159
1.016776,0.07921625,0.06739701,-0.001042788,0.001310778,0.0103353,0.00298232,0.005330205,-0.004773011
1.014375,0.08221997,0.06959984,-0.003439923,0.004322581,0.01251707,-0.002349887,0.005983126,-0.005235333
1.015039,0.08222211,0.06828893,-0.002772526,0.004332214,0.01118111,0.0005401989,0.00482969,-0.003483468
1.01589,0.08069535,0.06191398,-0.001918622,0.002812174,0.004776938,-0.0009500059,-8.579824e-06,-0.001802281
1.014902,0.0803407,0.05722729,-0.002903781,0.00246332,5.684644e-05,-0.002627779,-0.001151012,-0.0001225282
1.015623,0.08057368,0.06102207,-0.002179895,0.002701094,0.00381424,0.001303085,-0.0007979083,0.0009331449
1.017494,0.08045522,0.06751375,-0.0003064762,0.002586335,0.01026477,-0.0001480385,-0.00370656,0.004348623
1.019227,0.07940888,0.06574216,0.001428721,0.001542544,0.008448335,0.002602483,-0.006008735,0.009496857
1.020067,0.07804086,0.0656971,0.002271963,0.0001759083,0.008354677,0.006498308,-0.005766791,0.006433433
1.019161,0.07774176,0.06998536,0.00136787,-0.0001229429,0.01259052,0.003511502,-0.003389136,0.001073517
1.01949,0.07984295,0.06727167,0.001698817,0.001977415,0.009820495,0.003846962,-0.002938025,0.00339331
1.020668,0.08193222,0.06525754,0.002878496,0.004064801,0.007746012,0.003534133,-0.003289476,0.003388967
1.020113,0.08155139,0.06394938,0.002325544,0.00368096,0.006373471,0.002695881,-0.002506698,0.001986604
1.017458,0.08079389,0.06130694,-0.0003282723,0.002919228,0.003662734,0.004004389,-0.005414556,0.003909005
1.014612,0.08119402,0.06480524,-0.003173737,0.003313856,0.007088999,0.003098537,-0.0064726,0.004167853
1.017432,0.08056435,0.06547149,-0.0003537453,0.002677338,0.007679647,0.002151046,-0.001344034,0.00569923
1.021148,0.07911248,0.06119003,0.003361238,0.001217249,0.003319161,0.001107425,0.002186781,0.005618505
1.017893,0.07956176,0.05850647,0.000105719,0.001656957,0.0005533464,0.001675471,-0.0003950205,0.005176537
1.015287,0.08095504,0.05737932,-0.002501026,0.003039347,-0.0006589474,0.002466818,-0.003337348,0.006759003
1.015475,0.08233394,0.05730325,-0.002313889,0.004406042,-0.0008226175,0.002301903,-0.0003169616,0.004274307
1.015167,0.08187133,0.05705131,-0.002623169,0.003929844,-0.001164172,0.003604473,0.001283021,0.002559194
1.01753,0.07865696,0.06099771,-0.0002618103,0.0007004715,0.002691029,0.002351793,-0.0005040189,-0.0007179894
1.01959,0.07719355,0.06548761,0.001797356,-0.0007793347,0.007088427,0.001788435,0.0005993581,-0.005027097
1.019564,0.07803115,0.06412022,0.001769603,4.060282e-05,0.00562738,0.002481839,0.000624523,-0.003724314
1.019351,0.07974137,0.06362632,0.001555335,0.001732025,0.005038692,0.0007996516,0.0002632069,-0.001433347
1.01833,0.08046957,0.06553243,0.0005328555,0.002440393,0.006848936,0.001033473,0.0008658918,0.002410432
1.01812,0.07692627,0.06594644,0.0003212082,-0.001123726,0.007166035,0.0004097464,-0.001030861,0.0004163789
1.018864,0.07371906,0.06497088,0.001063442,-0.004352619,0.006092516,-0.001403835,-0.004816454,-0.004418691
1.019742,0.07511424,0.06477424,0.001940071,-0.002979758,0.005796866,-0.001709212,-0.008299596,-0.0012146
1.019686,0.07804447,0.06161938,0.0018817,-7.221615e-05,0.002542003,-0.003293369,-0.004597217,-0.002640865
1.019022,0.08064823,0.05619782,0.001215113,0.002508631,-0.00298038,-0.002571062,0.00184817,-0.005749686
1.019524,0.08207076,0.05860777,0.001713577,0.003908062,-0.0006717702,0.0002866225,0.00326957,-0.005290762
1.018585,0.07874424,0.06007416,0.0007711176,0.0005582073,0.0006931341,0.00102312,0.005768061,-0.006247845
1.017175,0.07432042,0.05663241,-0.0006424157,-0.003889193,-0.002849926,0.0001761761,0.005371368,-0.001663712
1.017,0.0758885,0.05919198,-0.0008214053,-0.002344793,-0.0003911787,-0.003101623,0.002192821,0.003609146
1.017418,0.07746895,0.06057276,-0.0004081966,-0.0007879194,0.0008895594,-0.008257233,0.002005978,0.005540315
1.019975,0.07746211,0.05969118,0.002144163,-0.0008181067,-9.104608e-05,-0.01089936,-0.003158896,0.005979215
1.020447,0.07984708,0.06048864,0.002611496,0.001543841,0.0006085652,-0.005425462,-0.006328277,0.0005748341
1.019418,0.08086495,0.05896348,0.001576135,0.002539038,-0.001013075,0.004486225,-0.002434605,-0.004352639
1.021418,0.08212024,0.06000055,0.00357075,0.003771922,-7.094071e-05,0.007937496,-6.742402e-05,-0.001609555
1.021054,0.08119083,0.06099974,0.003199911,0.002820279,0.0008349966,0.004004375,0.004014663,0.001670764
1.0192,0.07667742,0.05986598,0.001339547,-0.001715276,-0.0003901819,-0.001509525,0.004365614,-0.001490108
1.01968,0.07650578,0.06120724,0.001811148,-0.001908956,0.0008615763,-0.003970074,-0.0005177458,-0.002096864
1.019278,0.07906769,0.06185413,0.001401504,0.0006311162,0.001420978,-0.004011384,-0.003032138,0.002500371
1.01936,0.08135714,0.0625033,0.001474057,0.002899008,0.001984704,-0.002014251,-0.006989097,0.00342914
1.019745,0.08096467,0.06073623,0.001848711,0.002485198,0.0001342555,0.002074109,-0.006160181,0.002085902
1.019114,0.07845592,0.05664605,0.001207232,-4.471044e-05,-0.004037196,0.001770521,-0.002315176,-0.0002755415
1.019628,0.0786025,0.05659545,0.001710013,8.086239e-05,-0.004166789,0.001217513,-0.003923409,-0.001088049
1.018946,0.07768057,0.05558525,0.001016612,-0.0008619016,-0.005253462,0.003693232,-0.003583327,-0.0004971296
1.017091,0.07817222,0.05249632,-0.0008510739,-0.0003908334,-0.008416069,0.002490982,-0.003666962,-0.003211827
1.017223,0.08041153,0.05179395,-0.0007324869,0.001828184,-0.009188948,0.001903641,-0.00497763,-0.003434673
1.019033,0.07959172,0.05628954,0.001064202,0.0009883883,-0.00476035,0.002327182,-0.003987475,-0.002651475
1.019499,0.08072553,0.06197228,0.001516072,0.00210248,0.0008591631,0.0005569225,-0.004152626,-0.003311824
1.017688,0.08126483,0.05870244,-0.0003092058,0.002622276,-0.002470072,-0.000246857,-0.00300077,-0.001720752
1.017223,0.08076113,0.05484989,-0.0007891987,0.002099209,-0.006378215,-0.0008958648,-0.002254965,0.0007988208
1.016619,0.08266195,0.05625431,-0.001408685,0.003980728,-0.005025513,-0.0001116995,-0.003626125,0.004298592
1.016243,0.08144277,0.05646257,-0.001799773,0.002742184,-0.004864953,0.001883133,-0.004665159,0.004145981
1.018249,0.07883654,0.05930594,0.0001904961,0.0001164573,-0.002065187,0.003183728,-0.003421027,0.002419723
1.018219,0.07722653,0.06273488,0.0001453231,-0.001513192,0.001324224,0.005193202,-0.0008983438,0.003580413
1.019175,0.07630322,0.06346166,0.00108618,-0.002456204,0.002015391,0.00585834,-0.003307851,0.000894576
1.02186,0.07678333,0.06438556,0.003755392,-0.001995705,0.002907351,0.003167472,-0.004364925,-0.0007781292
1.022057,0.07608286,0.06520128,0.003937631,-0.002715528,0.003694479,7.525773e-05,-0.002913934,0.001598907
1.020246,0.07630824,0.07081706,0.002110849,-0.002509096,0.009284663,0.002749756,-0.002339801,0.002438572
1.016384,0.07695721,0.07645026,-0.001766197,-0.001878517,0.01489474,0.007172481,0.002139672,0.003421386
1.016936,0.07703249,0.07005303,-0.001230397,-0.001820951,0.008476204,0.006055346,-0.0003921801,0.001317736
1.020901,0.07935228,0.06167141,0.002718567,0.0004819015,7.450227e-05,0.005480279,-0.005928423,-0.001312574
1.020398,0.08048914,0.06079172,0.002199654,0.001602599,-0.0008243335,0.005857419,-0.00452395,0.002444005
1.019561,0.07993609,0.05791781,0.00134654,0.001034121,-0.003716474,0.004682182,-0.004110825,0.004998078
1.019454,0.07818553,0.05537681,0.00122365,-0.0007311885,-0.006274691,0.006126697,0.003937739,0.004056546
1.018275,0.07564689,0.0594569,2.786397e-05,-0.0032839,-0.002210612,0.008624705,0.01445508,0.003935975
1.017892,0.07792976,0.06216362,-0.0003717281,-0.001014372,0.0004814393,0.009533244,0.0138031,0.002565713
1.018368,0.08029739,0.06446617,8.814009e-05,0.001340718,0.002770662,0.004409734,0.01416367,0.001276114
1.019942,0.07793243,0.06830047,0.001645274,-0.001035978,0.006592834,-0.003151141,0.01613393,0.001690216
1.020968,0.07718699,0.06900721,0.002654768,-0.001792367,0.007288342,-0.002586189,0.01111515,0.0004070128
1.019251,0.07794105,0.06646595,0.0009201776,-0.001048448,0.004736419,-0.001636461,0.002609052,-0.0007944161
1.017144,0.07683545,0.06130513,-0.00120327,-0.002163343,-0.0004348022,-0.005408169,-0.003546089,0.003522974
1.018341,0.07583816,0.0615876,-2.397536e-05,-0.003169007,-0.0001625769,-0.005620641,-0.003757472,0.0077484
1.020219,0.07496576,0.06441986,0.001837841,-0.004048774,0.002659565,-0.001406347,-0.00378725,0.004416224
1.020009,0.07219901,0.06320303,0.001610227,-0.006821737,0.001432712,0.003887996,-0.009078716,-0.0005470037
1.019523,0.06979924,0.06597904,0.00110762,-0.009226357,0.004198713,0.00551832,-0.00712787,-0.00369437
1.018915,0.07072081,0.06576114,0.0004826937,-0.008307946,0.003970689,0.003270365,0.002788103,-0.005420238
1.018479,0.0714294,0.06212696,2.901773e-05,-0.007600525,0.0003261366,0.002974592,0.005134909,-0.002509434
1.017129,0.07040231,0.0629477,-0.001337508,-0.008626502,0.001136183,0.00321279,0.003313844,-0.001763755
1.016084,0.07158057,0.06204008,-0.002400208,-0.007444609,0.0002175473,0.002179917,0.0004778072,-0.004776677
1.01882,0.07555755,0.06179326,0.0003187001,-0.00346128,-4.059029e-05,0.002896737,-0.001615266,-0.003436888
1.022886,0.08162693,0.0594437,0.004368782,0.00261721,-0.0024017,0.00491568,0.002475046,-0.00361089
1.025223,0.08513889,0.0551075,0.006689507,0.006140815,-0.006749551,0.006363524,0.009239922,-0.005217807
1.020882,0.08214517,0.05710483,0.002331572,0.003160917,-0.004763725,0.006425278,0.01640785,-0.002545907
1.013738,0.0808864,0.05759397,-0.004829433,0.00191772,-0.004285656,0.006596654,0.007325323,-0.001751386
1.014947,0.08271881,0.05629379,-0.003636618,0.003767141,-0.005596219,0.006806107,-0.008818652,-0.0003754245
1.017246,0.08174244,0.05638318,-0.001354091,0.002808907,-0.005516294,0.0009289779,-0.004527755,0.0004463141
1.016128,0.08171193,0.05243483,-0.00248863,0.002797375,-0.009472921,-0.00561926,-0.001138893,-0.002983789
1.016867,0.08216275,0.0485453,-0.001764813,0.003267747,-0.01336919,-0.001251021,-0.003385027,-0.002999919
1.015751,0.08054309,0.0508136,-0.002896688,0.001667967,-0.01110564,0.004324462,4.194094e-06,-0.001958267
1.015059,0.07953223,0.05741336,-0.003603553,0.000677127,-0.004508217,0.002918348,-0.002184294,-0.001458873
1.017564,0.078302,0.06186142,-0.001111358,-0.0005330759,-5.983994e-05,0.003569389,-0.0009959722,-0.0009446238
1.019369,0.07623682,0.06118788,0.0006806862,-0.00257828,-0.0007304469,0.005707596,0.00345802,-0.002448505
1.019938,0.07359181,0.0592517,0.00123782,-0.005203306,-0.002661218,0.005002439,0.003489862,-0.001559908
1.018675,0.07291031,0.05944819,-3.656091e-05,-0.005864708,-0.00245695,0.004069657,0.005280458,-0.0002755236
1.016628,0.0751423,0.05869671,-0.002093889,-0.003612291,-0.003198359,0.00205843,0.002939041,-0.000648497
1.014799,0.07505629,0.05668112,-0.00393254,-0.003677389,-0.00520162,-0.001065987,0.0004005588,-0.004142092
1.01464,0.07381597,0.0563244,-0.004099814,-0.004896196,-0.00554372,-0.002529648,0.0044501,-0.006992953
1.016404,0.07379799,0.05374722,-0.002343665,-0.004891953,-0.008103932,-0.001295559,0.006038217,-0.003261424
1.017174,0.07490837,0.05427153,-0.001579253,-0.003758506,-0.007560173,-0.0007626231,0.004960512,-0.003337112
1.020063,0.07929229,0.05909025,0.001304664,0.000649406,-0.002719399,-0.002698198,0.004525106,-0.004399376
1.021995,0.08263831,0.05790239,0.003232442,0.004020251,-0.003882565,-0.003254891,0.00352361,-0.003265081
1.019268,0.08220313,0.05627536,0.0005025286,0.003610535,-0.005482325,-0.002861673,0.001635,-0.006483533
1.019106,0.08110202,0.05560916,0.0003384749,0.002535236,-0.006118683,-0.001221563,-0.0006463068,-0.003260678
1.019809,0.07928085,0.0549798,0.001040529,0.0007399624,-0.006715624,0.000841879,-0.001757161,0.0009678534
1.019135,0.07715597,0.05846163,0.0003654291,-0.001359067,-0.003198752,-0.0002461561,-0.00332228,-0.001025736
1.01967,0.07726227,0.059631,0.000900572,-0.001227038,-0.001991768,-0.0004363817,-0.003202379,-0.000613598
1.019342,0.07862287,0.06089368,0.0005720979,0.00015915,-0.0006890444,0.0001933844,0.0009569812,-0.002686923
1.019582,0.07813446,0.06256825,0.000813455,-0.0003038282,0.001027783,8.518044e-05,0.005282523,-0.004075687
1.020497,0.07731678,0.06106784,0.001729006,-0.00109629,-0.0004284251,-0.0006810741,0.009640257,0.001223624
1.020898,0.07647909,0.0604048,0.002131597,-0.001908978,-0.001045589,-0.005474165,0.0134829,0.005396862
1.021116,0.07541667,0.05966137,0.002351382,-0.002946595,-0.001741666,-0.008653248,0.01469753,0.002442081
1.020543,0.0760518,0.06249093,0.001779894,-0.002286799,0.00113652,-0.00646305,0.01009902,-0.005271758
1.020728,0.07482656,0.06637797,0.001965731,-0.003487416,0.005073228,-0.001468805,0.002635588,-0.008830713
1.019562,0.0743026,0.06608144,0.0008014291,-0.003986724,0.004827049,0.004208194,0.003810572,-0.00798567
1.016228,0.07640056,0.06612378,-0.002532,-0.001863975,0.004920021,0.003251609,0.00533405,-0.006294927
1.015111,0.07757261,0.06240044,-0.003647754,-0.000666927,0.00124719,-0.0007154199,0.001840827,-0.004386049
1.017756,0.08166379,0.05524068,-0.001001796,0.003449423,-0.005862425,-0.001303829,0.005171705,-0.001687225
1.020726,0.08332243,0.05389138,0.001968478,0.005133244,-0.007161952,-0.00414477,0.007532868,0.002087973
1.019393,0.08040165,0.06054962,0.0006366604,0.00223742,-0.0004541551,-0.003175031,0.004749565,0.0009191567
1.017926,0.07955508,0.06631609,-0.0008300086,0.001415345,0.005361667,0.002465534,0.001485722,0.0001172831
1.01935,0.07722275,0.06309155,0.0005950121,-0.0008930842,0.002186087,0.002842924,-0.002522818,0.001854734
1.019431,0.07677585,0.06093199,0.0006775686,-0.001316703,7.486719e-05,0.004605926,0.0009515418,-0.0007709652
1.019497,0.07797333,0.06324321,0.0007441856,-9.655589e-05,0.002433612,0.004422403,0.004020913,-0.0002439167
1.019756,0.07554591,0.06141462,0.001003478,-0.002501889,0.0006515897,-0.0007662133,0.0008535904,0.001002931
1.019858,0.07617918,0.05926474,0.001106737,-0.001847062,-0.001452779,-0.0001126393,0.001647642,-0.002164593
1.020683,0.07711117,0.05897796,0.001931574,-0.0008939723,-0.001695137,-0.001134354,0.001973217,-0.003288527
1.019875,0.07573236,0.05808009,0.001124194,-0.002252075,-0.002549653,-0.003283303,0.002415161,-0.003771612
1.019795,0.0766744,0.06024122,0.001043456,-0.00128968,-0.0003461944,-0.0003297428,0.004332785,-0.002806448
1.019842,0.07648868,0.06566407,0.001090453,-0.001455331,0.005117973,0.000849648,0.002819787,-0.001053245
1.018799,0.0760671,0.068798,4.615048e-05,-0.001857091,0.008292029,0.002480063,0.002940543,-0.002543535
1.019586,0.07726227,0.06467708,0.0008328084,-0.0006423157,0.004209738,0.003154995,0.002225004,-0.004471878
1.018522,0.07886376,0.05853533,-0.0002333153,0.0009785944,-0.001895143,0.001529326,-0.0007444209,-0.006786169
1.016464,0.08139393,0.05924573,-0.002292475,0.003527943,-0.001149687,-0.0003945159,-0.0009169502,-0.008015541
1.016522,0.08118325,0.06134755,-0.002236392,0.003336042,0.0009854203,-0.002434637,-0.0003018028,-0.006312406
1.015673,0.08063334,0.06172361,-0.003087749,0.002804343,0.00139305,0.0005849228,-7.658256e-05,-0.003571139
1.015588,0.08268864,0.06299535,-0.003174598,0.004877102,0.002694628,0.001070596,-0.0008990428,5.158451e-05
1.017941,0.08138452,0.06244687,-0.0008234283,0.003589503,0.002174189,-0.002170146,-0.001009839,5.939898e-05
1.019738,0.07779076,0.06661956,0.0009714751,1.1171e-05,0.006373045,-0.0001104275,0.002674619,-0.002699507
1.017186,0.07616007,0.07064739,-0.001582152,-0.00160524,0.01042498,0.003688348,0.005746034,-0.003013405
1.013682,0.07756614,0.06451255,-0.005087153,-0.000185988,0.004311883,0.007987351,0.002905643,-0.004708876
1.015897,0.08059072,0.06270642,-0.002872859,0.002850733,0.002524929,0.007035379,-0.00345408,-0.003402353
1.018731,0.08015434,0.06478477,-3.817907e-05,0.002425447,0.004619772,-0.0002041312,-0.006151564,0.001289758
1.019472,0.08051073,0.06298268,0.0007030879,0.002791804,0.002831466,-0.001995328,-0.00419861,-0.001212016
1.0203,0.08414926,0.06381574,0.001532281,0.006439075,0.003675577,-0.0005123628,-0.002029978,-0.003688843
1.019828,0.08431713,0.06365055,0.00106198,0.006614276,0.003518681,0.0001058625,-0.0003503822,-0.003179444
1.020677,0.08098242,0.06399662,0.001912647,0.003285282,0.003870304,-9.937655e-05,0.002921414,-0.004115585
1.019669,0.07604839,0.06542197,0.0009075877,-0.001644752,0.005298444,-0.001526021,0.005933451,-0.0001765742
1.016548,0.07421734,0.06468126,-0.002210865,-0.003473496,0.004557706,-0.002172054,0.006905447,0.002890719
1.017364,0.07653707,0.06632098,-0.001392219,-0.001152921,0.006194548,-0.0050581,0.00854973,0.001047637
1.017267,0.07832157,0.06687046,-0.001487037,0.0006311544,0.006738225,-0.006710653,0.00741084,-1.601657e-05
1.01769,0.08236981,0.06814741,-0.001060086,0.0046778,0.008006342,-0.003679739,0.004686954,-0.00338817
1.02027,0.08270842,0.06873818,0.001523521,0.0050136,0.008585118,-0.0004997748,0.005931901,-0.007478885
1.017676,0.07787594,0.06509968,-0.001067416,0.0001769957,0.004931318,0.002890507,0.005137974,-0.006217608
1.015315,0.07756534,0.06527374,-0.003424171,-0.0001390521,0.005086716,0.003997382,0.006024337,-0.002857745
1.016166,0.07736253,0.06478981,-0.002568769,-0.0003485705,0.004580777,0.003363947,0.0101571,-0.001295432
1.015146,0.07639681,0.06223136,-0.003584212,-0.001322123,0.001997036,0.006953125,0.007642837,0.001604357
1.015262,0.07776985,0.06093649,-0.003461965,4.209919e-05,0.0006737499,0.009291424,0.003283839,0.00270227
1.017433,0.08010589,0.06017153,-0.001285203,0.002368434,-0.0001225494,0.004801745,0.0009415143,-0.000906868
1.018836,0.08191325,0.06202809,0.0001244596,0.004165236,0.00170004,0.001368824,0.001682168,-0.001680295
1.01996,0.0798634,0.06202187,0.00125568,0.002103913,0.001657436,0.001741372,0.006047965,-0.0004419921
1.021131,0.08021134,0.06586527,0.00243489,0.002439433,0.005462226,-0.0001500569,0.007643086,-3.372989e-05
1.020787,0.08150735,0.071469,0.002099363,0.003722021,0.01102515,-0.00163666,0.008154345,-0.0003065112
1.018533,0.07964807,0.06578879,-0.0001454325,0.001848284,0.005301868,-0.001047322,0.004755955,-0.00138666
1.016854,0.08096099,0.05860601,-0.001815866,0.003145697,-0.001926323,-0.0006421102,-0.0009233147,0.0008416384
1.017432,0.08039834,0.05577818,-0.001228024,0.002566453,-0.0048017,0.0003250655,0.001658333,0.001833668
1.019297,0.07816307,0.05492081,0.0006459927,0.0003135092,-0.00570835,0.0001372867,0.003349047,-0.0006823217
1.019958,0.07773096,0.05741386,0.001316537,-0.0001372991,-0.003265805,0.0007452455,0.0007642462,-0.002159138
1.019182,0.07639716,0.060102,0.000550312,-0.001490708,-0.0006289649,0.002396751,0.001883936,-0.002051696
1.019219,0.07768528,0.06285966,0.000597053,-0.0002229583,0.002076895,0.002036098,0.002594156,-0.0004728033
1.018759,0.07889043,0.06402685,0.000146945,0.0009611956,0.003191949,0.000690061,0.003306751,0.0002482359
1.01758,0.07905392,0.0632475,-0.001022416,0.001103152,0.002360165,-0.0002232908,0.00454205,0.003160292
1.018223,0.07872325,0.06238368,-0.0003703133,0.0007504814,0.00144365,-0.0008491472,0.002887925,0.006276018
1.019187,0.07690811,0.060497,0.0006028072,-0.001087082,-0.0004958999,-0.002962608,0.0015816,0.002088019
1.019502,0.07800668,0.06074841,0.0009278548,-1.126414e-05,-0.0002974195,-0.002406691,-0.0006112771,-0.00218303
1.019639,0.07807767,0.06265256,0.001073671,3.675357e-05,0.001553881,2.760636e-05,-0.001525752,-0.002699433
1.019265,0.07725201,0.06519777,0.0007089438,-0.0008120094,0.004046429,0.0008841284,0.001823606,-0.00385389
1.019463,0.07825019,0.06920294,0.0009157806,0.0001630224,0.007999087,0.006745662,0.001351085,-0.005307386
1.019922,0.07752863,0.06746914,0.001383148,-0.0005816497,0.006212778,0.01041313,-0.000740484,-0.006344574
1.021072,0.07776117,0.06233798,0.0025412,-0.000372112,0.00102894,0.005275615,-7.974947e-05,-0.006238817
1.022515,0.07799816,0.06191428,0.003991091,-0.0001579394,0.0005523562,0.0007385533,-0.001393187,-0.005164718
1.020284,0.07765182,0.06029378,0.001767735,-0.0005268454,-0.001121121,-0.0004300866,-0.002028788,-0.003370831
1.016447,0.07929144,0.05573138,-0.002063247,0.001090511,-0.005736426,-0.001275814,-0.002644868,-0.0003973847
1.01532,0.0810899,0.05221445,-0.003184793,0.002867031,-0.009305835,-0.003820315,-0.004691243,0.001125291
1.015744,0.08186663,0.05247985,-0.002755491,0.003622068,-0.009092027,-0.004919315,-0.002426897,0.0003241233
1.017861,0.07833512,0.06230632,-0.000634607,6.90337e-05,0.0006841986,-0.004111599,0.001623904,0.0003479442
1.020231,0.07372507,0.07173481,0.0017399,-0.004562394,0.010064,-0.004334452,0.005515462,0.0002578948
1.018261,0.073815,0.06809117,-0.00022529,-0.00449354,0.006373036,-0.003921176,0.007890984,-0.000455706
1.01445,0.07412487,0.06232706,-0.004033114,-0.004204226,0.0005626908,-0.004576304,0.003505489,0.001482952
1.014079,0.0745885,0.06240961,-0.004400641,-0.003760386,0.0005999386,-0.005109739,-0.000817012,0.003426232
1.017379,0.07850728,0.06131671,-0.001096851,0.0001395512,-0.0005373462,-0.003787964,-0.0006159401,0.003316041
1.020756,0.08197513,0.05948054,0.0022846,0.003589572,-0.0024169,-0.0006856107,-0.0003330222,0.001514248
1.019665,0.08183972,0.05902151,0.001197247,0.003437236,-0.002918219,0.003534207,9.359409e-05,-0.002357369
1.017193,0.07913216,0.05771051,-0.00127118,0.0007135131,-0.004270225,0.00173537,-0.00130482,-0.004064763
1.016613,0.07686119,0.05818958,-0.001847365,-0.001572985,-0.00383068,-0.003072393,-0.003866781,-0.004542493
1.014695,0.07757026,0.05841647,-0.00376109,-0.0008787985,-0.003641647,-0.004731332,-0.003850588,-0.00572933
1.01528,0.07803135,0.05984334,-0.003171269,-0.0004319039,-0.002250783,-0.004489298,-0.00343503,-0.002794183
1.018847,0.07560858,0.06758298,0.0003997797,-0.002868151,0.005454757,-0.001751024,-0.004221427,0.001206643
1.019883,0.0749583,0.07101341,0.001440627,-0.003531101,0.008852867,0.0006892377,-0.004722328,0.0003054274
1.020644,0.07777023,0.06642379,0.002206517,-0.0007309339,0.004232368,0.002282144,-0.003261431,-0.0006257514
1.020746,0.08006897,0.06389408,0.002314314,0.001557016,0.001672906,0.002664506,-0.002257658,0.001864759
1.019801,0.07946166,0.06542886,0.001374861,0.0009398373,0.003178861,-0.0001768372,-0.002522445,0.002600376
1.019645,0.07848611,0.06589955,0.001223761,-4.473646e-05,0.003621519,-0.001251787,-0.0009500039,0.002006832
1.019915,0.07935431,0.06429141,0.001498762,0.0008152112,0.00198602,-0.0003220398,-3.999405e-05,0.002600255
1.021631,0.07840513,0.06404643,0.003219849,-0.000141496,0.001714216,2.981155e-05,-0.0005437254,0.001160414
1.02186,0.07707459,0.0636443,0.003452977,-0.001478879,0.001285745,0.0001781198,-0.001316801,-0.000957927
1.021918,0.07808754,0.06369016,0.003515488,-0.0004720917,0.001305702,-0.001109568,-0.002749272,-0.001438324
1.022373,0.07780323,0.06480695,0.003973632,-0.000761862,0.002396986,-0.002005944,-0.00245505,-0.003126002
1.019045,0.07757593,0.06479664,0.0006478934,-0.0009939359,0.002361517,-0.00166344,-0.001291989,-0.006142012
1.017269,0.07802049,0.06593741,-0.001125898,-0.0005534329,0.003477392,-0.001533862,-0.001746416,-0.005265029
1.018101,0.07740747,0.064904,-0.0002938337,-0.001169819,0.002419262,-0.001621793,-0.00398775,-0.001531383
1.01835,0.07697638,0.06284177,-4.466163e-05,-0.001603555,0.0003324019,-0.001762126,-0.00512076,-0.0002228978
1.019033,0.07631179,0.06224905,0.0006379619,-0.002270058,-0.0002848615,-0.00146977,-0.003156646,0.002487297
1.019467,0.07707415,0.05910223,0.001071008,-0.00150882,-0.00345609,-0.0009149048,-0.0008845318,0.00521773
1.019759,0.07875252,0.05859808,0.001361094,0.000169241,-0.003984342,0.001396319,0.0002829119,0.003045989
1.01941,0.07944883,0.06205522,0.001009675,0.0008660209,-0.0005508079,0.003774102,0.0002892012,0.001226773
1.020052,0.08055837,0.06576809,0.001648686,0.001976752,0.003139073,0.001801358,0.0002876633,0.00103194
1.020922,0.07920867,0.06639034,0.002514353,0.0006288219,0.003738906,-0.001081021,-0.0002727324,-0.000394259
1.020158,0.07669036,0.06372405,0.001746278,-0.001887211,0.001050667,-0.001641935,-0.002783277,-0.001830534
1.019786,0.07759944,0.06390377,0.001368859,-0.0009753673,0.00120881,-0.001714408,-0.005385562,-0.0009960886
1.016935,0.07744161,0.06240824,-0.001487745,-0.00112996,-0.0003079592,-0.001426361,-0.007621875,-1.316851e-05
1.016043,0.07561243,0.06173898,-0.002386769,-0.002955365,-0.0009981019,0.0001828006,-0.006520515,-0.0003198235
1.021133,0.07661863,0.06552363,0.002696107,-0.001944831,0.002766039,0.003863387,-0.002994743,0.001377827
1.022735,0.07765478,0.06435629,0.004290952,-0.000903721,0.001578571,0.006788896,-0.001718784,0.003047694
1.019448,0.07764611,0.06077674,0.0009956879,-0.0009067807,-0.002020779,0.004360682,-0.0001361273,0.00365068
1.017017,0.07773317,0.05732481,-0.001444869,-0.0008134851,-0.00549212,-0.000633417,0.002334451,0.003483904
1.017962,0.07581599,0.05770647,-0.0005084325,-0.002723791,-0.005129293,-0.004011798,0.004228351,0.002256827
1.019749,0.07437264,0.06265761,0.001268027,-0.004159599,-0.0001961639,-0.005574231,0.003675841,0.002352287
1.019189,0.07539342,0.06251681,0.0006972734,-0.003130526,-0.0003540369,-0.002745404,0.001212234,-0.000816007
1.019519,0.07659562,0.0615881,0.001016544,-0.001919182,-0.001298845,0.001937117,0.0004308369,-0.005093739
1.019678,0.07645199,0.05844396,0.001165161,-0.002052761,-0.004458076,0.002583367,-0.0009496235,-0.004317481
1.019029,0.07427571,0.05433894,0.0005044994,-0.004218069,-0.008577041,0.000368737,-0.001468631,-0.003351179
1.019799,0.07265072,0.06035705,0.001261773,-0.005831076,-0.002571501,-0.003124377,-0.003193638,-0.002332742
1.01933,0.07228552,0.06623442,0.0007808371,-0.006183142,0.00329484,-0.004181969,-0.009285807,-0.0006427328
1.01947,0.07235623,0.06751472,0.000908548,-0.00609798,0.004565573,-0.0008565139,-0.01034168,-0.0009193813
1.020473,0.0751078,0.06981299,0.001897938,-0.003330467,0.006855485,0.001465695,-0.008009899,-0.0004081434
1.020079,0.0769982,0.06868634,0.001490731,-0.001422553,0.005721346,0.002284127,-0.007240582,0.0006710539
1.020171,0.07458762,0.06429958,0.001568971,-0.003814058,0.001327621,0.00314642,-0.004505277,-3.193765e-06
1.01973,0.0728975,0.06171685,0.001114094,-0.005483545,-0.001261718,0.002116168,-0.003177968,-0.0008392139
1.01853,0.07488137,0.06059781,-0.00010062,-0.003477451,-0.002387047,0.0006983738,-0.004302055,-0.001428003
1.017637,0.07746985,0.0580724,-0.001008129,-0.0008651166,-0.004918355,0.003667886,-0.00490002,-0.001544668
1.017906,0.07810514,0.0569292,-0.0007546052,-0.000204411,-0.006066863,0.007359726,-0.003439647,0.0004838974
1.018512,0.07816424,0.05748944,-0.00016428,-0.0001184861,-0.005511113,0.004795596,0.001138537,0.001758754
1.017691,0.07892977,0.05837558,-0.001000163,0.0006751389,-0.004628419,0.001282983,0.005289897,-0.0005887527
1.018106,0.07822129,0.05999406,-0.0006003415,-4.184919e-06,-0.003012134,-0.000547304,0.004600342,-0.003065418
1.018125,0.07501762,0.05723817,-0.0005971499,-0.003177762,-0.005768843,-0.002033788,0.003293271,-0.002286935
1.016964,0.07404846,0.05447138,-0.001772753,-0.004115976,-0.008534918,-0.0007428828,0.007515467,0.0004501565
1.017594,0.07699756,0.05753224,-0.001157436,-0.001135069,-0.005471585,-0.0003172277,0.01013733,0.002294616
1.018111,0.07869333,0.05932458,-0.0006554183,0.0005933434,-0.003674818,0.0005243291,0.008292384,0.001414015
1.018089,0.08011398,0.05812693,-0.0006918555,0.002047333,-0.004865988,0.003000867,0.008237565,-0.002619437
1.017093,0.08075296,0.05804126,-0.001701566,0.002720162,-0.004943046,0.002980161,0.006913448,-0.004994529
1.016552,0.07646969,0.05919023,-0.002254999,-0.001528976,-0.00378328,0.00317099,0.004462222,-0.002201657
1.018677,0.07383512,0.06109775,-0.0001431011,-0.00412926,-0.001862746,0.002971592,0.004587513,0.0008188978
1.019947,0.07485573,0.06406904,0.001115008,-0.003074188,0.001123698,0.00198311,0.004604207,0.002377746
1.019595,0.07441215,0.06454981,0.0007521281,-0.003483079,0.001621601,0.001524259,0.002821338,0.004549161
1.019159,0.07326036,0.06228141,0.0003050949,-0.004599869,-0.0006279089,0.0005270859,0.002071327,0.005199801
1.019487,0.07348754,0.06309693,0.0006226556,-0.004337306,0.0002080449,0.003246396,0.003675248,0.002471651
1.018961,0.07548662,0.06628125,8.775858e-05,-0.002302362,0.003414143,0.005690075,0.002663179,-0.00036858
1.015553,0.07813979,0.06851775,-0.003329639,0.0003871693,0.005673516,0.001296354,0.000783296,-0.0005037478
1.013355,0.08167628,0.06606416,-0.005536409,0.003960424,0.003243557,-0.002203415,0.001039542,-0.002679125
1.015443,0.08318991,0.05928803,-0.003456296,0.00551098,-0.003508493,0.0003843612,0.002073105,-0.006558355
1.018914,0.08180744,0.05785579,7.78188e-06,0.004165281,-0.004916287,0.002261312,0.007263922,-0.005103999
1.019297,0.08171459,0.06211972,0.0003848333,0.00410872,-0.0006274851,-0.0001359785,0.01216498,-0.001869329
1.018852,0.07938193,0.06530582,-6.517155e-05,0.001811587,0.002583906,-0.00309093,0.01435403,-0.001113566
1.019191,0.0772917,0.06520459,0.0002690423,-0.0002440561,0.002508271,-0.006945956,0.01545302,-0.0007754295
1.017432,0.07899819,0.06489001,-0.001492902,0.001495987,0.002219393,-0.008511845,0.01074706,-0.002833951
1.017997,0.07815512,0.06776509,-0.0009309046,0.0006853748,0.005120058,-0.003208053,0.005488136,-0.005673013
1.019627,0.07637512,0.06819016,0.0006976858,-0.001063293,0.005570356,0.00295446,0.003865753,-0.00502832
1.019099,0.07531702,0.0659318,0.0001681426,-0.002091185,0.003336558,0.006090058,0.003233136,-0.00434377
1.019818,0.07469053,0.06469344,0.000886681,-0.002688533,0.002121869,0.00288901,0.003709527,-0.004113273
1.018825,0.07635084,0.06299618,-0.0001052216,-0.001000023,0.0004472431,-0.002944764,0.005033038,0.0003082547
1.016495,0.0775102,0.06248289,-0.002434842,0.0001866611,-4.451646e-05,-0.001908794,0.006888529,0.004861239
1.015091,0.0785672,0.06221759,-0.003837664,0.001270127,-0.0002893685,-0.001042247,0.004747092,0.00356543
1.015457,0.08056739,0.06196642,-0.00346991,0.003295864,-0.00052116,-0.0002067794,0.001404797,0.002050442
1.017728,0.08244701,0.06022113,-0.001195779,0.005199991,-0.00224808,0.003778936,0.002966334,0.003176557
1.016924,0.08254852,0.05697917,-0.00199547,0.005324771,-0.005472563,0.002985309,0.004583504,0.0006606873
1.018018,0.08049956,0.05869856,-0.0008972155,0.003297619,-0.003736403,0.002391922,0.005729158,-0.001300045
1.021653,0.07859291,0.0607983,0.002742722,0.001411154,-0.001620383,0.001144311,0.005740758,0.001677386
1.020833,0.07562548,0.0609662,0.001929714,-0.00153777,-0.001436559,-0.002421236,0.002126523,0.001754698
1.02003,0.07575382,0.06152382,0.001133523,-0.001392537,-0.0008633037,-0.0005337575,-1.821137e-05,0.0007666095
1.018467,0.07945416,0.05976712,-0.0004224609,0.002323186,-0.002604587,0.0002228024,0.0004222023,0.003779165
1.015576,0.07899615,0.06035533,-0.003305794,0.001879098,-0.002001139,0.0007603439,-0.0001079076,0.004788641
1.016351,0.07813307,0.06443488,-0.002523233,0.001028461,0.002093536,0.00361249,-0.002474198,0.0022724
1.016686,0.07773518,0.06794824,-0.002179587,0.0006415461,0.005621839,0.0003614002,-0.003508373,4.354983e-05
1.015902,0.07640991,0.06851566,-0.002954462,-0.0006741925,0.006203831,-0.002576908,-0.002576477,0.0007793939
1.016533,0.07744418,0.0680391,-0.00231394,0.0003682363,0.005741182,-0.0009252246,-0.002921991,0.005750611
1.016724,0.07670303,0.06978735,-0.002113277,-0.0003660408,0.00750236,-0.001226583,-0.003346953,0.00950268
1.016833,0.07522091,0.06702553,-0.001992293,-0.001842487,0.004752206,-0.003570803,-0.005205987,0.006520478
1.017484,-0.02850088,-0.1381753,-0.006632785,0.05863834,0.03620785,-0.3046665,0.2649539,-0.1666072
1.01922,-0.02770163,-0.1413255,-0.004437045,0.05676518,0.03215611,-0.3003886,0.2743966,-0.1599478
1.019356,-0.03066691,-0.1439521,-0.003849132,0.05116624,0.02860876,-0.299386,0.2682972,-0.1580931
1.017745,-0.02637066,-0.1450426,-0.005015162,0.05286914,0.02658083,-0.2930674,0.2655466,-0.1508227
1.01572,-0.01825656,-0.1461013,-0.006603416,0.05843164,0.02457017,-0.2809498,0.2715141,-0.1376857
1.015661,-0.01002833,-0.1508412,-0.006233253,0.06415106,0.01886626,-0.2830833,0.2676277,-0.1316699
1.015706,-0.01346251,-0.1524698,-0.005767513,0.05825153,0.01626398,-0.2832496,0.2602477,-0.1431121
1.015798,-0.02681042,-0.1497532,-0.005263924,0.04248231,0.01799961,-0.2780124,0.2492212,-0.1550856
1.018725,-0.03105822,-0.1499394,-0.001934238,0.03585808,0.01682754,-0.2773989,0.2472255,-0.1493063
1.021138,-0.02939357,-0.1501847,0.0008729001,0.03519231,0.01559353,-0.2702529,0.255918,-0.138283
1.022285,-0.02868073,-0.1506507,0.002404015,0.03362189,0.01413811,-0.2621029,0.2593008,-0.131174
1.020471,-0.02996045,-0.1493752,0.0009647288,0.03010718,0.01442552,-0.2580175,0.2652446,-0.1265654
1.015151,-0.03587653,-0.1411306,-0.003990715,0.02200536,0.02168516,-0.254423,0.2626333,-0.1220846
1.012544,-0.04169512,-0.1332067,-0.006244694,0.01405137,0.02862871,-0.2521794,0.2487297,-0.1139714
1.011403,-0.04619263,-0.1334242,-0.00704206,0.007470074,0.02743647,-0.2471179,0.2410095,-0.110107
1.011088,-0.04809815,-0.1364031,-0.007024252,0.003533731,0.02348953,-0.2374899,0.2380178,-0.1092677
1.014306,-0.04791756,-0.1358999,-0.003483677,0.001737887,0.02303209,-0.2147129,0.2414226,-0.1057903
1.016949,-0.0456433,-0.1404052,-0.0005275557,0.002091381,0.01757448,-0.1883497,0.250141,-0.1087565
1.016914,-0.04023099,-0.1495951,-0.0002598349,0.005639687,0.007441526,-0.1878152,0.2654077,-0.1145195
1.014786,-0.04139624,-0.1529076,-0.002095731,0.002667984,0.003196657,-0.2087881,0.2730987,-0.1236575
1.011327,-0.04375242,-0.153359,-0.005271686,-0.001436478,0.001825013,-0.2337604,0.2551239,-0.1413418
1.008848,-0.04207564,-0.1522683,-0.007477725,-0.001449309,0.002008904,-0.2487432,0.2345762,-0.1467963
1.009216,-0.04280341,-0.1510916,-0.006847312,-0.003807589,0.002293799,-0.2442424,0.2217281,-0.1397377
1.01125,-0.04124392,-0.1522743,-0.004558998,-0.003819197,0.0002354958,-0.2425154,0.225419,-0.1379979
1.012979,-0.04119091,-0.151417,-0.002585572,-0.005277685,0.000234442,-0.2480054,0.244176,-0.1363702
1.016421,-0.04252926,-0.1480383,0.001092069,-0.00806789,0.002773291,-0.2453949,0.2430578,-0.1313409
1.018097,-0.04076476,-0.1417819,0.002995869,-0.007695619,0.008208998,-0.250392,0.2332445,-0.1278478
1.016913,-0.0405401,-0.1370908,0.002029314,-0.008803679,0.01209928,-0.2567597,0.2240641,-0.1261638
1.01704,-0.03746171,-0.1375589,0.002365416,-0.006998761,0.01085039,-0.2553591,0.2107839,-0.1238794
1.015233,-0.03494968,-0.1402155,0.0007587753,-0.005701367,0.007433222,-0.2613066,0.2092055,-0.121901
1.017246,-0.03736197,-0.1420097,0.002962446,-0.009270052,0.004898853,-0.2565633,0.2086161,-0.1202015
1.02246,-0.03795544,-0.137131,0.008359375,-0.01096233,0.009057911,-0.2478943,0.2129114,-0.1175381
1.01993,-0.03683687,-0.1327348,0.006002287,-0.01088567,0.01275509,-0.2512802,0.2202763,-0.1171123
1.016501,-0.03488602,-0.1352621,0.002736571,-0.00992054,0.009549306,-0.2422719,0.21495,-0.1150972
1.014088,-0.03351999,-0.1370963,0.0004788826,-0.009484906,0.007056986,-0.2291527,0.2124709,-0.1111383
1.013266,-0.03470291,-0.137796,-0.0001981711,-0.01154383,0.005719412,-0.2191069,0.2046193,-0.1072599
1.018484,-0.03582741,-0.1391518,0.005156823,-0.01349096,0.003745866,-0.2092756,0.1947011,-0.1020515
1.020391,-0.03761852,-0.1421757,0.007191663,-0.01605228,0.0001243987,-0.2118276,0.2019767,-0.1047516
1.018764,-0.04223868,-0.1467119,0.005683054,-0.02139115,-0.004989029,-0.2117259,0.206467,-0.1095858
1.016747,-0.04458663,-0.14711,0.003776392,-0.0244071,-0.005943875,-0.2084683,0.2033924,-0.1068082
1.014614,-0.04190712,-0.1416564,0.001745939,-0.02234563,-0.001026362,-0.2115872,0.2009796,-0.1076497
1.017272,-0.04009488,-0.1369272,0.004496731,-0.02110219,0.003187662,-0.2114524,0.1981587,-0.1106256
1.020055,-0.03908578,-0.1388055,0.007365146,-0.02061357,0.0008149252,-0.2090212,0.1996362,-0.1097721
1.020478,-0.03979055,-0.1408893,0.007863975,-0.02179148,-0.001742808,-0.2037431,0.2044799,-0.1116537
1.020265,-0.04306482,-0.1397995,0.007719787,-0.02549255,-0.001106652,-0.1985991,0.2071807,-0.1114321
1.017301,-0.04133561,-0.1404243,0.004816504,-0.02414483,-0.002164795,-0.2014826,0.2021765,-0.1028275
1.014535,-0.03900894,-0.140499,0.002102172,-0.0221553,-0.002653017,-0.2049413,0.1982842,-0.09610306
1.016551,-0.03925656,-0.1398948,0.004163165,-0.02269684,-0.002442447,-0.2014899,0.2068994,-0.09841692
1.019535,-0.03767652,-0.1414639,0.007184005,-0.02136865,-0.004385646,-0.196952,0.2144319,-0.100653
1.017484,-0.03708203,-0.1446759,0.005161838,-0.02098517,-0.007952441,-0.1967344,0.2108243,-0.09727704
1.015408,-0.03681413,-0.1484447,0.00310771,-0.02088875,-0.0120567,-0.1952452,0.2043651,-0.09429209
1.014689,-0.03879283,-0.1463875,0.002403848,-0.02300067,-0.01031574,-0.1931571,0.1982961,-0.09016734
1.013084,-0.04077853,-0.1374068,0.0008073769,-0.02508263,-0.001632025,-0.1936696,0.1909903,-0.08521006
1.015794,-0.0394472,-0.1307138,0.003520345,-0.02381179,0.004782956,-0.1920919,0.1877025,-0.0873424
1.019514,-0.04213786,-0.1313589,0.007236172,-0.02652833,0.003878058,-0.190722,0.1872453,-0.09090737
1.020987,-0.04181311,-0.1349423,0.008699486,-0.02619599,5.240455e-05,-0.1889483,0.1807069,-0.09154243
1.019479,-0.038506,-0.1342268,0.007176457,-0.02284895,0.0005424125,-0.1837517,0.173802,-0.08841427
1.01478,-0.04109681,-0.1352655,0.002456435,-0.02536866,-0.0007056235,-0.1803627,0.1722769,-0.07911507
1.014989,-0.04084282,-0.1390263,0.002638223,-0.02501361,-0.004660184,-0.1790474,0.1688625,-0.0749132
1.016987,-0.04126441,-0.1335062,0.004605235,-0.02530534,0.0006813519,-0.1787112,0.1619143,-0.07372338
1.017451,-0.04392618,-0.1310102,0.00503297,-0.02780956,0.003013231,-0.1789746,0.157402,-0.06769798
1.019499,-0.0400525,-0.1396578,0.00703882,-0.02375176,-0.005784569,-0.1783796,0.1586543,-0.06637445
1.018479,-0.03772637,-0.145341,0.005973827,-0.02121606,-0.0116045,-0.1787499,0.1602905,-0.06837144
1.016693,-0.03908688,-0.1463534,0.004137469,-0.02234281,-0.01274027,-0.1769917,0.1596138,-0.06840204
1.01675,-0.03910499,-0.1449775,0.004140278,-0.02210419,-0.01147467,-0.1700856,0.1586935,-0.06856276
1.017521,-0.03914602,-0.1436034,0.004852391,-0.02186677,-0.01019768,-0.1630961,0.1551607,-0.0682657
1.019567,-0.04052425,-0.1399777,0.006836319,-0.02294602,-0.006656006,-0.1630057,0.1510963,-0.06719156
1.01908,-0.04246806,-0.1315389,0.006283832,-0.02457148,0.001711385,-0.1674761,0.1455506,-0.06643277
1.016613,-0.04136759,-0.1278612,0.003747476,-0.02313434,0.005329844,-0.167966,0.1387598,-0.066694
1.014618,-0.0394123,-0.1305598,0.001680119,-0.0208251,0.002583274,-0.1658275,0.1373706,-0.06490368
1.015127,-0.03877787,-0.1371946,0.002113445,-0.01982054,-0.004089124,-0.1621846,0.1330047,-0.06398446
1.018215,-0.03847182,-0.1421094,0.005123581,-0.01912932,-0.009031657,-0.1556083,0.1234915,-0.06777137
1.020177,-0.03945816,-0.142989,0.00700438,-0.01971655,-0.009929492,-0.1493254,0.1236423,-0.07028846
1.022141,-0.0404484,-0.1459054,0.008885812,-0.02029486,-0.01285478,-0.1453777,0.135835,-0.07066721
1.021717,-0.04385738,-0.1448204,0.008375801,-0.02328009,-0.01176947,-0.1473242,0.1507323,-0.07246835
1.018535,-0.04686607,-0.1394965,0.00510615,-0.02585409,-0.006435984,-0.1510536,0.1533369,-0.07388011
1.016716,-0.04310789,-0.1353521,0.0031968,-0.02165105,-0.002273158,-0.1547276,0.1371957,-0.06869065
1.014567,-0.04017565,-0.1335023,0.0009548913,-0.01826454,-0.0003964204,-0.1605857,0.1212198,-0.06214012
1.014804,-0.04192927,-0.1359385,0.001097609,-0.01955535,-0.002797772,-0.1549262,0.1187687,-0.06377649
1.01611,-0.04247222,-0.1384597,0.002308202,-0.01962784,-0.005276806,-0.1417617,0.1242588,-0.06457512
1.014761,-0.04298711,-0.1405557,0.0008622531,-0.01966545,-0.007323723,-0.1382807,0.1292386,-0.06211086
1.015286,-0.04513443,-0.1393623,0.001289041,-0.02132946,-0.00607471,-0.1396688,0.1253437,-0.05923616
1.015802,-0.04428402,-0.1362001,0.001706201,-0.01999041,-0.002850579,-0.1403454,0.1192859,-0.05396621
1.015747,-0.04107305,-0.1395653,0.001552437,-0.01628617,-0.006148088,-0.1376916,0.1183071,-0.05567211
1.017224,-0.03986356,-0.1414817,0.002930224,-0.01457953,-0.0079912,-0.1331686,0.1172061,-0.05973254
1.016717,-0.04000946,-0.1396509,0.002323619,-0.01422523,-0.006081797,-0.1311597,0.1185024,-0.06005814
1.016501,-0.04072671,-0.1394896,0.002008828,-0.01444006,-0.005836935,-0.1264861,0.1193122,-0.06399693
1.017886,-0.0412542,-0.1359523,0.003294885,-0.01446371,-0.00221131,-0.1244614,0.1175227,-0.06321856
1.018348,-0.04159255,-0.1321444,0.003658169,-0.01429753,0.001689184,-0.1268276,0.1179286,-0.05827324
1.019398,-0.04210844,-0.1354321,0.004609748,-0.0143089,-0.001502115,-0.1261534,0.1177539,-0.05665037
1.021412,-0.04134775,-0.1412012,0.006526129,-0.01304434,-0.007171484,-0.1279731,0.1195137,-0.05279231
1.022486,-0.04143813,-0.1424802,0.007502661,-0.01263213,-0.008347707,-0.1286985,0.1191009,-0.05374222
1.020218,-0.04076429,-0.1416575,0.005137698,-0.01145761,-0.007419412,-0.1252951,0.114886,-0.05786676
1.016653,-0.03780932,-0.1424915,0.001475618,-0.008004497,-0.008144927,-0.1244378,0.115754,-0.05550735
1.01623,-0.03709621,-0.1433391,0.0009559353,-0.006796452,-0.008881427,-0.1212392,0.1150261,-0.05482344
1.017212,-0.03750411,-0.1428817,0.001841565,-0.006713346,-0.008310248,-0.1148105,0.1132911,-0.05215542
1.018444,-0.03758753,-0.1413618,0.002977589,-0.006310389,-0.006674024,-0.1105673,0.1141802,-0.04740859
1.019981,-0.0379215,-0.1412193,0.004419881,-0.006163281,-0.006412837,-0.1107911,0.1116815,-0.04962344
1.019271,-0.03906929,-0.1416008,0.003615772,-0.006835887,-0.006673271,-0.1127393,0.1094848,-0.04932923
1.017287,-0.04051534,-0.1391992,0.001538745,-0.007813191,-0.00414848,-0.1143273,0.1072243,-0.04853069
1.016312,-0.03753635,-0.1381479,0.0004708872,-0.004372344,-0.002972178,-0.117388,0.1047226,-0.05013909
1.016677,-0.03407862,-0.1402023,0.0007442233,-0.0004601221,-0.004899952,-0.1147922,0.1012488,-0.04504711
1.017817,-0.0354388,-0.140538,0.001794233,-0.00137375,-0.005107527,-0.1098859,0.09286206,-0.04018284
1.018253,-0.03675088,-0.1390955,0.002140946,-0.002247772,-0.0035359,-0.1082575,0.08924739,-0.03940772
1.018052,-0.03603762,-0.1393956,0.001851488,-0.001105459,-0.003705859,-0.1038196,0.09258852,-0.03827428
1.018371,-0.03586385,-0.1424527,0.002083564,-0.0005120792,-0.006632106,-0.102947,0.09791917,-0.03752974
1.019843,-0.03598873,-0.1446868,0.003470078,-0.0002272118,-0.008734717,-0.1036834,0.09992811,-0.03768968
1.021055,-0.03427411,-0.1400873,0.004597805,0.001886905,-0.004003119,-0.1030611,0.08849673,-0.03585537
1.019235,-0.03266153,-0.1334179,0.002694521,0.003888315,0.002798696,-0.1063801,0.07356686,-0.0284547
1.017445,-0.0333154,-0.1344854,0.0008229674,0.003612195,0.001863694,-0.1026605,0.0716591,-0.02335436
1.019867,-0.03360031,-0.1375085,0.003165148,0.003693542,-0.001027188,-0.09324823,0.08280032,-0.02694879
1.021125,-0.03316467,-0.1372132,0.004343924,0.004483574,-0.0006004781,-0.08847645,0.09591837,-0.0305432
1.017057,-0.03297017,-0.1365883,0.0001978183,0.005020288,0.0001549088,-0.08974482,0.09650091,-0.03001698
1.0139,-0.03164055,-0.1338984,-0.003036505,0.00667964,0.002974028,-0.09492965,0.08749673,-0.02955774
1.015367,-0.0304747,-0.1324863,-0.001644175,0.008162434,0.004513681,-0.09257217,0.08276044,-0.02971514
1.016847,-0.03354987,-0.1339097,-0.0002383025,0.005391117,0.00321582,-0.08749577,0.08232877,-0.03091896
1.016308,-0.03906412,-0.1341763,-0.0008484863,0.000167461,0.003072419,-0.08757701,0.07999274,-0.03276127
1.01586,-0.04152759,-0.1347143,-0.001366483,-0.002018676,0.00265475,-0.0843541,0.07917235,-0.03204608
1.015126,-0.04186914,-0.1337237,-0.002169452,-0.002095921,0.003762738,-0.08018345,0.08427238,-0.0309605
1.014925,-0.0418136,-0.1302085,-0.002435489,-0.001788789,0.007392001,-0.07620808,0.08764118,-0.02819089
1.015689,-0.04052044,-0.1263742,-0.001735543,-0.0002564382,0.01133666,-0.07161551,0.08486583,-0.0236018
1.015486,-0.03714876,-0.1229763,-0.001999747,0.003342313,0.01484066,-0.07111847,0.07889314,-0.02321471
1.017441,-0.03252373,-0.1240119,-0.0001036193,0.008182452,0.01390633,-0.07029827,0.0714628,-0.02314452
1.021597,-0.03235569,-0.1288904,0.003995606,0.008553653,0.009123682,-0.06883693,0.06889789,-0.02656226
1.022443,-0.03461398,-0.1325131,0.00478786,0.006486482,0.00559091,-0.06878178,0.06572993,-0.03360503
1.019196,-0.03365859,-0.1326834,0.001488658,0.007620911,0.005504365,-0.06736012,0.05757926,-0.0321409
1.015116,-0.03412956,-0.1312629,-0.002640642,0.00731693,0.007002425,-0.06607348,0.06092572,-0.02986658
1.014774,-0.0352327,-0.1318374,-0.003031048,0.006368747,0.00649917,-0.06521316,0.06857025,-0.0290357
1.016869,-0.03386646,-0.1314596,-0.00098137,0.007878013,0.006941812,-0.06435353,0.06647891,-0.02351689
1.01766,-0.03257384,-0.129607,-0.0002341466,0.00930182,0.008852805,-0.06437774,0.06365257,-0.0215987
1.018,-0.03117131,-0.1298262,6.361593e-05,0.01082375,0.008685475,-0.06560292,0.05746275,-0.01899468
1.016355,-0.0319316,-0.1293351,-0.001620815,0.0101711,0.009221689,-0.06830476,0.0524926,-0.0131526
1.014977,-0.03259214,-0.1301003,-0.003035381,0.009606476,0.00849492,-0.06834763,0.05658271,-0.01379782
1.018009,-0.03121758,-0.1340077,-3.804716e-05,0.01106528,0.004619056,-0.06474095,0.05653955,-0.01488562
1.020565,-0.03229896,-0.1358015,0.002484475,0.01005656,0.002850105,-0.06309028,0.04998731,-0.01160186
1.019692,-0.03209459,-0.135612,0.001580789,0.01032212,0.00305796,-0.06307772,0.04572042,-0.01046423
1.020131,-0.03162576,-0.1333479,0.001991541,0.0108408,0.005334011,-0.06255218,0.05124106,-0.0107926
1.023276,-0.033568,-0.1294728,0.005109353,0.008937208,0.009215032,-0.06246289,0.05809621,-0.01179874
1.023753,-0.03432988,-0.1290462,0.005559902,0.008203002,0.009641588,-0.06094611,0.05299518,-0.01423171
1.020631,-0.03584207,-0.1280002,0.002414248,0.006707768,0.01068136,-0.0594028,0.04795606,-0.01320256
1.01847,-0.03564613,-0.123968,0.0002293335,0.006910298,0.01470122,-0.06018507,0.04433766,-0.0107359
1.018304,-0.0340619,-0.1270264,4.137561e-05,0.008491124,0.01162422,-0.0596081,0.03825347,-0.01203155
1.018147,-0.03489518,-0.1351345,-0.0001372881,0.007644763,0.003491077,-0.05568985,0.04138036,-0.01461509
1.016286,-0.03443017,-0.1364574,-0.002018698,0.008087377,0.002136838,-0.05193245,0.04529468,-0.01548191
1.013729,-0.03246182,-0.1323847,-0.004595331,0.01002431,0.006172226,-0.05237201,0.04222871,-0.008906626
1.012769,-0.02972757,-0.1274512,-0.005574154,0.01271837,0.01106281,-0.05462793,0.03959236,0.004128224
1.017193,-0.0282886,-0.1238615,-0.001167644,0.01410858,0.014604,-0.05648618,0.03526812,0.01304172
1.025109,-0.02948954,-0.1221952,0.006732088,0.01285035,0.01621609,-0.05854761,0.03105158,0.02094734
1.026159,-0.02928222,-0.1230766,0.007767373,0.01299199,0.01527464,-0.05505774,0.03047853,0.02526729
1.023224,-0.02909371,-0.1289922,0.004818656,0.0131065,0.009292857,-0.0494872,0.02928037,0.01607595
1.023398,-0.03025041,-0.1281839,0.004979807,0.01186764,0.01002896,-0.04847607,0.02732936,0.00604379
1.021496,-0.03093139,-0.119658,0.003064047,0.01109651,0.01847656,-0.04487358,0.02260943,0.0005342527
1.015658,-0.03154771,-0.1196756,-0.00278714,0.01038231,0.01837458,-0.04104178,0.0170898,-0.00391366
1.010958,-0.03293895,-0.1229651,-0.007499334,0.0088857,0.01499439,-0.03884751,0.01859789,-0.001435188
1.013557,-0.03694675,-0.1221729,-0.004912991,0.004765422,0.01568944,-0.0328702,0.02001365,0.0004739146
1.017366,-0.04152848,-0.1223747,-0.001116488,6.459314e-05,0.01538389,-0.03103455,0.01691815,-0.001574934
1.01516,-0.04076576,-0.1240085,-0.00333291,0.0007022442,0.0136398,-0.03103719,0.01679755,-0.001202033
1.017355,-0.03659186,-0.1246405,-0.001148285,0.004745804,0.01289087,-0.02799463,0.01732794,-0.001267427
1.021298,-0.03516243,-0.123414,0.002785478,0.006040218,0.01399414,-0.02956211,0.01685472,-0.0003373586
1.019002,-0.03217464,-0.1237937,0.0004806424,0.008888756,0.01348473,-0.03099602,0.01704429,0.004030678
1.019006,-0.02722733,-0.1266256,0.0004776321,0.01369286,0.01051705,-0.031373,0.01359076,0.009188797
1.020072,-0.02882771,-0.1286838,0.001535929,0.01194543,0.008316943,-0.03580504,0.007631498,0.01310285
1.019021,-0.03045189,-0.1287293,0.0004790125,0.01017044,0.008123986,-0.04036647,0.004300833,0.01272706
1.019216,-0.028544,-0.1282021,0.0006686703,0.01192385,0.008498363,-0.04227143,0.008513675,0.00756492
1.017745,-0.03168531,-0.1287915,-0.00080763,0.008624507,0.00775127,-0.0369607,0.01507742,0.001478673
1.016658,-0.03577808,-0.1293664,-0.001899841,0.004370363,0.007014044,-0.03139615,0.01120493,0.001035238
1.020191,-0.03739922,-0.1302096,0.001629672,0.002584836,0.006004403,-0.03440069,0.008011041,0.003421524
1.023629,-0.0381491,-0.1311856,0.005063573,0.001668038,0.004858232,-0.03473283,0.01332302,-0.0001850596
1.022294,-0.03687885,-0.1326114,0.003725326,0.00276933,0.003259036,-0.03144636,0.01333875,-0.005245105
1.019905,-0.03660638,-0.1353423,0.001333177,0.002871311,0.0003519759,-0.0311101,0.01096261,-0.006493991
1.01847,-0.03617175,-0.1354138,-0.0001059532,0.003134357,0.0001021695,-0.03074447,0.008390454,-0.003287335
1.016115,-0.03522763,-0.1349011,-0.00246399,0.00390618,0.0004349271,-0.03222288,0.003908626,0.00297999
1.017903,-0.0348211,-0.1389759,-0.0006798257,0.004140044,-0.00382067,-0.03342466,0.007119982,0.004749574
1.020836,-0.03227336,-0.1404791,0.002249974,0.006515029,-0.005505017,-0.02899174,0.01322869,0.004218419
1.018129,-0.03095777,-0.1327846,-0.0004597554,0.007657981,0.002008731,-0.02485202,0.0156845,0.0056713
1.017336,-0.02990989,-0.1264017,-0.001256102,0.008533439,0.008211842,-0.0260053,0.01494406,0.006416673
1.018478,-0.02813228,-0.1286912,-0.0001175394,0.01013888,0.005743749,-0.02665176,0.01268898,0.005348166
1.016855,-0.02991311,-0.1286738,-0.001744221,0.008186136,0.005583631,-0.02416302,0.01434317,0.003513534
1.016439,-0.03123992,-0.1249164,-0.002162239,0.006687651,0.009164926,-0.02311514,0.01496485,0.006391907
1.017045,-0.03189825,-0.1260729,-0.001559445,0.005857951,0.007833584,-0.02166133,0.01399397,0.008643551
1.018456,-0.03230542,-0.1264108,-0.0001506176,0.005279832,0.007322072,-0.01853667,0.01522636,0.003483873
1.020085,-0.02954481,-0.1239488,0.00147582,0.007870057,0.009611747,-0.01682321,0.01512014,9.917415e-05
1.01949,-0.02906071,-0.1251034,0.0008791527,0.008184393,0.008285996,-0.01579953,0.01620055,0.0008014056
1.01864,-0.03148866,-0.1269389,2.813119e-05,0.005587348,0.006280506,-0.01568998,0.01598332,0.001336835
1.016925,-0.03413898,-0.1315356,-0.001688587,0.002768695,0.001514996,-0.01446474,0.01169611,0.003920506
1.015002,-0.03496406,-0.1384692,-0.00361185,0.001776203,-0.005586071,-0.01271827,0.009542006,0.01107739
1.017734,-0.03077587,-0.1351895,-0.000880987,0.005798136,-0.00247203,-0.01381433,0.008583717,0.0154626
1.021831,-0.02878629,-0.12804,0.003215664,0.00762278,0.004514036,-0.01445912,0.007745529,0.01163609
1.021144,-0.03363696,-0.127845,0.002528379,0.00260856,0.004548126,-0.01470135,0.008997244,0.01010852
1.019937,-0.03772976,-0.1292984,0.001322475,-0.001646278,0.002936386,-0.01286524,0.009744507,0.01136054
1.01975,-0.03519358,-0.132262,0.00113512,0.0007296285,-0.0001829274,-0.008345673,0.008236634,0.00878354
1.01549,-0.03147066,-0.1364971,-0.003124239,0.004294329,-0.004570957,-0.007891104,0.00390319,0.009849169
1.013168,-0.03191726,-0.1384565,-0.00544621,0.003691733,-0.006680087,-0.01109705,-0.0005641414,0.01610734
1.017796,-0.03125337,-0.1344304,-0.0008171894,0.004201933,-0.002800242,-0.01467384,0.0009593586,0.01813995
1.021674,-0.03085476,-0.1263009,0.003062125,0.004449199,0.005187006,-0.01291806,0.004758903,0.01611579
1.020307,-0.03261046,-0.1286066,0.001695784,0.002544543,0.002743019,-0.007811477,0.003428768,0.01532841
1.018122,-0.03184658,-0.1339557,-0.0004871324,0.003161909,-0.002740477,-0.008535892,-0.001072705,0.01242017
1.017908,-0.03175295,-0.130913,-0.0006997704,0.003111518,0.000171872,-0.009531767,-0.003827589,0.01133531
1.016628,-0.03185591,-0.1309487,-0.001977597,0.002867099,9.847476e-06,-0.01029492,0.002254245,0.01269336
1.01684,-0.0302686,-0.1309876,-0.001764239,0.004315553,-0.0001510901,-0.01150174,0.00977071,0.008510168
1.019638,-0.030767,-0.1295772,0.00103585,0.003680891,0.001141393,-0.01059315,0.002446266,0.009619552
1.020031,-0.033436,-0.1308865,0.001431476,0.0008782454,-0.0002817293,-0.01550798,-0.005006358,0.01432464
1.019534,-0.03601074,-0.1275401,0.0009373017,-0.001827457,0.002955076,-0.02003058,-0.004159677,0.01395216
1.016402,-0.03588858,-0.1260444,-0.002191479,-0.001833409,0.004345259,-0.01856075,-0.008703595,0.01623245
1.013359,-0.03429677,-0.1311217,-0.005231743,-0.0003666545,-0.0008335536,-0.01444368,-0.00742891,0.01510176
1.01626,-0.03258643,-0.1375091,-0.002328198,0.001221865,-0.007318734,-0.008522059,0.00286305,0.01311899
