accx,accy,accz,subject,activity
0.1881076,0.7867169,0.5719042,1,6
0.1900625,0.7862243,0.5730728,1,6
0.190812,0.7869899,0.5735939,1,6
0.1894438,0.7897924,0.5756323,1,6
0.1878185,0.7910426,0.5752675,1,6
0.1862884,0.7897928,0.5733235,1,6
0.1873128,0.7884423,0.5740189,1,6
0.1885165,0.7843387,0.574373,1,6
0.1880124,0.781358,0.5751595,1,6
0.1898361,0.7870995,0.5752362,1,6
0.1900367,0.7931665,0.5735745,1,6
0.1871269,0.7919484,0.5734398,1,6
0.1874528,0.7914384,0.5726826,1,6
0.1886946,0.7922617,0.5723863,1,6
0.1889127,0.7890187,0.5752131,1,6
0.188989,0.7871617,0.5791237,1,6
0.1877064,0.7868138,0.5837655,1,6
0.1873145,0.785404,0.5861577,1,6
0.1873515,0.7867251,0.5807176,1,6
0.1863846,0.7880699,0.5716622,1,6
0.1850684,0.7890216,0.5699569,1,6
0.1845542,0.7895343,0.5694539,1,6
0.186687,0.7881981,0.5624127,1,6
0.1881883,0.7891301,0.5627721,1,6
0.1881533,0.7891508,0.5725807,1,6
0.1908898,0.7883622,0.5787106,1,6
0.1938947,0.7893741,0.5773368,1,6
0.1917398,0.7882993,0.5753571,1,6
0.1887961,0.7870317,0.5806614,1,6
0.1896385,0.7865656,0.5827673,1,6
0.1864303,0.7891247,0.5766651,1,6
0.1813707,0.7932535,0.5736188,1,6
0.1844867,0.7907321,0.5737276,1,6
0.1878606,0.7879289,0.5740702,1,6
0.187444,0.7884586,0.5735471,1,6
0.188827,0.7868944,0.5743327,1,6
0.1900066,0.7863586,0.5770452,1,6
0.1899281,0.786346,0.5774456,1,6
0.1877894,0.7854429,0.5798479,1,6
0.1849681,0.7853461,0.5813002,1,6
0.1859868,0.7835966,0.5791767,1,6
0.1867625,0.7832055,0.5789007,1,6
0.1854357,0.7864312,0.5781308,1,6
0.1853154,0.7882425,0.5772778,1,6
0.1846585,0.7878436,0.5757983,1,6
0.184675,0.7881805,0.5736317,1,6
0.1870991,0.7899951,0.574121,1,6
0.1887997,0.7899708,0.5745601,1,6
0.1892318,0.7881938,0.574494,1,6
0.189033,0.7888815,0.5748589,1,6
0.1895467,0.7892587,0.574975,1,6
0.1908211,0.7883311,0.5730105,1,6
0.189907,0.7883785,0.57063,1,6
0.1882077,0.7879398,0.5718501,1,6
0.1872581,0.7880265,0.5734508,1,6
0.1869404,0.7875435,0.5733911,1,6
0.1872036,0.7860428,0.5709664,1,6
0.186639,0.7865345,0.5692065,1,6
0.1874339,0.7880364,0.5739325,1,6
0.1881675,0.7902052,0.5780243,1,6
0.1872878,0.7908295,0.5756637,1,6
0.1894016,0.7888547,0.5734397,1,6
0.191117,0.7886935,0.5736838,1,6
0.189689,0.7894068,0.5714614,1,6
0.1884131,0.7905093,0.5683232,1,6
0.1874236,0.7920248,0.5667232,1,6
0.1890117,0.7890915,0.5655302,1,6
0.1912761,0.7834578,0.568482,1,6
0.1902358,0.7810431,0.5737729,1,6
0.1898477,0.7837031,0.578674,1,6
0.1899433,0.7869141,0.5798826,1,6
0.18642,0.7866727,0.5749536,1,6
0.1826142,0.7884094,0.5734201,1,6
0.1837206,0.7913227,0.5716161,1,6
0.1887543,0.7892928,0.5722729,1,6
0.1932297,0.7869303,0.5804601,1,6
0.1939644,0.7866909,0.5777135,1,6
0.1925255,0.7862067,0.5740555,1,6
0.192949,0.787715,0.576518,1,6
0.193131,0.7899209,0.5737839,1,6
0.1905383,0.789643,0.576127,1,6
0.1876957,0.7893922,0.5761146,1,6
0.1849301,0.7899771,0.5715501,1,6
0.1833874,0.7901533,0.5716981,1,6
0.1843661,0.79037,0.570041,1,6
0.1858179,0.7893385,0.571643,1,6
0.1867552,0.7883988,0.5749781,1,6
0.1870933,0.7889008,0.57678,1,6
0.1882572,0.7878471,0.5784749,1,6
0.188689,0.7863822,0.5768564,1,6
0.1869263,0.7865961,0.577465,1,6
0.1872954,0.7870379,0.5746317,1,6
0.1880017,0.7870091,0.5703589,1,6
0.186755,0.7873153,0.5736048,1,6
0.1860066,0.7881131,0.5740911,1,6
0.1851879,0.78787,0.5722629,1,6
0.1859495,0.7871662,0.5721616,1,6
0.1868309,0.7860579,0.5723391,1,6
0.1855988,0.7853895,0.5743612,1,6
0.1864778,0.7866908,0.5753124,1,6
0.1886141,0.7855855,0.5757516,1,6
0.1907918,0.782943,0.5774678,1,6
0.1925035,0.7826088,0.5782852,1,6
0.1905747,0.785736,0.5717934,1,6
0.1895908,0.7906784,0.5639359,1,6
0.1900116,0.7885454,0.5697609,1,6
0.1865631,0.7856331,0.5753973,1,6
0.1835608,0.7887657,0.5716331,1,6
0.1844653,0.7883904,0.5743303,1,6
0.1853733,0.78846,0.5783337,1,6
0.1853355,0.7898432,0.5758955,1,6
0.1889726,0.7881132,0.5759538,1,6
0.1934659,0.7887527,0.5771856,1,6
0.1918795,0.7874099,0.5769121,1,6
0.190479,0.7846432,0.5779081,1,6
0.1911628,0.7849802,0.5769945,1,6
0.1880834,0.7842031,0.574785,1,6
0.1865362,0.7840358,0.574876,1,6
0.187919,0.7846345,0.5749337,1,6
0.1869982,0.7864046,0.5740257,1,6
0.1846181,0.7895709,0.5728755,1,6
0.1826889,0.7890093,0.5713001,1,6
0.1829369,0.7889969,0.5710069,1,6
0.1846615,0.7916531,0.5711605,1,6
0.1866504,0.7918045,0.568593,1,6
0.1899817,0.7897581,0.5666982,1,6
0.190591,0.7883138,0.5689741,1,6
0.189404,0.7899607,0.5702602,1,6
0.190531,0.7920374,0.5705496,1,6
0.1882188,0.7925206,0.5716587,1,6
0.184564,0.7932501,0.5703352,1,6
0.1848119,0.7922086,0.5711848,1,6
0.1854591,0.7911259,0.5743497,1,6
0.1861581,0.7918261,0.5760271,1,6
0.1845466,0.7919078,0.5766149,1,6
0.1824246,0.7922866,0.5724087,1,6
0.1853706,0.7917677,0.5699322,1,6
0.1897178,0.7879218,0.5741969,1,6
0.1925916,0.7852433,0.5777594,1,6
0.1910119,0.7886498,0.5779715,1,6
0.187156,0.791375,0.5747152,1,6
0.1875914,0.7873108,0.5726545,1,6
0.1885324,0.7847369,0.5737446,1,6
0.1889116,0.7864455,0.5737621,1,6
0.1893159,0.7864038,0.5733927,1,6
0.1884286,0.7859333,0.5726153,1,6
0.1892415,0.7875085,0.5720428,1,6
0.1899462,0.789263,0.5721597,1,6
0.1900181,0.7891802,0.5722391,1,6
0.1898275,0.7879568,0.5720074,1,6
0.1884193,0.7886219,0.5702199,1,6
0.1897342,0.7895955,0.5697519,1,6
0.1909962,0.7885286,0.5728335,1,6
0.1895701,0.7888971,0.5761424,1,6
0.1885201,0.7902336,0.5745796,1,6
0.1870854,0.7899863,0.5722243,1,6
0.1872973,0.7892448,0.5740361,1,6
0.1889485,0.7871509,0.5727872,1,6
0.1888711,0.7870312,0.569844,1,6
0.1889412,0.7897525,0.5684102,1,6
0.1889354,0.7888214,0.5656421,1,6
0.1889091,0.7864733,0.5663757,1,6
0.1899619,0.7861493,0.5674831,1,6
0.1904469,0.7869156,0.5660355,1,6
0.1903714,0.7889162,0.5668444,1,6
0.1899964,0.7892638,0.567575,1,6
0.1891749,0.7885895,0.5698977,1,6
0.1878627,0.7886663,0.5735985,1,6
0.1869762,0.7871023,0.5725276,1,6
0.1876612,0.7858469,0.572061,1,6
0.1876541,0.7881362,0.5763472,1,6
0.1872359,0.7912062,0.5790564,1,6
0.1877015,0.7906453,0.5787391,1,6
0.1870824,0.7887838,0.5788094,1,6
0.1856432,0.7896033,0.5784341,1,6
0.1846728,0.7899868,0.5766764,1,6
0.1861594,0.7891947,0.576588,1,6
0.1885406,0.7897296,0.5772918,1,6
0.187506,0.7895034,0.5753169,1,6
0.1864065,0.7882935,0.5745902,1,6
0.1858797,0.7868675,0.5772071,1,6
0.1855329,0.784732,0.5783319,1,6
0.1905509,0.784796,0.5772106,1,6
0.1935387,0.788019,0.5740567,1,6
0.1897201,0.791138,0.5683755,1,6
0.1887956,0.7908111,0.5661464,1,6
0.1891466,0.7887383,0.5728698,1,6
0.1874226,0.7887823,0.582267,1,6
0.1875594,0.7867527,0.5851367,1,6
0.1874468,0.7836946,0.5833282,1,6
0.1873739,0.7873696,0.5786645,1,6
0.1877903,0.7909396,0.572948,1,6
0.1872035,0.7901892,0.574241,1,6
0.1880026,0.7915091,0.57661,1,6
0.1893508,0.7904624,0.5738984,1,6
0.1906017,0.7866741,0.5737959,1,6
0.1907529,0.787293,0.5730339,1,6
0.1896776,0.7880219,0.5701693,1,6
0.1903454,0.7870723,0.5719253,1,6
0.189565,0.7876757,0.5754233,1,6
0.1880276,0.7877376,0.5782253,1,6
0.1880904,0.7882064,0.5760936,1,6
0.1861885,0.7893557,0.5716007,1,6
0.1848472,0.7888791,0.5747654,1,6
0.1858123,0.7886923,0.5762908,1,6
0.1871258,0.7890637,0.5746033,1,6
0.1880281,0.7888231,0.5790647,1,6
0.1871804,0.7888641,0.5810405,1,6
0.1864251,0.788948,0.5769449,1,6
0.1868301,0.7888424,0.5737875,1,6
0.1893808,0.7889042,0.5754996,1,6
0.193013,0.7888997,0.5775969,1,6
0.1915359,0.7883337,0.5748542,1,6
0.1879762,0.7862226,0.574493,1,6
0.1871531,0.7842604,0.5754285,1,6
0.1857488,0.7863555,0.5732526,1,6
0.1831696,0.7895783,0.5718182,1,6
0.1803184,0.7890574,0.5709065,1,6
0.1806515,0.7884569,0.5741568,1,6
0.1861293,0.7890645,0.5776112,1,6
0.1904376,0.7878611,0.573399,1,6
0.1910547,0.7871513,0.5698721,1,6
0.1899787,0.7875848,0.5711676,1,6
0.1897616,0.7875152,0.5731301,1,6
0.1899475,0.7873302,0.574832,1,6
0.1882626,0.7865649,0.5754642,1,6
0.1885583,0.7858674,0.5748772,1,6
0.1878553,0.7860246,0.5747953,1,6
0.1830951,0.7864296,0.5747486,1,6
0.1819148,0.7873415,0.5719931,1,6
0.1864314,0.7894612,0.5690635,1,6
0.1915793,0.7910527,0.5697681,1,6
0.1911739,0.7900473,0.5733106,1,6
0.1899167,0.7890325,0.5750567,1,6
0.1928804,0.7884337,0.5698441,1,6
0.1926868,0.7859525,0.5667027,1,6
0.1925523,0.784231,0.5780332,1,6
0.1939557,0.7857183,0.5893528,1,6
0.191714,0.7885878,0.5829323,1,6
0.1890132,0.7894401,0.5731926,1,6
0.1841234,0.7886715,0.5715276,1,6
0.1820642,0.7888887,0.5690997,1,6
0.1869585,0.7889571,0.566626,1,6
0.1883825,0.7888111,0.5648088,1,6
0.1875716,0.7893252,0.5648321,1,6
0.1893052,0.7906008,0.569209,1,6
0.1907563,0.7922635,0.5697491,1,6
0.1904709,0.7906249,0.5691328,1,6
0.188834,0.7849527,0.5689457,1,6
0.1897158,0.7810343,0.5671251,1,6
0.1934773,0.7851225,0.5692342,1,6
0.1960576,0.7916617,0.5716858,1,6
0.1918401,0.7905469,0.5740698,1,6
0.1843273,0.7883719,0.5737691,1,6
0.1846396,0.7897743,0.5705786,1,6
0.1853272,0.7903047,0.573498,1,6
0.1818633,0.7921827,0.5762565,1,6
0.1826605,0.7919165,0.577939,1,6
0.185966,0.7889535,0.579042,1,6
0.1912945,0.7889094,0.5758215,1,6
0.1942465,0.7886919,0.5745407,1,6
0.1923155,0.7893953,0.5717069,1,6
0.1934231,0.7919226,0.5704611,1,6
0.1942505,0.7928625,0.5722527,1,6
0.1939824,0.7910223,0.5690839,1,6
0.1936473,0.7874254,0.5710287,1,6
0.1888985,0.7886141,0.5750566,1,6
0.1844664,0.7900284,0.5744158,1,6
0.1824373,0.7880764,0.5765579,1,6
0.1829534,0.7897542,0.5783225,1,6
0.1842144,0.789262,0.5811023,1,6
0.1834624,0.7873072,0.5812166,1,6
0.1870794,0.7895197,0.5753562,1,6
0.1911454,0.7901038,0.5745941,1,6
0.1895222,0.7901226,0.5750216,1,6
0.1880945,0.7902495,0.5743903,1,6
0.1880209,0.7879023,0.5738431,1,6
0.1873188,0.7852251,0.5713546,1,6
0.1863106,0.7841989,0.5741246,1,6
0.1859937,0.7857334,0.575794,1,6
0.1863163,0.7866547,0.5719267,1,6
0.1869139,0.7859035,0.5689879,1,6
0.1879213,0.7864202,0.5689205,1,6
0.1875066,0.7883752,0.5737829,1,6
0.1872612,0.7911417,0.5762694,1,6
0.1877602,0.7922607,0.5765574,1,6
0.1873353,0.790597,0.5791025,1,6
0.1875385,0.7897667,0.5774836,1,6
0.1877437,0.7904637,0.5764343,1,6
0.1882717,0.7901762,0.5751269,1,6
0.1892882,0.7894028,0.5704916,1,6
0.1885493,0.7898052,0.5719031,1,6
0.1865677,0.7913057,0.5735743,1,6
0.1839103,0.7922157,0.5721805,1,6
0.1829028,0.7909966,0.5741498,1,6
0.1854651,0.7887784,0.5740138,1,6
0.1879783,0.786796,0.5728849,1,6
0.1887644,0.7861088,0.573781,1,6
0.18987,0.78646,0.5713438,1,6
0.1907178,0.7861891,0.5686478,1,6
0.1902065,0.7878102,0.5696075,1,6
0.1897581,0.7896235,0.5725423,1,6
0.1881425,0.7876561,0.5751859,1,6
0.1841842,0.7860771,0.576967,1,6
0.1822805,0.7860504,0.579413,1,6
0.1835125,0.7858249,0.5801689,1,6
0.1838455,0.7853954,0.5812911,1,6
0.1842397,0.7846898,0.5830634,1,6
0.187072,0.7865773,0.576474,1,6
0.1893303,0.789252,0.5695645,1,6
0.1898714,0.7882358,0.5739446,1,6
0.1904844,0.7841904,0.5779743,1,6
0.1902162,0.7804667,0.5759922,1,6
0.1889939,0.7805696,0.5770043,1,6
0.1878534,0.7823222,0.5787078,1,6
0.187117,0.7853208,0.5768023,1,6
0.1875204,0.7905597,0.5748759,1,6
0.1877021,0.7897703,0.572221,1,6
0.1872948,0.7860659,0.5712544,1,6
0.1877623,0.787225,0.5735347,1,6
0.18844,0.786033,0.5747357,1,6
0.1890449,0.7852238,0.5768666,1,6
0.1891079,0.7871704,0.577237,1,6
0.1886238,0.786253,0.5757066,1,6
0.188981,0.7895626,0.5773809,1,6
0.1889884,0.7933739,0.5742357,1,6
0.1890579,0.7906581,0.5698107,1,6
0.190831,0.7877411,0.5738464,1,6
0.1916252,0.7851822,0.5762145,1,6
0.1887888,0.7848329,0.5756556,1,6
0.184594,0.7865527,0.5768557,1,6
0.1839477,0.787617,0.5726044,1,6
0.1859923,0.7896828,0.5704199,1,6
0.1881763,0.7887849,0.5742542,1,6
0.1911841,0.7867515,0.5720133,1,6
0.1909868,0.7875461,0.5733064,1,6
0.1895825,0.7869425,0.5786951,1,6
0.1925595,0.7841929,0.5756673,1,6
0.1934552,0.7826582,0.5748121,1,6
0.1908929,0.7857067,0.5739799,1,6
0.1898617,0.790133,0.5690265,1,6
0.1900359,0.7915622,0.5681524,1,6
0.1906579,0.79209,0.5677729,1,6
0.1898197,0.7912013,0.5685374,1,6
0.1873646,0.7896096,0.5701942,1,6
0.1828684,0.7887642,0.571835,1,6
0.1795794,0.7880106,0.5734102,1,6
0.1849651,0.7866779,0.572421,1,6
0.1898647,0.7810848,0.5739714,1,6
0.1873354,0.7771979,0.574307,1,6
0.1878141,0.7804447,0.5736756,1,6
0.1908195,0.7841411,0.575734,1,6
0.1903837,0.7868935,0.5739925,1,6
0.1896451,0.7869316,0.5740247,1,6
0.188727,0.78525,0.579371,1,6
0.1868514,0.7872107,0.5826897,1,6
0.1872478,0.7873775,0.5790847,1,6
0.1882214,0.7860382,0.5745627,1,6
0.1880524,0.7870578,0.5808334,1,6
0.1891577,0.7861151,0.590582,1,6
0.1892354,0.7855425,0.593163,1,6
0.1885763,0.7866173,0.5868329,1,6
0.1900609,0.7859551,0.5781818,1,6
0.1905773,0.7859581,0.5799199,1,6
0.1901537,0.7863846,0.5781526,1,6
0.1903369,0.7858945,0.5673874,1,6
0.1900321,0.7863619,0.567162,1,6
0.1894458,0.7870688,0.5708084,1,6
0.1893168,0.7872812,0.5734763,1,6
0.1923022,0.7859481,0.5785268,1,6
0.1956624,0.7840797,0.5773933,1,6
0.1930678,0.7854964,0.5770004,1,6
0.1883855,0.7869053,0.5788249,1,6
0.1868422,0.7858145,0.5771652,1,6
0.1872773,0.786343,0.5778012,1,6
0.1878857,0.7881757,0.5776017,1,6
0.1874233,0.7892148,0.5746561,1,6
0.1872679,0.7891783,0.5730999,1,6
0.1885175,0.7879896,0.5735527,1,6
0.1909149,0.7863006,0.5759405,1,6
0.1940868,0.7840927,0.5767927,1,6
0.1936942,0.7842906,0.5763206,1,6
0.1916366,0.786621,0.5760579,1,6
0.1918116,0.7869444,0.5744869,1,6
0.1899102,0.7874466,0.5732058,1,6
0.18911,0.7870502,0.5729877,1,6
0.1894931,0.7852663,0.5721589,1,6
0.186471,0.7866677,0.5702578,1,6
0.187108,0.7881907,0.5705376,1,6
0.188853,0.788793,0.5724734,1,6
0.1888392,0.7885798,0.5715681,1,6
0.1928602,0.7866627,0.5695222,1,6
0.1938951,0.7873443,0.5674861,1,6
0.1912776,0.7869353,0.5671807,1,6
0.1907504,0.7841881,0.5679113,1,6
0.1899531,0.783786,0.565289,1,6
0.1900133,0.783869,0.5662236,1,6
0.1896921,0.7866679,0.5717979,1,6
0.1883181,0.7900053,0.5757836,1,6
0.1891167,0.7872554,0.5782666,1,6
0.1899969,0.7855121,0.5765894,1,6
0.1901515,0.789994,0.5738907,1,6
0.1896029,0.7931441,0.5731198,1,6
0.1882246,0.7912442,0.5714546,1,6
0.1879426,0.789278,0.5706945,1,6
0.1875281,0.7888478,0.5700027,1,6
0.1873239,0.788562,0.5693619,1,6
0.1892022,0.7887517,0.5714473,1,6
0.1918291,0.7871822,0.5758663,1,6
0.193079,0.7852924,0.5771673,1,6
0.1896435,0.7865131,0.5755045,1,6
0.1846849,0.7882152,0.577939,1,6
0.184317,0.789145,0.57673,1,6
0.1826253,0.7897477,0.5738712,1,6
0.1799213,0.7911956,0.5769896,1,6
0.1850212,0.7934405,0.5752854,1,6
0.1896468,0.7908644,0.5746087,1,6
0.1873024,0.7871798,0.5773509,1,6
0.1876306,0.7878192,0.5751298,1,6
0.1926411,0.783348,0.5721389,1,6
0.1954603,0.7777475,0.5680138,1,6
0.1934919,0.7850155,0.5684918,1,6
0.1903023,0.7923666,0.5701455,1,6
0.1901043,0.7882012,0.5669645,1,6
0.1913628,0.785715,0.570721,1,6
0.1916666,0.7869117,0.5756556,1,6
0.1907536,0.7856207,0.5765755,1,6
0.1889042,0.7870276,0.5762156,1,6
0.1885468,0.7884975,0.5747143,1,6
0.1891377,0.7878115,0.5797264,1,6
0.1889585,0.7893759,0.583819,1,6
0.1897845,0.7887586,0.5816963,1,6
0.191332,0.7860293,0.5815144,1,6
0.1940336,0.7833609,0.581703,1,6
0.1977101,0.7806903,0.5793101,1,6
0.1974262,0.782526,0.5760449,1,6
0.1935084,0.7854517,0.5739952,1,6
0.1902266,0.7871527,0.5722029,1,6
0.1879154,0.7878842,0.5735659,1,6
0.1869861,0.7843568,0.5788337,1,6
0.1879562,0.782513,0.5789262,1,6
0.1894221,0.7844426,0.5786351,1,6
0.1910207,0.785111,0.5822551,1,6
0.1923674,0.7854671,0.5809911,1,6
0.1928145,0.7882302,0.5792124,1,6
0.1914768,0.7924188,0.5803514,1,6
0.1885537,0.7920729,0.5787802,1,6
0.1885079,0.7885688,0.5776768,1,6
0.1904108,0.7864743,0.5787113,1,6
0.1902368,0.7827979,0.5800828,1,6
0.1903286,0.7808828,0.5822458,1,6
0.190181,0.7829947,0.5793719,1,6
0.1891584,0.785619,0.5732389,1,6
0.1886925,0.7884073,0.573929,1,6
0.1877387,0.7880442,0.5785231,1,6
0.1874158,0.7866157,0.5812846,1,6
0.1881656,0.7877653,0.5795042,1,6
0.1910264,0.7867323,0.576067,1,6
0.1939706,0.7848748,0.5780795,1,6
0.1914964,0.7833647,0.578177,1,6
0.1889892,0.7793827,0.5749836,1,6
0.1909029,0.7788237,0.5754577,1,6
0.1924572,0.7836997,0.5766833,1,6
0.1931371,0.7875901,0.5792411,1,6
0.1931097,0.788171,0.5796581,1,6
0.1909518,0.7864805,0.5763493,1,6
0.1896943,0.7837633,0.5753674,1,6
0.190353,0.7812052,0.5742403,1,6
0.190399,0.7812587,0.5729275,1,6
0.1901895,0.7833496,0.5712823,1,6
0.1902948,0.7843672,0.5705183,1,6
0.1897456,0.7860027,0.5757279,1,6
0.1876183,0.7843956,0.5811023,1,6
0.1854273,0.7803904,0.5820763,1,6
0.1867211,0.7837923,0.5776594,1,6
0.1887526,0.7863005,0.5728238,1,6
0.1890442,0.7840147,0.5740401,1,6
0.1905582,0.7857538,0.5705904,1,6
0.1908823,0.7863294,0.5653633,1,6
0.1892674,0.7839959,0.5728401,1,6
0.1886979,0.7833013,0.5805649,1,6
0.1872014,0.7848108,0.5778164,1,6
0.1872089,0.7871324,0.5777719,1,6
0.1900379,0.7861231,0.585069,1,6
0.1905352,0.7849928,0.5882764,1,6
0.190252,0.7840136,0.5833522,1,6
0.1900125,0.7813877,0.5783967,1,6
0.1880677,0.7847753,0.5798959,1,6
0.186326,0.7904985,0.5805671,1,6
0.1858659,0.7897486,0.5782815,1,6
0.1886402,0.7846773,0.5827815,1,6
0.1923767,0.7803047,0.5848566,1,6
0.1936209,0.7816925,0.579477,1,6
0.1933265,0.785012,0.5767982,1,6
0.1925433,0.7847552,0.5737586,1,6
0.1929088,0.7859983,0.5724465,1,6
0.191487,0.7884474,0.5733394,1,6
0.1889231,0.7885494,0.5731266,1,6
0.1886773,0.7865748,0.5768984,1,6
0.1875778,0.7836999,0.5770575,1,6
0.2445142,0.9502907,0.1741417,11,6
0.2446238,0.9477933,0.1760255,11,6
0.2455519,0.949285,0.1804649,11,6
0.2460483,0.952067,0.1804769,11,6
0.248106,0.9537189,0.1814495,11,6
0.2484674,0.952332,0.1825414,11,6
0.2469544,0.9504576,0.1858203,11,6
0.2452967,0.9498839,0.1864559,11,6
0.2453219,0.948591,0.181782,11,6
0.2466536,0.9484877,0.1825901,11,6
0.2450249,0.9477463,0.1826096,11,6
0.2439105,0.9467019,0.1792321,11,6
0.242878,0.9487221,0.1800058,11,6
0.241338,0.9534268,0.1781589,11,6
0.2427219,0.958767,0.1732262,11,6
0.2440203,0.9569791,0.1736311,11,6
0.2464838,0.9504497,0.1784677,11,6
0.246357,0.947747,0.1836617,11,6
0.2426265,0.9463478,0.185399,11,6
0.2422876,0.947732,0.1806205,11,6
0.2415055,0.9503011,0.1753234,11,6
0.2425365,0.9495917,0.1742727,11,6
0.2458882,0.9487759,0.1734312,11,6
0.2461782,0.948131,0.1732324,11,6
0.2478592,0.9496753,0.1740495,11,6
0.2487178,0.9507862,0.1739595,11,6
0.2467757,0.9493171,0.1762038,11,6
0.2453549,0.9503375,0.1788185,11,6
0.2453854,0.9500824,0.1778977,11,6
0.2465149,0.9494088,0.1775983,11,6
0.2460611,0.949283,0.1804399,11,6
0.2482883,0.9461316,0.1838007,11,6
0.2502998,0.9453309,0.1853369,11,6
0.2442395,0.9459742,0.1834392,11,6
0.2387867,0.9459782,0.1798612,11,6
0.239925,0.9472237,0.1782119,11,6
0.242101,0.9490429,0.1773161,11,6
0.2415969,0.950854,0.1766015,11,6
0.2415977,0.9496077,0.1790003,11,6
0.2433634,0.9477521,0.18252,11,6
0.2447242,0.9475451,0.1814568,11,6
0.2466061,0.9484993,0.1759081,11,6
0.245859,0.9504474,0.1725816,11,6
0.2442292,0.9475069,0.1756695,11,6
0.2449917,0.9449783,0.1815276,11,6
0.2449772,0.9497361,0.1842236,11,6
0.2457987,0.9525178,0.1850484,11,6
0.2444553,0.9495504,0.1865223,11,6
0.2418354,0.9476587,0.1851954,11,6
0.2435087,0.9497036,0.1820467,11,6
0.2442646,0.9507256,0.1775873,11,6
0.2442697,0.9492044,0.1715503,11,6
0.24487,0.9482787,0.1714318,11,6
0.24429,0.9468544,0.1752447,11,6
0.2454152,0.946574,0.1761398,11,6
0.2462479,0.9469535,0.1765599,11,6
0.2457104,0.9454378,0.1767593,11,6
0.2458173,0.9465147,0.1769443,11,6
0.2458497,0.9483974,0.1780935,11,6
0.2458518,0.9488561,0.1768188,11,6
0.2458083,0.9515414,0.1750113,11,6
0.2458303,0.9528374,0.1758413,11,6
0.2458743,0.9512604,0.1766584,11,6
0.2457715,0.9495583,0.176495,11,6
0.2458871,0.947925,0.1762461,11,6
0.2454545,0.9486282,0.1758408,11,6
0.2440299,0.9503981,0.173856,11,6
0.2425556,0.9516517,0.1714237,11,6
0.2427881,0.9529629,0.1733938,11,6
0.2438689,0.950137,0.17725,11,6
0.2446239,0.9464589,0.1777159,11,6
0.2461024,0.9479917,0.1752353,11,6
0.2454215,0.9493133,0.1725352,11,6
0.2440467,0.9485643,0.1733238,11,6
0.2474991,0.9494207,0.1753254,11,6
0.2504983,0.9504112,0.1775145,11,6
0.2488483,0.9502234,0.1819401,11,6
0.246361,0.950665,0.1811147,11,6
0.2452335,0.9518126,0.1772548,11,6
0.245876,0.9516908,0.1778703,11,6
0.246105,0.9517611,0.1773845,11,6
0.2455601,0.9524094,0.1773611,11,6
0.2459544,0.9508263,0.1765008,11,6
0.2458683,0.948976,0.1706286,11,6
0.2455353,0.9476761,0.1715226,11,6
0.2450644,0.9465266,0.1766619,11,6
0.2439166,0.9474212,0.175838,11,6
0.2434578,0.9473162,0.1737673,11,6
0.243384,0.9459008,0.1721265,11,6
0.2445743,0.9463919,0.1743401,11,6
0.2465989,0.9483655,0.1789537,11,6
0.2460312,0.950852,0.1771773,11,6
0.2452747,0.9502997,0.1758905,11,6
0.2463886,0.9484091,0.177269,11,6
0.2467135,0.9495568,0.1756264,11,6
0.2472477,0.9486396,0.1750882,11,6
0.2472712,0.9446183,0.1738081,11,6
0.2450459,0.9427637,0.1725979,11,6
0.2445383,0.9461852,0.1753372,11,6
0.2470921,0.9507499,0.1747797,11,6
0.2497181,0.949512,0.1717691,11,6
0.2493346,0.9493795,0.1712536,11,6
0.2467993,0.9520284,0.1737944,11,6
0.2455796,0.9508645,0.1780794,11,6
0.2450492,0.9501241,0.1767845,11,6
0.2443081,0.9486912,0.1748903,11,6
0.2427355,0.9477986,0.1767144,11,6
0.2425192,0.9511517,0.1750289,11,6
0.2449448,0.9512967,0.1746592,11,6
0.2458776,0.9508054,0.1757362,11,6
0.2485362,0.9521111,0.175088,11,6
0.251025,0.9510233,0.1763614,11,6
0.2473262,0.9513017,0.1751831,11,6
0.2437213,0.9517445,0.1736512,11,6
0.2422712,0.9511964,0.1734418,11,6
0.2419255,0.9524937,0.1716334,11,6
0.2419939,0.9530455,0.1729027,11,6
0.2414743,0.9527396,0.1756735,11,6
0.2437311,0.9527629,0.1771854,11,6
0.2451308,0.9525533,0.1758507,11,6
0.2442508,0.9519802,0.1720354,11,6
0.2444461,0.9506824,0.1704455,11,6
0.2447753,0.9495009,0.1709223,11,6
0.2462936,0.9485217,0.1748971,11,6
0.2477473,0.9490814,0.1776969,11,6
0.2471834,0.9507393,0.1760778,11,6
0.2457076,0.9498023,0.177007,11,6
0.2439964,0.9486872,0.1798862,11,6
0.2434762,0.9487799,0.1820691,11,6
0.244484,0.9486516,0.1808507,11,6
0.2449724,0.9505436,0.1797309,11,6
0.2438838,0.95206,0.1832303,11,6
0.2434889,0.9511392,0.1837674,11,6
0.2431683,0.9503408,0.1830319,11,6
0.2428915,0.9498249,0.1836333,11,6
0.2454315,0.9495465,0.183187,11,6
0.2472527,0.9483767,0.1844639,11,6
0.2468465,0.9467568,0.1849581,11,6
0.2443188,0.948629,0.1828668,11,6
0.2401287,0.9529089,0.175884,11,6
0.2400185,0.955114,0.1689896,11,6
0.2426394,0.9541606,0.1760365,11,6
0.2443861,0.952754,0.1863628,11,6
0.2449217,0.9524082,0.1850078,11,6
0.2441385,0.950816,0.1818939,11,6
0.2444651,0.9484818,0.1821176,11,6
0.2442594,0.9482506,0.1815295,11,6
0.2424328,0.9488343,0.1817766,11,6
0.2412931,0.9486058,0.180381,11,6
0.241918,0.948339,0.1781517,11,6
0.2449129,0.9477922,0.1793674,11,6
0.2474308,0.9469411,0.1794429,11,6
0.2476267,0.947074,0.178789,11,6
0.2468412,0.9474793,0.179091,11,6
0.2458313,0.9470971,0.1768914,11,6
0.2438786,0.9475238,0.1740583,11,6
0.2414997,0.9488069,0.1732951,11,6
0.2420861,0.9484374,0.1754708,11,6
0.2428286,0.9458771,0.1779889,11,6
0.2408699,0.9440751,0.1797943,11,6
0.2396584,0.9454803,0.1828049,11,6
0.2394338,0.9489931,0.1824544,11,6
0.2422047,0.9524789,0.1800905,11,6
0.2468638,0.9511535,0.180696,11,6
0.2464229,0.9448304,0.1794142,11,6
0.2449249,0.942058,0.1740049,11,6
0.2463156,0.9437233,0.1695971,11,6
0.245905,0.9451385,0.1724147,11,6
0.2454431,0.945325,0.1800434,11,6
0.2455146,0.9473691,0.1844075,11,6
0.242069,0.9515953,0.18644,11,6
0.2394865,0.9502355,0.1832306,11,6
0.2418565,0.9480195,0.1748381,11,6
0.2441888,0.9505883,0.1740339,11,6
0.2426575,0.9520471,0.1772671,11,6
0.240672,0.955041,0.1770024,11,6
0.2406547,0.9561354,0.1778768,11,6
0.2423979,0.9516215,0.1792704,11,6
0.2473551,0.9481035,0.1777125,11,6
0.2501306,0.9462312,0.1738222,11,6
0.247298,0.9471986,0.1719161,11,6
0.2438712,0.948067,0.171127,11,6
0.2416075,0.9476047,0.1725618,11,6
0.2453255,0.9501073,0.1800325,11,6
0.2503982,0.9504738,0.1846673,11,6
0.2450756,0.9495324,0.1845683,11,6
0.2404804,0.9503084,0.1821787,11,6
0.2428924,0.9498646,0.1781776,11,6
0.2416863,0.9499883,0.1786757,11,6
0.2398961,0.9501157,0.1779251,11,6
0.2410609,0.9498356,0.1760106,11,6
0.2417928,0.9501546,0.1801143,11,6
0.2435322,0.949724,0.1831344,11,6
0.2435959,0.949303,0.1810351,11,6
0.2422811,0.949287,0.1783095,11,6
0.2434563,0.9502454,0.1774039,11,6
0.2431728,0.951489,0.1761113,11,6
0.242973,0.9521741,0.1755904,11,6
0.2453002,0.9532378,0.1762536,11,6
0.2461297,0.9532215,0.1733315,11,6
0.2460165,0.9547138,0.1693138,11,6
0.2456567,0.9591282,0.165778,11,6
0.2462691,0.9597424,0.1661033,11,6
0.2488261,0.9543346,0.1719081,11,6
0.2505093,0.9476536,0.1742869,11,6
0.2504458,0.9464836,0.176352,11,6
0.2485911,0.9514078,0.1782597,11,6
0.2450434,0.9540679,0.1738625,11,6
0.2394145,0.9516389,0.1719051,11,6
0.237906,0.9467889,0.1768756,11,6
0.2443926,0.9422164,0.1828713,11,6
0.246446,0.9430735,0.1825224,11,6
0.2407187,0.9494946,0.1789544,11,6
0.235563,0.956709,0.1792864,11,6
0.2350735,0.9608202,0.1793518,11,6
0.2371019,0.9590611,0.1806621,11,6
0.235671,0.9557036,0.1820473,11,6
0.2347857,0.9540826,0.1790494,11,6
0.235181,0.950352,0.1759318,11,6
0.2341902,0.9489213,0.1730042,11,6
0.2363987,0.9518745,0.1752456,11,6
0.2382608,0.9524559,0.1819158,11,6
0.2390517,0.9520662,0.1835488,11,6
0.2398423,0.9496172,0.1828917,11,6
0.2404887,0.9456431,0.180746,11,6
0.2452191,0.9470642,0.1789388,11,6
0.2470565,0.9486331,0.183628,11,6
0.2452205,0.9493971,0.1879475,11,6
0.2457742,0.9532726,0.1860966,11,6
0.2450142,0.9532342,0.184263,11,6
0.2440637,0.9497788,0.1847209,11,6
0.2444489,0.9480045,0.1827004,11,6
0.2443494,0.9466366,0.1802161,11,6
0.2432228,0.9470209,0.1808493,11,6
0.2408507,0.947775,0.1823623,11,6
0.2397817,0.9475294,0.1838919,11,6
0.24128,0.9508387,0.1843147,11,6
0.2458837,0.9534123,0.1856307,11,6
0.249804,0.9492784,0.1864307,11,6
0.2469723,0.9455522,0.1806736,11,6
0.2424884,0.9471516,0.1777957,11,6
0.2422038,0.9480867,0.1811423,11,6
0.2395928,0.9469307,0.180646,11,6
0.2314633,0.9497578,0.1804734,11,6
0.2270616,0.9550889,0.1829025,11,6
0.2296897,0.9590049,0.1834526,11,6
0.2329166,0.960337,0.1836724,11,6
0.2346454,0.9563974,0.1825615,11,6
0.2366558,0.9512832,0.1797952,11,6
0.239392,0.9462736,0.1751924,11,6
0.2426352,0.9420303,0.1742861,11,6
0.2440764,0.9473114,0.1864932,11,6
0.2426482,0.9550304,0.1969774,11,6
0.2427902,0.9561018,0.1890685,11,6
0.2434351,0.9586555,0.1758426,11,6
0.2415302,0.9600087,0.1725776,11,6
0.2400992,0.9528949,0.1777993,11,6
0.2365139,0.94774,0.1825112,11,6
0.2305636,0.9505011,0.1800522,11,6
0.228294,0.9535837,0.1773889,11,6
0.2307089,0.9531597,0.1804661,11,6
0.2329214,0.9481836,0.1811987,11,6
0.2299372,0.9423086,0.1815242,11,6
0.2289152,0.9447214,0.1842132,11,6
0.2341875,0.9514707,0.1863993,11,6
0.2381377,0.9535214,0.1919642,11,6
0.2400306,0.9529795,0.1898371,11,6
0.2417808,0.9515569,0.1791271,11,6
0.2400811,0.9508653,0.1755389,11,6
0.2323649,0.9518697,0.1780493,11,6
0.2266577,0.9506216,0.1811818,11,6
0.2302333,0.9484263,0.1748369,11,6
0.2362606,0.9458809,0.1683078,11,6
0.2419501,0.9447948,0.1779594,11,6
0.2452803,0.9466609,0.1838144,11,6
0.2444637,0.9456853,0.1821954,11,6
0.2467469,0.9457539,0.1864796,11,6
0.2483243,0.9484604,0.1906689,11,6
0.2455424,0.9493426,0.1892457,11,6
0.2452051,0.9499626,0.1814849,11,6
0.2444364,0.948904,0.1746368,11,6
0.2416271,0.949069,0.1760749,11,6
0.2396484,0.9501397,0.1814404,11,6
0.2349099,0.949389,0.1836957,11,6
0.2319118,0.9507048,0.1830992,11,6
0.2358219,0.9509099,0.1827025,11,6
0.239368,0.9513251,0.1808142,11,6
0.2407692,0.9528717,0.1797659,11,6
0.2423208,0.9515021,0.1805012,11,6
0.241933,0.9512035,0.1835968,11,6
0.2421386,0.9505129,0.1871951,11,6
0.2436603,0.9491154,0.1864113,11,6
0.2430933,0.9480018,0.1883298,11,6
0.2427008,0.9443675,0.1881445,11,6
0.2433757,0.9450754,0.1828824,11,6
0.2427625,0.9500602,0.1824198,11,6
0.2422558,0.9512154,0.1803044,11,6
0.2422915,0.95036,0.1780172,11,6
0.2421609,0.9514787,0.1786745,11,6
0.2412543,0.9518247,0.1797177,11,6
0.2384103,0.950077,0.1843261,11,6
0.2361483,0.9507687,0.183251,11,6
0.2369271,0.9518636,0.1785841,11,6
0.2397425,0.9515507,0.1776497,11,6
0.2414614,0.9532773,0.1762323,11,6
0.2417749,0.9542856,0.1748816,11,6
0.2436336,0.9525864,0.1728307,11,6
0.2444668,0.9505507,0.1790957,11,6
0.2440432,0.9509909,0.1883514,11,6
0.2446989,0.9508506,0.1820538,11,6
0.2434448,0.9472005,0.177697,11,6
0.2423617,0.9459626,0.1815413,11,6
0.2419085,0.947107,0.1776528,11,6
0.2386203,0.9491915,0.1739743,11,6
0.2370924,0.9519014,0.1762125,11,6
0.2401537,0.9512648,0.1808442,11,6
0.2425255,0.9502746,0.1864799,11,6
0.2399781,0.9503404,0.1864132,11,6
0.2376226,0.9514504,0.1829144,11,6
0.2394319,0.95297,0.182113,11,6
0.240094,0.9490953,0.1800241,11,6
0.2398687,0.9448911,0.1777763,11,6
0.2398477,0.9464881,0.1777912,11,6
0.2383137,0.948046,0.1756095,11,6
0.2389439,0.9484685,0.1748969,11,6
0.2406008,0.9540994,0.1779912,11,6
0.2419281,0.9597824,0.1798142,11,6
0.2436895,0.9536732,0.1797593,11,6
0.2422558,0.9466238,0.1794689,11,6
0.2413947,0.9505679,0.1805936,11,6
0.2447045,0.9522637,0.1792761,11,6
0.2467024,0.9502201,0.1764271,11,6
0.2455669,0.9520963,0.178441,11,6
0.2436396,0.9514743,0.1799864,11,6
0.2427066,0.9507408,0.1804628,11,6
0.2429639,0.9521238,0.1812655,11,6
0.2430169,0.951496,0.1790423,11,6
0.2421742,0.9540465,0.1762204,11,6
0.2412739,0.9560321,0.172936,11,6
0.2416582,0.9518166,0.1743353,11,6
0.2418815,0.9484739,0.1789453,11,6
0.2414577,0.9486929,0.1782429,11,6
0.2415856,0.94844,0.1793888,11,6
0.2406175,0.947271,0.1811313,11,6
0.2390149,0.949355,0.1808181,11,6
0.2386213,0.9520648,0.1839905,11,6
0.2394438,0.9526907,0.1841617,11,6
0.2417039,0.952811,0.1829301,11,6
0.2437504,0.9487657,0.1836212,11,6
0.2428652,0.9458687,0.1831218,11,6
0.2396433,0.9482321,0.1843813,11,6
0.2373765,0.9509305,0.183706,11,6
0.2369368,0.9533994,0.181062,11,6
0.2371059,0.9514487,0.1796843,11,6
0.2377992,0.948563,0.1774983,11,6
0.2390644,0.9503571,0.1775647,11,6
0.2394426,0.9505347,0.1829725,11,6
0.2388002,0.9502283,0.1900729,11,6
0.2406287,0.9508686,0.1878723,11,6
0.2426279,0.948743,0.1808856,11,6
0.2414336,0.9471811,0.1787373,11,6
0.2414556,0.9480027,0.1754852,11,6
0.2419859,0.9479719,0.178674,11,6
0.2414196,0.9469785,0.1852968,11,6
0.2417905,0.9470501,0.1845659,11,6
0.2414758,0.9474141,0.1866018,11,6
0.2405284,0.9475414,0.1866833,11,6
0.2392206,0.9492888,0.1840115,11,6
0.2383942,0.9522352,0.1850182,11,6
0.2389005,0.9528087,0.1823523,11,6
0.2380608,0.9515728,0.18042,11,6
0.2372473,0.9519176,0.1805852,11,6
0.238598,0.9516711,0.1803791,11,6
0.2405562,0.9508104,0.1819551,11,6
0.2421655,0.9522269,0.1816952,11,6
0.2425957,0.9536455,0.1795532,11,6
0.2412258,0.9535275,0.1723482,11,6
0.2394239,0.9519259,0.1651457,11,6
0.2387049,0.950904,0.1684317,11,6
0.2392126,0.9511813,0.1734863,11,6
0.2417101,0.9494317,0.1757068,11,6
0.2439811,0.9498835,0.1784188,11,6
0.2429555,0.952702,0.1789153,11,6
0.2415411,0.9526631,0.1791416,11,6
0.2409814,0.9530574,0.1805309,11,6
0.2405786,0.952815,0.1805421,11,6
0.2410183,0.9523318,0.1805782,11,6
0.2403596,0.9533643,0.1808668,11,6
0.2401099,0.9523931,0.1813772,11,6
0.2424316,0.9520604,0.183317,11,6
0.2436143,0.9495568,0.1831453,11,6
0.2429929,0.9456323,0.1802168,11,6
0.2427627,0.9477363,0.177606,11,6
0.2422189,0.950761,0.1771024,11,6
0.2414254,0.9527368,0.1783148,11,6
0.2411539,0.9544243,0.1771944,11,6
0.24027,0.9538455,0.1747576,11,6
0.2390083,0.9533271,0.1739539,11,6
0.2395053,0.9525938,0.1770938,11,6
0.2402021,0.9524933,0.1836112,11,6
0.2399245,0.9527938,0.1846274,11,6
0.2406028,0.9508081,0.1833071,11,6
0.2403456,0.9495768,0.1852043,11,6
0.2402407,0.9508701,0.183976,11,6
0.2424902,0.951893,0.1825867,11,6
0.2435783,0.950843,0.1841767,11,6
0.24406,0.9484445,0.1860241,11,6
0.2439001,0.9466413,0.1866019,11,6
0.2404824,0.9475567,0.1796867,11,6
0.2361002,0.9513125,0.1709945,11,6
0.2357101,0.9539103,0.1732257,11,6
0.2405616,0.9538474,0.1781721,11,6
0.2437194,0.9539833,0.1775536,11,6
0.2431976,0.9537318,0.1784414,11,6
0.2429341,0.9505371,0.1807494,11,6
0.2429334,0.9475518,0.1814507,11,6
0.2436246,0.9492486,0.1788645,11,6
0.2447546,0.9510502,0.1727275,11,6
0.2462527,0.9496106,0.1726845,11,6
0.2463224,0.9497829,0.1745005,11,6
0.2444273,0.9504412,0.1710043,11,6
0.2426071,0.9496631,0.1711749,11,6
0.2394961,0.9500931,0.1745478,11,6
0.2403087,0.9499411,0.1771172,11,6
0.2430549,0.949072,0.1762684,11,6
0.2401991,0.9492375,0.173693,11,6
0.2396326,0.9493684,0.1767685,11,6
0.2407769,0.949162,0.1794177,11,6
0.2389205,0.948524,0.1816317,11,6
0.2393254,0.9490856,0.1847369,11,6
0.241554,0.9520394,0.1821169,11,6
0.2436417,0.9530684,0.1813336,11,6
0.242682,0.9490511,0.1834472,11,6
0.2405047,0.9465814,0.1827719,11,6
0.2420618,0.9517417,0.1804701,11,6
0.2421445,0.9558363,0.1767787,11,6
0.2423343,0.9523289,0.1779904,11,6
0.2456009,0.9499846,0.1838934,11,6
0.2459354,0.9516761,0.185879,11,6
0.2439504,0.9508161,0.1846013,11,6
0.2424729,0.9491833,0.1837623,11,6
0.2427937,0.9505893,0.1823874,11,6
0.2436285,0.9519984,0.1797285,11,6
0.2426847,0.9529674,0.1785551,11,6
0.2426867,0.9529061,0.1743358,11,6
0.2417422,0.9501293,0.1676727,11,6
0.2402645,0.9470798,0.1734466,11,6
0.241965,0.9431422,0.1826178,11,6
0.2423334,0.9405538,0.1805643,11,6
0.2420043,0.9426508,0.1794124,11,6
0.2435721,0.9437942,0.1796517,11,6
0.2428829,0.9434743,0.1766363,11,6
0.240835,0.9465411,0.1784395,11,6
0.2400317,0.9498931,0.1819857,11,6
0.2398506,0.9489425,0.1838025,11,6
0.2396419,0.9479155,0.1837248,11,6
0.2384375,0.9500292,0.1807145,11,6
0.2374983,0.9503422,0.1802206,11,6
0.2367814,0.9500161,0.180221,11,6
0.2355158,0.9520516,0.1776381,11,6
0.236114,0.95336,0.1763879,11,6
0.2365028,0.9538742,0.178554,11,6
0.2362199,0.9539871,0.181636,11,6
0.2390048,0.9533821,0.1789859,11,6
0.2413324,0.9525551,0.1760088,11,6
0.2412512,0.9524592,0.177576,11,6
0.2415892,0.9531996,0.1762518,11,6
0.2415449,0.9524291,0.1764673,11,6
0.2396433,0.9515481,0.1807046,11,6
0.2373142,0.9505692,0.1824309,11,6
0.2373609,0.9492956,0.180963,11,6
0.2390048,0.9502489,0.1770303,11,6
0.2410323,0.9501763,0.1760674,11,6
0.2432113,0.9496311,0.1793828,11,6
0.243362,0.9505141,0.1811491,11,6
0.2428214,0.9507238,0.1799928,11,6
0.2431229,0.9518169,0.1773762,11,6
0.243086,0.9525513,0.1759085,11,6
0.2424762,0.9526327,0.176878,11,6
0.2403908,0.952979,0.1820858,11,6
0.2384406,0.9514625,0.1852124,11,6
0.2403351,0.9498261,0.1815575,11,6
0.2428415,0.9480768,0.1815703,11,6
0.2412338,0.9465034,0.1813295,11,6
0.2393064,0.9472784,0.1798207,11,6
0.2391095,0.9482055,0.1834942,11,6
0.2396821,0.9507197,0.1811693,11,6
0.2426213,0.9548635,0.178034,11,6
0.2436611,0.9543635,0.1787892,11,6
0.2414033,0.9506759,0.174525,11,6
0.2396914,0.9498114,0.1701127,11,6
0.2384903,0.9517062,0.1691989,11,6
0.2396353,0.9535131,0.1731899,11,6
0.241559,0.9533601,0.1776498,11,6
0.242678,0.953967,0.181199,11,6
0.2444599,0.95648,0.1849101,11,6
0.2414179,0.9556403,0.1839409,11,6
0.2375115,0.953714,0.1877969,11,6
0.2415517,0.9534246,0.1888265,11,6
0.2444603,0.9515409,0.1831854,11,6
0.1797785,0.5703901,0.7951251,14,6
0.1696251,0.5697411,0.7993438,14,6
0.1648379,0.5743193,0.7988303,14,6
0.1675232,0.5743597,0.7977074,14,6
0.1655061,0.5724699,0.7997094,14,6
0.1635087,0.5722756,0.7979499,14,6
0.1646433,0.5661989,0.7984812,14,6
0.1654501,0.5602776,0.801745,14,6
0.1686188,0.5568365,0.8091698,14,6
0.1705033,0.5503418,0.8209989,14,6
0.171047,0.5415159,0.8176828,14,6
0.1733777,0.5340364,0.8126512,14,6
0.1755246,0.5304791,0.8158762,14,6
0.1806296,0.532837,0.807587,14,6
0.1869699,0.5375926,0.7976536,14,6
0.1881108,0.5378812,0.7969164,14,6
0.1846923,0.5391336,0.799915,14,6
0.1819904,0.5448865,0.8055411,14,6
0.1834898,0.5512325,0.811725,14,6
0.1833666,0.5548943,0.8161279,14,6
0.1796541,0.5521262,0.8147866,14,6
0.1765486,0.551077,0.8110146,14,6
0.1737551,0.5522576,0.8093413,14,6
0.172327,0.5505131,0.8090846,14,6
0.1693539,0.5519127,0.8113845,14,6
0.1651625,0.5538151,0.8108534,14,6
0.1668019,0.5595373,0.8076702,14,6
0.1706594,0.5696437,0.8040934,14,6
0.1737921,0.5702589,0.7956151,14,6
0.1788787,0.5636146,0.7903546,14,6
0.1822486,0.5556856,0.7956898,14,6
0.1824274,0.5504152,0.803077,14,6
0.183265,0.5517242,0.804527,14,6
0.183935,0.5487837,0.8113832,14,6
0.1827716,0.5395516,0.8241258,14,6
0.1821848,0.535438,0.8194729,14,6
0.1811376,0.5337482,0.8097247,14,6
0.1798303,0.5305761,0.8105996,14,6
0.1799009,0.5323984,0.8107916,14,6
0.1759376,0.5364009,0.8150588,14,6
0.1699036,0.5421445,0.8169745,14,6
0.1689847,0.5535014,0.8131011,14,6
0.1690033,0.5598794,0.8123886,14,6
0.1678408,0.5577318,0.8055456,14,6
0.1697366,0.5533435,0.8027403,14,6
0.172137,0.5500954,0.8092598,14,6
0.172709,0.5509864,0.81067,14,6
0.1746722,0.5508442,0.8135098,14,6
0.1760471,0.5473364,0.8170646,14,6
0.1759619,0.544966,0.8145755,14,6
0.1796226,0.542017,0.8134526,14,6
0.1836437,0.5381343,0.8147474,14,6
0.183617,0.5372993,0.8143458,14,6
0.1830296,0.537967,0.8122388,14,6
0.1817043,0.5373426,0.8117138,14,6
0.177759,0.5386993,0.8136078,14,6
0.1738205,0.5413001,0.81527,14,6
0.1741654,0.5419234,0.8168121,14,6
0.1757577,0.5426019,0.8163568,14,6
0.1728635,0.5449712,0.8133854,14,6
0.1708844,0.5483164,0.8137534,14,6
0.1712949,0.5477385,0.8154007,14,6
0.1702505,0.5451463,0.8149955,14,6
0.1713219,0.5460228,0.8156304,14,6
0.1729951,0.5449897,0.8151978,14,6
0.1737651,0.5433695,0.8149907,14,6
0.1751271,0.5431301,0.8155831,14,6
0.1742586,0.5405662,0.8139708,14,6
0.1723805,0.5396258,0.8137653,14,6
0.1709936,0.5391559,0.8151846,14,6
0.173806,0.539064,0.8199991,14,6
0.1797331,0.5400814,0.8256129,14,6
0.1798586,0.5347302,0.821939,14,6
0.1795108,0.5289023,0.8143778,14,6
0.1786634,0.5305521,0.8112728,14,6
0.1729667,0.5337211,0.8128984,14,6
0.1731754,0.5361354,0.8179845,14,6
0.1763335,0.5384072,0.8214286,14,6
0.176506,0.5377886,0.8205911,14,6
0.1776923,0.5369511,0.816509,14,6
0.1777559,0.5393748,0.812358,14,6
0.1770906,0.5419115,0.8120089,14,6
0.1743786,0.54356,0.8139259,14,6
0.1707943,0.5438033,0.8158252,14,6
0.1724632,0.5431836,0.8191948,14,6
0.1748991,0.5443006,0.8228613,14,6
0.1762702,0.5408999,0.8228218,14,6
0.1793054,0.5352254,0.8213522,14,6
0.1822572,0.5355712,0.8214001,14,6
0.184136,0.5355012,0.8195023,14,6
0.1830121,0.5332952,0.8161865,14,6
0.1800521,0.5330565,0.8129506,14,6
0.1787382,0.5333901,0.8098249,14,6
0.1790371,0.5332947,0.8108347,14,6
0.1803987,0.5322792,0.8125765,14,6
0.1808404,0.5317228,0.813103,14,6
0.1794745,0.5321024,0.8165551,14,6
0.1760212,0.5328774,0.8177467,14,6
0.1713247,0.5336664,0.8174709,14,6
0.1711721,0.5338481,0.8194764,14,6
0.1722205,0.5359049,0.8203551,14,6
0.1692135,0.5385953,0.822734,14,6
0.1690299,0.5388391,0.8225064,14,6
0.170976,0.5394563,0.8183134,14,6
0.1710897,0.5407688,0.8196966,14,6
0.1734955,0.5394204,0.8203693,14,6
0.1776982,0.5381619,0.8155554,14,6
0.1804861,0.5392108,0.8134429,14,6
0.1803394,0.5389594,0.8136684,14,6
0.1801535,0.5382592,0.8142017,14,6
0.1821294,0.5373882,0.8201379,14,6
0.181308,0.5355688,0.8272497,14,6
0.1779598,0.5368117,0.8254456,14,6
0.1747681,0.5381187,0.8228302,14,6
0.1739544,0.536338,0.8227444,14,6
0.1758864,0.5358837,0.8187531,14,6
0.1750657,0.5375008,0.8192168,14,6
0.1758845,0.5397822,0.8195594,14,6
0.1802645,0.5417484,0.8142993,14,6
0.1816818,0.5414348,0.8132823,14,6
0.1815144,0.5388099,0.8125898,14,6
0.1794656,0.5368473,0.8127977,14,6
0.1765243,0.5390691,0.8166776,14,6
0.1746584,0.5443404,0.8191281,14,6
0.1742384,0.5479135,0.8231194,14,6
0.1767759,0.5477388,0.8228564,14,6
0.1769481,0.5466684,0.8170964,14,6
0.1781579,0.547145,0.8148905,14,6
0.1830533,0.5460638,0.8107959,14,6
0.183362,0.5425372,0.8069463,14,6
0.1802801,0.5407414,0.8114238,14,6
0.1764468,0.5405376,0.815895,14,6
0.1754039,0.5394228,0.8160376,14,6
0.1771612,0.5383875,0.8176809,14,6
0.176111,0.5390326,0.8203997,14,6
0.1762451,0.5402989,0.8192321,14,6
0.1765843,0.542403,0.8151613,14,6
0.1750911,0.5483504,0.8102307,14,6
0.1750127,0.5526578,0.8058008,14,6
0.174978,0.5481965,0.8075015,14,6
0.1763661,0.5434489,0.8132804,14,6
0.1787351,0.5451078,0.8154088,14,6
0.1804357,0.5446421,0.8114675,14,6
0.1807681,0.5403263,0.8064817,14,6
0.1783959,0.5381882,0.8097046,14,6
0.1772552,0.5368857,0.8132678,14,6
0.177796,0.5384697,0.8100726,14,6
0.1778833,0.5445116,0.8114433,14,6
0.1772741,0.548523,0.814131,14,6
0.1749317,0.5477233,0.8130499,14,6
0.1733143,0.5443447,0.8138015,14,6
0.1750333,0.5436838,0.8153299,14,6
0.1772757,0.5432091,0.8170428,14,6
0.1755947,0.5393,0.8166475,14,6
0.174361,0.5355519,0.8161935,14,6
0.178039,0.5313941,0.8163404,14,6
0.1819104,0.5353842,0.8107367,14,6
0.1839248,0.5440078,0.8074902,14,6
0.1814545,0.5417833,0.8116857,14,6
0.1763982,0.5405091,0.8155569,14,6
0.1755799,0.5431942,0.8142889,14,6
0.1747431,0.5433299,0.8125541,14,6
0.1729986,0.547727,0.8148526,14,6
0.1744679,0.5500045,0.8131589,14,6
0.1782468,0.5480153,0.8090147,14,6
0.1818845,0.5485923,0.8055642,14,6
0.1808389,0.5479355,0.8029309,14,6
0.17867,0.5434423,0.8087367,14,6
0.1794657,0.5376868,0.8132241,14,6
0.179115,0.536141,0.8123141,14,6
0.1791331,0.5382236,0.8133935,14,6
0.1803821,0.5375879,0.8142417,14,6
0.1800506,0.5370197,0.8156723,14,6
0.1780409,0.5377597,0.8157983,14,6
0.175119,0.5364338,0.8178832,14,6
0.1743681,0.5359224,0.8213785,14,6
0.1747942,0.5373097,0.8210382,14,6
0.1747381,0.5386522,0.8245053,14,6
0.1765414,0.5394545,0.8239073,14,6
0.1779169,0.53913,0.8173416,14,6
0.1796811,0.5382956,0.8160794,14,6
0.1824264,0.5382679,0.8143308,14,6
0.1818487,0.5404184,0.8135542,14,6
0.1804663,0.5412048,0.8144145,14,6
0.1787549,0.5385234,0.8142214,14,6
0.1770664,0.5389584,0.8161223,14,6
0.1788246,0.5412347,0.8151332,14,6
0.179896,0.5413085,0.814846,14,6
0.1792933,0.540386,0.8159631,14,6
0.178684,0.5379888,0.8146684,14,6
0.1784075,0.5381853,0.8161205,14,6
0.1811925,0.5380248,0.8180217,14,6
0.1833629,0.5348168,0.8199084,14,6
0.1826498,0.5361003,0.819521,14,6
0.1818516,0.5370197,0.8148524,14,6
0.1795685,0.5364133,0.8136486,14,6
0.1768976,0.5390915,0.815965,14,6
0.1746024,0.5387215,0.8215581,14,6
0.1723952,0.5358347,0.829225,14,6
0.1741355,0.5350532,0.8329623,14,6
0.1760743,0.5387244,0.8285797,14,6
0.1766215,0.5437046,0.8173113,14,6
0.1797636,0.5417441,0.8120964,14,6
0.1804884,0.539521,0.8139129,14,6
0.1779307,0.5409829,0.8143949,14,6
0.1761402,0.5394285,0.8151788,14,6
0.1784207,0.5373927,0.8170116,14,6
0.1818756,0.5358047,0.8189457,14,6
0.1776864,0.5353048,0.818156,14,6
0.1746781,0.5374924,0.8171645,14,6
0.1755293,0.538577,0.8171762,14,6
0.1683289,0.5406708,0.8124727,14,6
0.1611791,0.5416377,0.8103254,14,6
0.163375,0.5412759,0.8152677,14,6
0.1664463,0.5458249,0.8225592,14,6
0.164779,0.5458961,0.8267879,14,6
0.1649128,0.5394749,0.8219482,14,6
0.1668693,0.5365518,0.8144632,14,6
0.168782,0.537723,0.8111752,14,6
0.1759244,0.5402882,0.8117639,14,6
0.1791551,0.5397063,0.8128239,14,6
0.1774758,0.5406047,0.8112699,14,6
0.1809995,0.5458618,0.8127398,14,6
0.1834936,0.5478062,0.8152509,14,6
0.1816829,0.5476016,0.8140685,14,6
0.1761991,0.5453642,0.8112748,14,6
0.1715846,0.5425673,0.8077841,14,6
0.174001,0.5415634,0.8118726,14,6
0.1761982,0.5408036,0.818618,14,6
0.1763202,0.5424289,0.8163158,14,6
0.1767274,0.5423796,0.8150868,14,6
0.1759838,0.5445331,0.8136384,14,6
0.1744154,0.5487082,0.8091069,14,6
0.1695147,0.5443303,0.8124385,14,6
0.1649626,0.5418395,0.8145336,14,6
0.1671766,0.5455506,0.8122885,14,6
0.1698647,0.54737,0.812874,14,6
0.1695874,0.5479075,0.8103494,14,6
0.1735753,0.5486863,0.8089412,14,6
0.178657,0.5501295,0.8105101,14,6
0.1796423,0.547648,0.8086449,14,6
0.1804635,0.5441494,0.808274,14,6
0.1808532,0.5451254,0.8085065,14,6
0.1822874,0.5446679,0.8052411,14,6
0.1843809,0.5438483,0.8044331,14,6
0.1840133,0.5450197,0.8066632,14,6
0.1843088,0.5454865,0.806733,14,6
0.1822217,0.546796,0.8058276,14,6
0.1773322,0.5478235,0.80717,14,6
0.1726014,0.5470235,0.8105762,14,6
0.163938,0.5470678,0.8131109,14,6
0.1554242,0.5474958,0.8132943,14,6
0.1529301,0.5470278,0.8158716,14,6
0.1543259,0.5465398,0.820379,14,6
0.1571199,0.5437579,0.820752,14,6
0.1606136,0.5404089,0.8214505,14,6
0.1658662,0.5413751,0.822956,14,6
0.1705651,0.5424489,0.8188564,14,6
0.1734665,0.5417486,0.817636,14,6
0.1767744,0.5442857,0.8201755,14,6
0.1771763,0.546824,0.8173352,14,6
0.175261,0.5449313,0.8169353,14,6
0.1748486,0.5438432,0.8175405,14,6
0.1733041,0.5456484,0.8138488,14,6
0.1729605,0.5462084,0.8160759,14,6
0.1742014,0.5451627,0.8206771,14,6
0.1715019,0.5431194,0.8220876,14,6
0.1671094,0.5414502,0.8198805,14,6
0.1624954,0.5443556,0.8126461,14,6
0.1580222,0.5492234,0.8112045,14,6
0.1548345,0.5500987,0.8141217,14,6
0.1528082,0.5493566,0.8156343,14,6
0.1549031,0.548561,0.8189049,14,6
0.1576595,0.5465126,0.8166352,14,6
0.1625882,0.5467384,0.8127243,14,6
0.1713551,0.5466395,0.8139863,14,6
0.1722901,0.5431389,0.8131674,14,6
0.1708095,0.5415561,0.8119167,14,6
0.1739252,0.5416527,0.8131912,14,6
0.1738938,0.5416971,0.8152475,14,6
0.1731725,0.5427746,0.8175847,14,6
0.172708,0.5426628,0.8178881,14,6
0.1709111,0.5404602,0.8177481,14,6
0.1704277,0.5381859,0.8184291,14,6
0.1693773,0.5397382,0.8177919,14,6
0.1664709,0.5434941,0.8169627,14,6
0.1633682,0.545568,0.8166732,14,6
0.1634387,0.5489856,0.8163972,14,6
0.1646677,0.551146,0.8168457,14,6
0.1647938,0.5493365,0.8158438,14,6
0.1678874,0.5480089,0.8119569,14,6
0.1721304,0.5466135,0.8094946,14,6
0.1756354,0.5450408,0.8135473,14,6
0.1783106,0.5447245,0.8186461,14,6
0.1777389,0.5458289,0.8149112,14,6
0.1765946,0.547892,0.8109978,14,6
0.1759726,0.5465932,0.8128813,14,6
0.1736966,0.5448399,0.8107074,14,6
0.1696875,0.5466109,0.808674,14,6
0.1672422,0.5477526,0.81088,14,6
0.1706207,0.5487659,0.8132216,14,6
0.1734698,0.5495456,0.8154217,14,6
0.1699665,0.5499823,0.8113386,14,6
0.1673004,0.5530016,0.8061742,14,6
0.167118,0.552268,0.8092756,14,6
0.1655012,0.5456003,0.8117519,14,6
0.1650251,0.5402464,0.81252,14,6
0.1665282,0.5392818,0.8163698,14,6
0.1685695,0.5417058,0.8161497,14,6
0.1721068,0.5452219,0.8141597,14,6
0.1755416,0.5502485,0.8169746,14,6
0.1759543,0.5529854,0.8179021,14,6
0.1761767,0.5504772,0.8175229,14,6
0.1772244,0.5493424,0.8205573,14,6
0.1716338,0.5482685,0.8231565,14,6
0.1633904,0.5452259,0.8246358,14,6
0.1635404,0.5414973,0.8249781,14,6
0.1652878,0.537098,0.8238434,14,6
0.1653898,0.5385105,0.8189748,14,6
0.1700565,0.540396,0.8125587,14,6
0.1720619,0.5387422,0.8129094,14,6
0.1691222,0.5415032,0.8126994,14,6
0.1682402,0.5443931,0.8104501,14,6
0.1679943,0.546382,0.8141844,14,6
0.1678533,0.5486997,0.8174962,14,6
0.1686816,0.5476313,0.8198166,14,6
0.1696784,0.5459344,0.8192728,14,6
0.1708473,0.5420368,0.8110875,14,6
0.1683046,0.5401505,0.8063857,14,6
0.1643849,0.5429286,0.8077751,14,6
0.1650071,0.5423498,0.8072747,14,6
0.1660141,0.5428461,0.805898,14,6
0.1663411,0.5440913,0.8104751,14,6
0.1696768,0.5431245,0.8173596,14,6
0.172268,0.5452481,0.8157686,14,6
0.1725292,0.5456268,0.8142012,14,6
0.1737677,0.5453864,0.8181771,14,6
0.1732647,0.5464109,0.8191834,14,6
0.1683026,0.5431789,0.8223615,14,6
0.1635867,0.5372365,0.8262609,14,6
0.1634299,0.5294896,0.8226572,14,6
0.1661647,0.5266876,0.8174147,14,6
0.167309,0.5285074,0.8162523,14,6
0.1664943,0.524891,0.819439,14,6
0.1667432,0.5245294,0.8218162,14,6
0.167708,0.5302292,0.8199343,14,6
0.1685887,0.5341903,0.8186872,14,6
0.1699883,0.5378032,0.8200196,14,6
0.1711661,0.5392542,0.8220122,14,6
0.1711371,0.5404592,0.825084,14,6
0.1708385,0.5426657,0.8270878,14,6
0.1726776,0.5415104,0.8231315,14,6
0.174018,0.5411377,0.817176,14,6
0.1713883,0.5406814,0.8131103,14,6
0.1686189,0.5366696,0.8106655,14,6
0.1693054,0.533492,0.8152199,14,6
0.1714917,0.5325667,0.8209401,14,6
0.1712459,0.5325967,0.8206036,14,6
0.1701729,0.5318956,0.8220491,14,6
0.1709824,0.5315147,0.8237969,14,6
0.1700543,0.5323589,0.8231172,14,6
0.1689874,0.5318244,0.8255683,14,6
0.1705803,0.5317743,0.8256439,14,6
0.1709728,0.5331336,0.8229858,14,6
0.1695304,0.5361657,0.8228537,14,6
0.1673371,0.5403423,0.8182984,14,6
0.1661858,0.5394966,0.8132259,14,6
0.1676418,0.5376778,0.8148374,14,6
0.1687136,0.5395784,0.8143345,14,6
0.1685074,0.5393425,0.8130168,14,6
0.1677846,0.5401058,0.8203328,14,6
0.1663683,0.5424382,0.8281448,14,6
0.1665804,0.5387402,0.825533,14,6
0.1690674,0.5323047,0.823053,14,6
0.1708297,0.528342,0.8263304,14,6
0.1710564,0.5283884,0.8249505,14,6
0.1704907,0.5301016,0.8241417,14,6
0.1686984,0.5292132,0.8258533,14,6
0.1667437,0.5306152,0.8234808,14,6
0.1662024,0.5331017,0.8237095,14,6
0.1668283,0.5318542,0.8259308,14,6
0.1668443,0.532736,0.827232,14,6
0.1660211,0.5350835,0.8272179,14,6
0.1650583,0.5358816,0.8223816,14,6
0.1633673,0.5372912,0.8191111,14,6
0.1636695,0.5376233,0.8197073,14,6
0.1657835,0.5358314,0.8205595,14,6
0.1671526,0.5322048,0.8203599,14,6
0.1697232,0.5293921,0.8189977,14,6
0.1709481,0.5303783,0.8184549,14,6
0.1701724,0.5319122,0.8173062,14,6
0.1694161,0.5337492,0.8182244,14,6
0.167716,0.5366035,0.8197461,14,6
0.1694829,0.534175,0.8193006,14,6
0.1721164,0.5300011,0.8234281,14,6
0.1701785,0.5321302,0.8280084,14,6
0.1678064,0.533027,0.8299633,14,6
0.1635257,0.5318393,0.8298192,14,6
0.1592276,0.5340948,0.8281908,14,6
0.1612271,0.5330294,0.8307284,14,6
0.1631385,0.5295823,0.8308265,14,6
0.1628944,0.5273958,0.8270154,14,6
0.164075,0.5261164,0.8197653,14,6
0.1623242,0.5289083,0.8103111,14,6
0.1599941,0.5310064,0.8151371,14,6
0.1613537,0.5318468,0.8271173,14,6
0.1615937,0.5328972,0.8321042,14,6
0.1621298,0.5312155,0.8311569,14,6
0.1662495,0.5319301,0.8235457,14,6
0.170217,0.5325538,0.8177584,14,6
0.1716697,0.531201,0.8150491,14,6
0.1707836,0.5324102,0.8143949,14,6
0.1702486,0.5315713,0.8183337,14,6
0.1703237,0.5298044,0.8185598,14,6
0.1690485,0.5298308,0.820031,14,6
0.1695682,0.5323055,0.82469,14,6
0.1716756,0.5370976,0.8253135,14,6
0.1713953,0.5354685,0.8253709,14,6
0.166935,0.5313893,0.8245862,14,6
0.1611074,0.5311529,0.8251208,14,6
0.1617414,0.5302955,0.8266169,14,6
0.1653211,0.5313587,0.8272089,14,6
0.1663317,0.5322896,0.8304235,14,6
0.1696654,0.5298129,0.8302437,14,6
0.1705401,0.5283103,0.8258315,14,6
0.1683404,0.5270942,0.8197385,14,6
0.1700861,0.5250362,0.815887,14,6
0.1705615,0.5235534,0.8188482,14,6
0.1706784,0.5236469,0.8194889,14,6
0.1724383,0.526281,0.8188498,14,6
0.1719553,0.5333227,0.8196579,14,6
0.1722294,0.5410564,0.8163244,14,6
0.1714552,0.5399385,0.8144495,14,6
0.1699815,0.537083,0.8158231,14,6
0.1702829,0.5398397,0.8181634,14,6
0.1687527,0.5390895,0.8206216,14,6
0.1674336,0.5380391,0.8213214,14,6
0.1665432,0.5395434,0.8224078,14,6
0.1661145,0.5374298,0.8226323,14,6
0.1681198,0.5356656,0.8218269,14,6
0.1711403,0.5333353,0.8223273,14,6
0.1756451,0.529653,0.8223491,14,6
0.1758521,0.5294843,0.8220429,14,6
0.17176,0.5283535,0.822141,14,6
0.1712285,0.5243492,0.821346,14,6
0.1707284,0.5217152,0.8208328,14,6
0.1700406,0.5242232,0.8231289,14,6
0.1694888,0.5284,0.8270181,14,6
0.1662146,0.5270316,0.8274234,14,6
0.1667177,0.5263708,0.8214574,14,6
0.1699837,0.5291739,0.815958,14,6
0.1708544,0.5326647,0.8192271,14,6
0.1695204,0.5379825,0.8246971,14,6
0.1669733,0.5370129,0.8256692,14,6
0.1679272,0.5342744,0.8274835,14,6
0.1688386,0.5367444,0.8309326,14,6
0.1675041,0.5334435,0.8323739,14,6
0.1692371,0.5302779,0.8304506,14,6
0.1700707,0.5324639,0.8272355,14,6
0.1700124,0.5310315,0.8257379,14,6
0.1711493,0.5305647,0.8231016,14,6
0.169908,0.5334343,0.8217703,14,6
0.1689995,0.5351168,0.8214512,14,6
0.1693414,0.5333624,0.817461,14,6
0.1686344,0.5306214,0.8189828,14,6
0.1684635,0.5321493,0.8226937,14,6
0.1716282,0.5323186,0.8219084,14,6
0.1759197,0.5303508,0.8230692,14,6
0.1755265,0.5307249,0.8191009,14,6
0.1738542,0.5305618,0.8156028,14,6
0.1734575,0.5321484,0.8197719,14,6
0.1706382,0.5360213,0.8185087,14,6
0.1691618,0.5383756,0.8170154,14,6
0.1696077,0.5381493,0.8170287,14,6
0.1682841,0.5375853,0.8136604,14,6
0.1681515,0.5395125,0.8154714,14,6
0.1708432,0.5390737,0.8211946,14,6
0.1757729,0.5372122,0.8276685,14,6
0.1792581,0.5376584,0.8280491,14,6
0.1757017,0.5363506,0.8232975,14,6
0.169007,0.5357729,0.8255916,14,6
0.1653396,0.5363709,0.8255432,14,6
0.1659751,0.535868,0.8225382,14,6
0.1677421,0.5363102,0.8199178,14,6
0.1668546,0.5358615,0.8135027,14,6
0.1688844,0.5351184,0.8179276,14,6
0.1726008,0.5348569,0.8233889,14,6
0.1715052,0.5352528,0.8161063,14,6
0.1721027,0.5367663,0.8136862,14,6
0.1739022,0.5360864,0.8171559,14,6
0.1732612,0.5364628,0.8215389,14,6
0.173717,0.5399194,0.8268069,14,6
0.1725408,0.541611,0.8248189,14,6
0.1707797,0.5402916,0.8192129,14,6
0.1710065,0.5385711,0.8174896,14,6
0.1715494,0.5388643,0.8186715,14,6
0.1724974,0.5381181,0.8201016,14,6
0.1714134,0.5368416,0.8193696,14,6
0.1698416,0.5379902,0.8180535,14,6
0.1696353,0.5383922,0.8185209,14,6
0.1472669,0.9113154,0.3883553,15,6
0.1469579,0.9063752,0.3962988,15,6
0.1456987,0.9018037,0.4023564,15,6
0.1477679,0.9048582,0.3931467,15,6
0.1499482,0.9057639,0.3874233,15,6
0.1520287,0.9047681,0.3917834,15,6
0.1524388,0.9052149,0.3940415,15,6
0.1526951,0.9037702,0.3933088,15,6
0.1578865,0.903236,0.3961671,15,6
0.1594232,0.9021371,0.4010725,15,6
0.1559484,0.8996471,0.4044792,15,6
0.1533596,0.9041699,0.4009714,15,6
0.1493483,0.909222,0.3937589,15,6
0.1464943,0.9067855,0.3939284,15,6
0.1440869,0.9060593,0.3913129,15,6
0.1431884,0.9073811,0.3869483,15,6
0.1456291,0.9049263,0.3945109,15,6
0.1445877,0.9037373,0.3988127,15,6
0.1457537,0.9061337,0.3966079,15,6
0.1499492,0.9076354,0.3981867,15,6
0.1511328,0.9071661,0.4011762,15,6
0.1561916,0.9074965,0.4065812,15,6
0.159743,0.9088206,0.4071104,15,6
0.1548518,0.9084833,0.3994726,15,6
0.1499391,0.9079216,0.3940693,15,6
0.148454,0.9084549,0.39548,15,6
0.1487174,0.9074062,0.400519,15,6
0.1497218,0.9064879,0.4006862,15,6
0.1515006,0.9070919,0.398626,15,6
0.1536149,0.9071469,0.3984428,15,6
0.1541559,0.907955,0.3973122,15,6
0.1525794,0.9099078,0.3994539,15,6
0.1505382,0.9118428,0.3996534,15,6
0.1507233,0.912993,0.3957373,15,6
0.1492996,0.9116716,0.3921415,15,6
0.1459161,0.907784,0.3856123,15,6
0.1466755,0.9043338,0.386176,15,6
0.1462494,0.9052215,0.3920881,15,6
0.1436217,0.9073891,0.3914295,15,6
0.1461683,0.9067798,0.3933602,15,6
0.148954,0.9068449,0.3942205,15,6
0.1495485,0.9072555,0.3922546,15,6
0.1519736,0.9066131,0.3975083,15,6
0.1517239,0.9071127,0.3989033,15,6
0.1483903,0.9073601,0.3937599,15,6
0.1466118,0.9085107,0.390468,15,6
0.1453107,0.9110518,0.3910268,15,6
0.1460762,0.9128174,0.3939113,15,6
0.1491301,0.916083,0.3927126,15,6
0.1500491,0.9171498,0.3922016,15,6
0.1481744,0.9122247,0.3912044,15,6
0.1449471,0.9078716,0.3878998,15,6
0.1453705,0.9069278,0.3926376,15,6
0.1487253,0.9063916,0.3962444,15,6
0.1490489,0.9042663,0.3934742,15,6
0.1499721,0.9021026,0.3920645,15,6
0.1505631,0.9034063,0.3918041,15,6
0.1484477,0.9046762,0.392845,15,6
0.1485184,0.9021576,0.3925714,15,6
0.1487555,0.9009326,0.3922775,15,6
0.1483978,0.9042327,0.3922174,15,6
0.1484895,0.9097317,0.3898101,15,6
0.14666,0.9142575,0.3902388,15,6
0.1463881,0.9132161,0.3910556,15,6
0.1510811,0.9057914,0.3923815,15,6
0.1553335,0.8989149,0.3977776,15,6
0.1511923,0.8997236,0.3979186,15,6
0.1459208,0.9061507,0.3927028,15,6
0.1481309,0.910765,0.3908836,15,6
0.147911,0.9126399,0.3905625,15,6
0.1461352,0.9145082,0.3900063,15,6
0.1491261,0.9163266,0.3922375,15,6
0.1495548,0.9151963,0.3937879,15,6
0.1485876,0.9099738,0.3918537,15,6
0.1471469,0.9051941,0.3916197,15,6
0.1449539,0.9022663,0.3936533,15,6
0.1483862,0.9018901,0.3949018,15,6
0.1523213,0.9027978,0.3943825,15,6
0.1531433,0.9010495,0.3916311,15,6
0.1529693,0.9028343,0.3886628,15,6
0.1509856,0.9061056,0.3866266,15,6
0.1493727,0.9062918,0.3872136,15,6
0.1474453,0.9088753,0.3882837,15,6
0.1472205,0.9081472,0.3871177,15,6
0.1486039,0.9058078,0.3884317,15,6
0.1468321,0.9083544,0.3906174,15,6
0.1467601,0.9087767,0.3938373,15,6
0.1480608,0.9079917,0.3990251,15,6
0.148057,0.9085152,0.3975222,15,6
0.1507273,0.9082535,0.3944005,15,6
0.1520605,0.9083599,0.3965139,15,6
0.1502247,0.9081606,0.397589,15,6
0.1494481,0.9074092,0.3972985,15,6
0.1493409,0.9065429,0.39718,15,6
0.1493677,0.905709,0.3972408,15,6
0.1500415,0.9041119,0.3983567,15,6
0.1503271,0.9009746,0.3983855,15,6
0.1495999,0.9004943,0.3965321,15,6
0.1490466,0.9063533,0.392408,15,6
0.1489377,0.9128675,0.3868228,15,6
0.1500585,0.9119732,0.3834675,15,6
0.1516927,0.9087661,0.3861283,15,6
0.1489054,0.9073721,0.3955114,15,6
0.1457602,0.9030384,0.4022915,15,6
0.147405,0.90322,0.399012,15,6
0.1477319,0.9077222,0.3950713,15,6
0.1468738,0.9071972,0.3972748,15,6
0.1483438,0.9094721,0.3969123,15,6
0.1491253,0.9125516,0.3955988,15,6
0.1499484,0.9106412,0.4006529,15,6
0.1529222,0.9110345,0.4012738,15,6
0.1547623,0.9113583,0.3979807,15,6
0.152506,0.9108387,0.3979252,15,6
0.1501099,0.9110184,0.3941917,15,6
0.1506515,0.9085647,0.3932264,15,6
0.1501584,0.9052403,0.3962418,15,6
0.149411,0.9033166,0.3965072,15,6
0.150255,0.9055505,0.3991595,15,6
0.1487166,0.9093301,0.3983818,15,6
0.1462732,0.9109281,0.3948372,15,6
0.1457163,0.9117453,0.3961638,15,6
0.1468455,0.9111836,0.3961322,15,6
0.1496176,0.9126966,0.3961509,15,6
0.1507371,0.9140006,0.3972302,15,6
0.1507105,0.9092209,0.3962532,15,6
0.1516591,0.9053438,0.3972525,15,6
0.1509676,0.9068807,0.3977775,15,6
0.1485213,0.9090585,0.395817,15,6
0.1466833,0.9099343,0.3934626,15,6
0.1477811,0.9115694,0.391555,15,6
0.1493159,0.9111351,0.3937454,15,6
0.147337,0.9070941,0.3950798,15,6
0.145567,0.9038453,0.3923175,15,6
0.1449923,0.9019904,0.3920782,15,6
0.1440034,0.9045084,0.3905529,15,6
0.1446419,0.9108493,0.3874005,15,6
0.1457429,0.9142255,0.3876574,15,6
0.1472908,0.9129908,0.3875689,15,6
0.1504123,0.9065373,0.3894531,15,6
0.1515749,0.9012531,0.392492,15,6
0.1488325,0.9017106,0.3929963,15,6
0.1460351,0.9048039,0.3934939,15,6
0.1470544,0.9088079,0.3921739,15,6
0.1479811,0.9089681,0.3925745,15,6
0.1466584,0.9092118,0.3949736,15,6
0.1472815,0.9104918,0.3968455,15,6
0.1480945,0.9070117,0.4012086,15,6
0.1494573,0.9051308,0.3999161,15,6
0.1528606,0.9040485,0.3951181,15,6
0.1531049,0.9027111,0.3941779,15,6
0.1521102,0.9047154,0.3907903,15,6
0.151475,0.9047745,0.3904131,15,6
0.1497446,0.9054721,0.3912035,15,6
0.1502853,0.9078433,0.3838577,15,6
0.1510199,0.9070213,0.3816271,15,6
0.1511137,0.906508,0.3903263,15,6
0.151015,0.9068801,0.39723,15,6
0.1489338,0.9055048,0.3946649,15,6
0.1483323,0.9052474,0.3897973,15,6
0.1480972,0.9076089,0.390581,15,6
0.1481092,0.9084311,0.3902557,15,6
0.1496185,0.907896,0.3897213,15,6
0.1491166,0.9087101,0.3911523,15,6
0.1502048,0.9083209,0.3896049,15,6
0.1516158,0.9078543,0.3905675,15,6
0.1506924,0.9078139,0.3916309,15,6
0.1509709,0.9064438,0.3911893,15,6
0.149676,0.9064761,0.3922585,15,6
0.1496839,0.9055537,0.3902691,15,6
0.1518465,0.9032716,0.3904943,15,6
0.1520153,0.9042735,0.3933639,15,6
0.1532388,0.9057192,0.3940805,15,6
0.1528103,0.9063365,0.3912508,15,6
0.1509424,0.9083196,0.3850011,15,6
0.1498792,0.9114295,0.3844699,15,6
0.1478834,0.9142411,0.3867649,15,6
0.1499435,0.9109552,0.3901089,15,6
0.1535871,0.9051987,0.3973685,15,6
0.1541187,0.9065095,0.3979195,15,6
0.1527876,0.907143,0.3975435,15,6
0.1503801,0.9043518,0.3992994,15,6
0.1514234,0.905581,0.3928643,15,6
0.1530267,0.9051478,0.3872624,15,6
0.1520185,0.9032282,0.3871017,15,6
0.150818,0.9047063,0.3873531,15,6
0.1467363,0.9051479,0.3883195,15,6
0.144508,0.9055432,0.3889867,15,6
0.1468879,0.9057749,0.3907341,15,6
0.1489677,0.9039015,0.3915978,15,6
0.1523,0.9022812,0.3929884,15,6
0.1537224,0.9015278,0.3972186,15,6
0.1509866,0.9049146,0.3947518,15,6
0.1492462,0.9098248,0.3892809,15,6
0.1483197,0.9100836,0.3891869,15,6
0.1481084,0.9091891,0.3913432,15,6
0.148158,0.9082418,0.3948901,15,6
0.1471163,0.9062456,0.3939756,15,6
0.1487894,0.9044044,0.3899399,15,6
0.1510192,0.9019656,0.3907869,15,6
0.1498791,0.9031174,0.3929505,15,6
0.1496277,0.9081871,0.3938783,15,6
0.1503924,0.9107489,0.3888417,15,6
0.1498204,0.9108418,0.3823409,15,6
0.1499587,0.9096308,0.3872056,15,6
0.1501569,0.9077244,0.3911115,15,6
0.1498442,0.9065788,0.3870263,15,6
0.1504398,0.9063475,0.3871198,15,6
0.1517911,0.9065954,0.3895698,15,6
0.1525456,0.9054916,0.3914645,15,6
0.149498,0.9069142,0.3940572,15,6
0.1456575,0.9096244,0.3925775,15,6
0.1475507,0.9074844,0.3887717,15,6
0.1515545,0.9056578,0.3877993,15,6
0.1550923,0.905327,0.3914872,15,6
0.1580836,0.9049474,0.3965433,15,6
0.1549745,0.904304,0.39546,15,6
0.1508275,0.9014634,0.3932403,15,6
0.1511167,0.9018869,0.3950513,15,6
0.1494158,0.9051955,0.3941067,15,6
0.1470223,0.9079936,0.3925966,15,6
0.1470409,0.9092514,0.3927247,15,6
0.1479207,0.9073846,0.3911582,15,6
0.1509867,0.9069623,0.3899973,15,6
0.1535283,0.9069981,0.3900384,15,6
0.1523046,0.9075552,0.3915412,15,6
0.1504607,0.9090462,0.3923927,15,6
0.1516266,0.9069979,0.393256,15,6
0.152841,0.9066046,0.3962043,15,6
0.1526139,0.9069115,0.3959801,15,6
0.1542277,0.9048082,0.3945553,15,6
0.1551068,0.9043219,0.3944543,15,6
0.1543561,0.9056993,0.3941534,15,6
0.1523147,0.9091484,0.3947539,15,6
0.1493696,0.910638,0.3934381,15,6
0.1499449,0.9109024,0.3898525,15,6
0.1505196,0.9118901,0.3864124,15,6
0.1504746,0.9104966,0.3870344,15,6
0.1520052,0.9108057,0.3905104,15,6
0.1513311,0.9092393,0.3902851,15,6
0.1511361,0.9044756,0.3901704,15,6
0.1516982,0.9045084,0.3906321,15,6
0.150626,0.908584,0.38979,15,6
0.148815,0.9127033,0.390643,15,6
0.1467626,0.9116419,0.3902169,15,6
0.1486128,0.9090741,0.3898534,15,6
0.1512796,0.9084372,0.3897887,15,6
0.149799,0.9044078,0.3882538,15,6
0.1495358,0.9047373,0.3894872,15,6
0.1505257,0.9080124,0.3918436,15,6
0.1497562,0.9070202,0.3926378,15,6
0.1497466,0.9105603,0.3891623,15,6
0.1493543,0.9140938,0.3840168,15,6
0.1481004,0.9118592,0.3865697,15,6
0.1489696,0.910063,0.3909653,15,6
0.1506505,0.907475,0.3919259,15,6
0.1515088,0.9052196,0.3932178,15,6
0.1508277,0.9054642,0.3927194,15,6
0.1489691,0.906716,0.3920675,15,6
0.1482189,0.9109285,0.3917976,15,6
0.1472518,0.9154468,0.3910863,15,6
0.1476703,0.9140667,0.3919588,15,6
0.1503826,0.909057,0.3907424,15,6
0.1502394,0.9049927,0.3898116,15,6
0.1495984,0.9018002,0.3915775,15,6
0.1503578,0.9040359,0.3910605,15,6
0.1503365,0.9085735,0.3881745,15,6
0.1526816,0.9076684,0.3855149,15,6
0.1551406,0.9090493,0.3884009,15,6
0.1542668,0.9105568,0.3930967,15,6
0.1533708,0.9071092,0.3912344,15,6
0.1522486,0.9066341,0.3891289,15,6
0.148788,0.9071654,0.3880978,15,6
0.1456575,0.907746,0.3869646,15,6
0.1447599,0.9089049,0.3896808,15,6
0.1447095,0.9078671,0.3909848,15,6
0.1469984,0.9075091,0.3900461,15,6
0.1499499,0.906579,0.3908193,15,6
0.1495428,0.9059237,0.3933084,15,6
0.1502458,0.9064604,0.3979887,15,6
0.1527173,0.9060629,0.4016339,15,6
0.1521315,0.9065786,0.399897,15,6
0.1502096,0.9069275,0.392646,15,6
0.1500595,0.9074387,0.3877659,15,6
0.1505057,0.9088131,0.3882781,15,6
0.1496451,0.9097834,0.3857738,15,6
0.149666,0.9091887,0.3850102,15,6
0.1495926,0.9066079,0.3882132,15,6
0.1482577,0.9063078,0.3874217,15,6
0.1504166,0.9054423,0.3912404,15,6
0.1521775,0.9024745,0.3984566,15,6
0.1502136,0.9032594,0.3984471,15,6
0.1498029,0.9043822,0.3991449,15,6
0.1509509,0.9052705,0.4006553,15,6
0.1524815,0.9093501,0.3902426,15,6
0.1550202,0.9136294,0.3705683,15,6
0.1568432,0.9161041,0.3627182,15,6
0.1524751,0.9161167,0.3726029,15,6
0.1435768,0.916765,0.3802793,15,6
0.1403064,0.9205573,0.3806772,15,6
0.1395225,0.9218798,0.3833913,15,6
0.1390247,0.9186304,0.3873644,15,6
0.1448709,0.9124255,0.3929247,15,6
0.1498966,0.904466,0.4001452,15,6
0.14905,0.9034456,0.3996483,15,6
0.1481279,0.9062172,0.3940988,15,6
0.1496486,0.9015962,0.3942015,15,6
0.1506077,0.8999664,0.3946156,15,6
0.1494924,0.9033314,0.3930345,15,6
0.1491074,0.9043685,0.3933085,15,6
0.1485613,0.9083393,0.3926744,15,6
0.1483831,0.9096513,0.392262,15,6
0.1499532,0.9088,0.3889004,15,6
0.150074,0.9113851,0.3834979,15,6
0.1498229,0.9124808,0.38246,15,6
0.1491921,0.9170109,0.3803491,15,6
0.1481321,0.9193103,0.3799633,15,6
0.1487333,0.9134125,0.3842692,15,6
0.1481549,0.9110903,0.38689,15,6
0.1457966,0.9108427,0.3926772,15,6
0.1460703,0.9093368,0.3984129,15,6
0.1577797,0.9111725,0.3887939,15,6
0.177455,0.9178677,0.3687108,15,6
0.1797552,0.9221253,0.3614466,15,6
0.1550852,0.9095806,0.3776322,15,6
0.1247645,0.895503,0.4009335,15,6
0.1167328,0.9010131,0.4087898,15,6
0.1346262,0.905513,0.4034232,15,6
0.1463176,0.901254,0.4041846,15,6
0.1393037,0.9057477,0.4126692,15,6
0.1391917,0.9089259,0.4172639,15,6
0.1468571,0.9041014,0.4165807,15,6
0.1477384,0.8992696,0.415959,15,6
0.1473337,0.8931728,0.416796,15,6
0.147189,0.8972983,0.4150269,15,6
0.1468649,0.9058592,0.4113782,15,6
0.1468714,0.9042691,0.4066535,15,6
0.1423885,0.9104407,0.3990925,15,6
0.1389035,0.9176427,0.3965528,15,6
0.141871,0.9118476,0.3930354,15,6
0.1497873,0.9086756,0.380935,15,6
0.1560163,0.9073955,0.3810786,15,6
0.1508326,0.9081843,0.3933535,15,6
0.1426299,0.912689,0.3976745,15,6
0.14136,0.9075949,0.3965317,15,6
0.1402346,0.8994949,0.3958224,15,6
0.1393781,0.8951064,0.3975055,15,6
0.14197,0.891948,0.3979827,15,6
0.145161,0.8976719,0.3937352,15,6
0.1507753,0.9061301,0.388959,15,6
0.1525259,0.907969,0.3839953,15,6
0.1452224,0.9073681,0.3894579,15,6
0.1403078,0.9073776,0.3984623,15,6
0.1397845,0.9102641,0.3918662,15,6
0.1402304,0.912581,0.3884879,15,6
0.1418318,0.9109699,0.3927509,15,6
0.1407145,0.9074485,0.393875,15,6
0.1380511,0.9036974,0.3986274,15,6
0.1345181,0.9040189,0.397949,15,6
0.1354845,0.9046039,0.3936451,15,6
0.1431676,0.9030407,0.3957282,15,6
0.1466042,0.9019794,0.3995296,15,6
0.1461929,0.8993723,0.4097728,15,6
0.1457568,0.9026738,0.4164202,15,6
0.1466069,0.9115685,0.4067041,15,6
0.1490057,0.9154809,0.3980619,15,6
0.1476098,0.9143323,0.3982584,15,6
0.1441112,0.9118694,0.3963883,15,6
0.1409127,0.9118672,0.3931042,15,6
0.1424942,0.9093889,0.3951991,15,6
0.1459148,0.9052917,0.3997189,15,6
0.1412372,0.9081823,0.4021017,15,6
0.1387863,0.9103614,0.4020659,15,6
0.1410286,0.910263,0.4004622,15,6
0.1400948,0.9111681,0.4001981,15,6
0.1398642,0.9083447,0.3988531,15,6
0.1386241,0.9057615,0.3982042,15,6
0.1367835,0.9059559,0.4035997,15,6
0.1374834,0.90575,0.4050673,15,6
0.138085,0.9045075,0.4007039,15,6
0.1392066,0.9020347,0.3993213,15,6
0.141255,0.8998762,0.4007353,15,6
0.1433183,0.9029866,0.4048709,15,6
0.1447965,0.9087397,0.4072867,15,6
0.1448787,0.9081873,0.4027647,15,6
0.1437268,0.9074617,0.3982023,15,6
0.1422036,0.9095903,0.4005277,15,6
0.139387,0.908846,0.4030023,15,6
0.135965,0.9114529,0.4003895,15,6
0.136047,0.9156781,0.4002779,15,6
0.1375666,0.916265,0.400545,15,6
0.1393152,0.9132997,0.399067,15,6
0.1412094,0.9066178,0.4006315,15,6
0.1402636,0.9055689,0.400879,15,6
0.1406892,0.9071383,0.4039682,15,6
0.1418377,0.9045563,0.4080894,15,6
0.1419251,0.9044142,0.4025044,15,6
0.1453891,0.903146,0.3981046,15,6
0.1478377,0.9000907,0.4019668,15,6
0.1467195,0.9005934,0.4038046,15,6
0.1453634,0.9037379,0.4005264,15,6
0.1440409,0.9086055,0.399084,15,6
0.1435914,0.9097249,0.3997173,15,6
0.1421974,0.9094168,0.396401,15,6
0.1393123,0.9128438,0.3931922,15,6
0.1397924,0.9124626,0.3952927,15,6
0.1411885,0.9073376,0.4006341,15,6
0.1397686,0.9017174,0.4050206,15,6
0.140525,0.8982436,0.4036229,15,6
0.142564,0.9006014,0.3971968,15,6
0.1427237,0.9039134,0.3926405,15,6
0.1417513,0.9059487,0.3945822,15,6
0.1393786,0.9077271,0.3983707,15,6
0.140503,0.9050019,0.3997349,15,6
0.1432847,0.9033802,0.4008344,15,6
0.1424194,0.9064797,0.4017572,15,6
0.1426528,0.9074856,0.4028036,15,6
0.144594,0.9065575,0.4024823,15,6
0.1452012,0.9050291,0.4005208,15,6
0.1435408,0.9036056,0.4014073,15,6
0.1413926,0.9041449,0.4017395,15,6
0.1401777,0.9043539,0.3995606,15,6
0.1390887,0.9042542,0.3973419,15,6
0.139118,0.9048629,0.3919918,15,6
0.1369231,0.9051462,0.3877087,15,6
0.1356437,0.9047425,0.3896343,15,6
0.1374342,0.9048879,0.3939999,15,6
0.1373325,0.9061984,0.3987342,15,6
0.1403239,0.907061,0.4024682,15,6
0.1418052,0.9072868,0.4047348,15,6
0.1406618,0.9067754,0.4043898,15,6
0.1433671,0.9063859,0.4003585,15,6
0.1412958,0.9057207,0.3974888,15,6
0.1388015,0.9040536,0.3968386,15,6
0.13948,0.9049149,0.3973834,15,6
0.1387988,0.905723,0.3994596,15,6
0.1428323,0.9058638,0.3999127,15,6
0.1456065,0.9074648,0.3981764,15,6
0.1433491,0.905139,0.3955164,15,6
0.1425778,0.9030483,0.3942934,15,6
0.1424848,0.9053252,0.394775,15,6
0.1407126,0.9077792,0.3934144,15,6
0.1381757,0.9102369,0.3921395,15,6
0.1403144,0.9082271,0.3943491,15,6
0.1434896,0.9036213,0.3996672,15,6
0.1429904,0.903906,0.400335,15,6
0.1446995,0.9048647,0.3955955,15,6
0.145186,0.9056734,0.3960833,15,6
0.1432657,0.9076751,0.3947266,15,6
0.1426622,0.9076246,0.3914515,15,6
0.1394736,0.9091636,0.3959288,15,6
0.1377335,0.9122543,0.3974633,15,6
0.1398196,0.9104887,0.3968636,15,6
0.1407112,0.9058778,0.3978731,15,6
0.1418792,0.9036548,0.3972742,15,6
0.1422156,0.905422,0.4011448,15,6
0.1410722,0.9083753,0.4034355,15,6
0.1418691,0.9079121,0.3991706,15,6
0.1418717,0.9077847,0.3930802,15,6
0.141102,0.9093694,0.3904716,15,6
0.1410897,0.9084338,0.3960124,15,6
0.1399011,0.9080138,0.4035051,15,6
0.1402383,0.9070939,0.4079068,15,6
0.1416092,0.9053995,0.4059712,15,6
0.1416135,0.9056074,0.3996047,15,6
0.1418549,0.9045726,0.3968688,15,6
0.1414068,0.9072259,0.3939702,15,6
0.1406586,0.9104537,0.3913448,15,6
0.1402363,0.9087832,0.3954996,15,6
0.1399628,0.9098727,0.4024792,15,6
0.1403912,0.9082921,0.4035462,15,6
0.1391641,0.9054437,0.3982091,15,6
0.1375274,0.9075057,0.3954237,15,6
0.137759,0.9058268,0.396839,15,6
0.13918,0.9040091,0.3994624,15,6
0.1409759,0.904511,0.4008304,15,6
0.1404551,0.9046656,0.3996288,15,6
0.1395704,0.9062297,0.3999701,15,6
0.1397788,0.9058423,0.3998831,15,6
0.1387167,0.9071892,0.3980934,15,6
0.1398572,0.910571,0.3978247,15,6
0.1429864,0.9116506,0.3985239,15,6
0.1442966,0.9112855,0.3991444,15,6
0.1442158,0.9047051,0.3990233,15,6
0.1417307,0.8971507,0.4020222,15,6
0.1394483,0.8996154,0.404466,15,6
0.141079,0.9038367,0.3971857,15,6
0.1424369,0.9035383,0.3883248,15,6
0.1412719,0.9061753,0.3879232,15,6
0.1402013,0.9081864,0.392629,15,6
0.1385288,0.906215,0.3981036,15,6
0.1370365,0.9067087,0.404009,15,6
0.1392467,0.9054764,0.4048714,15,6
0.1413009,0.9032846,0.3981764,15,6
0.1402487,0.9053184,0.3931607,15,6
0.140883,0.9058095,0.3928871,15,6
0.1421133,0.9043627,0.3967903,15,6
0.1405142,0.9029623,0.4039469,15,6
0.1387229,0.9023798,0.4059192,15,6
0.1378292,0.9032014,0.4003517,15,6
0.1372472,0.9035769,0.3950986,15,6
0.2771875,0.4408688,0.8535804,16,6
0.2739869,0.4379217,0.8549549,16,6
0.2768942,0.4373589,0.8561807,16,6
0.2803173,0.4393042,0.8555862,16,6
0.2807188,0.4409911,0.8548867,16,6
0.2825732,0.440411,0.8551908,16,6
0.2821018,0.4397934,0.8536319,16,6
0.2813692,0.4404435,0.8545099,16,6
0.2813133,0.4390038,0.8573818,16,6
0.2802236,0.4360789,0.859025,16,6
0.2804037,0.4328704,0.8606654,16,6
0.2808008,0.4300568,0.8610835,16,6
0.2804704,0.4302853,0.861406,16,6
0.2804628,0.4309472,0.8610843,16,6
0.2799951,0.4312127,0.8607731,16,6
0.2768939,0.4354174,0.8619255,16,6
0.2745901,0.4419866,0.8626148,16,6
0.2782738,0.4474899,0.8644003,16,6
0.2825068,0.4508155,0.8629756,16,6
0.2815659,0.4484915,0.8552208,16,6
0.2813891,0.4432872,0.8475232,16,6
0.2839226,0.4437219,0.8452717,16,6
0.2843458,0.4455594,0.8491695,16,6
0.2856594,0.4438281,0.8530589,16,6
0.2867612,0.4440203,0.8555768,16,6
0.2841362,0.4435111,0.8543853,16,6
0.2818803,0.4420034,0.8494473,16,6
0.2800519,0.4422385,0.8532673,16,6
0.2809252,0.4360364,0.8571608,16,6
0.282406,0.4298947,0.8544222,16,6
0.2779217,0.4352502,0.8560261,16,6
0.2750676,0.4399699,0.8557908,16,6
0.2766819,0.4373836,0.8548409,16,6
0.2790419,0.438801,0.8563697,16,6
0.2850441,0.4435925,0.8549916,16,6
0.2910311,0.4433918,0.8555074,16,6
0.28908,0.4422771,0.8536948,16,6
0.283609,0.441618,0.8471262,16,6
0.2832143,0.4395025,0.8434752,16,6
0.2844216,0.440135,0.8482292,16,6
0.2856332,0.440788,0.8606496,16,6
0.2861318,0.4403989,0.8655862,16,6
0.2801762,0.443108,0.85804,16,6
0.2733325,0.4455102,0.8502857,16,6
0.2715129,0.4456717,0.8503115,16,6
0.276188,0.4465287,0.8528922,16,6
0.2827612,0.4478228,0.8514582,16,6
0.2833782,0.4470813,0.8523097,16,6
0.2841648,0.4457292,0.8541161,16,6
0.2855661,0.4448889,0.8553629,16,6
0.2850129,0.4426802,0.8576255,16,6
0.2855221,0.4413037,0.8521934,16,6
0.2834441,0.4414629,0.8478789,16,6
0.2815634,0.4413844,0.8508981,16,6
0.281032,0.4404709,0.8520488,16,6
0.2789761,0.4398129,0.8539037,16,6
0.2782487,0.4430188,0.8575779,16,6
0.2786473,0.4465649,0.86083,16,6
0.280224,0.4475773,0.8608847,16,6
0.2813565,0.4471812,0.8581189,16,6
0.2811495,0.444114,0.8588577,16,6
0.2821897,0.4432747,0.8588195,16,6
0.2822259,0.4447773,0.8550895,16,6
0.2815726,0.4443855,0.8517952,16,6
0.2821275,0.4435143,0.8496654,16,6
0.2819866,0.4426375,0.8479684,16,6
0.2814279,0.4431007,0.8471583,16,6
0.280305,0.4432814,0.8499098,16,6
0.2789209,0.442735,0.8525066,16,6
0.2807,0.4433229,0.8517474,16,6
0.2828202,0.4431108,0.852925,16,6
0.2809726,0.4442604,0.8558711,16,6
0.2796462,0.4466798,0.8555507,16,6
0.2798316,0.4471123,0.8523635,16,6
0.2780296,0.4443818,0.8510779,16,6
0.2782678,0.4400467,0.8530476,16,6
0.2834319,0.4396278,0.8537464,16,6
0.2881124,0.4407788,0.8473857,16,6
0.2880366,0.4400944,0.8390432,16,6
0.2865351,0.4413252,0.8416052,16,6
0.2858031,0.4459124,0.8492482,16,6
0.2830257,0.4510483,0.8499661,16,6
0.2811137,0.4502671,0.8489311,16,6
0.2820525,0.4448844,0.8492032,16,6
0.2820789,0.4418232,0.8482549,16,6
0.2818583,0.4403152,0.8495378,16,6
0.2819684,0.4406797,0.8517705,16,6
0.2822583,0.4414609,0.8507072,16,6
0.2840094,0.4398153,0.8494128,16,6
0.2862178,0.440377,0.8496829,16,6
0.2873888,0.4425495,0.8519066,16,6
0.2860513,0.4432466,0.8556174,16,6
0.2831559,0.4437317,0.8565699,16,6
0.2811448,0.4445235,0.8530959,16,6
0.281617,0.4460371,0.8484263,16,6
0.282649,0.4445221,0.8512821,16,6
0.2813689,0.4415779,0.8566933,16,6
0.2811152,0.44255,0.8569558,16,6
0.2816248,0.4425979,0.8593753,16,6
0.2816391,0.4419008,0.8547239,16,6
0.2828679,0.4427869,0.8464677,16,6
0.283467,0.4414468,0.8519385,16,6
0.2850586,0.4388948,0.8567107,16,6
0.2852538,0.4366889,0.8562573,16,6
0.2827616,0.437381,0.8557562,16,6
0.2825902,0.4403607,0.850645,16,6
0.2817441,0.4411945,0.8478962,16,6
0.2814969,0.4409844,0.8475354,16,6
0.2827963,0.4365167,0.8484166,16,6
0.2821949,0.4313,0.8525343,16,6
0.2827708,0.4340984,0.853484,16,6
0.2820728,0.4360759,0.8540335,16,6
0.2811849,0.4347171,0.8547876,16,6
0.28263,0.4382668,0.852052,16,6
0.2817201,0.4419331,0.8499673,16,6
0.2815337,0.4412512,0.8482238,16,6
0.2815089,0.4412256,0.8491931,16,6
0.2800436,0.4424566,0.853013,16,6
0.2826173,0.4428703,0.8524157,16,6
0.2878304,0.445785,0.8490364,16,6
0.2911623,0.4469646,0.843592,16,6
0.2880836,0.4389617,0.8423065,16,6
0.2829846,0.4329,0.8554505,16,6
0.2836861,0.4396258,0.8668702,16,6
0.2829102,0.446118,0.8604783,16,6
0.2804033,0.4418831,0.8511168,16,6
0.2803411,0.4395702,0.8507068,16,6
0.2769611,0.4412575,0.8501178,16,6
0.2751483,0.4379963,0.8494333,16,6
0.2774406,0.4381529,0.8523637,16,6
0.2784625,0.4405297,0.8515448,16,6
0.281754,0.4397667,0.850762,16,6
0.2857332,0.4420288,0.8514584,16,6
0.2864792,0.4405314,0.8483383,16,6
0.2863111,0.4372411,0.8465062,16,6
0.285818,0.4396303,0.8473756,16,6
0.2861512,0.4400387,0.8493813,16,6
0.2856212,0.4399999,0.8508831,16,6
0.2815183,0.4412102,0.8516446,16,6
0.2760913,0.4416239,0.8533662,16,6
0.2740082,0.4444214,0.8529226,16,6
0.278288,0.4470222,0.8532911,16,6
0.2824099,0.4489876,0.8575285,16,6
0.2820642,0.4494975,0.8602528,16,6
0.2824298,0.4475657,0.8563399,16,6
0.284629,0.4478674,0.8502745,16,6
0.2868556,0.4474413,0.8508915,16,6
0.2865922,0.446437,0.8519062,16,6
0.2853107,0.4475147,0.8493165,16,6
0.286701,0.4453089,0.850071,16,6
0.2869649,0.4433621,0.8518638,16,6
0.2864113,0.4442488,0.8516924,16,6
0.2858804,0.4447276,0.8516257,16,6
0.2828756,0.4470951,0.8539986,16,6
0.2813871,0.4481854,0.8565321,16,6
0.2818169,0.4475865,0.8546621,16,6
0.2821051,0.4491614,0.8530081,16,6
0.2820741,0.4497793,0.8531003,16,6
0.2816251,0.4498434,0.8522989,16,6
0.2820188,0.4499959,0.8525417,16,6
0.2812159,0.447832,0.8516103,16,6
0.2821997,0.4457342,0.8496129,16,6
0.2886942,0.4457226,0.8474483,16,6
0.2932668,0.44685,0.8432165,16,6
0.2895167,0.4472128,0.8439179,16,6
0.2825833,0.4454113,0.8490146,16,6
0.2810156,0.4442948,0.8505225,16,6
0.2819592,0.4481093,0.8515301,16,6
0.2808739,0.4551641,0.8501247,16,6
0.279535,0.457768,0.8472931,16,6
0.2789173,0.4523035,0.8501274,16,6
0.2811535,0.4469759,0.8517372,16,6
0.282914,0.448183,0.8517617,16,6
0.2825871,0.448633,0.8523247,16,6
0.2835999,0.4462908,0.8490296,16,6
0.2838304,0.4472044,0.8480162,16,6
0.2848876,0.4477709,0.8498353,16,6
0.2871826,0.4466644,0.8503997,16,6
0.2876601,0.4473059,0.8508425,16,6
0.287107,0.4465843,0.8506635,16,6
0.2841701,0.4461687,0.8509117,16,6
0.2794306,0.447697,0.8513772,16,6
0.2769249,0.4473477,0.8515976,16,6
0.2783344,0.4469267,0.8513853,16,6
0.2801004,0.4475909,0.8513143,16,6
0.2789994,0.4480818,0.8522432,16,6
0.2791324,0.4482955,0.8509156,16,6
0.2823142,0.446095,0.8485993,16,6
0.2867353,0.4433999,0.8481696,16,6
0.2903803,0.4445649,0.8487251,16,6
0.2890939,0.4469251,0.8486803,16,6
0.2869002,0.4473309,0.8473837,16,6
0.2879453,0.4468672,0.8471143,16,6
0.2874141,0.4444698,0.8472088,16,6
0.2864541,0.4424262,0.8478683,16,6
0.2844502,0.4451536,0.8509941,16,6
0.2804479,0.4486047,0.8536437,16,6
0.2816114,0.4490504,0.8533229,16,6
0.282995,0.4484703,0.8525349,16,6
0.2806161,0.4483245,0.8556747,16,6
0.279451,0.4473459,0.8576268,16,6
0.2772523,0.4441787,0.8537721,16,6
0.2773519,0.4426521,0.8510696,16,6
0.2812637,0.4457089,0.8517699,16,6
0.2842346,0.4482802,0.8508786,16,6
0.2868509,0.4456628,0.8432044,16,6
0.2847099,0.4413306,0.8365256,16,6
0.2805754,0.4399666,0.8435891,16,6
0.281108,0.4419295,0.8543148,16,6
0.2797259,0.444778,0.856476,16,6
0.2780511,0.4439697,0.853011,16,6
0.2788554,0.4421533,0.8499104,16,6
0.2773861,0.4433608,0.8513539,16,6
0.2776415,0.4430406,0.8513605,16,6
0.2792179,0.4416276,0.8461523,16,6
0.2792132,0.440828,0.8432918,16,6
0.2806478,0.4397186,0.844399,16,6
0.2825202,0.4403859,0.8469259,16,6
0.2838627,0.4405077,0.8518991,16,6
0.2834157,0.439953,0.858265,16,6
0.2818856,0.4394447,0.8594634,16,6
0.2814999,0.4348404,0.8539237,16,6
0.2791586,0.4309569,0.8496772,16,6
0.2770732,0.4351948,0.8486922,16,6
0.2787659,0.4405909,0.8517411,16,6
0.2806876,0.4387098,0.8572649,16,6
0.2806033,0.4359274,0.8569072,16,6
0.2792848,0.4351788,0.8570899,16,6
0.2780732,0.4321722,0.8596334,16,6
0.2778105,0.431778,0.8578106,16,6
0.2795297,0.4340795,0.8575941,16,6
0.2813518,0.4349998,0.8562183,16,6
0.2805367,0.4351471,0.8527874,16,6
0.2802136,0.4349394,0.8538205,16,6
0.2808566,0.4383963,0.8529636,16,6
0.2806272,0.4413476,0.8508855,16,6
0.2813963,0.4383964,0.854016,16,6
0.2823276,0.4365276,0.8568822,16,6
0.2819656,0.4375914,0.8569353,16,6
0.2815873,0.4378806,0.8622729,16,6
0.2811698,0.4372023,0.8702845,16,6
0.2801135,0.436931,0.8683251,16,6
0.2794612,0.4345809,0.8627061,16,6
0.2792029,0.4294979,0.862387,16,6
0.2801557,0.4285633,0.861675,16,6
0.2855719,0.4313145,0.8593311,16,6
0.2905145,0.4325656,0.8552177,16,6
0.2867492,0.4318432,0.8523062,16,6
0.2798327,0.4310015,0.8541016,16,6
0.2782416,0.4323741,0.8537444,16,6
0.2792618,0.4339314,0.8544493,16,6
0.2791673,0.4344313,0.8596202,16,6
0.2780613,0.4345905,0.8618803,16,6
0.2763007,0.433886,0.8603332,16,6
0.2752495,0.4331059,0.8545308,16,6
0.2750029,0.4334475,0.8500745,16,6
0.2761148,0.4356078,0.8516686,16,6
0.2794109,0.4374732,0.8502619,16,6
0.2832379,0.4377967,0.8476415,16,6
0.2857975,0.4373198,0.850789,16,6
0.2848169,0.4363654,0.8543581,16,6
0.2828666,0.4360782,0.8543929,16,6
0.2823276,0.4354099,0.8540315,16,6
0.2792456,0.4338485,0.8542812,16,6
0.2762087,0.4328898,0.8558087,16,6
0.2771909,0.4339598,0.8632114,16,6
0.2798448,0.4351889,0.8707794,16,6
0.2808929,0.4351885,0.8690033,16,6
0.279653,0.4375402,0.8649171,16,6
0.2787899,0.4376995,0.8621215,16,6
0.2768541,0.4340201,0.8542315,16,6
0.2767272,0.434417,0.8516618,16,6
0.2815099,0.4401508,0.8570799,16,6
0.2826051,0.4466973,0.8555567,16,6
0.2805133,0.444633,0.8545726,16,6
0.2795295,0.440193,0.855763,16,6
0.2786383,0.4425169,0.8489125,16,6
0.2794173,0.4400731,0.844019,16,6
0.2792333,0.4391739,0.8442529,16,6
0.2788885,0.4437386,0.8473326,16,6
0.2791496,0.4427356,0.8510853,16,6
0.277117,0.4425588,0.8534144,16,6
0.2759439,0.4408224,0.8581645,16,6
0.2762506,0.4374685,0.8561595,16,6
0.277676,0.440546,0.8519092,16,6
0.2823133,0.4426231,0.855004,16,6
0.2887762,0.4432431,0.8538168,16,6
0.2892246,0.4434555,0.8492432,16,6
0.2806563,0.4428389,0.8455086,16,6
0.2757059,0.4453968,0.8439937,16,6
0.2785946,0.4470475,0.8502399,16,6
0.2802656,0.4465953,0.8547006,16,6
0.2783677,0.4455841,0.8516293,16,6
0.2760087,0.4456091,0.8487373,16,6
0.2753259,0.4476322,0.8465939,16,6
0.277104,0.448994,0.8432808,16,6
0.280392,0.4502117,0.8435869,16,6
0.2802167,0.4485527,0.8474086,16,6
0.280617,0.44599,0.8491165,16,6
0.2852102,0.4474928,0.8502342,16,6
0.2844721,0.4475757,0.8545822,16,6
0.2837759,0.4467367,0.8600282,16,6
0.2861419,0.4495048,0.8574454,16,6
0.2849093,0.4578618,0.8452252,16,6
0.2863132,0.4698675,0.8364705,16,6
0.2868314,0.4710856,0.8374192,16,6
0.2851652,0.4614633,0.8455633,16,6
0.2867231,0.4560725,0.85125,16,6
0.2851403,0.4547821,0.8483276,16,6
0.2812975,0.4552561,0.847791,16,6
0.2783191,0.4569201,0.8488743,16,6
0.2783771,0.4576495,0.8455429,16,6
0.2814781,0.459995,0.8443939,16,6
0.2814454,0.4575018,0.8486799,16,6
0.2827755,0.4516975,0.8560666,16,6
0.2845507,0.4526417,0.8572913,16,6
0.28332,0.453262,0.8501489,16,6
0.2842929,0.452254,0.844984,16,6
0.2834351,0.4530161,0.8454794,16,6
0.2823415,0.4518419,0.8454922,16,6
0.2825132,0.4520056,0.8446808,16,6
0.2775883,0.4531314,0.8523838,16,6
0.2741397,0.4533515,0.8586652,16,6
0.2756592,0.4559357,0.8537347,16,6
0.2787459,0.4598256,0.8523377,16,6
0.2820294,0.460083,0.8538681,16,6
0.2825975,0.4571585,0.8504823,16,6
0.2830109,0.4576159,0.8455679,16,6
0.2830712,0.4569507,0.8413236,16,6
0.281439,0.4544408,0.842048,16,6
0.2826949,0.458737,0.8451927,16,6
0.2837724,0.461148,0.8490206,16,6
0.2808773,0.4577644,0.8545937,16,6
0.2781111,0.4536208,0.8535569,16,6
0.2771272,0.4485646,0.8504267,16,6
0.2771974,0.4508125,0.8526567,16,6
0.2782126,0.4550393,0.8510462,16,6
0.2795467,0.4520397,0.8436499,16,6
0.281209,0.4524011,0.836511,16,6
0.2840531,0.4546649,0.8351454,16,6
0.2872509,0.4538862,0.8414585,16,6
0.2863227,0.4553531,0.8449319,16,6
0.2830618,0.4553611,0.8433941,16,6
0.2817753,0.4524356,0.8442828,16,6
0.2780491,0.4499072,0.8467042,16,6
0.2749684,0.4495837,0.8498695,16,6
0.2766159,0.4523676,0.8520028,16,6
0.2765344,0.4531294,0.8524923,16,6
0.2751779,0.45168,0.852228,16,6
0.274871,0.45104,0.8492855,16,6
0.2750382,0.4502639,0.8491928,16,6
0.2766577,0.4500375,0.8508727,16,6
0.2793724,0.4490846,0.8482647,16,6
0.2823762,0.446451,0.8467307,16,6
0.2824482,0.4439431,0.8471341,16,6
0.2813601,0.445465,0.8461631,16,6
0.2822327,0.4488371,0.8428187,16,6
0.2819786,0.4470126,0.8398192,16,6
0.2813721,0.4464428,0.8421346,16,6
0.2803915,0.4483673,0.8428603,16,6
0.2782982,0.4473581,0.8426072,16,6
0.2780837,0.4483594,0.8475107,16,6
0.2779899,0.4490807,0.8480289,16,6
0.2775375,0.4489569,0.8463787,16,6
0.279959,0.4500109,0.8470967,16,6
0.2848848,0.4488152,0.8441007,16,6
0.2886327,0.4494725,0.8442736,16,6
0.2860213,0.4508094,0.8490688,16,6
0.2811561,0.4511155,0.8502902,16,6
0.2817725,0.4514474,0.8496006,16,6
0.2824365,0.4475374,0.8488158,16,6
0.2812276,0.4449452,0.8445991,16,6
0.2814216,0.4451306,0.8423724,16,6
0.2802073,0.4431267,0.8467475,16,6
0.2802411,0.4431906,0.8490672,16,6
0.2811227,0.4459648,0.8514967,16,6
0.280119,0.4470923,0.8533005,16,6
0.2812206,0.4428914,0.8498039,16,6
0.2833919,0.4373909,0.8526155,16,6
0.2855896,0.438598,0.8540946,16,6
0.2871307,0.4413434,0.8511225,16,6
0.287242,0.4425825,0.8528879,16,6
0.2873235,0.4453982,0.8507165,16,6
0.2833972,0.4442252,0.8495183,16,6
0.278739,0.4398999,0.84907,16,6
0.2787508,0.4384102,0.8455705,16,6
0.2793552,0.4386499,0.8482325,16,6
0.2794455,0.440168,0.8499749,16,6
0.280102,0.4406704,0.8501645,16,6
0.2815277,0.4391803,0.8519646,16,6
0.2821464,0.4369724,0.8532325,16,6
0.2824496,0.4342815,0.8555528,16,6
0.2845876,0.4377082,0.8537748,16,6
0.28338,0.4421461,0.8533094,16,6
0.280489,0.437851,0.8543827,16,6
0.2813997,0.4343395,0.8516581,16,6
0.2839363,0.4350384,0.8530658,16,6
0.2867782,0.4355688,0.8546207,16,6
0.2847302,0.4374143,0.8556114,16,6
0.2796074,0.4379333,0.8594423,16,6
0.2793444,0.4372073,0.8601894,16,6
0.278594,0.4376007,0.8600393,16,6
0.2774412,0.4377018,0.8554921,16,6
0.2785173,0.4381411,0.8494372,16,6
0.278019,0.438521,0.8546053,16,6
0.2812008,0.4380003,0.8595616,16,6
0.2853699,0.4370776,0.8555803,16,6
0.2842225,0.4331886,0.8524753,16,6
0.2821996,0.428791,0.8503692,16,6
0.2780402,0.4307334,0.8498636,16,6
0.2747471,0.4347771,0.855997,16,6
0.2775709,0.4361624,0.8598586,16,6
0.2813487,0.436423,0.8562751,16,6
0.2837808,0.4334143,0.8535338,16,6
0.282176,0.4320901,0.8554816,16,6
0.2781036,0.4343584,0.861824,16,6
0.2790122,0.4330774,0.8679717,16,6
0.2802165,0.433265,0.8666725,16,6
0.2802886,0.4358282,0.8620759,16,6
0.2833366,0.4360742,0.8602874,16,6
0.2849322,0.436187,0.8577391,16,6
0.2856254,0.4338934,0.8564445,16,6
0.2841689,0.4317004,0.8585968,16,6
0.2792657,0.4319644,0.856967,16,6
0.2789907,0.4317482,0.8545506,16,6
0.2790111,0.432015,0.8543948,16,6
0.2768069,0.430962,0.8554323,16,6
0.2791799,0.4304853,0.8618138,16,6
0.2806842,0.4325562,0.8648727,16,6
0.2805,0.4334047,0.859857,16,6
0.281851,0.431841,0.8550775,16,6
0.2824441,0.4301112,0.8544721,16,6
0.2847751,0.4338599,0.8555668,16,6
0.2869279,0.4397803,0.8535954,16,6
0.286038,0.440702,0.8547866,16,6
0.2845457,0.4383782,0.8609592,16,6
0.2827418,0.4356666,0.8660647,16,6
0.2809223,0.4354444,0.8666275,16,6
0.2790515,0.4348212,0.8570063,16,6
0.2776999,0.4332967,0.8495425,16,6
0.2791104,0.4377328,0.8526194,16,6
0.2815402,0.4423193,0.8530388,16,6
0.2806139,0.441099,0.8509606,16,6
0.2786901,0.4401683,0.8538362,16,6
0.2787781,0.4406883,0.8556661,16,6
0.2785851,0.4403653,0.8482699,16,6
0.2814687,0.4421149,0.8424327,16,6
0.2859327,0.4446963,0.848871,16,6
0.2863874,0.4444177,0.8530878,16,6
0.2859305,0.4454147,0.84659,16,6
0.2841645,0.4469176,0.8420969,16,6
0.2826303,0.4458641,0.8454028,16,6
0.2831722,0.4475226,0.8479229,16,6
0.2813778,0.4482159,0.8488322,16,6
0.2789137,0.4434057,0.852285,16,6
0.2779985,0.4394403,0.8569124,16,6
0.2787931,0.4376561,0.8621774,16,6
0.2805683,0.44092,0.8598953,16,6
0.281676,0.4470679,0.850689,16,6
0.282318,0.4446087,0.8475581,16,6
0.2821742,0.4429733,0.8502537,16,6
0.2838145,0.4470583,0.8544772,16,6
0.2863694,0.4465912,0.8549571,16,6
0.2863825,0.4480935,0.8537479,16,6
0.2857669,0.449716,0.8569528,16,6
0.2848257,0.4477094,0.8563602,16,6
0.2827724,0.4488482,0.853111,16,6
0.2812439,0.4476235,0.8527826,16,6
0.2820525,0.4456241,0.8512512,16,6
0.2831143,0.4465374,0.847363,16,6
0.2825056,0.4481729,0.8435566,16,6
0.2825958,0.4511159,0.8441408,16,6
0.2825566,0.450084,0.8456171,16,6
0.2816367,0.4482712,0.8466198,16,6
0.2809089,0.4490105,0.8503722,16,6
0.280336,0.4482823,0.8525251,16,6
0.280559,0.4486587,0.854095,16,6
0.280613,0.448836,0.8533625,16,6
0.2805061,0.4486325,0.8490144,16,6
0.2804268,0.4506667,0.8469166,16,6
0.2795968,0.4518323,0.8439346,16,6
0.2787858,0.4515366,0.8434189,16,6
0.2777648,0.4513165,0.8488817,16,6
0.2759203,0.4523133,0.85367,16,6
0.274661,0.4532446,0.8577025,16,6
0.2766509,0.4531671,0.8547162,16,6
0.2788351,0.4553962,0.8483192,16,6
0.2777791,0.4578923,0.85135,16,6
0.2795603,0.4571448,0.8498359,16,6
0.2861228,0.4564021,0.8438373,16,6
0.2903065,0.4572155,0.846269,16,6
0.2874782,0.4567048,0.8457483,16,6
0.2830908,0.4552062,0.8422116,16,6
0.2830451,0.4553,0.8406441,16,6
0.2814626,0.4557968,0.8392761,16,6
0.2781221,0.4555399,0.8408694,16,6
0.2769547,0.4550923,0.8405556,16,6
0.2759176,0.4541931,0.8406018,16,6
0.2782836,0.4538815,0.8429457,16,6
0.2803033,0.4554167,0.8431449,16,6
0.1943966,0.5317094,0.834933,17,6
0.1938159,0.5319046,0.8337903,17,6
0.1907567,0.5332984,0.8291312,17,6
0.1884863,0.5360284,0.8250651,17,6
0.1916986,0.5350338,0.8271794,17,6
0.1983844,0.5368728,0.8318914,17,6
0.1988815,0.5400528,0.8323515,17,6
0.1946089,0.5369537,0.8321115,17,6
0.1925555,0.5348613,0.8339064,17,6
0.1953194,0.5356925,0.8350431,17,6
0.1985402,0.5359049,0.8342091,17,6
0.1951485,0.5378083,0.8298456,17,6
0.191816,0.5398174,0.8264357,17,6
0.1916666,0.5387324,0.8275885,17,6
0.1905158,0.5376385,0.8283762,17,6
0.1944138,0.5385981,0.827533,17,6
0.1992607,0.5389293,0.8275993,17,6
0.1970906,0.5386351,0.8268397,17,6
0.1950463,0.5371511,0.8211886,17,6
0.1941105,0.5355096,0.8153377,17,6
0.1905301,0.5372305,0.8176881,17,6
0.1892068,0.5389639,0.8242497,17,6
0.1898926,0.538619,0.8276784,17,6
0.1887568,0.5367972,0.8274422,17,6
0.1901533,0.5336483,0.8254201,17,6
0.194624,0.5335659,0.8233744,17,6
0.1960137,0.5379921,0.8222485,17,6
0.1924906,0.5414198,0.823856,17,6
0.1886547,0.5386802,0.8283125,17,6
0.1907573,0.5347022,0.8319785,17,6
0.1951026,0.5344405,0.8357253,17,6
0.1969801,0.5335289,0.8391134,17,6
0.1980751,0.5344109,0.8370883,17,6
0.1967367,0.5374064,0.8348639,17,6
0.1957378,0.5355195,0.8346875,17,6
0.1952143,0.5327722,0.8323295,17,6
0.1922675,0.5318224,0.8318578,17,6
0.191198,0.5312794,0.8328674,17,6
0.1904083,0.5325058,0.8334626,17,6
0.1915754,0.5321301,0.8337634,17,6
0.1953302,0.532363,0.8333373,17,6
0.1939713,0.5339999,0.8362395,17,6
0.19114,0.5322082,0.8385038,17,6
0.1888944,0.5310829,0.8373769,17,6
0.1870211,0.5308188,0.8373223,17,6
0.1879133,0.5299007,0.8363173,17,6
0.1876963,0.5307457,0.8313308,17,6
0.1890714,0.5301231,0.8266734,17,6
0.1912788,0.5299432,0.8314595,17,6
0.1900528,0.5313205,0.8377149,17,6
0.190079,0.5299492,0.8350328,17,6
0.1905482,0.528479,0.8371193,17,6
0.1904458,0.527903,0.8435733,17,6
0.1921595,0.5286419,0.8445407,17,6
0.1935648,0.5325868,0.8476076,17,6
0.1927391,0.5340778,0.8464391,17,6
0.1899775,0.5321744,0.8339425,17,6
0.1882345,0.531606,0.8251176,17,6
0.1887095,0.5319227,0.8281629,17,6
0.1892191,0.5317708,0.8365467,17,6
0.1897221,0.5300703,0.8420698,17,6
0.1931512,0.528523,0.8461358,17,6
0.1974478,0.5288086,0.8510567,17,6
0.1955505,0.5274261,0.8478633,17,6
0.1904069,0.5246344,0.8408342,17,6
0.1863537,0.5237952,0.8411308,17,6
0.1831848,0.5249556,0.8417808,17,6
0.1851935,0.5269337,0.839114,17,6
0.1883752,0.5282318,0.8392958,17,6
0.1889803,0.5268782,0.8424505,17,6
0.1907722,0.5241852,0.8452178,17,6
0.1919961,0.5222724,0.844907,17,6
0.1927272,0.5199675,0.8412829,17,6
0.189769,0.5199589,0.839654,17,6
0.1837314,0.5226896,0.8409695,17,6
0.1843835,0.5238665,0.8412841,17,6
0.1869441,0.5238592,0.8445479,17,6
0.1884781,0.522447,0.8468806,17,6
0.1914663,0.5220859,0.8441897,17,6
0.1900502,0.5244171,0.8455079,17,6
0.1874159,0.5247823,0.8419712,17,6
0.1857817,0.522537,0.8337144,17,6
0.1837353,0.5198007,0.8353871,17,6
0.1851723,0.5205851,0.8380752,17,6
0.1866213,0.5228971,0.8417548,17,6
0.1859167,0.5227019,0.8451934,17,6
0.1855513,0.5234994,0.8413102,17,6
0.1857848,0.5212941,0.8404436,17,6
0.1868063,0.5182559,0.8394932,17,6
0.1869062,0.5215058,0.841163,17,6
0.1875994,0.5232012,0.8469713,17,6
0.1889883,0.5215569,0.8441812,17,6
0.1881177,0.5203338,0.8433912,17,6
0.186392,0.5192029,0.8456554,17,6
0.1840244,0.5203215,0.8440786,17,6
0.1836654,0.5221123,0.8463503,17,6
0.1836072,0.5209013,0.847703,17,6
0.1790987,0.5167951,0.8452211,17,6
0.1787416,0.5142796,0.8438338,17,6
0.1832241,0.5160544,0.8446191,17,6
0.1863902,0.517523,0.8467278,17,6
0.1883411,0.5164374,0.8474454,17,6
0.1850828,0.5161932,0.84723,17,6
0.1808481,0.5161929,0.8463755,17,6
0.1804507,0.5153098,0.8461435,17,6
0.1812974,0.5177962,0.8464363,17,6
0.1835249,0.5207228,0.8438348,17,6
0.1836359,0.5190241,0.8423335,17,6
0.1829337,0.516803,0.8441476,17,6
0.1836841,0.5147655,0.8449344,17,6
0.1831236,0.5131772,0.84432,17,6
0.1829984,0.5148811,0.8442942,17,6
0.1816937,0.5159317,0.8446411,17,6
0.1799508,0.5146338,0.8445338,17,6
0.1816391,0.5134356,0.8452866,17,6
0.183397,0.5121544,0.8462432,17,6
0.1831504,0.5121121,0.8463366,17,6
0.1814739,0.5129837,0.8483807,17,6
0.1799744,0.5123337,0.8509316,17,6
0.1804269,0.5130338,0.8499275,17,6
0.1808881,0.5164041,0.8475738,17,6
0.1804014,0.518885,0.8470069,17,6
0.1804679,0.518554,0.847128,17,6
0.1811075,0.5173388,0.8472762,17,6
0.1822013,0.5182541,0.8468047,17,6
0.1838818,0.5184152,0.8443524,17,6
0.1842016,0.517494,0.8423473,17,6
0.1854348,0.5184392,0.8426009,17,6
0.1886416,0.5176768,0.8426213,17,6
0.1878808,0.5159769,0.8416318,17,6
0.1865701,0.5151467,0.8434638,17,6
0.1872462,0.5147372,0.8473292,17,6
0.1829669,0.5156248,0.8476824,17,6
0.1797305,0.5143002,0.8467478,17,6
0.1849477,0.5130906,0.846475,17,6
0.1895957,0.5134002,0.8456431,17,6
0.1870398,0.5120507,0.847576,17,6
0.1837327,0.5123859,0.8525273,17,6
0.1842522,0.5132108,0.8572355,17,6
0.1873847,0.5143177,0.8575661,17,6
0.1914081,0.51779,0.8540419,17,6
0.1883043,0.5187871,0.8507147,17,6
0.1800053,0.5179532,0.8447032,17,6
0.17892,0.5192203,0.8395189,17,6
0.1827163,0.5216688,0.8416001,17,6
0.1861258,0.5228102,0.8438611,17,6
0.1863148,0.5221669,0.8435026,17,6
0.1850057,0.521134,0.8447929,17,6
0.1872293,0.517556,0.8448334,17,6
0.1869406,0.5121056,0.8436654,17,6
0.1870265,0.5115306,0.8437196,17,6
0.1882686,0.51447,0.8421265,17,6
0.1847826,0.5147606,0.8432659,17,6
0.1842255,0.5143158,0.8509633,17,6
0.1840905,0.5138976,0.8559731,17,6
0.1826481,0.5124566,0.8528784,17,6
0.1837675,0.5125564,0.8495529,17,6
0.1831029,0.5124982,0.8510673,17,6
0.1831702,0.512833,0.8480591,17,6
0.1826526,0.5155141,0.8410181,17,6
0.1811167,0.516676,0.8413753,17,6
0.1813448,0.5143723,0.8440444,17,6
0.1805768,0.5112212,0.8446334,17,6
0.1821788,0.5127266,0.8448723,17,6
0.1844011,0.5162097,0.8435502,17,6
0.1841442,0.5166794,0.8432332,17,6
0.1845684,0.5169639,0.8427453,17,6
0.1839165,0.5153854,0.843439,17,6
0.1820005,0.5137788,0.8466581,17,6
0.1818842,0.5141457,0.8488954,17,6
0.1841434,0.5134598,0.8496667,17,6
0.1860085,0.5139624,0.8482617,17,6
0.1853378,0.513116,0.8504435,17,6
0.1834628,0.5118067,0.8546853,17,6
0.182812,0.5130579,0.8533182,17,6
0.1830989,0.5132851,0.8507022,17,6
0.1806641,0.5139061,0.8473049,17,6
0.1786748,0.5133003,0.8457635,17,6
0.1823116,0.5117669,0.8458024,17,6
0.1876403,0.5127247,0.843133,17,6
0.1901594,0.5126152,0.8443011,17,6
0.1899397,0.5122828,0.843405,17,6
0.1868059,0.5128591,0.8400554,17,6
0.1806801,0.5138238,0.8427633,17,6
0.1783658,0.5168828,0.8447578,17,6
0.1838875,0.5186232,0.8469742,17,6
0.1878296,0.516358,0.8483805,17,6
0.185049,0.51425,0.8463319,17,6
0.1828668,0.5150071,0.8474452,17,6
0.1843132,0.5139639,0.8473663,17,6
0.1841778,0.5114659,0.8457882,17,6
0.1826685,0.5126684,0.846554,17,6
0.1824788,0.5139148,0.8483729,17,6
0.1819688,0.5136834,0.8518714,17,6
0.1826227,0.5141798,0.8520988,17,6
0.1833522,0.5139513,0.8505682,17,6
0.180594,0.5144854,0.8519792,17,6
0.1785199,0.514898,0.8525112,17,6
0.1808047,0.5135147,0.8536231,17,6
0.1832358,0.5136514,0.8545407,17,6
0.1827112,0.5144411,0.8515283,17,6
0.183296,0.514754,0.8477275,17,6
0.1852267,0.5164323,0.84342,17,6
0.186323,0.5171819,0.8374846,17,6
0.1876382,0.5162474,0.8356554,17,6
0.1851452,0.5153804,0.8465042,17,6
0.1817936,0.5133753,0.8585373,17,6
0.183531,0.5117086,0.8513863,17,6
0.1838868,0.5125495,0.8431313,17,6
0.1827301,0.5128416,0.8464775,17,6
0.1836338,0.5123596,0.839038,17,6
0.1833585,0.5136771,0.8322073,17,6
0.1827711,0.5151463,0.8427033,17,6
0.1817665,0.515485,0.8489526,17,6
0.1800589,0.5156729,0.8458875,17,6
0.1812488,0.5169123,0.8465926,17,6
0.1823461,0.5185219,0.8500843,17,6
0.1799629,0.5168596,0.8498156,17,6
0.1798323,0.5131925,0.8472329,17,6
0.1864081,0.5118983,0.8411387,17,6
0.1925135,0.5124007,0.8327923,17,6
0.1895027,0.512607,0.8410056,17,6
0.1839523,0.5115243,0.8546944,17,6
0.1829163,0.5106793,0.8512881,17,6
0.1816856,0.5117771,0.8491198,17,6
0.1822725,0.5138559,0.8517181,17,6
0.1845064,0.5156118,0.8516589,17,6
0.1825331,0.5139279,0.8550429,17,6
0.1816316,0.5112547,0.8529522,17,6
0.1824275,0.5122647,0.8490285,17,6
0.1834223,0.5116269,0.8493091,17,6
0.1857047,0.5103607,0.8447392,17,6
0.1842933,0.5131169,0.8402582,17,6
0.1824592,0.5128512,0.8385446,17,6
0.1816274,0.5098024,0.8386765,17,6
0.180241,0.5101365,0.8436923,17,6
0.1823986,0.5123316,0.8472193,17,6
0.184068,0.5143278,0.8476334,17,6
0.1831571,0.5124468,0.8471569,17,6
0.1822104,0.5087896,0.8458676,17,6
0.1817104,0.5096944,0.8459335,17,6
0.182049,0.5107234,0.8449851,17,6
0.181868,0.5118771,0.8416376,17,6
0.1819938,0.5150476,0.8368216,17,6
0.1819792,0.5139695,0.8352232,17,6
0.1821592,0.512195,0.8403916,17,6
0.1839347,0.5131818,0.8433826,17,6
0.1850905,0.5142184,0.8427992,17,6
0.1842955,0.516713,0.8432027,17,6
0.1807916,0.5173775,0.8421743,17,6
0.1781218,0.5155359,0.842033,17,6
0.1797221,0.5139989,0.843455,17,6
0.1832017,0.5111213,0.8455677,17,6
0.1854696,0.5114664,0.8482841,17,6
0.1840848,0.5153362,0.8480358,17,6
0.18249,0.5157183,0.8489384,17,6
0.1835194,0.5148359,0.8518348,17,6
0.1836036,0.5139826,0.8498674,17,6
0.1831875,0.5108383,0.8480178,17,6
0.1847148,0.5095797,0.8492644,17,6
0.1877592,0.5131776,0.8483017,17,6
0.1924332,0.5168178,0.8483911,17,6
0.1954256,0.5153023,0.8491588,17,6
0.1910672,0.5134229,0.8488062,17,6
0.1841049,0.5143416,0.8524088,17,6
0.182279,0.5143961,0.854675,17,6
0.1839042,0.5172733,0.8506557,17,6
0.1863879,0.5207974,0.8470845,17,6
0.1872325,0.5183832,0.8486987,17,6
0.1832253,0.5157052,0.8510645,17,6
0.179568,0.5141186,0.8492668,17,6
0.1836801,0.5123693,0.8470039,17,6
0.1885769,0.5158929,0.8454605,17,6
0.1867179,0.5207214,0.8451613,17,6
0.1868149,0.5198015,0.8464483,17,6
0.1890372,0.5182402,0.8450083,17,6
0.1885556,0.517869,0.8453166,17,6
0.1907959,0.5142835,0.8466282,17,6
0.1907028,0.5129785,0.8443437,17,6
0.1873909,0.515594,0.8438097,17,6
0.1877828,0.5170738,0.8429494,17,6
0.1883835,0.520385,0.8405111,17,6
0.1897889,0.5236999,0.8398499,17,6
0.1903571,0.5232077,0.8386817,17,6
0.1887209,0.5231097,0.8384336,17,6
0.1899476,0.5231913,0.8395201,17,6
0.1903285,0.5228557,0.8393099,17,6
0.1915545,0.5273059,0.8387643,17,6
0.1941934,0.5319675,0.8382166,17,6
0.1917782,0.5271733,0.8389333,17,6
0.1899871,0.5216939,0.8412992,17,6
0.1905304,0.5240027,0.8408966,17,6
0.1903584,0.525166,0.8362659,17,6
0.1922078,0.5245312,0.831762,17,6
0.1934744,0.5255013,0.8332419,17,6
0.1921905,0.5249866,0.8383059,17,6
0.1911825,0.5257238,0.8393481,17,6
0.1916354,0.5268404,0.8380378,17,6
0.1919741,0.5252837,0.8345047,17,6
0.1914077,0.524653,0.8303767,17,6
0.1918919,0.5250681,0.8332658,17,6
0.192708,0.5250479,0.8375233,17,6
0.1936392,0.5255311,0.839481,17,6
0.196017,0.5279649,0.8408429,17,6
0.1970665,0.5320423,0.8374017,17,6
0.1938229,0.5336595,0.8319801,17,6
0.189241,0.5331625,0.8283553,17,6
0.1894486,0.5337805,0.8275841,17,6
0.1905988,0.5351377,0.8283074,17,6
0.1890994,0.5365588,0.8280889,17,6
0.1914512,0.5360803,0.831687,17,6
0.1936436,0.5336596,0.8362165,17,6
0.1929172,0.5321076,0.8352229,17,6
0.1947915,0.5315806,0.8333256,17,6
0.1948034,0.5319643,0.8330389,17,6
0.1932968,0.5321959,0.8337845,17,6
0.1944999,0.5316753,0.8369691,17,6
0.1950495,0.532406,0.8374464,17,6
0.1950855,0.5340014,0.8334264,17,6
0.1960305,0.5359561,0.8327129,17,6
0.1958058,0.5367938,0.8323579,17,6
0.1936982,0.535528,0.831074,17,6
0.1923875,0.5348255,0.8346323,17,6
0.1918236,0.5329737,0.8345811,17,6
0.1900526,0.5313062,0.8305492,17,6
0.190393,0.5341024,0.82941,17,6
0.1942624,0.5366551,0.8318211,17,6
0.1973531,0.5370894,0.8367987,17,6
0.1971986,0.5377064,0.8341117,17,6
0.1958636,0.5373905,0.8286991,17,6
0.193394,0.5361207,0.827711,17,6
0.189526,0.5341116,0.8257177,17,6
0.1887329,0.5332305,0.8268687,17,6
0.1915819,0.536329,0.8273256,17,6
0.1939025,0.5406071,0.8295981,17,6
0.1922677,0.5418183,0.8367684,17,6
0.1896926,0.5415169,0.8358249,17,6
0.1908037,0.5418303,0.8309117,17,6
0.1921701,0.5414354,0.8271374,17,6
0.1936377,0.5406855,0.825882,17,6
0.1954432,0.53981,0.8288174,17,6
0.1956826,0.5382437,0.8301199,17,6
0.1968525,0.5372175,0.8325572,17,6
0.1983287,0.5375813,0.8311513,17,6
0.1996272,0.5397388,0.8250071,17,6
0.1951592,0.5417353,0.8227286,17,6
0.1843543,0.5419009,0.8204947,17,6
0.1824031,0.5416316,0.8204977,17,6
0.1894965,0.5415416,0.8220254,17,6
0.1945646,0.5417737,0.8232108,17,6
0.1944618,0.5420419,0.8281709,17,6
0.1930087,0.5433208,0.8299031,17,6
0.1949031,0.5453294,0.8304714,17,6
0.1945164,0.5445614,0.8320847,17,6
0.19195,0.5421037,0.8273984,17,6
0.1912966,0.5422346,0.8232441,17,6
0.1898428,0.5456697,0.8248602,17,6
0.1904092,0.5464616,0.8258431,17,6
0.1924626,0.5435602,0.8237883,17,6
0.1933169,0.5435117,0.8221815,17,6
0.1933916,0.5423764,0.8236929,17,6
0.192625,0.5408269,0.8286257,17,6
0.1928647,0.5442026,0.8312595,17,6
0.191241,0.5449549,0.8270295,17,6
0.1885175,0.5443159,0.8233572,17,6
0.1892398,0.5459925,0.820456,17,6
0.1922601,0.5475487,0.8196029,17,6
0.1967073,0.5491643,0.8251643,17,6
0.1992294,0.5468067,0.8255832,17,6
0.1982129,0.545448,0.8242428,17,6
0.1963279,0.5498329,0.8262474,17,6
0.1936271,0.5524932,0.8260354,17,6
0.1922464,0.5516729,0.8280667,17,6
0.1934232,0.5506906,0.825627,17,6
0.1941954,0.5516854,0.8216403,17,6
0.1944074,0.5513127,0.8242968,17,6
0.1939827,0.5486648,0.8236208,17,6
0.1907169,0.5467719,0.8222304,17,6
0.1877363,0.5456319,0.8224083,17,6
0.1886591,0.5494018,0.8217911,17,6
0.1895357,0.5529317,0.8226156,17,6
0.1887246,0.5502225,0.8234845,17,6
0.1903996,0.5492778,0.8292808,17,6
0.1944393,0.5505243,0.8343406,17,6
0.1960564,0.5510928,0.8267531,17,6
0.1914688,0.5522528,0.8185928,17,6
0.1832273,0.5524757,0.8213844,17,6
0.1802998,0.5521794,0.8204251,17,6
0.1843125,0.553589,0.8132403,17,6
0.1897556,0.5549897,0.817224,17,6
0.1947089,0.5540834,0.8259596,17,6
0.1956191,0.5547821,0.8304672,17,6
0.1935823,0.5563142,0.8312874,17,6
0.1943416,0.5552876,0.8237,17,6
0.1936461,0.5554504,0.8187218,17,6
0.1904676,0.5556371,0.8203305,17,6
0.1899153,0.5544092,0.820906,17,6
0.1903012,0.5542355,0.8204836,17,6
0.1905239,0.5549023,0.8158617,17,6
0.1912141,0.5563478,0.8123444,17,6
0.1916066,0.5570947,0.8129792,17,6
0.191036,0.5567222,0.8129092,17,6
0.1893842,0.5555399,0.8143775,17,6
0.1884154,0.5548159,0.8176714,17,6
0.1880697,0.5559102,0.8226935,17,6
0.1904885,0.5547288,0.8263069,17,6
0.1941713,0.5537554,0.8241672,17,6
0.1906949,0.5563822,0.8180486,17,6
0.187101,0.5572483,0.813475,17,6
0.1903378,0.556081,0.8155096,17,6
0.191002,0.55551,0.8188957,17,6
0.1896796,0.5571799,0.8204392,17,6
0.1907147,0.559851,0.8245617,17,6
0.1910046,0.5607137,0.8307585,17,6
0.190546,0.5620495,0.8299975,17,6
0.1884843,0.5615929,0.8183322,17,6
0.1870647,0.5608343,0.8132382,17,6
0.1903191,0.5652464,0.8184991,17,6
0.1926756,0.567879,0.8184664,17,6
0.1903298,0.5663723,0.8174537,17,6
0.1877794,0.5651407,0.8183338,17,6
0.1872155,0.56299,0.8157974,17,6
0.1874253,0.5601631,0.8148703,17,6
0.1874737,0.55936,0.8156354,17,6
0.1865751,0.5618502,0.8170565,17,6
0.1864597,0.5642043,0.8188116,17,6
0.1896983,0.5641907,0.8179614,17,6
0.1916559,0.5646976,0.8165889,17,6
0.1857112,0.5658936,0.8120441,17,6
0.1796055,0.5668461,0.8062584,17,6
0.1841284,0.5668042,0.8076771,17,6
0.1904169,0.5658642,0.8106424,17,6
0.1904353,0.5664457,0.8122558,17,6
0.190219,0.5672178,0.8178302,17,6
0.1892468,0.5662565,0.8208841,17,6
0.1873695,0.5655895,0.8197413,17,6
0.1877597,0.5653548,0.8193022,17,6
0.188213,0.5649364,0.8148013,17,6
0.1892225,0.5654755,0.8123007,17,6
0.1893484,0.5653847,0.8160025,17,6
0.1894204,0.565151,0.8161052,17,6
0.1916805,0.5664622,0.8155338,17,6
0.1908759,0.5670028,0.8145108,17,6
0.1888112,0.5686379,0.8119082,17,6
0.1889305,0.574076,0.813152,17,6
0.1897066,0.5797703,0.8142299,17,6
0.1903912,0.578913,0.8155784,17,6
0.188465,0.5709652,0.8159507,17,6
0.1870735,0.5664516,0.8147478,17,6
0.1893466,0.5694688,0.8175558,17,6
0.1910629,0.5723355,0.8186755,17,6
0.1903323,0.5709058,0.8169095,17,6
0.1898364,0.5708885,0.8135499,17,6
0.1906066,0.5724669,0.8072496,17,6
0.1899096,0.5675655,0.8019378,17,6
0.1882498,0.5640802,0.7974905,17,6
0.1872618,0.5694499,0.799828,17,6
0.187261,0.5738304,0.8104545,17,6
0.1886538,0.5720675,0.8173718,17,6
0.1885549,0.5675786,0.8184034,17,6
0.1886551,0.5656127,0.8158965,17,6
0.1902013,0.5654263,0.810753,17,6
0.189573,0.5664122,0.8074457,17,6
0.1892849,0.5713559,0.8098752,17,6
0.1898839,0.5752387,0.815475,17,6
0.1892491,0.5762486,0.8149017,17,6
0.1885168,0.5756807,0.809266,17,6
0.1869325,0.5737668,0.806328,17,6
0.1857893,0.5713704,0.8090869,17,6
0.1869257,0.5675546,0.8149253,17,6
0.1887063,0.5671925,0.8149784,17,6
0.1910975,0.5689485,0.8147696,17,6
0.1936868,0.5685992,0.8150053,17,6
0.1924571,0.5723564,0.8048591,17,6
0.1882138,0.5767536,0.7987648,17,6
0.1858266,0.5744871,0.8026217,17,6
0.184609,0.5703433,0.8044474,17,6
0.1859092,0.568033,0.8072696,17,6
0.1892032,0.5670385,0.813452,17,6
0.1889966,0.5669346,0.8191484,17,6
0.1892427,0.5665599,0.8199024,17,6
0.1894488,0.5672262,0.8193511,17,6
0.1870203,0.5680567,0.821598,17,6
0.1879846,0.5668684,0.8141947,17,6
0.1895073,0.5673057,0.8044807,17,6
0.1903096,0.5678383,0.8100866,17,6
0.1914037,0.566634,0.8150943,17,6
0.1913222,0.5657084,0.8126469,17,6
0.1937753,0.5605654,0.8144932,17,6
0.1931459,0.5562822,0.8148316,17,6
0.1891045,0.5585674,0.8152025,17,6
0.1879419,0.5592077,0.8181824,17,6
0.1867859,0.558409,0.814888,17,6
0.1876048,0.5596379,0.8118764,17,6
0.1880238,0.5601468,0.8091999,17,6
0.1871187,0.5610534,0.8042605,17,6
0.1894487,0.5617966,0.8066811,17,6
0.188955,0.5606699,0.8099954,17,6
0.186853,0.5615242,0.8113412,17,6
0.1877281,0.5637395,0.8163374,17,6
0.002636497,0.8359239,0.5812873,19,6
0.0031303,0.8333563,0.5845124,19,6
0.002424003,0.8279865,0.585725,19,6
0.002105366,0.8275702,0.5865828,19,6
-0.001734009,0.8332088,0.5872305,19,6
-0.005624966,0.8378332,0.5867317,19,6
-0.004540194,0.8379635,0.5818262,19,6
-0.003279007,0.8351901,0.5801773,19,6
-0.004585282,0.8342531,0.5826179,19,6
-0.004391051,0.8360392,0.5820602,19,6
-0.003630436,0.8372729,0.5820618,19,6
-0.004421311,0.8374531,0.5838297,19,6
-0.003177625,0.8348112,0.5852545,19,6
-0.001202638,0.829495,0.5855263,19,6
0.002304435,0.8269943,0.5868447,19,6
0.007309966,0.830535,0.5895486,19,6
0.00510448,0.8357496,0.5865062,19,6
-0.001114793,0.8365459,0.5830233,19,6
-0.002948166,0.835692,0.5850618,19,6
0.0002261059,0.8344648,0.5851952,19,6
0.004036971,0.8321073,0.5838111,19,6
0.0004509034,0.8318099,0.5831926,19,6
-0.003525199,0.8310876,0.5819941,19,6
-0.0003496753,0.8312029,0.5841993,19,6
0.001056238,0.8334434,0.5869937,19,6
0.002314062,0.8336495,0.5834897,19,6
0.005714947,0.8340381,0.5803509,19,6
0.005581946,0.8339249,0.5824708,19,6
0.005568514,0.831616,0.5832723,19,6
0.005905124,0.8289109,0.5832349,19,6
0.006079631,0.8281794,0.5848094,19,6
0.007064071,0.834148,0.5856844,19,6
0.004177137,0.8407261,0.5858779,19,6
0.001676006,0.8390507,0.5835711,19,6
0.003198118,0.8349486,0.5807874,19,6
0.004892853,0.8344856,0.5818772,19,6
0.005560738,0.8352158,0.58253,19,6
0.003904285,0.8373293,0.5813142,19,6
0.00200721,0.8396184,0.5811386,19,6
0.002653257,0.8371547,0.5804704,19,6
0.003228015,0.835005,0.5803678,19,6
0.002518825,0.8362171,0.5818253,19,6
0.002696429,0.8350679,0.5822755,19,6
0.003064339,0.8324047,0.5824467,19,6
0.002509278,0.8313989,0.5820448,19,6
0.002871851,0.8321458,0.5809083,19,6
0.002885741,0.8330912,0.5818972,19,6
0.002548118,0.8331912,0.582716,19,6
0.002826798,0.8326375,0.582585,19,6
0.001760742,0.8315089,0.5845215,19,6
0.00127521,0.8320071,0.5853618,19,6
0.002310254,0.8331967,0.5846832,19,6
0.003078352,0.8333192,0.5865541,19,6
0.002752467,0.8335193,0.5882253,19,6
0.001570251,0.8330493,0.5858772,19,6
0.001303949,0.8323636,0.5791973,19,6
0.001321801,0.8322209,0.5727258,19,6
0.000857605,0.8338,0.574569,19,6
-0.001159478,0.837339,0.5794589,19,6
-0.003784029,0.8378476,0.5800347,19,6
-0.002261377,0.8353422,0.5835772,19,6
0.001787233,0.8342181,0.5878335,19,6
0.005215695,0.8346089,0.5855845,19,6
0.006051875,0.8348521,0.5833004,19,6
0.002458975,0.8338695,0.5850187,19,6
0.0003118193,0.8338423,0.590063,19,6
0.001055264,0.8354847,0.5930515,19,6
-0.00141406,0.8368018,0.5873791,19,6
-0.00525198,0.838507,0.5797164,19,6
-0.004571941,0.838636,0.5771244,19,6
-0.001769716,0.8361882,0.5809603,19,6
-0.002520055,0.8335819,0.5862179,19,6
-0.003509493,0.8304097,0.5842488,19,6
-0.002087259,0.8331056,0.5830552,19,6
-0.0019343,0.8491926,0.5867277,19,6
-0.001414514,0.8608868,0.5863554,19,6
-0.001068643,0.8449972,0.5861901,19,6
-0.002757318,0.8242002,0.5892066,19,6
-0.002187708,0.8270103,0.5906445,19,6
0.0008746503,0.8280474,0.5889097,19,6
0.003728147,0.8216525,0.5835908,19,6
0.002697136,0.8303752,0.5806091,19,6
-0.00180546,0.8348954,0.5822986,19,6
-0.002865381,0.8346064,0.5841682,19,6
-0.0002749744,0.8405674,0.5850779,19,6
0.002395081,0.8364542,0.586034,19,6
0.001894377,0.8353344,0.5908183,19,6
0.000704114,0.8380086,0.595186,19,6
0.003807333,0.8337087,0.5880328,19,6
0.004639733,0.8338962,0.5769014,19,6
0.002856267,0.8296157,0.5772357,19,6
0.00280553,0.8261253,0.5838619,19,6
0.001732744,0.8292973,0.5873606,19,6
-0.000513369,0.8269086,0.5884624,19,6
-0.003836825,0.8277509,0.5878297,19,6
-0.003549711,0.8292331,0.5901564,19,6
-0.001484494,0.8305158,0.5921936,19,6
-0.003530912,0.8361444,0.5872155,19,6
-0.002862809,0.8348934,0.5837543,19,6
-0.002125138,0.8329334,0.580726,19,6
-0.003529473,0.8337915,0.5765344,19,6
-0.002301507,0.8330493,0.5788005,19,6
-0.00283174,0.8343019,0.5807855,19,6
-0.003073971,0.833764,0.5813538,19,6
-0.002686779,0.8311672,0.5828794,19,6
-0.004951693,0.8299708,0.5798023,19,6
-0.005736099,0.8302499,0.5788432,19,6
-0.004116754,0.8295943,0.5819189,19,6
0.0002380045,0.8258561,0.5842459,19,6
0.004437903,0.8244792,0.5873507,19,6
0.004636245,0.8268921,0.5850827,19,6
0.003970774,0.8294214,0.5809442,19,6
0.004044563,0.8327133,0.5836217,19,6
0.004349042,0.8377189,0.5860562,19,6
0.004125517,0.8407454,0.5866643,19,6
0.003139504,0.839975,0.5852819,19,6
-8.11952e-05,0.8396067,0.580965,19,6
-0.004136967,0.8368722,0.5789178,19,6
-0.002376583,0.8320249,0.5802575,19,6
2.26491e-05,0.8323158,0.5841849,19,6
-0.001619094,0.8330587,0.5837667,19,6
0.0003397283,0.832121,0.581238,19,6
0.003409487,0.831628,0.5830245,19,6
0.002612208,0.8288887,0.5838316,19,6
0.001368382,0.827811,0.5877778,19,6
-0.0005238084,0.8313972,0.5904356,19,6
-0.002145929,0.8355838,0.5861673,19,6
-0.001510873,0.8354273,0.5834581,19,6
-0.003770888,0.8337466,0.5820616,19,6
-0.01225486,0.8348378,0.5847316,19,6
-0.01941008,0.8331039,0.5864617,19,6
-0.01568409,0.8308555,0.5833686,19,6
-0.00514982,0.8329905,0.5859874,19,6
0.002529341,0.8356512,0.5870458,19,6
0.004636743,0.8376175,0.5851684,19,6
0.002851484,0.8340368,0.5874276,19,6
0.005616705,0.827204,0.5895321,19,6
0.01005467,0.8270101,0.5925245,19,6
0.005376008,0.8287972,0.5925331,19,6
0.002421143,0.8292824,0.5904014,19,6
0.004772373,0.8314607,0.5918058,19,6
0.003233429,0.8326758,0.5889433,19,6
0.002267901,0.8333318,0.5851542,19,6
0.002915247,0.833662,0.5869051,19,6
0.00226857,0.8320727,0.5898218,19,6
-0.000225605,0.8316348,0.5921085,19,6
-0.004139312,0.8321569,0.5889619,19,6
-0.004500286,0.8318152,0.5830723,19,6
-0.001706907,0.8319988,0.5825462,19,6
0.001183087,0.8319749,0.5822656,19,6
0.002881592,0.8318408,0.5788923,19,6
0.00290244,0.8320768,0.5773984,19,6
0.002049885,0.8318412,0.5808659,19,6
-0.0008718991,0.831977,0.5859874,19,6
-0.003087842,0.831812,0.5867188,19,6
0.0005512248,0.8309533,0.5848766,19,6
0.00533738,0.8300312,0.5847907,19,6
0.00367513,0.8285912,0.5865072,19,6
0.0008095851,0.8274544,0.5881983,19,6
-0.0005588945,0.8285714,0.5874305,19,6
-0.005555107,0.8334434,0.5865198,19,6
-0.006819658,0.8375481,0.5876009,19,6
-0.003553539,0.8352785,0.5873027,19,6
-0.004175636,0.832037,0.5849433,19,6
-0.004052043,0.8335623,0.5841083,19,6
-0.002020013,0.8358065,0.585939,19,6
-0.001542881,0.8361764,0.5862625,19,6
-0.002757266,0.8358148,0.5837993,19,6
-0.005140861,0.8334874,0.582006,19,6
-0.003433458,0.8313429,0.5815361,19,6
0.001023463,0.8312382,0.5829606,19,6
0.002970087,0.8304816,0.5866141,19,6
0.000855179,0.8311328,0.5893958,19,6
-0.00306644,0.8326942,0.5864316,19,6
-0.001761921,0.8317668,0.580164,19,6
-0.001088626,0.8317158,0.5803023,19,6
-0.004126644,0.8329974,0.5839855,19,6
-0.002524163,0.8354559,0.5850763,19,6
-0.002211095,0.8395494,0.5852035,19,6
-0.003601244,0.8396725,0.5840247,19,6
-0.002160918,0.8378323,0.5843866,19,6
-0.002972617,0.8381598,0.5856681,19,6
-0.002979278,0.8365265,0.5854542,19,6
-0.002357441,0.8353033,0.5866673,19,6
-0.003199683,0.8365686,0.5899228,19,6
-0.002519693,0.8360955,0.5928519,19,6
-0.002093181,0.8351434,0.5890724,19,6
0.0006305395,0.8323089,0.585405,19,6
0.004127743,0.8262251,0.5877509,19,6
0.002967533,0.823396,0.5840423,19,6
0.002077395,0.8245669,0.580154,19,6
0.002478065,0.8279175,0.5823153,19,6
-0.0007452389,0.8327197,0.5822101,19,6
-0.004168432,0.8347298,0.5813661,19,6
-0.002945765,0.8360007,0.5805205,19,6
-0.001999901,0.8372001,0.580121,19,6
-0.003512189,0.835423,0.5805164,19,6
-0.003606017,0.836082,0.5790756,19,6
-0.004152887,0.8375981,0.5785785,19,6
-0.004460457,0.836143,0.5798745,19,6
-0.002831738,0.83605,0.5814521,19,6
-0.002635544,0.8349626,0.5838952,19,6
-0.002131209,0.8331422,0.5861022,19,6
0.0008948781,0.832003,0.5863469,19,6
0.003182083,0.8286496,0.5875353,19,6
0.0006594053,0.8271245,0.588726,19,6
-0.002368762,0.8280542,0.5881261,19,6
0.002205677,0.8302933,0.5885015,19,6
0.005829032,0.8338706,0.5840267,19,6
0.001539621,0.8354197,0.579713,19,6
-0.001414292,0.8345954,0.5837622,19,6
-0.001516181,0.8322404,0.5852059,19,6
-0.001556931,0.8307128,0.5852458,19,6
-0.001128205,0.8304939,0.5878798,19,6
-0.0009967307,0.8312676,0.587167,19,6
0.001257224,0.8322848,0.5856153,19,6
0.003748266,0.8299427,0.5839763,19,6
0.00274855,0.8291378,0.5816232,19,6
0.001372347,0.8329156,0.5775493,19,6
0.00140226,0.8367477,0.5736261,19,6
0.001349877,0.8396329,0.5774925,19,6
0.001341659,0.8420953,0.5811434,19,6
0.001149013,0.8421593,0.5785431,19,6
-0.0004928182,0.8379639,0.5787737,19,6
-0.001929733,0.8356816,0.5798465,19,6
-0.0009817138,0.8361615,0.5786991,19,6
0.001585758,0.8346761,0.5792679,19,6
0.003480572,0.8338662,0.5793435,19,6
0.002823045,0.8329391,0.5797844,19,6
0.001430897,0.8329304,0.5842052,19,6
0.001858134,0.8330476,0.5888264,19,6
0.004058143,0.8310985,0.5875942,19,6
0.006356109,0.8320793,0.5814719,19,6
0.005585883,0.8326679,0.5773055,19,6
0.003077742,0.8331995,0.5758852,19,6
0.002560746,0.8357028,0.5756924,19,6
0.002720209,0.8350889,0.5761688,19,6
0.002786495,0.8360505,0.5745334,19,6
0.002926852,0.8384687,0.5749077,19,6
0.002579899,0.8369794,0.5780991,19,6
0.002875061,0.8336939,0.5811788,19,6
0.002844537,0.8292325,0.5866083,19,6
0.002592613,0.8267184,0.5888385,19,6
0.002975343,0.8297579,0.5868358,19,6
0.002666127,0.8330617,0.5863752,19,6
0.002760186,0.833979,0.5851119,19,6
0.002902581,0.8372009,0.5842341,19,6
0.002611796,0.8403701,0.5848872,19,6
0.003267537,0.8401648,0.5847526,19,6
0.004514507,0.8395163,0.584146,19,6
0.006058541,0.8388886,0.5818416,19,6
0.005876172,0.8404535,0.5790797,19,6
0.004125758,0.8426823,0.579258,19,6
0.001381747,0.841524,0.5809518,19,6
-0.002694949,0.8413239,0.5811415,19,6
-0.002196018,0.8411611,0.5813519,19,6
-6.188117e-05,0.8360954,0.582585,19,6
-0.002058936,0.8276659,0.5861511,19,6
-0.002141712,0.8189994,0.5934744,19,6
-0.003354511,0.8127925,0.5995978,19,6
-0.006695554,0.8103701,0.6037123,19,6
-0.003259818,0.8114774,0.6010847,19,6
0.001220168,0.8138092,0.5903725,19,6
0.001688865,0.8167154,0.5867947,19,6
0.001619637,0.8199884,0.5874628,19,6
0.0005118919,0.8223245,0.5851953,19,6
-0.001198258,0.8286751,0.5836934,19,6
-0.002321712,0.8367114,0.5788169,19,6
0.001923017,0.8389849,0.5750615,19,6
0.007910201,0.8402701,0.5763801,19,6
0.004911902,0.8419909,0.5783734,19,6
0.002233512,0.8410505,0.5789011,19,6
0.004707536,0.8394159,0.5799301,19,6
0.003867126,0.8382693,0.585166,19,6
0.003812294,0.8374557,0.5866993,19,6
0.004234328,0.8366409,0.5851446,19,6
0.003280742,0.8353053,0.5859072,19,6
0.004542329,0.830792,0.5841639,19,6
0.002412146,0.8278934,0.5849766,19,6
0.000177533,0.8322951,0.5880817,19,6
0.002856554,0.834627,0.5890862,19,6
0.005817458,0.8329587,0.5893431,19,6
0.009435754,0.8342624,0.5874012,19,6
0.009236356,0.8388542,0.5863812,19,6
0.006064826,0.8427708,0.583382,19,6
0.004586625,0.8393516,0.5796806,19,6
0.0001985103,0.8342384,0.5853429,19,6
0.0001443138,0.8338752,0.5924766,19,6
0.002808863,0.8301751,0.5923721,19,6
-0.001491595,0.8244768,0.5919275,19,6
-0.002885983,0.8231323,0.5962908,19,6
-0.001622739,0.8236462,0.5998201,19,6
-0.00265128,0.8254546,0.5968745,19,6
-0.002436546,0.8267899,0.5926672,19,6
-0.003207351,0.8275268,0.589984,19,6
-0.002756738,0.8321034,0.5865148,19,6
-0.002335998,0.8355655,0.5869446,19,6
-0.002682319,0.8347542,0.5904889,19,6
0.001241602,0.834565,0.5896804,19,6
0.004150687,0.8347523,0.5864861,19,6
0.004712827,0.8344036,0.5841984,19,6
0.005725287,0.8329513,0.5847702,19,6
0.004698928,0.831284,0.5872588,19,6
-3.553441e-05,0.8315401,0.5850073,19,6
-0.005326602,0.8304459,0.5849805,19,6
-0.004134946,0.8286174,0.5918493,19,6
-0.002656774,0.830034,0.5950161,19,6
-0.006726695,0.8322097,0.590693,19,6
-0.007642864,0.8315368,0.5857832,19,6
-0.005585751,0.8290588,0.5907281,19,6
-0.00496478,0.8269776,0.5959159,19,6
-0.003803109,0.8264381,0.5912466,19,6
-0.002318403,0.8267522,0.5890731,19,6
-0.002486191,0.8260741,0.5874537,19,6
-0.003386628,0.8261346,0.5871769,19,6
-0.003504801,0.8258896,0.5942151,19,6
-0.00430095,0.8250184,0.5968569,19,6
-0.004727704,0.8288431,0.5949053,19,6
-0.004629503,0.8328538,0.5929672,19,6
-0.005817272,0.83169,0.5917581,19,6
-0.004007899,0.8288474,0.5901898,19,6
0.001066058,0.8270581,0.5859662,19,6
0.003709099,0.8276345,0.5867053,19,6
0.002283262,0.8281844,0.5869558,19,6
-0.0005452985,0.8280749,0.583187,19,6
-0.002894584,0.8306338,0.5846418,19,6
-0.006405424,0.8337758,0.5843457,19,6
-0.006758658,0.8341837,0.5814115,19,6
-0.003770893,0.8349789,0.5818092,19,6
-0.00424103,0.8385863,0.5807584,19,6
-0.002796405,0.8398217,0.5783938,19,6
-0.001541019,0.8382183,0.5772511,19,6
-0.004013432,0.8380041,0.5776492,19,6
-0.002335801,0.8365647,0.5781802,19,6
-0.002348525,0.8325047,0.5774966,19,6
-0.004027636,0.8286496,0.5783282,19,6
-0.003736304,0.8276959,0.5809992,19,6
-0.006495327,0.8269681,0.5844938,19,6
-0.005900539,0.8222895,0.5871731,19,6
-0.004635785,0.821231,0.5880937,19,6
-0.006360938,0.8255673,0.5881484,19,6
-0.004843945,0.8285084,0.5849781,19,6
-0.003487292,0.8335928,0.5825083,19,6
-0.001719772,0.8400044,0.581431,19,6
-0.0004700383,0.8427255,0.574351,19,6
-0.00254165,0.8417269,0.5704764,19,6
-0.003968788,0.8380469,0.573529,19,6
-0.006099189,0.8362707,0.573868,19,6
-0.005382638,0.8340563,0.5745938,19,6
-0.0001492833,0.8310621,0.5731534,19,6
0.00177834,0.8339383,0.569445,19,6
-0.001820588,0.8372904,0.5739756,19,6
-0.008596888,0.8357212,0.581205,19,6
-0.01137774,0.8322679,0.5846186,19,6
-0.009019672,0.8312338,0.5840967,19,6
-0.008249111,0.8334299,0.5821011,19,6
-0.006666393,0.8343871,0.5840217,19,6
-0.004098156,0.83411,0.5846204,19,6
-0.002972781,0.8339389,0.5841583,19,6
-0.0008884425,0.8339171,0.5855364,19,6
-0.0007739611,0.8344431,0.5842767,19,6
-0.002105526,0.8345528,0.5845757,19,6
-0.001152233,0.834644,0.5856391,19,6
-0.00115181,0.8329312,0.5858916,19,6
-0.001975519,0.831113,0.5877023,19,6
-0.001998459,0.8319119,0.5841408,19,6
-0.003078972,0.8309009,0.5804893,19,6
-0.003068334,0.8282562,0.5839346,19,6
-0.002313901,0.827984,0.5858326,19,6
-0.003066758,0.8314722,0.5844394,19,6
-0.002779012,0.8356312,0.5835348,19,6
-0.002560901,0.8353762,0.580617,19,6
-0.003232547,0.8350704,0.576831,19,6
-0.003475278,0.8376502,0.5797678,19,6
-0.004485589,0.8368624,0.5839087,19,6
-0.004366908,0.8317581,0.5806275,19,6
-0.002899057,0.8273406,0.5795184,19,6
3.742169e-05,0.8274702,0.5816251,19,6
0.004011944,0.830553,0.5815942,19,6
0.002539006,0.8323251,0.5848258,19,6
-0.0009989411,0.8321157,0.5873659,19,6
-0.002524866,0.8298191,0.5858567,19,6
-0.006920634,0.8298125,0.5881552,19,6
-0.009483985,0.8366372,0.5981893,19,6
-0.01174835,0.8408724,0.6083345,19,6
-0.01520094,0.831293,0.6034149,19,6
-0.004207046,0.8158741,0.5870785,19,6
0.00795071,0.8124516,0.5785905,19,6
0.001476229,0.8178979,0.5806514,19,6
-0.003039486,0.8215594,0.5816643,19,6
-6.59932e-05,0.8262966,0.5762873,19,6
-0.001366767,0.8299193,0.5747482,19,6
0.0009416733,0.8412362,0.5780791,19,6
0.00436888,0.8599306,0.5767344,19,6
0.002791064,0.8562565,0.5772397,19,6
0.004182203,0.8451647,0.5758501,19,6
0.006599844,0.8485116,0.5670371,19,6
0.00457795,0.8441238,0.5653386,19,6
0.0007222551,0.8377453,0.5731628,19,6
-0.002433405,0.8366729,0.5807773,19,6
-0.002004954,0.8338176,0.5787708,19,6
0.0004405405,0.839168,0.5757985,19,6
0.002712883,0.844667,0.5821354,19,6
0.006629273,0.8495036,0.5824077,19,6
0.006659551,0.8533813,0.5790479,19,6
0.004079637,0.8468753,0.5788319,19,6
0.006158346,0.8393734,0.5780025,19,6
0.006522799,0.8219648,0.5826931,19,6
0.007291713,0.8111155,0.5838212,19,6
0.008853045,0.8220844,0.5790272,19,6
-0.002747545,0.822625,0.57799,19,6
-0.01301111,0.8264074,0.5815621,19,6
-0.003174285,0.8387002,0.5873619,19,6
0.006028834,0.8395312,0.5867775,19,6
0.000242964,0.8424946,0.5864813,19,6
-0.003197891,0.8435943,0.5891404,19,6
-0.0008405441,0.8433581,0.5849115,19,6
-0.000327691,0.8440101,0.5793629,19,6
0.003935267,0.8369438,0.5734063,19,6
0.004697556,0.8306031,0.5730166,19,6
0.003345864,0.825745,0.5773718,19,6
0.009026632,0.828685,0.5730651,19,6
0.006664187,0.8377773,0.5726049,19,6
0.001624513,0.8407836,0.5762087,19,6
0.001975338,0.8399155,0.5779103,19,6
0.0001487828,0.8356689,0.585131,19,6
0.001691776,0.8371098,0.5852925,19,6
1.244944e-05,0.8384114,0.5826566,19,6
-0.003066855,0.8310647,0.5864412,19,6
-0.0004440675,0.8290954,0.5843769,19,6
-0.001592932,0.8287555,0.58163,19,6
-0.001881379,0.8294677,0.5824499,19,6
-0.001701523,0.8328117,0.5813661,19,6
-0.003658468,0.8333916,0.5782714,19,6
-0.001911669,0.8360781,0.5759656,19,6
-4.190621e-05,0.8361605,0.5807739,19,6
0.001963583,0.8353437,0.5853787,19,6
0.002011158,0.8341065,0.5848767,19,6
0.0006630684,0.8302426,0.5905981,19,6
0.002790732,0.8322498,0.5968594,19,6
0.003091515,0.8325228,0.5866523,19,6
