accx,accy,accz,body_accx,body_accy,body_accz,body_gyrox,body_gyroy,body_gyroz
0.9764394,-0.3365498,-0.2233354,0.02506235,-0.02771526,-0.09758826,0.2873351,-0.2705091,-0.0008408682
0.9632557,-0.3196746,-0.2210769,0.01232273,-0.01034557,-0.09407051,0.2840803,-0.04015298,0.01222145
0.9523079,-0.2856763,-0.2219043,0.001790983,0.02413739,-0.09359031,0.2314104,-0.08043652,-0.009716276
0.9580264,-0.2869472,-0.2361991,0.007897933,0.02334048,-0.1065313,0.2950738,-0.07530572,0.007881885
0.9743606,-0.2919739,-0.2526622,0.02459339,0.01877542,-0.1215962,0.3183858,0.08367692,0.007945708
0.9673423,-0.288786,-0.2474346,0.01790953,0.02241138,-0.1149273,0.3094521,0.08363547,-0.0247748
0.9541053,-0.2931761,-0.2341314,0.00498006,0.01845425,-0.100141,0.2695256,0.03867093,-0.003553196
0.9480266,-0.2982649,-0.2329811,-0.0008172491,0.01378238,-0.09746702,0.1780677,0.0733235,0.03223702
0.9566469,-0.3126845,-0.234214,0.008058939,-0.0002371427,-0.09713769,0.1675068,0.1088614,0.07985485
0.9792388,-0.3206347,-0.2419919,0.0308822,-0.007804316,-0.103317,0.17638,0.2218877,0.04621048
0.9673822,-0.3139874,-0.2520064,0.01923258,-0.0007907781,-0.1116981,0.1206985,0.2287615,-0.007040358
0.9458738,-0.3051774,-0.246411,-0.002092868,0.008369099,-0.1044362,0.08206673,0.1455193,0.07989174
0.9429658,-0.2770025,-0.2296983,-0.004841363,0.03687726,-0.0860253,0.06886545,0.1138054,0.1204344
0.9443959,-0.25695,-0.213853,-0.003273921,0.05724549,-0.06845235,0.05158309,0.02441703,0.05286892
0.9719381,-0.2913434,-0.2168097,0.02438481,0.02314875,-0.06965461,0.06648229,-0.0245349,0.006841034
0.9917175,-0.3271271,-0.2243424,0.04426044,-0.01235864,-0.07540918,0.1412571,-0.01926021,-0.001134009
0.9829611,-0.3108213,-0.2173816,0.03557972,0.00420341,-0.06664947,0.2023968,-0.06323911,0.007849787
0.9802631,-0.3002052,-0.2221525,0.03293602,0.01505631,-0.06960336,0.191671,-0.1873076,0.005145447
0.9822985,-0.3130878,-0.230588,0.03500402,0.002391504,-0.07620655,0.218359,-0.3110159,0.02939076
0.9810308,-0.3057168,-0.228042,0.03374691,0.009961503,-0.07181523,0.3082098,-0.2826801,0.05837015
0.9670362,-0.3081298,-0.2305178,0.01974094,0.00772935,-0.07243509,0.292859,-0.2295773,0.03734825
0.9441073,-0.3179653,-0.2308374,-0.003221194,-0.001942971,-0.07089007,0.1478602,-0.2118848,0.003395337
0.9319135,-0.3080547,-0.2330021,-0.01546856,0.008113502,-0.07118354,0.060131,-0.1815387,-0.02787688
0.9438646,-0.3039705,-0.2416224,-0.003589657,0.01232717,-0.07792798,0.1429825,-0.1623275,0.001878398
0.9612413,-0.2891385,-0.2491632,0.01369812,0.02727233,-0.08358976,0.2616721,-0.101376,0.05688933
0.9559978,-0.2747525,-0.2587679,0.008350319,0.04175502,-0.09131365,0.2801019,-0.03769131,0.05160116
0.9606709,-0.2857959,-0.2619876,0.01290458,0.03079119,-0.09265133,0.3406433,0.1068999,0.0921834
0.9707363,-0.2909688,-0.2609755,0.02283743,0.02567992,-0.08975667,0.4231876,0.3264651,0.1487756
0.9579453,-0.2999035,-0.252543,0.009900597,0.0167886,-0.07944169,0.3316736,0.3476671,0.09842907
0.9516505,-0.3176744,-0.2309033,0.003447434,-0.0009568221,-0.05592035,0.2656716,0.2857019,0.0252743
0.9544063,-0.3211212,-0.2216143,0.006033092,-0.004395421,-0.04475233,0.3207306,0.3531578,-0.0005748639
0.9599762,-0.3112121,-0.2264692,0.01142219,0.005505743,-0.04773282,0.3205501,0.4509265,0.03784285
0.9691248,-0.2931501,-0.2262207,0.02038013,0.02354492,-0.0456171,0.3241374,0.5017252,0.0959487
0.9747803,-0.2812553,-0.2173984,0.02583543,0.03540217,-0.03493688,0.3060976,0.3852325,0.06127201
0.9774279,-0.2850828,-0.206241,0.02827344,0.03152238,-0.02193328,0.1723423,0.1411226,0.02222678
0.9774002,-0.3008267,-0.1994591,0.02802658,0.01571093,-0.01331964,0.05769426,0.06070699,0.04006502
0.9834654,-0.3114314,-0.195297,0.03386298,0.005023642,-0.007343289,0.07867908,0.08933196,0.02149852
0.9761329,-0.3003073,-0.1935367,0.02629173,0.0160507,-0.003789347,0.1219223,0.06433054,0.01558429
0.9613019,-0.2892725,-0.1944976,0.01121205,0.02697465,-0.002980263,0.07143477,0.05726158,0.02952289
0.9701293,-0.2957895,-0.1984133,0.01978107,0.02033324,-0.005152609,0.06936069,0.05535907,0.02225326
0.9712682,-0.2995162,-0.1985432,0.02065258,0.01646889,-0.003568455,0.1018852,0.04326399,0.03377111
0.9619758,-0.2955026,-0.1950625,0.01108401,0.0203318,0.001594768,0.0708738,0.03288551,0.02939039
0.9638027,-0.2989027,-0.1981532,0.01262677,0.01676847,0.0001526054,0.08501307,0.02323708,0.02344673
0.9664874,-0.3016468,-0.1955165,0.01501983,0.01384899,0.004401932,0.08423156,0.03330064,0.03303681
0.9729105,-0.3010329,-0.1913905,0.02114455,0.01427593,0.01010255,0.06787293,0.02087881,0.02428408
0.9738966,-0.3052501,-0.1935647,0.0218257,0.009860815,0.009463189,0.09178923,0.02550255,0.02957378
0.9702352,-0.3057876,-0.1914664,0.01785328,0.009115198,0.01305465,0.07198585,0.04325232,0.03171348
0.9732303,-0.3049718,-0.1945975,0.02053147,0.009713424,0.01137344,0.07467819,0.0252267,0.02695217
0.9710336,-0.3032997,-0.1998704,0.01801215,0.01115921,0.007505777,0.08558944,0.02964819,0.03045871
0.9686422,-0.2997473,-0.2015422,0.01529289,0.01447746,0.007193402,0.07211773,0.03145494,0.02256576
0.9684056,-0.302224,-0.2011206,0.01472354,0.01175912,0.008927837,0.08486238,0.02449421,0.02446414
0.966343,-0.3036484,-0.1964422,0.01232389,0.01008636,0.0148719,0.07705879,0.02994754,0.02472308
0.9685593,-0.3049964,-0.1965814,0.01419924,0.008483642,0.01595028,0.0832395,0.01829017,0.02154194
0.9689102,-0.3066773,-0.1942672,0.01420575,0.006542592,0.01943368,0.09135605,0.01634276,0.02649535
0.968724,-0.3047515,-0.1933576,0.01367241,0.008203298,0.02146321,0.07703369,0.01621758,0.02180135
0.9703042,-0.3061646,-0.2006386,0.01490301,0.006521036,0.01525263,0.0857122,0.01058432,0.02179354
0.9684517,-0.3071928,-0.2027196,0.01269878,0.005220174,0.01419209,0.07924495,0.008136598,0.02188111
0.9693257,-0.3069936,-0.2050899,0.0132195,0.005143889,0.01279244,0.07595148,0.00263656,0.01862167
0.9723803,-0.3074984,-0.2038323,0.01591948,0.004361509,0.01497103,0.08150044,0.01274194,0.02049309
0.9729226,-0.3078899,-0.1964711,0.01610635,0.003691094,0.02320398,0.07851079,0.02098726,0.01745085
0.9729543,-0.3089589,-0.1920167,0.01578182,0.002342292,0.028481,0.09039529,0.02164818,0.01818291
0.9711882,-0.3055397,-0.1884157,0.01365904,0.005481606,0.03285554,0.08982814,0.01786353,0.02160975
0.9698401,-0.3018222,-0.1925874,0.01195405,0.00891968,0.02940812,0.08843565,0.009326784,0.02331267
0.9704054,-0.3004359,-0.1957527,0.01216253,0.01002732,0.02691805,0.08860713,0.01656808,0.0247095
0.9691938,-0.2999785,-0.193577,0.01059463,0.01020703,0.02971997,0.07491353,0.01912354,0.02204668
0.9684742,-0.3022948,-0.1970827,0.009519405,0.007614347,0.02679199,0.07075235,0.01287028,0.02150735
0.9673461,-0.3014801,-0.1975872,0.008036963,0.00815408,0.02681711,0.06953488,0.0100743,0.02028639
0.9648468,-0.300882,-0.1969477,0.005184947,0.008478802,0.02793886,0.06987251,0.004789786,0.01847727
0.9684926,-0.302483,-0.1976722,0.008480165,0.006606271,0.02764979,0.06879406,0.007177777,0.01928
0.9728374,-0.2995877,-0.19659,0.01247689,0.009232173,0.02912165,0.06319059,0.01176834,0.01785955
0.9706128,-0.2961265,-0.1976056,0.009906998,0.01242615,0.02845042,0.05456577,0.01570537,0.01643357
0.969924,-0.2963062,-0.1957499,0.008875907,0.01198147,0.03060631,0.03615286,0.02220727,0.01461559
0.9703065,-0.3021866,-0.1930253,0.008919329,0.005838423,0.0335876,0.03374243,0.02132277,0.01408739
0.9671129,-0.3074171,-0.1898981,0.00539013,0.0003475577,0.03692882,0.04230758,0.01648558,0.01655207
0.9658636,-0.3030322,-0.1858552,0.003808931,0.004474743,0.04114381,0.0406636,0.01280515,0.01675861
0.9675221,-0.2994212,-0.1868732,0.005139717,0.00783112,0.0402565,0.04025691,0.0106183,0.0168117
0.9697575,-0.3018814,-0.1889096,0.007051834,0.00511949,0.03830998,0.03797437,0.0110596,0.01799741
0.9730877,-0.3019224,-0.1928897,0.01006359,0.004830378,0.03437962,0.03483162,0.01567047,0.0181336
0.9737166,-0.3010607,-0.197471,0.01037873,0.00544747,0.02980892,0.0297292,0.02013605,0.01923805
0.971491,-0.3040123,-0.19626,0.0078443,0.002254992,0.0309925,0.01828991,0.01829021,0.02014208
0.971989,-0.3075452,-0.1956342,0.008038188,-0.001514827,0.03155407,0.01333953,0.01737275,0.01871146
0.9728061,-0.3089785,-0.199944,0.008556177,-0.003180865,0.02714453,0.0118348,0.01943025,0.01911418
0.971629,-0.3085784,-0.2036536,0.00708494,-0.003008819,0.02330092,0.006858386,0.02322487,0.02094018
0.9713911,-0.3077979,-0.2026258,0.00655787,-0.002451348,0.02416214,-9.60829e-05,0.02777846,0.02103934
0.9705904,-0.3080594,-0.1991204,0.005473056,-0.002930327,0.02746979,-0.005587353,0.02283743,0.02400046
0.969188,-0.305816,-0.1924313,0.003791736,-0.0008985944,0.03393149,-0.005072883,0.01124009,0.02712068
0.9677965,-0.3027595,-0.1854895,0.002126619,0.001952235,0.04061745,-0.005706129,0.0009237937,0.02816875
0.9658681,-0.3033326,-0.1874909,-6.982523e-05,0.001179739,0.03833259,-0.008077124,-0.007444901,0.03042028
0.9670572,-0.3029782,-0.1924907,0.0008570397,0.001340868,0.03302244,-0.006344236,-0.01194661,0.03180816
0.9706545,-0.3024227,-0.1935444,0.004198177,0.001709312,0.03163263,-0.003358756,-0.01463427,0.03653791
0.9747308,-0.3044066,-0.1948076,0.00802441,-0.0004554693,0.03000862,-0.001278898,-0.01138809,0.03740054
0.9782952,-0.3061593,-0.1971554,0.0113449,-0.00238284,0.02727644,-0.003232727,-0.00166942,0.02932298
0.9781675,-0.308336,-0.1992074,0.01097906,-0.004727834,0.02481788,-0.006718566,0.002355584,0.02358937
0.9788541,-0.3116239,-0.1982143,0.01143313,-0.008177597,0.02538347,-0.006374844,0.00413825,0.0150918
0.9796649,-0.3149757,-0.1961135,0.0120164,-0.01168434,0.02703735,-0.005232761,0.01228711,0.01007482
0.9750513,-0.3156025,-0.1968081,0.00718027,-0.01245881,0.02587756,-0.003322805,0.0257811,0.01129134
0.9705975,-0.314513,-0.1940553,0.002508461,-0.01150931,0.02814815,-0.002473047,0.04087428,0.003757451
0.9687727,-0.3157038,-0.1910015,0.0004703218,-0.01283191,0.03070388,-0.004886092,0.04710979,0.0004851082
0.9700374,-0.3154945,-0.1970611,0.00152637,-0.01274581,0.02413144,-0.0075913,0.04273441,0.003432316
0.9729426,-0.3146768,-0.2023817,0.004227883,-0.01204245,0.01828438,-0.01114752,0.03380759,0.005189832
0.9713407,-0.3158209,-0.1999865,0.002427228,-0.01329161,0.02014067,-0.009730796,0.02517823,0.01094274
0.9682391,-0.3150911,-0.1993361,-0.0008679961,-0.01265729,0.02024115,-0.006931975,0.02267238,0.01315316
0.9651731,-0.315073,-0.2025312,-0.004122612,-0.01272493,0.01648628,-0.0151356,0.023463,0.01526438
0.9642436,-0.3153459,-0.2033058,-0.005235221,-0.01307366,0.01514353,-0.02194125,0.02634983,0.01569951
0.9672036,-0.3118388,-0.2025067,-0.002452569,-0.009632411,0.01536736,-0.022289,0.02819161,0.01136508
0.9667415,-0.3059007,-0.2028951,-0.003086072,-0.003749982,0.01439794,-0.02956537,0.01909449,0.01555247
0.966237,-0.3014287,-0.2027379,-0.003755871,0.0006761119,0.01396942,-0.0362797,0.005315934,0.02389283
0.9670868,-0.3070131,-0.2027329,-0.003064867,-0.004944773,0.01338548,-0.0299001,0.0004903218,0.03055264
0.9649038,-0.3177784,-0.2036267,-0.005400211,-0.01573758,0.01190045,-0.02170036,0.002238674,0.02567786
0.9634377,-0.3220355,-0.2061697,-0.007011989,-0.02001321,0.008765126,-0.02165187,0.001218483,0.01281224
0.9616224,-0.3229777,-0.2097515,-0.008965969,-0.02096469,0.00459116,-0.01928768,0.000363336,0.01253859
0.9603271,-0.3221934,-0.2097847,-0.0103928,-0.02018009,0.003967156,-0.01859703,0.0005249363,0.007540754
0.9599283,-0.3216404,-0.2099831,-0.01091554,-0.01961679,0.00318064,-0.02328698,-0.002141842,0.00327467
0.9580605,-0.3228786,-0.211524,-0.01289936,-0.02083453,0.001055402,-0.01491691,-0.006165139,0.01458561
0.9550692,-0.3217227,-0.2083211,-0.01599849,-0.01964759,0.003679145,-0.001359691,-0.02225305,0.01933863
0.9479164,-0.3192485,-0.2051398,-0.02325032,-0.0171318,0.006287448,0.002452651,-0.05098987,0.03008578
0.9454148,-0.3102515,-0.2044712,-0.0258416,-0.008082519,0.006389993,-0.00136284,-0.08066227,0.05012901
0.9525704,-0.2975306,-0.2023039,-0.01876562,0.00470107,0.007998999,-0.01119819,-0.1114884,0.06523339
0.962624,-0.2978087,-0.2019324,-0.00878087,0.004495166,0.007820483,-0.01783366,-0.1220347,0.07679956
0.9738896,-0.3070329,-0.2024508,0.002426634,-0.004648211,0.006761022,-0.02644797,-0.1023217,0.06928689
0.9743803,-0.3125906,-0.1989209,0.002869617,-0.01011736,0.009759076,-0.0395291,-0.09280344,0.0600168
0.9677722,-0.3133418,-0.1939919,-0.003776473,-0.01077273,0.01416586,-0.04623547,-0.1023276,0.06143691
0.970354,-0.3108192,-0.1907624,-0.001223539,-0.008147388,0.01688293,-0.05797167,-0.1011665,0.05945419
0.973042,-0.3087659,-0.1916978,0.001444185,-0.005984545,0.01544471,-0.07836259,-0.08841365,0.06514134
0.9755004,-0.3083945,-0.1944884,0.003890415,-0.005497444,0.01216084,-0.09604467,-0.06764962,0.06413682
0.9800411,-0.3092305,-0.1928044,0.008426261,-0.006211896,0.01336102,-0.1057525,-0.03681392,0.05582305
0.9784708,-0.3122685,-0.1930472,0.006857699,-0.009122969,0.01264381,-0.1105918,-0.0148853,0.05302825
0.9773135,-0.3138908,-0.1975904,0.00570779,-0.0106133,0.007635601,-0.1279424,-0.01138131,0.04022271
0.975664,-0.3131563,-0.1989373,0.004070588,-0.009742126,0.005833211,-0.152041,-0.00540747,0.03447227
0.9714667,-0.3134309,-0.19813,-0.0001100172,-0.009875401,0.006194714,-0.1564105,0.01127782,0.0344983
0.9690168,-0.3151652,-0.1965984,-0.002539474,-0.01146393,0.007290259,-0.1512946,0.01567151,0.02669015
0.9668286,-0.3182016,-0.1970783,-0.00470354,-0.01435038,0.006384443,-0.154839,0.02032906,0.02684183
0.969242,-0.3215703,-0.1989472,-0.002262658,-0.01756494,0.004099644,-0.1549685,0.04376578,0.02111876
0.9706805,-0.3246845,-0.1983727,-0.000793447,-0.02052072,0.004268428,-0.1543513,0.05265964,0.004310071
0.9696503,-0.3258823,-0.2001293,-0.001789898,-0.02155554,0.002116546,-0.1625428,0.06077755,-0.009058317
0.9735016,-0.32367,-0.2024008,0.002097877,-0.01917545,-0.0005396494,-0.1699476,0.087808,-0.01585348
0.9740472,-0.3204515,-0.2045013,0.00268243,-0.01578414,-0.003014089,-0.1802655,0.100554,-0.01875759
0.9715786,-0.3165194,-0.2086291,0.0002549104,-0.01167425,-0.007504634,-0.1940292,0.1135674,-0.02431227
0.9687077,-0.3144599,-0.2093377,-0.002573168,-0.009431965,-0.008564368,-0.2055412,0.1301135,-0.02556498
0.965145,-0.314875,-0.2048217,-0.006091511,-0.009659649,-0.004387551,-0.2207385,0.1313158,-0.03117835
0.9666988,-0.3157138,-0.1972389,-0.00449178,-0.0103067,0.002868601,-0.2338628,0.138301,-0.04105509
0.9673302,-0.3184334,-0.1973437,-0.003812935,-0.01283067,0.002449581,-0.2451675,0.1444491,-0.03120186
0.966051,-0.3147618,-0.2036126,-0.005043147,-0.008959578,-0.004121164,-0.2693142,0.1489196,-0.01649366
0.9655223,-0.3072717,-0.2015225,-0.005521302,-0.001266649,-0.002320564,-0.3056375,0.1601981,-0.01156273
0.9591657,-0.3064189,-0.1979772,-0.01182583,-0.0002080462,0.0009475197,-0.3283342,0.1503636,-0.01373523
0.9514594,-0.2999166,-0.1944513,-0.01947816,0.006502147,0.004208495,-0.3231657,0.1111912,-0.02167557
0.9522142,-0.2884132,-0.1901189,-0.01866717,0.0182146,0.008287834,-0.318102,0.0362567,-0.02283486
0.9593374,-0.2882378,-0.2002219,-0.01148484,0.01859909,-0.002056625,-0.3165053,-0.05010357,-0.02406085
0.9674456,-0.2972774,-0.2125062,-0.003314324,0.00976719,-0.01457115,-0.2911382,-0.06650003,-0.03098882
0.9761982,-0.3060486,-0.2109288,0.005503845,0.00120098,-0.01321261,-0.2549619,-0.03267715,-0.0456333
0.981416,-0.3079054,-0.2152364,0.01078995,-0.0004539931,-0.01772707,-0.2234183,-0.01596297,-0.08400649
0.9831925,-0.3011215,-0.226106,0.0126367,0.006527959,-0.02879114,-0.185686,0.01565803,-0.1311146
0.9836049,-0.2872436,-0.2243006,0.0131204,0.02059974,-0.02716691,-0.1483948,0.04428328,-0.1630917
0.9788966,-0.2681789,-0.2226885,0.008483681,0.03985304,-0.02572181,-0.1227378,0.03878105,-0.1736894
0.9790129,-0.2518708,-0.2258811,0.008670882,0.0563427,-0.02906651,-0.09310913,0.06887296,-0.1616366
0.9851125,-0.2456155,-0.2223796,0.01484018,0.06277036,-0.02570129,-0.05337536,0.1132461,-0.1351983
0.9875977,-0.2446723,-0.2213324,0.01739312,0.06387371,-0.02477417,-0.02033187,0.12105,-0.1033969
0.9898218,-0.2430599,-0.2217139,0.01968213,0.06563137,-0.02525891,0.003342461,0.1244356,-0.08430684
0.9909734,-0.2449232,-0.2214662,0.02089491,0.06389575,-0.02509724,0.02075099,0.1109116,-0.07695833
0.9944767,-0.2503528,-0.2237705,0.02445462,0.05857391,-0.02747018,0.04446794,0.0935639,-0.05775726
0.9954686,-0.2512637,-0.2170915,0.02549729,0.05774883,-0.0208421,0.0876463,0.1023053,-0.04274827
0.9832114,-0.2364204,-0.2092624,0.01328428,0.07265429,-0.01304619,0.1141186,0.09872334,-0.04037226
0.9744136,-0.2100807,-0.2114948,0.004523548,0.09903042,-0.01529431,0.09627803,0.06944706,-0.02828428
0.9784431,-0.2000921,-0.2168316,0.008582747,0.1090271,-0.02062984,0.07318927,0.02189359,-0.005177649
0.9852468,-0.2070414,-0.2245967,0.01540887,0.1020545,-0.02837683,0.07015201,-0.01239899,0.02461999
0.9900389,-0.2142224,-0.2297257,0.02021586,0.09481562,-0.03347098,0.07014523,0.002501397,0.04855044
0.9952818,-0.2278985,-0.2252026,0.02546583,0.08104494,-0.02889599,0.08292089,0.01564985,0.0618313
0.9978189,-0.2412601,-0.2203422,0.02800155,0.06755031,-0.02396656,0.1014176,0.005207696,0.06550761
0.9978941,-0.2429845,-0.2217978,0.02806615,0.06565378,-0.02533612,0.09310214,0.009383524,0.04993408
1.006761,-0.2417851,-0.2226197,0.03691197,0.0666416,-0.02605496,0.08456004,0.0093806,0.0302396
1.01059,-0.2421625,-0.2242042,0.04070955,0.06601334,-0.02751967,0.07992567,0.001544205,0.0005564011
1.001762,-0.2455641,-0.2289781,0.0318385,0.06232168,-0.03215712,0.06325791,0.001534604,-0.02219135
0.9905698,-0.2563389,-0.2299256,0.02059019,0.05121804,-0.03295162,0.06632757,-0.004285131,0.01482166
0.9726564,-0.2771684,-0.2292842,0.002607603,0.03002174,-0.03214067,0.08220804,0.01231741,0.08070618
0.9605059,-0.3048874,-0.2255128,-0.009624359,0.001899902,-0.02818304,0.0970656,0.03880441,0.1393541
0.9568457,-0.3299157,-0.2188986,-0.01337721,-0.02356447,-0.02136633,0.1151659,0.03412682,0.1739472
0.9509635,-0.3443448,-0.2177702,-0.01936171,-0.0384588,-0.0200194,0.1263291,0.03074917,0.1724916
0.9459927,-0.3468757,-0.2166349,-0.02444249,-0.04147921,-0.01865034,0.1379486,0.01548961,0.1767148
0.9395133,-0.3508355,-0.2138282,-0.03103754,-0.0459476,-0.0155954,0.1456758,-0.01882978,0.1758306
0.9421189,-0.3608359,-0.2042092,-0.02855126,-0.05647082,-0.005714488,0.1571499,-0.01684944,0.1581903
0.9516477,-0.3632366,-0.1880842,-0.01914346,-0.05940321,0.01068484,0.1873396,-0.008774981,0.155023
0.9572579,-0.3553348,-0.1823981,-0.01365414,-0.05203719,0.01665582,0.2003433,-0.01871547,0.1440655
0.9691896,-0.3338675,-0.1717316,-0.001842048,-0.03110521,0.02761558,0.1869059,-0.004120703,0.1252044
0.9776458,-0.3070736,-0.1534965,0.006496262,-0.004842649,0.04614975,0.1821154,0.01112785,0.1013495
0.9806208,-0.3005177,-0.1548677,0.009355444,0.001187948,0.04508031,0.1798664,0.01030041,0.04454339
0.9804129,-0.3076979,-0.1561564,0.009033509,-0.006510052,0.04409275,0.1436312,0.0333339,-0.0190359
0.9533003,-0.3100647,-0.1355366,-0.01819147,-0.009386206,0.06501002,0.08977617,0.0574244,-0.04456746
0.9144495,-0.3125557,-0.1165921,-0.05715238,-0.01237688,0.08424468,0.08113474,0.04152986,-0.02753564
0.9046066,-0.3172783,-0.1166029,-0.06710096,-0.01758832,0.08451272,0.1153981,0.006604207,-0.01876469
0.9193739,-0.3200719,-0.1267336,-0.05243217,-0.02085848,0.07464562,0.1431932,-0.01280117,-0.0368671
0.9338774,-0.3364092,-0.1423083,-0.03801735,-0.03765868,0.05931543,0.1777048,-0.001044492,-0.05624325
0.9459266,-0.3599395,-0.1612717,-0.02604516,-0.06163622,0.04057496,0.2386556,0.003030879,-0.1062958
0.9538082,-0.3622683,-0.1648238,-0.01822783,-0.06439402,0.03722234,0.3022627,-0.05729266,-0.1518479
0.9706469,-0.3814384,-0.1767893,-0.00144022,-0.08397193,0.02543218,0.3612662,-0.1079709,-0.135297
1.003661,-0.4237632,-0.2198101,0.03153551,-0.1266797,-0.01743771,0.3949938,-0.05017236,-0.1050908
0.9951913,-0.4132858,-0.2274467,0.02303864,-0.1165558,-0.02494664,0.382355,0.01086317,-0.06948506
0.9578108,-0.3655079,-0.1967265,-0.01435958,-0.06909736,0.005879967,0.3698825,-0.0278106,-0.04394917
0.9496432,-0.3307037,-0.1801936,-0.02253614,-0.03457578,0.0224996,0.3620777,-0.09618278,-0.06861562
0.9455077,-0.3110246,-0.163444,-0.02667178,-0.01514127,0.0393168,0.3192749,-0.149749,-0.09274356
0.9611056,-0.318634,-0.1633431,-0.01106482,-0.022958,0.03946597,0.2859502,-0.1573661,-0.09764995
0.983959,-0.3125871,-0.1714107,0.01180706,-0.01708199,0.03142657,0.2763486,-0.1191791,-0.08699872
0.9702946,-0.2883631,-0.1577908,-0.001830052,0.007005981,0.04505414,0.2383972,-0.1157592,-0.05207369
0.9698513,-0.2944794,-0.1584942,-0.002238029,0.0007868363,0.04433723,0.1780797,-0.1091849,-0.03872546
0.975635,-0.2851516,-0.1523317,0.003588278,0.01004281,0.05046453,0.1163916,-0.08607163,-0.03736499
0.975601,-0.2669008,-0.134532,0.003603504,0.02825005,0.06820629,0.06077862,-0.1010556,-0.01585389
0.9900697,-0.2796263,-0.136874,0.01812712,0.01550677,0.06578253,0.01240306,-0.1073831,-0.0004331035
0.9869266,-0.2823912,-0.1367635,0.01504364,0.01274679,0.06578594,-0.03083764,-0.1183132,0.004955323
0.9831507,-0.2889207,-0.1519862,0.0113308,0.006242687,0.05042971,-0.05913376,-0.1163968,0.002611542
0.9860114,-0.3082862,-0.1781839,0.01425682,-0.013079,0.02407152,-0.09093504,-0.06378123,-0.005698288
0.9777987,-0.3233496,-0.1804122,0.006110708,-0.02808126,0.02165614,-0.1179118,-0.03121279,-0.01328625
0.9763577,-0.3372272,-0.1757422,0.004736789,-0.04188105,0.02611354,-0.1163317,-0.01459158,-0.02246414
0.9753624,-0.3232518,-0.1691829,0.003808572,-0.02781065,0.03243577,-0.1044341,-0.02851575,-0.01494554
0.972784,-0.3097964,-0.1653275,0.001296791,-0.01424319,0.03603068,-0.07857698,-0.05602529,-0.002566322
0.9737047,-0.3184632,-0.1706986,0.002283433,-0.02278111,0.03037635,-0.0556937,-0.03887044,-0.007075617
0.9745646,-0.3143496,-0.1808301,0.00320829,-0.01852241,0.0199397,-0.06646637,-0.03885943,-0.01747193
0.9754613,-0.3095817,-0.1973364,0.004168767,-0.01359372,0.003107465,-0.08468919,-0.02650864,-0.03077003
0.9736121,-0.3040091,-0.2099553,0.002381888,-0.007845329,-0.009856272,-0.1027813,0.01063142,-0.0317273
0.9735615,-0.2913887,-0.2133233,0.002391902,0.004964616,-0.0135856,-0.1411981,0.01985044,-0.026035
0.9736181,-0.2968931,-0.2111167,0.002507213,-0.0003378063,-0.01175411,-0.1777332,0.02902482,-0.03150968
0.9734083,-0.3120896,-0.2097371,0.002354051,-0.01532114,-0.01076087,-0.17614,0.02531889,-0.02713257
0.9740588,-0.3247286,-0.206648,0.003059128,-0.02773695,-0.008066718,-0.1548697,0.02986386,-0.02450235
0.973094,-0.3360134,-0.1999936,0.002146553,-0.03878861,-0.001813929,-0.1350746,0.04839879,-0.03685138
0.9721717,-0.3385523,-0.1963711,0.0012741,-0.04108427,0.001402297,-0.09034748,0.0460757,-0.04373702
0.9643003,-0.3374841,-0.1859137,-0.006549838,-0.03976207,0.01145013,-0.03154675,0.04925039,-0.04869946
0.9549154,-0.3318988,-0.1696691,-0.0158895,-0.03391148,0.02728282,0.008785292,0.03550767,-0.05444693
0.9573925,-0.313452,-0.1566582,-0.01336877,-0.01518777,0.03987971,0.02598416,0.0036572,-0.05682802
0.9664319,-0.2978643,-0.1556403,-0.004286602,0.0006878757,0.04048129,0.01550268,-0.01262897,-0.04796358
0.9716904,-0.293602,-0.1658594,0.001013941,0.005248217,0.02984275,0.003869005,-0.02371441,-0.02331059
0.970542,-0.2907551,-0.1668926,-9.289328e-05,0.00840153,0.02838675,-0.01167588,-0.0344424,-0.006811006
0.9691695,-0.2907317,-0.1687186,-0.001424313,0.008737998,0.02613434,-0.05644838,-0.04458876,-0.005535575
0.9697537,-0.2986266,-0.1717173,-0.0007997413,0.001161067,0.02270559,-0.08169372,-0.03889512,-0.01093734
0.9682767,-0.3120297,-0.167294,-0.002236927,-0.01192051,0.02669552,-0.08254075,-0.02480485,-0.01985809
0.9639288,-0.3178954,-0.1704098,-0.006545701,-0.0174621,0.02314304,-0.08840812,-0.02689339,-0.02137807
0.9620085,-0.3104642,-0.1725684,-0.008427191,-0.009704533,0.0205447,-0.08585862,-0.04995798,-0.005456917
0.9719987,-0.3071409,-0.1848287,0.001601645,-0.006053111,0.007841871,-0.08274545,-0.07825654,0.0225378
0.9838689,-0.3176244,-0.2129361,0.0135102,-0.01620729,-0.02070985,-0.06906974,-0.05985213,0.03435296
0.9756681,-0.3308659,-0.2207576,0.005347287,-0.02911838,-0.02897594,-0.05092072,-0.01735819,0.03178784
0.9537246,-0.3360661,-0.2077697,-0.01655927,-0.0339871,-0.01643064,-0.04826924,-0.007841937,0.02581264
0.9414782,-0.3363668,-0.1989725,-0.02876933,-0.03395469,-0.008071779,-0.02420398,-0.01403628,-0.002871456
0.9533901,-0.3413273,-0.2001092,-0.01682079,-0.03857956,-0.009641083,0.02558951,-0.01898546,-0.03190738
0.978387,-0.3471486,-0.1968838,0.008213732,-0.04406209,-0.006841228,0.06785031,-0.0004486462,-0.04137429
0.9843386,-0.3377833,-0.1924492,0.01420426,-0.03435399,-0.002824136,0.0773559,0.02248941,-0.04550666
0.977476,-0.3134753,-0.1946765,0.007381197,-0.009698376,-0.005460038,0.05829655,0.009257224,-0.04449816
0.9769068,-0.294449,-0.1842466,0.006851384,0.009679876,0.004570871,0.04186798,0.003846849,-0.04470688
0.9723243,-0.2898644,-0.1718289,0.002307783,0.01461985,0.0165995,0.02642457,0.00702369,-0.04294521
0.9709505,-0.2915921,-0.1689251,0.0009720549,0.01324904,0.01912393,0.0194731,-0.01001068,-0.0376988
0.9685522,-0.2917014,-0.1653913,-0.001389184,0.01349655,0.02228763,0.02618424,-0.02609148,-0.03694303
0.9595,-0.2977798,-0.1717088,-0.01040525,0.007773079,0.01560856,0.02393514,-0.0363807,-0.03582141
0.9663374,-0.3130833,-0.1864143,-0.003532439,-0.007178646,0.0005495192,0.02740866,-0.02813023,-0.03700006
0.9749735,-0.3213947,-0.2023237,0.005138546,-0.01514203,-0.01570534,0.03706021,-0.005098708,-0.03652168
0.9732218,-0.321971,-0.2092774,0.003421127,-0.01537432,-0.02299575,0.03207155,0.01416628,-0.03442482
0.9735628,-0.3166396,-0.1962008,0.003795621,-0.009702927,-0.01024591,0.02154694,0.02563513,-0.03319896
0.9718943,-0.3016502,-0.179297,0.002159531,0.005622379,0.006341865,0.00845332,0.01457518,-0.02444618
0.9709942,-0.2907398,-0.1655071,0.001290677,0.0168641,0.01982666,0.0005981366,-0.004748084,-0.01700622
0.972667,-0.2893013,-0.1602419,0.002993524,0.01862812,0.02479712,0.00369279,-0.03151516,-0.01258087
0.9728799,-0.2952508,-0.1686322,0.00323506,0.01299729,0.01612152,0.005584804,-0.06301191,-0.009775859
0.9745768,-0.3041639,-0.1748254,0.004959004,0.004394738,0.009651546,0.01181844,-0.06313289,-0.0178765
0.9767953,-0.3068481,-0.1811887,0.007202868,0.002012221,0.003019476,0.01615219,-0.04407512,-0.03009234
0.9779123,-0.3058783,-0.1884415,0.008343242,0.003274473,-0.004494233,0.009538176,-0.01398919,-0.03626023
0.9791081,-0.3048363,-0.1881999,0.009560101,0.004599332,-0.00450559,0.006885191,0.01498805,-0.03651848
0.979641,-0.3056925,-0.1888575,0.01011138,0.004016261,-0.005407811,0.004185464,0.01224342,-0.03522267
0.976221,-0.3048603,-0.1868718,0.006706933,0.005111573,-0.003658223,-0.003124189,0.00452075,-0.03127773
0.9719619,-0.2985035,-0.1805201,0.002460016,0.01172111,0.002466187,-0.006080601,0.0007189732,-0.02518162
0.9702608,-0.2960623,-0.17684,0.0007679173,0.01440431,0.005927776,-0.005875105,-0.006505752,-0.01957442
0.969841,-0.3031186,-0.1725993,0.0003540085,0.007578789,0.009958608,-0.002460796,-0.008435605,-0.01313327
0.9696657,-0.3116075,-0.1719561,0.0001815635,-0.0006907594,0.01039996,0.000295252,-0.01830476,-0.01242041
0.9664339,-0.3083354,-0.1758739,-0.003050093,0.002789201,0.006288035,-0.005201258,-0.03228826,-0.01260509
0.9667498,-0.3039797,-0.179647,-0.002736535,0.007341247,0.002327902,-0.01181148,-0.04175049,-0.005964155
0.9731222,-0.3087766,-0.1818787,0.003631217,0.00272947,-8.383647e-05,-0.01096682,-0.03865963,-0.001987206
0.9762212,-0.306613,-0.1797982,0.006723558,0.005066999,0.001823427,-0.0136759,-0.02350386,-0.001759089
0.9763037,-0.3034863,-0.178384,0.006797288,0.008356349,0.003071168,-0.02492463,-0.02243837,-0.001098637
0.9748576,-0.3034256,-0.1782604,0.005340086,0.008568704,0.003034925,-0.02895111,-0.03021542,-0.0003256997
0.9737241,-0.2994093,-0.1788029,0.004193034,0.01272544,0.00233895,-0.02348956,-0.03315791,-0.0004873463
0.9726895,-0.3010246,-0.1817447,0.003142499,0.01123927,-0.0007499891,-0.02077543,-0.02859554,-0.002250162
0.9705797,-0.3016245,-0.1797688,0.001014392,0.01075713,0.001084853,-0.03047723,-0.01966727,-0.004031564
0.9726504,-0.3012008,-0.1761788,0.003064528,0.01128714,0.00453978,-0.04468377,-0.02379362,-0.005338676
0.9760784,-0.3041809,-0.1769688,0.006469716,0.008401768,0.003620591,-0.04705499,-0.02541167,-0.005462195
0.9784582,-0.3012956,-0.1783158,0.008824414,0.01137043,0.00214995,-0.04580053,-0.01804091,-0.005460961
0.9773078,-0.3012708,-0.1770906,0.007646587,0.0114672,0.003256945,-0.0443775,-0.01724312,-0.003390394
0.9730793,-0.3048423,-0.1752028,0.00338812,0.007956422,0.005031594,-0.03909824,-0.01123483,-0.001147539
0.9736507,-0.3057195,-0.1787231,0.00392704,0.007128795,0.001403134,-0.037905,-0.005953611,-0.004580014
0.9737816,-0.3059161,-0.179744,0.004023025,0.006970982,0.0002786675,-0.03284343,-0.009990607,-0.008041365
0.9731539,-0.3027148,-0.174158,0.003357877,0.0102004,0.005765619,-0.02346186,-0.01528021,-0.01234931
0.9742295,-0.3005336,-0.1716148,0.004393834,0.01239937,0.008214029,-0.02128105,-0.02303708,-0.01711138
0.9739963,-0.2993992,-0.1720938,0.004118698,0.01354135,0.00764423,-0.02077708,-0.02437892,-0.0143122
0.9782512,-0.2982013,-0.1760088,0.008329472,0.01473669,0.00364183,-0.01971353,-0.01812333,-0.008083308
0.9814132,-0.3003207,-0.1778738,0.01144498,0.01260467,0.001692757,-0.02109665,-0.01304048,-0.003347653
0.977058,-0.3024343,-0.1752478,0.007041002,0.01046836,0.004237656,-0.02047148,-0.009894183,-0.007052359
0.973359,-0.3036947,-0.176768,0.003290492,0.009175389,0.002639219,-0.01565621,-0.008931095,-0.01433078
0.9749413,-0.3025572,-0.1772228,0.00481885,0.01027073,0.002108943,-0.01180027,-0.005743037,-0.0134112
0.9768064,-0.3029038,-0.1787558,0.006627616,0.009872779,0.0005030472,-0.01111076,0.002421023,-0.01713923
0.9751517,-0.3072307,-0.1840308,0.004914072,0.005485564,-0.004842269,-0.008685054,0.01547683,-0.02566296
0.9757407,-0.3086432,-0.1848263,0.005441951,0.004004261,-0.00570542,-0.006872657,0.02805698,-0.0323907
0.9769625,-0.3073745,-0.1855566,0.006600288,0.005196217,-0.006500409,-0.006890041,0.03782737,-0.04324039
0.9758419,-0.3034357,-0.1862755,0.005414024,0.009050735,-0.007280808,-0.004349836,0.05095489,-0.04500958
0.9757536,-0.3007064,-0.1841223,0.005257816,0.01168866,-0.005185581,-0.005906218,0.05613807,-0.03993526
0.9738959,-0.3017124,-0.1824818,0.003330071,0.01058451,-0.003599452,-0.009413585,0.0481718,-0.04145853
0.970871,-0.3005931,-0.1811078,0.0002332117,0.01159912,-0.002275974,-0.007609477,0.03998104,-0.03865584
0.9670681,-0.2988184,-0.1788835,-0.003643528,0.01326263,-9.83799e-05,-0.009076229,0.02701815,-0.03133213
0.9652092,-0.2965623,-0.1748721,-0.005577482,0.01540119,0.003870071,-0.01223577,0.009704079,-0.02343973
0.9675551,-0.2968614,-0.1746555,-0.003307427,0.01497836,0.00404717,-0.01356336,-0.0001306491,-0.01336756
0.966673,-0.3002783,-0.1842745,-0.004265818,0.01143149,-0.005608106,-0.01955962,-0.008133351,-0.008343185
0.966083,-0.3007993,-0.1966288,-0.00493194,0.01077446,-0.01799551,-0.02745185,-0.01231284,-0.006688059
0.9678931,-0.3018172,-0.198359,-0.003197337,0.009614607,-0.01975527,-0.0346839,-0.01004336,-0.002268833
0.9688942,-0.3014556,-0.1927797,-0.002270921,0.009828752,-0.01420117,-0.04248901,-0.01273614,0.002578319
0.9717369,-0.29964,-0.1907886,0.0004982401,0.01149159,-0.01223036,-0.05330573,-0.01555604,0.001398583
0.9711969,-0.2993117,-0.1866216,-0.0001138646,0.01166212,-0.008078296,-0.05987711,-0.01610144,-0.001080674
0.9689524,-0.29703,-0.1843376,-0.002429063,0.01378115,-0.005803839,-0.05257529,-0.01316588,0.001719422
0.9696315,-0.2969315,-0.1856191,-0.001819064,0.01371233,-0.007089371,-0.04959925,-0.007183002,0.001758086
0.9685667,-0.2974571,-0.1792581,-0.002951074,0.01301471,-0.0007270317,-0.05466659,-0.01900203,0.002122075
0.9688875,-0.2959126,-0.1777864,-0.002695594,0.01438288,0.0007512072,-0.05298529,-0.03356649,0.003895978
0.9719268,-0.2962286,-0.1823927,0.0002804806,0.01388606,-0.003843631,-0.05290151,-0.02832861,0.00169274
0.9738043,-0.2979325,-0.1844238,0.002097065,0.01199709,-0.005858689,-0.0538297,-0.01947504,0.002330039
0.9752204,-0.3022998,-0.1891826,0.003454327,0.007440538,-0.010597,-0.05212787,-0.01049744,0.0003977283
0.9770235,-0.3061083,-0.1881769,0.005200596,0.003439079,-0.009566225,-0.05209387,-0.001101459,-0.004156605
0.9792874,-0.3074538,-0.1858861,0.007409471,0.001897399,-0.007245907,-0.04734652,0.007011327,-0.006711631
0.9789316,-0.3088306,-0.1883962,0.007000088,0.000321762,-0.009721842,-0.04321388,0.01483889,-0.01227913
0.9748058,-0.3067429,-0.1851647,0.002822002,0.002208508,-0.006451483,-0.04441971,0.01107229,-0.01171185
0.9709104,-0.3023698,-0.182535,-0.001124686,0.006379412,-0.003778445,-0.04494567,0.00188944,-0.007687488
0.9702753,-0.2987714,-0.1817963,-0.00180996,0.00977451,-0.002991978,-0.04410793,-0.00594781,-0.00619421
0.9734096,-0.2980104,-0.1796542,0.001275211,0.01033149,-0.0007980194,-0.04082364,-0.01292177,-0.000626618
0.9761473,-0.3009252,-0.1806896,0.003964966,0.007212138,-0.001777797,-0.03629874,-0.00900951,-0.0007413461
0.9766491,-0.3019977,-0.1809876,0.00441986,0.005934575,-0.002016715,-0.03103066,-0.005994486,-0.005149199
0.97642,-0.3012215,-0.1813299,0.00414483,0.006505514,-0.002296821,-0.0260545,-0.01022706,-0.004745118
0.9748089,-0.3013543,-0.183846,0.002488703,0.006167504,-0.004747846,-0.02574399,-0.01004151,-0.006368639
0.9728798,-0.3012217,-0.186294,0.0005151719,0.006095141,-0.007128136,-0.02672125,-0.01238371,-0.005785108
0.9706657,-0.3005533,-0.1886093,-0.001742589,0.006559015,-0.009373095,-0.02554117,-0.01526289,-0.003195589
0.9689848,-0.2996618,-0.1891461,-0.003466455,0.007246818,-0.009836925,-0.02606335,-0.02020398,-0.005192516
0.9682275,-0.299722,-0.1883478,-0.004265589,0.006983654,-0.008963018,-0.02723679,-0.034519,-0.003613312
0.9678377,-0.2993822,-0.1865648,-0.004696108,0.007121534,-0.007101607,-0.02410155,-0.03744512,-0.0001666859
0.9710692,-0.2981276,-0.1855985,-0.001503852,0.00817521,-0.006054129,-0.02066394,-0.03325328,0.001866185
0.9740915,-0.298379,-0.1887421,0.001480781,0.007724102,-0.009113761,-0.02000711,-0.03554109,0.004559115
0.9754515,-0.2980041,-0.1923837,0.00280476,0.007900549,-0.01266881,-0.02072607,-0.02639673,0.004106934
0.9791218,-0.2967153,-0.1936161,0.00644037,0.008992112,-0.01381176,-0.02184153,-0.01059958,0.002920804
0.9805531,-0.2970072,-0.1927472,0.007838353,0.008504198,-0.01285032,-0.02147114,-0.0005765512,-0.005300079
0.9822368,-0.2960676,-0.1897487,0.009489471,0.009249127,-0.009756193,-0.02321094,0.009517789,-0.01900449
0.9857156,-0.2926615,-0.1873617,0.01293608,0.01246181,-0.007270207,-0.02437007,0.01622507,-0.02097919
0.9825765,-0.2907915,-0.1852937,0.009764874,0.01413942,-0.005099916,-0.02304568,0.01722838,-0.0186284
0.976574,-0.291818,-0.1787387,0.003729616,0.0129215,0.001560331,-0.02357043,0.01279763,-0.01919703
0.9738598,-0.2929553,-0.1710663,0.0009820084,0.01159338,0.009340505,-0.02009939,3.724314e-05,-0.01427566
0.972678,-0.2919948,-0.1722383,-0.0002339469,0.01236363,0.00827816,-0.01596935,-0.009606797,-0.005674048
0.9719259,-0.2877837,-0.1776533,-0.001020838,0.01638478,0.002973831,-0.0147303,-0.0103242,-0.0004966463
0.9716178,-0.2848573,-0.1819267,-0.001364154,0.01912135,-0.001188477,-0.01087354,-0.01624867,2.073111e-05
0.9765731,-0.2941676,-0.1929831,0.003555585,0.009620965,-0.01213375,-0.009990405,-0.0207598,-7.795254e-05
0.9872423,-0.3102122,-0.2015354,0.01418902,-0.006614064,-0.02057486,-0.0104968,-0.004092036,-0.000768681
0.9951276,-0.3170684,-0.2030668,0.02203777,-0.01366057,-0.02199439,-0.003833093,0.03272286,-0.002550839
0.9984306,-0.3192409,-0.2063697,0.0253029,-0.01602234,-0.02518424,0.008516678,0.08164796,-0.01029843
0.995732,-0.3167359,-0.1990521,0.02256405,-0.01370424,-0.0177514,0.01440097,0.1165198,-0.03197223
0.9844221,-0.2961625,-0.1799808,0.01121068,0.006685292,0.001437594,-0.001122022,0.1125971,-0.05166442
0.9759933,-0.2722112,-0.1621027,0.002734694,0.03045632,0.01943588,-0.02840793,0.09200821,-0.05113413
0.978303,-0.2681653,-0.1601836,0.004993566,0.03432481,0.02147651,-0.04524941,0.07751058,-0.04016703
0.9781444,-0.2710639,-0.1706119,0.004780453,0.03125044,0.01117003,-0.05721211,0.06683471,-0.02762529
0.9630912,-0.2647542,-0.1652161,-0.01033049,0.03738477,0.01668645,-0.07792202,0.04739472,-0.006393312
0.9457226,-0.2695159,-0.1645572,-0.02775958,0.0324467,0.01746398,-0.08724055,0.003682433,0.01451858
0.9418859,-0.2907229,-0.173604,-0.03165818,0.0110612,0.008532757,-0.06530141,-0.04178906,0.01937701
0.9424688,-0.3067317,-0.171138,-0.03113682,-0.005128434,0.01111043,-0.03693736,-0.06980861,0.01955403
0.9433559,-0.319235,-0.1849096,-0.03030919,-0.01781473,-0.002553761,-0.01676409,-0.09909991,0.02422249
0.9528682,-0.3254587,-0.2018919,-0.02085291,-0.0242221,-0.01943312,0.01251241,-0.121234,0.02804213
0.9620276,-0.3238508,-0.2077837,-0.01174465,-0.0227972,-0.02522585,0.03818393,-0.1265992,0.03154464
0.9651111,-0.3262117,-0.2178167,-0.008706937,-0.0253387,-0.03516243,0.04382956,-0.1291228,0.03407244
0.9722667,-0.3223198,-0.2145731,-0.001591491,-0.02162348,-0.03182385,0.04111119,-0.1225422,0.03535486
0.9815403,-0.3130908,-0.207707,0.007647603,-0.01256595,-0.02486249,0.03152547,-0.1045754,0.0367516
0.9849674,-0.3011259,-0.2074328,0.01104539,-0.0007663067,-0.02449179,0.01570412,-0.08357083,0.0366199
0.9866343,-0.2894642,-0.2035242,0.01268738,0.01073663,-0.02048431,-0.00573135,-0.04859343,0.03592831
0.9848984,-0.2912348,-0.1933893,0.01093025,0.00881355,-0.01024762,-0.03323312,-0.01130056,0.03659048
0.975272,-0.2885485,-0.1800696,0.001285389,0.01135313,0.003177035,-0.05485086,-0.0101367,0.03679648
0.968626,-0.2882007,-0.1792139,-0.005376656,0.01155964,0.004140682,-0.06078425,-0.0218488,0.03669685
0.972827,-0.3020507,-0.179624,-0.001189349,-0.002427015,0.003840742,-0.04399062,-0.01360466,0.03578206
0.9810742,-0.305546,-0.1734781,0.007046444,-0.006054322,0.01009849,-0.02278557,-0.01127179,0.02535019
0.9829878,-0.3052307,-0.1736533,0.00895058,-0.0058663,0.01003589,-0.008429113,-0.008487895,0.008968004
0.9789243,-0.3053342,-0.1775537,0.004879154,-0.006092072,0.006248013,0.01155785,1.700927e-05,0.002049762
0.9751162,-0.3007883,-0.1850609,0.00106427,-0.001663098,-0.001147243,0.02023714,-0.007629457,0.002182776
0.9727091,-0.3015925,-0.1895069,-0.001348834,-0.0025788,-0.005482373,0.02187272,-0.008893189,-0.002127191
0.9752594,-0.3006317,-0.1861126,0.001196396,-0.00172407,-0.00197849,0.02575824,0.002018464,-0.008841395
0.9778136,-0.2969376,-0.1833594,0.00374623,0.00186946,0.0008830814,0.01982993,0.007776141,-0.01211686
0.9757763,-0.2927514,-0.1830888,0.001705156,0.005960367,0.001260643,0.01675163,0.007971164,-0.01514344
0.9763242,-0.2900439,-0.1833143,0.002249747,0.008577628,0.001140358,0.01084624,0.006163087,-0.0173969
0.9767542,-0.2944124,-0.1823,0.002676667,0.004123371,0.002258094,0.005070036,0.01278776,-0.01540821
0.97582,-0.2955663,-0.1819372,0.001739592,0.002887856,0.002722211,0.005671216,0.01582857,-0.01244688
0.9750684,-0.2950372,-0.1827824,0.0009851973,0.003339203,0.001975966,-0.003477154,0.01115904,-0.01054868
0.9710065,-0.2954098,-0.183603,-0.003079517,0.002892508,0.00125172,-0.004779535,0.01354701,-0.01146727
0.9682648,-0.2912102,-0.1836305,-0.005823949,0.007021343,0.00131781,-0.005057726,0.01338451,-0.01276655
0.9698423,-0.290976,-0.1833755,-0.004248845,0.007187937,0.001663505,-0.01768319,0.0117651,-0.01039756
0.9727118,-0.2941001,-0.1864973,-0.001381349,0.003998835,-0.001370491,-0.02117435,0.01219913,-0.008972062
0.9741349,-0.296581,-0.1892523,4.042719e-05,0.00145544,-0.004040757,-0.01738605,0.009080518,-0.01009037
0.9732225,-0.2997292,-0.1886287,-0.0008726813,-0.001753088,-0.003335243,-0.009460325,0.008724738,-0.01326536
0.9707304,-0.2988588,-0.1852048,-0.003364864,-0.0009406162,0.0001679227,-0.003538528,0.006841088,-0.01447332
0.9687534,-0.2968528,-0.1792368,-0.005341331,0.001009699,0.006212277,-0.003296847,0.002060698,-0.005236128
0.9705938,-0.2972333,-0.1764042,-0.003499412,0.0005758012,0.009118499,0.0002088893,-0.002875792,0.004089641
0.9731704,-0.2966889,-0.1776908,-0.000920384,0.00106903,0.007902182,0.0007857029,-0.009378752,0.0009854284
0.9732166,-0.2971403,-0.1786193,-0.0008708279,0.0005685798,0.007040465,0.002719855,-0.01102524,-0.004877876
0.9734659,-0.2993129,-0.178302,-0.0006170335,-0.001650877,0.007420626,0.005375256,-0.01419153,-0.004515058
0.9762257,-0.2988873,-0.1792634,0.002148183,-0.001270034,0.00651779,0.004141092,-0.01862576,-0.003513405
0.9788592,-0.2978662,-0.1804811,0.004787788,-0.0002915886,0.005354321,0.005281323,-0.009498335,-0.005900018
0.9764062,-0.2978973,-0.1820893,0.002341577,-0.0003631279,0.003795942,0.005073467,0.00108572,-0.006031052
0.9727146,-0.2960337,-0.185164,-0.001342863,0.001462063,0.0007663953,0.005799155,-0.0008947334,-0.005138322
0.9717527,-0.295609,-0.1807435,-0.002297329,0.001850452,0.005227594,0.005410387,-0.003441521,-0.006223634
0.9711972,-0.2981484,-0.1743566,-0.002845125,-0.0007233796,0.01165069,0.003596393,-0.003661232,-0.005084579
0.971952,-0.3001678,-0.1773683,-0.002082146,-0.002775259,0.008670428,0.006324282,-0.007138254,-0.006292311
0.9733064,-0.301274,-0.1806962,-0.0007191315,-0.003912116,0.005369245,0.006970722,-0.006236381,-0.008990917
0.9738781,-0.3014937,-0.185977,-0.0001383133,-0.004160496,0.0001101839,0.007024567,-0.003134212,-0.007800019
0.9734211,-0.3008597,-0.1942252,-0.0005857349,-0.003552903,-0.008121125,0.005992343,-0.004081955,-0.008073367
0.9712984,-0.2987176,-0.1907389,-0.002698485,-0.001435071,-0.004622098,0.002591931,-0.00173182,-0.009432652
0.9696085,-0.2959785,-0.1842396,-0.004377961,0.001281996,0.0018861,0.002803242,0.004113523,-0.01022875
0.9691878,-0.2952005,-0.1863727,-0.00478763,0.002040248,-0.0002416118,0.001637941,0.009636355,-0.01210166
0.9705725,-0.2944818,-0.1859441,-0.003391141,0.002741089,0.0001892202,-0.003381459,0.01005782,-0.0149315
0.973365,-0.294428,-0.1843761,-0.0005860941,0.002778838,0.001756509,-0.008243275,0.006349641,-0.01810872
0.9775967,-0.2975012,-0.1870592,0.003658991,-0.0003088319,-0.0009301272,-0.01098534,0.009334335,-0.01869961
0.9821031,-0.2994792,-0.1867263,0.008179504,-0.002299824,-0.0006034158,-0.01447921,0.01329597,-0.01520853
0.9795535,-0.2986033,-0.188693,0.005644146,-0.001435568,-0.002578562,-0.01830698,0.01567515,-0.007558367
0.9736007,-0.2988523,-0.1951729,-0.0002944146,-0.001694725,-0.009069038,-0.01557007,0.01681055,-0.003612039
0.9714651,-0.3014607,-0.1982018,-0.002415994,-0.004311817,-0.01211011,-0.01136275,0.009364297,-0.006928863
0.9704599,-0.3034523,-0.1981661,-0.003407406,-0.00631058,-0.01208746,-0.0101219,0.005714577,-0.007583359
0.9725344,-0.3011902,-0.1950047,-0.001319227,-0.004053959,-0.008939259,-0.00637973,0.008470596,-0.006220805
0.974792,-0.2952131,-0.1922368,0.0009519268,0.001919527,-0.006184234,-0.003908405,0.0102445,-0.005234882
0.9731939,-0.2888325,-0.1900917,-0.0006326113,0.00829812,-0.004051308,-0.01030992,0.01344834,-0.001558965
0.9736325,-0.287449,-0.1863499,-0.0001805134,0.009681046,-0.0003206622,-0.01900985,0.01501572,0.0006531543
0.9750557,-0.2956931,-0.1897847,0.00125602,0.00143726,-0.003765468,-0.01808682,0.01748979,-0.0005695863
0.9758297,-0.3028405,-0.1938152,0.002043263,-0.005709235,-0.007804783,-0.01167867,0.01659044,-0.003947615
0.9765998,-0.298453,-0.190932,0.002826233,-0.001320341,-0.004929001,-0.009515207,0.008663992,-0.008614467
0.9744733,-0.2950328,-0.1920054,0.0007123151,0.002101975,-0.006008177,-0.01199573,0.004957661,-0.01128416
0.9737625,-0.2971132,-0.1959949,1.355142e-05,2.430069e-05,-0.01000165,-0.01498548,0.009219793,-0.0109903
0.9781517,-0.2921884,-0.1975399,0.004414308,0.004952328,-0.01154846,-0.01386906,0.0197619,-0.01135174
0.9821223,-0.2867353,-0.196264,0.008395659,0.01040895,-0.01027183,-0.01218744,0.02474842,-0.01300541
0.979892,-0.2909205,-0.1909111,0.006175307,0.006227177,-0.004915286,-0.01052488,0.01694905,-0.01345875
0.9741128,-0.2941532,-0.1874191,0.0004047575,0.002997405,-0.001416738,-0.00398569,0.007644291,-0.01205448
0.9717643,-0.2921244,-0.1871822,-0.001936406,0.005028416,-0.001170315,-0.001784516,0.001999106,-0.009854812
0.9747245,-0.2902983,-0.1870285,0.001029908,0.006855884,-0.001004157,-0.005123131,-0.004162912,-0.01005616
0.9796614,-0.2887124,-0.186102,0.005971624,0.008441927,-6.270209e-05,-0.005899949,-0.01185598,-0.009209942
0.9791294,-0.2902694,-0.1840661,0.005443215,0.006883579,0.001990597,-0.009361765,-0.01129877,-0.003962919
0.9737408,-0.2938503,-0.1857398,5.673789e-05,0.003299702,0.0003365116,-0.01551763,-0.008493035,0.001955105
0.9718984,-0.2938008,-0.1888792,-0.001784942,0.003344342,-0.002781403,-0.02056451,-0.01624122,0.007420344
0.9751452,-0.2953635,-0.1889546,0.001461088,0.001774971,-0.002833452,-0.02054858,-0.01501789,0.005320674
0.9813617,-0.2992213,-0.1889064,0.007675526,-0.002091375,-0.002760335,-0.009047797,0.003737095,-0.001252711
0.9816201,-0.2981262,-0.1875056,0.007930472,-0.001006451,-0.001332912,0.0008121139,0.01866029,-0.001303928
0.972212,-0.2963348,-0.1854994,-0.001482767,0.000773171,0.000701544,-0.002564743,0.01391904,-0.003955775
0.9656572,-0.2972955,-0.1850967,-0.00804421,-0.0002005588,0.001133774,-0.003527759,0.004124626,-0.00622365
0.9682733,-0.2964972,-0.1851654,-0.005436143,0.0005835031,0.001095802,0.007677043,0.006941855,-0.002265564
0.9730432,-0.2953061,-0.1850355,-0.0006751959,0.001759289,0.001257419,0.01588599,0.0002219449,-0.0035287
0.9737725,-0.2953388,-0.1842066,4.450939e-05,0.001710169,0.002118661,0.01601309,-0.01035946,-0.003539473
0.974904,-0.2933525,-0.1852172,0.001165841,0.003679088,0.001140969,0.02153986,-0.005240266,-0.000559909
0.9746687,-0.2899631,-0.1870113,0.0009198651,0.007050096,-0.0006199138,0.02715728,-0.00887468,-0.002222376
0.9717437,-0.2878021,-0.1884198,-0.002016252,0.009191426,-0.001995045,0.02015292,-0.01560649,-0.0004372995
0.9750474,-0.2860915,-0.1897615,0.001276024,0.01088089,-0.003303223,0.01148442,-0.01597061,0.00564335
0.9770346,-0.2873938,-0.1883335,0.003251371,0.009555649,-0.001841456,0.01011942,-0.01704196,0.009630356
0.9780406,-0.2916559,-0.1875773,0.004245075,0.005268598,-0.001051413,0.007730452,-0.007110332,0.004997508
0.981326,-0.290573,-0.186726,0.007517747,0.006324222,-0.0001660776,0.001647442,-0.0002675657,-0.002468327
0.9789134,-0.2876081,-0.1843063,0.005091599,0.009259473,0.002287651,-0.005891284,-0.0005980235,0.001468868
0.9806225,-0.2894766,-0.1842613,0.006786238,0.007358797,0.002366643,-0.01261307,0.004960611,0.003887307
0.9816596,-0.2910113,-0.1821352,0.007807674,0.005789278,0.004526499,-0.01220479,0.00779717,-0.0008198309
0.9771797,-0.2919712,-0.1801874,0.003310767,0.004791827,0.006507434,-0.007730027,0.007324888,0.001195708
0.9754472,-0.2930478,-0.1841612,0.001559682,0.003675124,0.002565936,-0.003898626,0.006010428,0.00599074
0.9711901,-0.2928169,-0.1866387,-0.002717475,0.003863191,0.0001196253,-0.001660171,0.003886196,0.006537185
0.9742571,-0.2931582,-0.1818829,0.0003281349,0.003476649,0.004905412,-0.003095066,0.001706034,0.002293218
0.98094,-0.2921288,-0.1769371,0.006988566,0.004458408,0.009879926,-0.00333074,0.001123274,0.0004059136
0.978256,-0.2909804,-0.1795092,0.004280846,0.005556836,0.007334777,-0.00526087,0.001489069,0.004502932
0.9771104,-0.2910007,-0.182483,0.003110268,0.005484424,0.004385864,-0.008468631,-0.002658271,0.007191813
0.9754415,-0.2899718,-0.1832047,0.001415059,0.006458949,0.003686792,-0.003196415,-0.002841113,0.01109267
0.9738579,-0.2904711,-0.1865634,-0.0001960197,0.00590301,0.0003482946,0.001425745,-0.0006694222,0.01245925
0.9758868,-0.2923674,-0.1883987,0.001804243,0.00394793,-0.001469136,0.0006265179,-0.0007114814,0.008814163
0.9746815,-0.2933895,-0.1905342,0.0005692432,0.002864918,-0.00358892,0.004996841,0.004118087,0.009830562
0.9749994,-0.2935071,-0.1915515,0.0008565599,0.002684436,-0.004592544,0.01148224,0.006947171,0.01090219
0.9763338,-0.2935827,-0.1884995,0.002159513,0.002544051,-0.001528456,0.0101814,0.007135885,0.01006987
0.9758504,-0.2948332,-0.18844,0.001643889,0.001227194,-0.001458435,0.007619979,0.004655228,0.01038192
0.974829,-0.2948881,-0.18786,0.0005896657,0.001104473,-0.0008691088,0.01041509,-0.002065918,0.00856139
0.9718861,-0.2948566,-0.186597,-0.002386738,0.001066865,0.0004020437,0.01003416,-0.002839064,0.006475325
0.9719045,-0.2960632,-0.187108,-0.002402134,-0.0002097386,-0.0001018983,0.008763019,-0.002164001,0.004805591
0.9738601,-0.2936046,-0.1864708,-0.0004806428,0.002178087,0.00054129,0.008680604,-0.004352955,0.002779642
0.9744453,-0.2892328,-0.188608,7.050159e-05,0.006478461,-0.001590786,0.005128311,-0.005825259,0.001068017
0.9754415,-0.2875159,-0.1884371,0.001032669,0.008123414,-0.001415702,0.005822038,-0.009191549,-0.002128825
0.9750194,-0.2882472,-0.1872826,0.0005767319,0.007319396,-0.0002577315,0.007849053,-0.0122884,-0.008785185
0.9747081,-0.2904687,-0.1893046,0.0002317672,0.005024501,-0.00227705,0.00789164,-0.01214606,-0.01400832
0.9754817,-0.2915653,-0.1871668,0.0009720194,0.003853472,-0.0001370617,0.01149141,-0.008876914,-0.011226
0.9759129,-0.2920071,-0.1861211,0.001370091,0.003336524,0.0009104166,0.01450226,-0.003026384,-0.007574693
0.9775432,-0.2936672,-0.1845683,0.002967552,0.001600491,0.00246447,0.01659696,0.002032429,-0.00797035
0.9784594,-0.2946248,-0.1818324,0.00385125,0.0005663505,0.005201062,0.01784728,-0.0003003264,-0.005948341
0.9784213,-0.2937861,-0.183951,0.003780657,0.001328126,0.003082429,0.01752624,-0.00870114,-0.001363736
0.9794384,-0.2926773,-0.1825752,0.004765407,0.00235966,0.004457406,0.01738598,-0.01418417,0.004959596
0.9790315,-0.2938602,-0.1817215,0.00432607,0.001099411,0.005309319,0.0157527,-0.01614115,0.01312075
0.9770577,-0.295146,-0.1813613,0.002319531,-0.0002636554,0.005666606,0.01417076,-0.01445382,0.01931863
0.9752947,-0.2938259,-0.1743058,0.0005235057,0.0009793334,0.0127177,0.01197233,-0.01162482,0.02376554
0.9726342,-0.2921894,-0.1718679,-0.0021702,0.002539074,0.0151495,0.009611994,-0.01122504,0.02464253
0.9707334,-0.2896041,-0.1791976,-0.004104241,0.005048061,0.007811466,0.00567303,-0.01013062,0.02080001
0.9739058,-0.287882,-0.186401,-0.0009650571,0.006694347,0.0005971317,-0.00191245,-0.01093841,0.01713785
0.978174,-0.288865,-0.1837551,0.003270343,0.005635862,0.003229451,-0.004061838,-0.01100873,0.01247186
0.9762553,-0.2873157,-0.180086,0.001319176,0.007109855,0.0068824,-0.003911383,-0.01118478,0.009252279
0.9734739,-0.2851804,-0.1786643,-0.001494388,0.009169918,0.008285372,-0.005302707,-0.01621092,0.01104117
0.9742943,-0.2872498,-0.1738618,-0.0007057325,0.007025061,0.01306627,-0.0009618002,-0.02027997,0.007743235
0.9750503,-0.2918067,-0.1846524,1.894025e-05,0.002392375,0.002251176,0.003196657,-0.02505942,0.002146996
0.9768814,-0.296325,-0.1994395,0.001819283,-0.002201971,-0.01256345,0.006979143,-0.02387461,0.003336796
0.977054,-0.2978436,-0.1929699,0.001961699,-0.003796732,-0.00612385,0.01144131,-0.01633048,0.002884001
0.9756089,-0.2984466,-0.1897838,0.0004869839,-0.004475588,-0.002969696,0.01167167,-0.01452035,-0.0002301916
0.9778019,-0.300135,-0.1937952,0.002650795,-0.006239255,-0.007014347,0.01605078,-0.00780029,-0.002454463
0.9780054,-0.2990717,-0.1902494,0.002825483,-0.005250202,-0.003502703,0.01932566,-0.0006960107,-0.005056306
0.9764169,-0.2980732,-0.1955268,0.001208592,-0.004324367,-0.008814779,0.01611652,-0.00318051,-0.005096282
0.9767229,-0.2977088,-0.2024052,0.001486504,-0.004030931,-0.01572778,0.01654796,-0.0009227406,-0.003444481
0.9768938,-0.2921919,-0.1933115,0.001629597,0.001417188,-0.006668054,0.01290652,0.007211733,-0.0001665439
0.977949,-0.2869669,-0.1870543,0.002657266,0.006575488,-0.0004435514,0.001904255,0.01221946,0.00205862
0.9761848,-0.2890248,-0.1910953,0.0008657484,0.004452842,-0.004515824,-0.005191471,0.007651657,0.0001850674
0.9738748,-0.2936671,-0.1919887,-0.001471409,-0.0002522448,-0.005438807,-0.003635217,-0.001222977,-0.000720775
0.9753304,-0.2950395,-0.1903691,-4.268796e-05,-0.00168581,-0.003847085,0.00440709,-0.002413539,-0.001387747
0.9751637,-0.2946632,-0.1884608,-0.0002358883,-0.001368793,-0.001964622,0.01046187,-0.001461419,-0.001882033
0.974712,-0.2956191,-0.1850759,-0.0007137572,-0.002382067,0.001396556,0.01384801,-0.00207768,-0.001435475
0.9752253,-0.2977622,-0.1855457,-0.0002261236,-0.00458055,0.0009048707,0.01591158,-0.001974968,-0.002636379
0.9748733,-0.2992823,-0.1881298,-0.0006032281,-0.006153713,-0.001699066,0.01509967,-0.002779911,-0.002292367
0.9748766,-0.2976709,-0.1867447,-0.0006244969,-0.00459298,-0.0003321514,0.01593054,-0.003675347,-0.0008913543
0.9740954,-0.2962922,-0.1842635,-0.001429595,-0.003262185,0.002132764,0.01971235,-0.004121753,0.0004788796
0.974031,-0.2971161,-0.181593,-0.001517186,-0.004131256,0.004788478,0.02515734,-0.002565339,0.00221755
0.9771285,-0.2976286,-0.181316,0.001557891,-0.004685893,0.005052105,0.02967735,8.527452e-05,0.0002837222
0.9802136,-0.3006807,-0.1865022,0.004621367,-0.007777011,-0.000146329,0.03448288,0.003391895,-0.002390123
0.9786783,-0.3017194,-0.1879921,0.003065022,-0.008851451,-0.001647537,0.03842052,0.00569419,-0.002044887
0.9767472,-0.2963684,-0.186855,0.001113341,-0.003532652,-0.0005208183,0.03721397,0.002836573,-0.001847769
0.9791163,-0.2928193,-0.1888164,0.003462293,-1.208553e-05,-0.002491784,0.03867673,-0.0009140663,-0.001747766
0.979729,-0.2933674,-0.1907883,0.004055106,-0.0005851051,-0.004472106,0.03893198,-0.004095513,-0.000577147
0.978152,-0.29351,-0.1936751,0.002458282,-0.0007492623,-0.007366241,0.03323333,-0.004380194,-0.0008650761
0.9762139,-0.2922245,-0.1908441,0.0005004373,0.0005180535,-0.004541283,0.03006141,-0.002591748,-0.00286329
0.9712745,-0.2912818,-0.1821845,-0.004458647,0.001445639,0.004113757,0.02600918,-0.008090495,-0.002453106
0.9688675,-0.2901207,-0.1804197,-0.006885226,0.002594485,0.00587549,0.02244285,-0.01438149,0.0005391228
0.9712759,-0.2896042,-0.186553,-0.004495964,0.003101315,-0.000259805,0.02253111,-0.01624225,0.001529609
0.9746999,-0.2911098,-0.1926527,-0.001090308,0.001588326,-0.006360532,0.02127703,-0.0139052,0.000867961
0.977481,-0.29123,-0.1893082,0.001673362,0.001462858,-0.003015964,0.01754727,-0.007871494,0.0007827512
0.9768948,-0.2924323,-0.1829223,0.001070535,0.0002569895,0.003371133,0.01279915,-0.007537436,0.001295586
0.9764769,-0.2940312,-0.1826166,0.0006367782,-0.001343832,0.003679021,0.01305269,-0.007300561,0.002141382
0.978361,-0.2923354,-0.1818875,0.002505848,0.0003516798,0.004411069,0.01200784,-0.005572047,0.002375559
0.9768549,-0.2921499,-0.1847244,0.0009853264,0.000538322,0.001577742,0.005030167,-0.006539638,0.004696184
0.9744611,-0.2919553,-0.1892561,-0.001422345,0.0007353596,-0.002949953,0.001945357,-0.001809396,0.007482234
0.974225,-0.2921469,-0.1863354,-0.001671764,0.0005474382,-2.499149e-05,-0.001198078,0.0005426531,0.006088577
0.9732845,-0.2947915,-0.1820196,-0.002624894,-0.002092379,0.004295451,-0.002715787,-0.005134503,0.005354405
0.9732615,-0.2947766,-0.1802239,-0.00265973,-0.002071659,0.006095906,0.001073037,-0.011589,0.005324601
0.9731033,-0.2950835,-0.184713,-0.002829079,-0.002371755,0.001611568,0.00098701,-0.01499398,0.004579604
0.9719999,-0.2963738,-0.1904682,-0.003942552,-0.003654247,-0.004139082,0.002848863,-0.01172246,0.007108134
0.9741695,-0.295526,-0.1898298,-0.001781957,-0.002797411,-0.003496304,0.006493271,-0.009953763,0.006791976
0.9767595,-0.2948819,-0.1918557,0.0008001742,-0.002143194,-0.005517849,0.005743332,-0.01198412,0.002501355
0.9763842,-0.2942478,-0.1937763,0.000418112,-0.001497684,-0.007433832,0.006790985,-0.01041842,0.001133498
0.9748021,-0.2942856,-0.192413,-0.001169644,-0.001523001,-0.006065367,0.005646608,-0.006448053,-0.0003859576
0.9720635,-0.2947021,-0.1943848,-0.003912837,-0.001925917,-0.008031293,0.004232701,-0.001439737,-0.002245705
0.9699742,-0.2942747,-0.1946761,-0.006005719,-0.001483757,-0.008315528,0.006401633,-0.0006568553,-0.001352464
0.9708417,-0.2948364,-0.1929832,-0.00514041,-0.002029701,-0.006614167,0.006607576,-0.004635414,-0.000673582
0.9724261,-0.2962906,-0.1921861,-0.003556813,-0.003467098,-0.005806886,0.009564938,-0.005248221,0.0006294193
0.9730954,-0.2974975,-0.1911272,-0.002886837,-0.004656029,-0.004736014,0.01022711,-0.002916496,0.002786733
0.9739082,-0.2966204,-0.1917697,-0.002071576,-0.003759934,-0.005364609,0.005047123,-0.0006174476,0.002636593
0.9738109,-0.2951013,-0.1918998,-0.002164944,-0.00222059,-0.005478722,0.003661726,0.001412764,0.00205407
0.9734019,-0.2964751,-0.1911607,-0.002568264,-0.003572899,-0.004721513,0.00593812,0.00361393,0.001736875
0.9747546,-0.2988201,-0.1910049,-0.001208314,-0.005895183,-0.004545459,0.008825373,0.004843021,-0.001443816
0.9749338,-0.3004554,-0.1892348,-0.001020365,-0.007506425,-0.002752862,0.007177672,0.003603752,-0.005298571
0.9730956,-0.3006912,-0.1865011,-0.002848186,-0.007716719,5.438412e-06,0.004917767,0.002658974,-0.004427573
0.9717458,-0.3002936,-0.1840103,-0.004186294,-0.00729178,0.002522878,0.007044254,0.002488043,-0.002663244
0.9719253,-0.3014498,-0.184212,-0.003993481,-0.008418748,0.002349493,0.00547785,0.00575319,-0.003901247
0.972526,-0.2994808,-0.1864926,-0.003377999,-0.006418518,9.863985e-05,0.005029925,0.0105359,-0.003068721
0.9711277,-0.294716,-0.1860949,-0.00475988,-0.001620259,0.0005273399,0.008265658,0.005404433,-0.001027002
0.970569,-0.2940079,-0.1867671,-0.005300406,-0.0008764921,-0.0001129422,0.009807802,-0.002468466,0.0001189118
0.9719875,-0.2954475,-0.1918655,-0.003862162,-0.002278399,-0.005178575,0.01098793,-0.004404866,0.0009841113
0.9723777,-0.2961894,-0.1985282,-0.003450361,-0.002980848,-0.01180758,0.01173744,-0.007272991,0.0003819427
0.9723506,-0.2959682,-0.2007965,-0.003454085,-0.002718347,-0.01404111,0.01501373,-0.007145876,0.001535963
0.9720755,-0.2954497,-0.1933508,-0.003703981,-0.002157016,-0.006559121,0.01689111,-0.004512997,0.002644818
0.9721967,-0.2964848,-0.1875594,-0.00355586,-0.003147775,-0.0007295384,0.01485128,-0.006248581,0.002284611
0.9722392,-0.2975889,-0.1907259,-0.003484709,-0.004206033,-0.0038561,0.01478413,-0.007508883,0.003659513
0.971445,-0.298947,-0.1918938,-0.004248475,-0.005516854,-0.004982354,0.01327495,-0.007931916,0.003445966
0.9732126,-0.2985974,-0.1902584,-0.002448772,-0.005118557,-0.003303509,0.01215271,-0.007891715,0.001609584
0.9776279,-0.2949117,-0.1901376,0.002000202,-0.001382749,-0.003137682,0.0121659,-0.005696203,-0.0005095479
0.9798242,-0.2921305,-0.1893044,0.004231689,0.001449881,-0.002257777,0.008956152,-0.004604815,-0.0006286979
0.9757025,-0.2911465,-0.1891326,0.0001463484,0.002486331,-0.00203785,0.008197694,-0.004160922,0.003344639
0.971685,-0.2927227,-0.1915725,-0.003833935,0.0009635141,-0.004428291,0.006799179,-0.004414771,0.003630699
0.9738609,-0.2949202,-0.1945061,-0.001620103,-0.001180119,-0.007311044,0.001144797,-0.004315607,-0.0003958313
0.974318,-0.2950042,-0.1959951,-0.001124404,-0.001209828,-0.008747742,-0.003126196,-0.001513415,-0.001900838
0.9730291,-0.2956863,-0.1974092,-0.002374024,-0.001837436,-0.01010802,-0.006003957,0.001318779,0.004006306
0.9746828,-0.2962942,-0.1971864,-0.0006803642,-0.002390763,-0.009829659,-0.005149275,0.004182555,0.01138145
0.9744497,-0.2981086,-0.1925588,-0.0008731151,-0.004150471,-0.005144573,-0.002781637,0.006972112,0.00630678
0.9731484,-0.2993632,-0.1880671,-0.002133577,-0.005350184,-0.0005932933,-0.004842748,0.008124171,0.001805131
0.9735945,-0.2962202,-0.1875711,-0.001646394,-0.002152194,-3.592543e-05,-0.006429498,0.003998357,0.007473284
0.9737607,-0.2951842,-0.1902748,-0.001438731,-0.001061027,-0.002676541,-0.005595418,-0.003456224,0.007845765
0.9740814,-0.2961473,-0.1951539,-0.00107639,-0.001968856,-0.007491062,-0.002787894,-0.002084111,0.006325408
0.9762495,-0.2951569,-0.2000535,0.001133616,-0.0009230734,-0.01232471,0.0006002474,0.0002112903,0.007831392
0.9781342,-0.2934382,-0.2009794,0.003060084,0.0008509157,-0.013183,-0.001641146,-0.002637771,0.007938814
0.975387,-0.2914949,-0.1967612,0.0003545932,0.002849402,-0.008895189,-0.007899059,0.0005425041,0.009066955
0.9721347,-0.2920907,-0.1933699,-0.002856354,0.002308237,-0.00543219,-0.01281368,0.002217278,0.007777112
0.9740295,-0.2922567,-0.1933025,-0.0009205121,0.002196355,-0.005290838,-0.0120066,0.001063676,0.004760052
0.9760758,-0.2908517,-0.1929253,0.001166312,0.00365448,-0.004837561,-0.007925787,0.001775267,0.003267157
0.9757724,-0.2922033,-0.1898357,0.0009030479,0.002354919,-0.001669882,-0.007342023,-0.001014664,0.002471568
0.9741267,-0.2934812,-0.1850804,-0.0007031349,0.001127765,0.003165316,-0.005929614,-0.00382049,0.005169566
0.971355,-0.2964011,-0.1839974,-0.003435992,-0.001742901,0.004329539,-0.003905308,-0.007742633,0.007693475
0.9730029,-0.2999005,-0.1835673,-0.001749822,-0.00519437,0.004841888,-0.003702593,-0.009467318,0.00838063
0.9766654,-0.2965046,-0.1828389,0.001950326,-0.001751946,0.005652895,-0.003104996,-0.005556902,0.01014059
0.9764039,-0.2926644,-0.1872455,0.001725941,0.002133589,0.001328779,-0.006377912,-0.004078959,0.009216089
0.9763829,-0.2930274,-0.1901647,0.001741208,0.001814634,-0.001508291,-0.008319553,-0.002847388,0.007360664
0.9765508,-0.293374,-0.1919531,0.001944517,0.001510767,-0.003215385,-0.005963885,-0.002248877,0.006446812
0.976066,-0.2948625,-0.1945996,0.001494073,6.352896e-05,-0.005781175,-0.00488762,-0.003232909,0.004024799
0.9767113,-0.2964587,-0.1930623,0.00217262,-0.001492887,-0.004163933,-0.001392467,-0.001027515,0.002892796
0.9762378,-0.2958953,-0.1906177,0.001731115,-0.0008911015,-0.001639996,0.001392199,0.001532205,-0.0001931246
0.9763049,-0.2952007,-0.1890271,0.001828885,-0.0001596402,2.918576e-05,0.001429787,0.002870065,-0.004795397
0.9766458,-0.2938333,-0.189697,0.00219899,0.001243285,-0.0005627542,0.004148595,0.002876777,-0.002753754
0.9759168,-0.2907726,-0.1892634,0.001497797,0.00433807,-5.212872e-05,0.004683972,0.003177484,0.0005391167
0.9751588,-0.2895606,-0.18774,0.0007660349,0.005582597,0.001547292,0.000441296,0.004933635,0.0009403563
0.9720149,-0.2920067,-0.1903902,-0.002353255,0.003167283,-0.001028155,-0.002019572,0.004666556,0.001476856
0.9697847,-0.294832,-0.1920805,-0.004560164,0.0003708465,-0.002644994,0.001431115,0.005346179,0.0002583556
0.9711061,-0.296385,-0.1968843,-0.003216807,-0.001155199,-0.007376626,0.004787797,0.00737774,-0.002705949
0.9725873,-0.2962076,-0.2007756,-0.001714776,-0.00095281,-0.01119682,0.002245448,0.005440753,-0.004865099
0.9749378,-0.2952632,-0.1954644,0.0006557245,1.486538e-05,-0.005815393,-0.00162631,0.003842132,-0.001413768
0.9769526,-0.2960558,-0.1905169,0.002689678,-0.0007562458,-0.0007982432,-0.006098012,0.005740336,0.003716985
0.9746849,-0.2960369,-0.1865659,0.0004401529,-0.000717356,0.003221819,-0.01011458,0.006201708,0.001842483
0.9715206,-0.2952464,-0.1879965,-0.002706977,9.161103e-05,0.001859609,-0.008383531,0.005315953,0.001156142
0.9722757,-0.2952788,-0.1926748,-0.001935473,7.619069e-05,-0.002751148,-0.006398172,0.004727052,0.002459548
0.973536,-0.2951368,-0.1897417,-0.0006596389,0.0002338537,0.0002482659,-0.006391603,0.003402468,-0.001835121
0.9734904,-0.2995626,-0.1908309,-0.0006903498,-0.004177594,-0.0007755579,-0.003200095,0.003499473,-0.003341542
0.9739175,-0.3048888,-0.1949175,-0.00024909,-0.009490508,-0.004798099,-1.146379e-05,0.006404523,-0.001856439
0.9734318,-0.302529,-0.1940045,-0.0007212021,-0.007118219,-0.003822042,0.001249221,0.007741848,-0.001116797
0.9735218,-0.2987589,-0.1931403,-0.0006181186,-0.003335968,-0.002895895,-0.0004921753,0.005602386,0.002739302
0.9738948,-0.297481,-0.1886213,-0.000232659,-0.002046017,0.001684145,-0.004128681,0.003744976,0.002580294
0.973666,-0.2957318,-0.1833289,-0.0004495045,-0.0002846768,0.007036558,-0.0009796823,0.001876114,0.001230859
0.9755663,-0.2956049,-0.1827721,0.001462373,-0.0001456674,0.007651974,0.00224437,0.0001103296,0.004801933
0.9766011,-0.2955919,-0.1836919,0.002508025,-0.0001204253,0.006789068,-0.000729373,-0.0002851863,0.003810005
0.9746408,-0.2929106,-0.1854535,0.0005581229,0.002573112,0.005082296,-0.0007627028,-0.001368276,0.002372437
0.9730567,-0.2918385,-0.1865947,-0.001016307,0.003657333,0.003993409,-0.0004987228,-0.00085817,0.002497322
0.9744941,-0.2958874,-0.1871638,0.0004302475,-0.0003797108,0.003474003,-0.00265605,-0.0004321767,-0.002627287
0.9767322,-0.3005859,-0.1863989,0.002676765,-0.005066614,0.004285806,-0.0035575,-0.00160407,-0.003584529
0.9763845,-0.2999359,-0.1812201,0.002336797,-0.004405338,0.009508556,-0.003878711,-0.001334651,0.002384988
0.9762754,-0.2988087,-0.1766651,0.002234797,-0.003266711,0.01410423,-0.001737013,-0.003375416,0.005880559
0.976598,-0.3000687,-0.1804732,0.002563542,-0.004515195,0.01033316,0.00193324,-0.00448455,0.00132164
0.9761466,-0.298146,-0.1859488,0.0021174,-0.002580735,0.004890508,0.004428497,-0.00125375,-0.004092305
0.9765657,-0.297609,-0.1838241,0.002540809,-0.002031392,0.00704396,0.002740104,0.0008000613,5.690058e-05
0.9763498,-0.2978308,-0.1856031,0.002328087,-0.00224047,0.00528919,0.0006629209,0.0005079433,0.002706051
0.9762854,-0.2947927,-0.1914107,0.002265808,0.0008109856,-0.0004985482,0.00404993,-0.001483137,0.0006191675
0.9762204,-0.2965675,-0.1888144,0.002201764,-0.0009500215,0.00211333,0.003660926,-0.0006479243,0.00240159
0.9744159,-0.2981878,-0.1890796,0.0003970874,-0.002556147,0.001859664,0.001761036,0.003453679,0.001247546
0.9731763,-0.2950528,-0.1935388,-0.0008438928,0.0005936174,-0.002591922,0.002308645,0.005201448,-0.001638173
0.9741081,-0.293093,-0.1921318,8.542915e-05,0.002568457,-0.00118093,-0.001072541,0.004009271,-0.001628766
0.9775113,-0.291618,-0.1886403,0.003485238,0.004058834,0.002311142,0.0005419594,0.001645413,-0.001222866
0.9798291,-0.2947951,-0.1850001,0.00579866,0.0008971162,0.005948869,0.004706318,0.002076541,-0.002071331
0.9774273,-0.2995235,-0.1861969,0.00339124,-0.003815901,0.004746546,0.00561262,0.0009863139,-0.009321078
0.9744131,-0.2988642,-0.1891846,0.0003702264,-0.003141363,0.001750197,0.008783296,-0.001716511,-0.01465725
0.9747274,-0.2987087,-0.1867945,0.0006764717,-0.002970488,0.004128689,0.01163481,0.004982973,-0.01022741
0.9754786,-0.2955732,-0.1875482,0.001418517,0.0001804227,0.003360384,0.01542071,0.01297168,-0.005199974
0.9747,-0.2897168,-0.1900778,0.0006295571,0.006052463,0.0008133515,0.01304645,0.0141734,-0.003070634
0.9751748,-0.2930345,-0.1901083,0.001092929,0.002750278,0.0007627537,0.003519281,0.01687647,-0.004037169
0.9761284,-0.2975348,-0.1909907,0.002034147,-0.001734674,-0.0001422563,-0.002085736,0.02111163,-0.008335444
0.9765404,-0.2950507,-0.1910404,0.002432846,0.0007643217,-0.0002168238,-0.007388528,0.02085523,-0.01180132
0.9775965,-0.294644,-0.192666,0.003474539,0.001185693,-0.001869387,-0.007545266,0.01820254,-0.0104854
0.9778083,-0.2950839,-0.1937486,0.003670989,0.0007600206,-0.002980588,-0.005510374,0.01849722,-0.005616531
0.9776819,-0.2945539,-0.1906711,0.003528088,0.001303779,6.681248e-05,-0.008110504,0.01719348,-0.003244398
0.9769268,-0.2964415,-0.1867139,0.00275539,-0.0005705327,0.003992728,-0.004885688,0.0113832,-0.001766894
0.9759102,-0.2947111,-0.1820431,0.00171999,0.001172507,0.008631045,-0.003308757,0.0039634,0.0007945477
0.9761689,-0.2917307,-0.1824709,0.001958702,0.004165115,0.008169475,-0.005911118,-0.005106935,0.003711408
0.9746772,-0.2923979,-0.1865269,0.0004459608,0.003509327,0.004078296,-0.006248886,-0.007988616,0.009865077
0.9729182,-0.295057,-0.1854999,-0.001335088,0.0008608368,0.005068491,-0.007017828,-0.00647307,0.01440436
0.9735435,-0.299838,-0.1861948,-0.0007327068,-0.003910459,0.004335167,-0.002903793,-0.007335701,0.01251181
0.9739145,-0.3011746,-0.1896731,-0.0003853843,-0.005238103,0.0008168163,0.0001425795,-0.002193608,0.009194136
0.9734693,-0.3004766,-0.1904876,-0.0008547959,-0.004531721,-3.925922e-05,-0.002448876,0.0004568901,0.009085455
0.9735235,-0.300105,-0.1906774,-0.0008252143,-0.004151977,-0.0002720783,-0.003889374,-0.00526365,0.009606258
0.973438,-0.2958458,-0.1903317,-0.0009356553,0.0001152053,2.964314e-05,-0.005174367,-0.005425104,0.008719422
0.9718824,-0.2948717,-0.1919344,-0.002516199,0.001097356,-0.001618021,-0.004944673,-0.002020778,0.008942826
0.9711614,-0.2962722,-0.1940359,-0.003262199,-0.0002952242,-0.003765188,-0.006328348,0.001380513,0.009560001
0.9724172,-0.2938437,-0.1928438,-0.002031194,0.00214123,-0.002619149,-0.009426299,0.002766901,0.01042252
0.9727563,-0.2934204,-0.1924596,-0.001716434,0.002572318,-0.002281027,-0.009435906,-3.154834e-05,0.01042569
0.9728142,-0.294893,-0.1915974,-0.001682342,0.00110719,-0.001464711,-0.0118839,-0.0003416759,0.00846436
0.9742513,-0.2955676,-0.1895013,-0.0002683254,0.000439811,0.0005858765,-0.01461866,-0.0005802827,0.007417342
0.9756933,-0.2955902,-0.1908697,0.001151227,0.0004239733,-0.0008274844,-0.01469013,0.003326109,0.005673532
0.9765376,-0.2938564,-0.1942842,0.001973817,0.002164129,-0.004286297,-0.01503364,0.01067576,0.004132142
0.9767586,-0.291863,-0.196641,0.002173784,0.004163403,-0.006686595,-0.0132729,0.009183836,0.003191446
0.9759325,-0.2923184,-0.1959199,0.001327221,0.003713288,-0.006007806,-0.01106557,0.008702672,3.154291e-05
0.9752354,-0.2960157,-0.1933586,0.000610067,2.045838e-05,-0.003487254,-0.01046222,0.01081437,-0.0008197025
0.9741611,-0.2992335,-0.1927743,-0.0004837767,-0.003193609,-0.002942018,-0.009395076,0.005775303,-0.000657682
0.9729197,-0.3002947,-0.1926995,-0.001744231,-0.004251758,-0.002904351,-0.007002731,-0.000178402,-0.003547638
0.9738165,-0.2994898,-0.1918094,-0.0008659622,-0.003444263,-0.002049329,-0.003566007,-0.0040684,-0.004022803
0.9738542,-0.2981144,-0.1921564,-0.0008461902,-0.002066499,-0.002429345,0.000496718,-0.005380674,-0.002245583
0.973011,-0.3005276,-0.1934805,-0.001706621,-0.004477466,-0.003784298,0.003042385,-0.0050544,-0.001429702
0.9730584,-0.3019989,-0.1940713,-0.001675694,-0.005946479,-0.004403685,0.0008819698,-0.007411231,0.002327432
0.9718317,-0.2992572,-0.1959555,-0.002918112,-0.003202077,-0.006314038,-0.003100171,-0.01080315,0.005321072
0.9721832,-0.2980192,-0.1993928,-0.002581351,-0.001960848,-0.009775029,-0.004361447,-0.01374754,0.004279793
0.9737497,-0.2981917,-0.1984269,-0.001028577,-0.002129595,-0.008829803,-0.00171307,-0.01146887,0.006571625
0.9744168,-0.2965785,-0.195121,-0.0003741776,-0.0005119244,-0.005541574,-1.410617e-05,-0.003379965,0.006726733
0.9749676,-0.2924928,-0.194299,0.0001649897,0.003578894,-0.004733844,-0.004384046,0.001131836,0.001560654
0.9721332,-0.2904785,-0.1937446,-0.002679947,0.005598837,-0.004190294,-0.007114842,0.002536503,0.001226746
0.9688124,-0.2924133,-0.1937162,-0.006010136,0.003669953,-0.004169339,-0.005514566,0.00304518,0.00119815
0.9697309,-0.2941688,-0.1915833,-0.005099904,0.001920301,-0.002040487,-0.005314351,0.002343744,-0.0005154202
0.9726243,-0.297517,-0.1879872,-0.002213282,-0.001422166,0.001554945,-0.005941672,0.00570557,-0.001420219
0.9755823,-0.3009538,-0.1875478,0.0007394758,-0.004853373,0.0019967,-0.005042401,0.007953091,-0.004861723
0.9772903,-0.3011587,-0.1881336,0.002443648,-0.005052648,0.001416038,5.609494e-05,0.007184689,-0.00387693
0.9777551,-0.3022269,-0.1903198,0.002905864,-0.006115074,-0.0007624494,0.004120615,0.01135259,-0.00279158
0.9766125,-0.3028644,-0.1909216,0.001761854,-0.006746299,-0.001354337,0.0004412048,0.01262159,-0.005077243
0.9731912,-0.299928,-0.1891966,-0.001659888,-0.00380301,0.0003827308,-0.004555925,0.008116774,-0.004928648
0.9709543,-0.2976319,-0.1889686,-0.003896433,-0.001499012,0.0006247732,-0.004514523,0.007556227,-0.0104548
0.970487,-0.2985229,-0.1877635,-0.004362452,-0.002381087,0.001845756,-0.002442805,0.007931354,-0.01232689
0.969235,-0.2991068,-0.1914705,-0.005612147,-0.002955108,-0.001843991,-0.002514829,0.00688855,-0.001752385
0.9691478,-0.2986422,-0.1967042,-0.005695809,-0.002479667,-0.007058856,-0.001615584,0.005627808,0.005661949
0.9711418,-0.3003872,-0.1950313,-0.003696817,-0.004212643,-0.005365717,-0.0007009178,0.005389772,0.003506812
0.9728183,-0.3021592,-0.1971496,-0.002013875,-0.005971512,-0.007462188,-0.005596308,0.01089775,-0.001032313
0.9736698,-0.3011874,-0.2018537,-0.001154335,-0.004985393,-0.01214262,-0.00924721,0.01272995,0.0002218999
0.9721426,-0.300012,-0.2000081,-0.002671968,-0.003794094,-0.01027136,-0.006396032,0.006245263,-0.0001366902
0.9701454,-0.2990813,-0.1973909,-0.004658178,-0.002846156,-0.007625954,-0.001354154,0.002526954,-0.004480139
0.9726385,-0.2981761,-0.1954601,-0.002152449,-0.001922151,-0.005664427,0.004180935,0.003109744,-0.005279834
0.9747031,-0.2980896,-0.1916741,-7.385786e-05,-0.001815318,-0.00184504,0.005177575,0.0037554,-0.006440709
0.9732865,-0.2959798,-0.1914623,-0.001474874,0.0003161236,-0.001597319,0.001933574,0.002567299,-0.00540117
0.9734213,-0.2925159,-0.1926715,-0.001323228,0.003802967,-0.002768115,0.001331693,0.002047632,-0.005015313
0.9739198,-0.292536,-0.1904653,-0.0008065327,0.003806878,-0.0005212303,-0.0006812747,0.002466246,-0.005163704
0.9734092,-0.2934628,-0.1897813,-0.001297727,0.002904708,0.0002054324,-0.004245391,-0.0003444625,-0.00133942
0.9743747,-0.2921073,-0.188054,-0.0003118302,0.004285313,0.001977288,-0.003169876,-0.001226519,-0.003081855
0.9772348,-0.2923533,-0.1869084,0.002569705,0.004064419,0.003168828,-0.001374795,0.00437559,-0.004104176
0.9801782,-0.2943792,-0.1919461,0.005535424,0.002063546,-0.001821783,-0.00104148,0.01129214,-0.002927181
0.9789425,-0.2955229,-0.1940736,0.004322424,0.0009445149,-0.003901267,-0.00109015,0.01217952,-0.005030217
0.9747319,-0.2980721,-0.1929374,0.0001346559,-0.001580477,-0.002716169,-0.00273056,0.01001686,-0.00536796
0.9729336,-0.3018999,-0.1929747,-0.001640679,-0.005384621,-0.002703896,-0.004167335,0.0113411,-0.007735025
0.9733565,-0.3011421,-0.1928933,-0.00119492,-0.004603485,-0.002572031,-0.00610253,0.01075432,-0.007662015
0.9741487,-0.2952549,-0.1934062,-0.0003800008,0.001306891,-0.003033874,-0.009977738,0.00957836,-0.00501076
0.9745077,-0.2919347,-0.1924327,1.654569e-06,0.004650041,-0.002008624,-0.01179367,0.009680205,-0.004987521
0.9749674,-0.2945554,-0.1908928,0.0004840037,0.002052016,-0.0004163891,-0.009100374,0.007403267,-0.00329659
0.975251,-0.2973114,-0.1880741,0.0007899755,-0.0006818233,0.002455079,-0.006835619,0.00833043,-0.006325819
0.9737835,-0.2966356,-0.1854142,-0.0006553971,1.562454e-05,0.00516795,-0.008013304,0.008387651,-0.01068144
0.9733047,-0.2971881,-0.1865675,-0.001112422,-0.000515931,0.004067588,-0.007527123,0.005917339,-0.008592892
0.9738243,-0.2997742,-0.1875278,-0.0005713282,-0.003081584,0.003159596,-0.005693226,0.006639373,-0.006496801
0.9734453,-0.2999497,-0.1902316,-0.0009291037,-0.003237162,0.000507441,-0.005413654,0.004994309,-0.004564613
0.9740811,-0.2988065,-0.1931293,-0.0002723374,-0.002074424,-0.002339592,-0.002467041,0.001960445,-0.003500398
0.9757432,-0.2966578,-0.1926811,0.001410368,9.356603e-05,-0.001841747,0.0007645543,0.0001251844,-0.003131557
0.9786115,-0.2948649,-0.1947981,0.004298919,0.001905426,-0.00390993,-0.001661747,0.0003366395,-0.0003103974
0.9794018,-0.2961526,-0.1966546,0.005108912,0.0006363905,-0.005718513,-0.007018392,0.003323967,-0.001915871
0.9752044,-0.296026,-0.1946014,0.000930429,0.0007812852,-0.003618072,-0.01075232,0.006208327,-0.005424212
0.9722356,-0.2956133,-0.192975,-0.002020446,0.001211789,-0.001945024,-0.009975683,0.01132921,-0.004437698
0.9725913,-0.2970939,-0.1929624,-0.001647577,-0.0002515888,-0.001886159,-0.005511011,0.01077679,-0.007470118
0.9725168,-0.2972855,-0.1927515,-0.001705711,-0.0004264409,-0.00162959,-0.002143385,0.006992851,-0.01120182
0.9720153,-0.2975277,-0.1912193,-0.002191638,-0.0006525058,-5.210775e-05,-0.001183641,0.01032985,-0.007282751
0.9731573,-0.2980403,-0.1899718,-0.001034601,-0.001149536,0.001240143,-0.001288513,0.009603129,-0.004798282
0.9741685,-0.2982412,-0.1909178,-8.806502e-06,-0.001335337,0.0003382249,-0.002152123,0.009661572,-0.005703546
0.972834,-0.2957462,-0.1918031,-0.001329255,0.001174377,-0.0005036103,-0.002725549,0.01161388,-0.004492163
0.9708935,-0.2904948,-0.1884301,-0.003256087,0.006439964,0.002911921,-0.0002252368,0.001183388,-0.003352595
0.9689985,-0.2891858,-0.1841426,-0.00513774,0.007762416,0.007240972,0.003349458,-0.007594968,-0.003675779
0.97014,-0.2899489,-0.1852929,-0.003982998,0.007011823,0.006131037,0.00173187,-0.005429888,-0.0032971
0.9740578,-0.2893647,-0.1884308,-5.193009e-05,0.00760721,0.003031956,-0.002121759,-0.004194399,0.0001350274
0.9758424,-0.2897833,-0.1878766,0.001746124,0.007198149,0.003623105,-0.00547356,-0.007666907,0.003919751
0.9783842,-0.2909321,-0.1854479,0.004301331,0.006056964,0.006086882,-0.009764965,-0.007494096,0.005479135
0.9820008,-0.2927438,-0.1843132,0.007931146,0.00425073,0.007254342,-0.009579503,-0.003175343,0.006851218
0.9831813,-0.2933853,-0.1830126,0.009124365,0.003612366,0.008585318,-0.008680597,-0.004367473,0.005570468
0.9803849,-0.2910282,-0.182765,0.006339737,0.005970301,0.008860523,-0.009658294,-0.008223126,0.002396078
0.9759612,-0.2898859,-0.1840475,0.001926697,0.007111022,0.007602481,-0.005082525,-0.01476123,0.004334281
0.9771294,-0.2923655,-0.1835808,0.003104059,0.004627308,0.008090437,-0.001578687,-0.02184909,0.008543838
0.9772752,-0.2945324,-0.1859469,0.003257469,0.002453614,0.005741867,-0.002613538,-0.01976619,0.008687062
0.9732166,-0.2936257,-0.1897516,-0.0007949195,0.003350926,0.00195114,-0.001673893,-0.01944535,0.00683398
0.9741711,-0.2916873,-0.1889838,0.0001641747,0.005277311,0.002729218,-0.0007072523,-0.02523809,0.006169999
0.9741786,-0.2913026,-0.1891252,0.0001748462,0.00564734,0.00259455,-0.0009781023,-0.03065474,0.006199818
0.9729353,-0.2918702,-0.1919636,-0.001066594,0.005062513,-0.0002405454,0.0008493533,-0.03595974,0.004440681
0.9761217,-0.2916665,-0.1950045,0.002120465,0.00524626,-0.00328144,0.002697208,-0.03204088,0.003642794
0.977188,-0.2915576,-0.1965513,0.003186256,0.005332565,-0.004831176,0.0004800106,-0.0197915,0.004646193
0.9779942,-0.2917884,-0.1946721,0.003990687,0.005076515,-0.002957456,0.0001696422,-0.01134072,0.001286537
0.9793305,-0.2917683,-0.1906951,0.005323965,0.005068577,0.00101194,0.002460442,-0.007885281,-0.001386741
0.9764661,-0.2925749,-0.1873921,0.002454998,0.004231298,0.004305401,0.003136641,-0.0077916,-0.001436831
0.9739976,-0.2933638,-0.1885294,-1.941382e-05,0.003409022,0.003156727,0.006465014,-0.004056291,-0.003727346
0.9747858,-0.2929239,-0.1890137,0.0007613354,0.003813062,0.002659078,0.0058234,0.004533349,-0.003620632
0.9757931,-0.2920118,-0.1863763,0.001759808,0.004686717,0.005281271,0.001072025,0.008264161,-0.004632529
0.9755876,-0.291461,-0.1876035,0.001544265,0.005196685,0.004036974,6.756125e-05,0.01220632,-0.00732471
0.9766587,-0.2916062,-0.1884337,0.002603979,0.005008318,0.003187735,-0.001493314,0.01628793,-0.00728714
0.9778442,-0.2923147,-0.1887543,0.00377683,0.004254364,0.002846198,-0.0003960863,0.01451531,-0.009477032
0.9774366,-0.2946683,-0.1919924,0.003355367,0.001852893,-0.0004147498,0.001335709,0.01711267,-0.00938901
0.9775918,-0.2983965,-0.1913736,0.003495316,-0.001925166,0.0001794084,0.0009873218,0.02082769,-0.006903742
0.9750887,-0.2991792,-0.1905218,0.0009755934,-0.002759672,0.001004984,0.002624901,0.0177881,-0.007078172
0.9719092,-0.2960329,-0.1934509,-0.002221801,0.0003334329,-0.001951664,-0.0008665549,0.00974364,-0.004051296
0.971621,-0.2935475,-0.1953021,-0.002529048,0.002764467,-0.003831631,-0.00360766,-0.001026583,0.001800353
0.971597,-0.2933908,-0.1955907,-0.002572924,0.002865737,-0.0041499,0.0006321356,-0.00097034,0.006404795
0.9738434,-0.2933575,-0.1933552,-0.0003471513,0.002842752,-0.001944562,0.002011442,0.006388003,0.005947746
0.974664,-0.2914047,-0.1905486,0.0004523148,0.004738315,0.0008315184,-0.001852923,0.007151915,0.004263679
0.973019,-0.2892489,-0.1912996,-0.001214154,0.006836141,4.995262e-05,-0.005636342,0.009175248,0.00685368
0.9756006,-0.2903047,-0.1914551,0.001345628,0.005721389,-0.0001362878,-0.003769365,0.01312514,0.002181603
0.9777098,-0.2910352,-0.1895599,0.003432809,0.004930936,0.001728294,-0.002465416,0.01303815,-0.003878526
0.9777962,-0.2909405,-0.1899728,0.003496919,0.004964735,0.00128469,-0.005615762,0.01150796,-0.001047799
0.979504,-0.2941479,-0.1899226,0.005182122,0.001695369,0.001304417,-0.005608781,0.01105537,-0.002821838
0.978479,-0.2964868,-0.1881545,0.00413398,-0.0007064907,0.003042062,-0.004633167,0.01632796,-0.006231781
0.9760382,-0.2975412,-0.1887406,0.001669403,-0.001824532,0.002425509,-0.003553081,0.02421239,-0.004706547
0.9759528,-0.2993039,-0.18838,0.001559693,-0.003651288,0.002755702,-0.001562465,0.02531959,-0.006300909
0.9747509,-0.298138,-0.187869,0.0003327882,-0.002549545,0.00323621,-0.00107807,0.01986024,-0.008847308
0.972752,-0.2955594,-0.1929995,-0.001691679,-3.497728e-05,-0.001924835,0.0008844021,0.01581844,-0.007689201
0.9725984,-0.2939294,-0.1971322,-0.001871284,0.001531466,-0.006088175,0.002794928,0.01743168,-0.005074639
0.9723286,-0.2940163,-0.1935333,-0.002167297,0.001381485,-0.002519648,0.004359916,0.01798946,-0.003889366
0.9720682,-0.2950256,-0.1897738,-0.002453917,0.0003097728,0.001209945,0.005345102,0.01475493,-0.004102106
0.9733007,-0.2942329,-0.1911925,-0.00124751,0.001040781,-0.0002380697,0.001643876,0.01042921,-0.004518134
0.973946,-0.2942447,-0.1889348,-0.0006279887,0.000968071,0.001990919,-0.0007862866,0.003639182,-0.0039161
0.9735206,-0.2950022,-0.1840815,-0.00107873,0.000150508,0.006816094,0.001890816,0.001098101,-0.00280118
0.9735754,-0.2953923,-0.1862854,-0.001048814,-0.0002987825,0.004584388,0.004344277,0.005918771,-0.003429835
0.9736635,-0.2979807,-0.1880257,-0.0009850623,-0.0029453,0.002816513,0.005690751,0.01318041,-0.003445921
0.9735779,-0.2993819,-0.1869913,-0.001094236,-0.004403384,0.003823275,0.00880801,0.02108777,-0.00292946
0.9736308,-0.2978605,-0.1888928,-0.001064245,-0.002937536,0.001894218,0.0120951,0.01866933,-0.003110933
0.973595,-0.2954608,-0.1896499,-0.001122177,-0.0005916093,0.00110935,0.01079015,0.007255447,-0.002725318
0.9736238,-0.2919911,-0.1913366,-0.001114664,0.00282599,-0.0006052529,0.006261516,0.002502019,-0.00454647
0.9737869,-0.2907362,-0.1934204,-0.0009719963,0.004030569,-0.002716943,0.002652274,0.003684559,-0.00706581
0.9744926,-0.2909957,-0.1893814,-0.0002856815,0.003722265,0.001294295,0.0006513792,0.01204047,-0.007166589
0.9752965,-0.286442,-0.1850279,0.0004997456,0.008228567,0.005620161,-0.002447958,0.02263479,-0.006218689
0.9752591,-0.2820821,-0.185562,0.0004447697,0.01254218,0.005058486,-0.009447376,0.02140114,-0.004393209
0.9757033,-0.2864987,-0.1855525,0.0008723376,0.008079811,0.005040309,-0.01273667,0.01666989,-0.002589166
0.9767614,-0.2911971,-0.1823242,0.001914642,0.003336036,0.008240679,-0.009693792,0.01376424,-0.002692715
0.9765247,-0.2885769,-0.1811583,0.001662926,0.005910803,0.00937807,-0.008481488,0.00793807,-0.003443536
0.9757294,-0.2885112,-0.1821501,0.0008531851,0.005930901,0.008356895,-0.003871467,0.001500698,-0.002567885
0.9747848,-0.2925673,-0.1810089,-0.0001052611,0.001829018,0.009467541,0.004215211,-0.002803465,-0.002478562
0.9732658,-0.2925419,-0.1801712,-0.001637434,0.001808309,0.01027312,0.004021168,-0.002780843,-0.002578026
0.9743124,-0.2887283,-0.1807745,-0.0006034838,0.005575409,0.009635983,0.001271417,-0.0015573,0.0007396525
0.9767527,-0.2848198,-0.1817017,0.001824703,0.009437122,0.008672878,0.001190999,0.0001390291,0.002447467
0.9764723,-0.286454,-0.1831068,0.001532895,0.007755476,0.007229642,-0.001770516,0.0007187342,-0.0009892002
0.9763668,-0.2904365,-0.183622,0.001416442,0.003724744,0.006673814,-0.003106955,-0.002470417,-0.004126748
0.9775054,-0.2904301,-0.1838763,0.002544555,0.0036821,0.006376441,-0.001486896,-0.003565172,-0.001409642
0.9771593,-0.2928336,-0.1858647,0.002188193,0.001228508,0.004342393,-0.0021288,-0.003700355,0.002601747
0.9743881,-0.2940588,-0.1884069,-0.0005930266,-4.74811e-05,0.001752045,-0.001898851,-0.003599888,0.001483777
0.971677,-0.2907905,-0.1876931,-0.003313904,0.00316918,0.00241536,-0.003365869,-0.003586594,0.001534972
0.9753455,-0.2896289,-0.1849425,0.000345057,0.004278682,0.00511325,-0.01415274,-0.006867854,0.005257089
0.9793547,-0.2866949,-0.1818277,0.004345047,0.007159926,0.008173384,-0.02772668,-0.01082796,0.007381099
0.9748924,-0.2849704,-0.1777521,-0.0001261631,0.008830938,0.01219206,-0.03005153,-0.01502563,0.008383337
0.9721049,-0.287519,-0.1784506,-0.002922524,0.006228015,0.01143433,-0.02076034,-0.01323647,0.01022261
0.9754298,-0.2896835,-0.1810671,0.0003938615,0.004008091,0.008756094,-0.01325745,-0.009688128,0.01148711
0.9776658,-0.2936717,-0.1801589,0.002621554,-3.666249e-05,0.009599751,-0.01050706,-0.01270274,0.009400868
0.979754,-0.2947796,-0.179936,0.00470173,-0.001201936,0.009755229,-0.006873636,-0.01162139,0.004750705
0.9814057,-0.2926012,-0.1778229,0.006345355,0.0009182973,0.01179801,0.003216594,-0.009234033,-0.0003461728
0.9798759,-0.2918981,-0.1783355,0.004807309,0.001562664,0.01121196,0.01666763,-0.009929606,-0.0009124083
0.9775817,-0.2885644,-0.1838327,0.002504348,0.004837347,0.005638105,0.01460293,-0.01029974,0.001914054
0.9757242,-0.2864265,-0.1833748,0.0006376125,0.00691581,0.006016081,0.0102083,-0.01266759,-0.002013968
0.9752034,-0.288112,-0.182582,0.0001068837,0.005170346,0.006725821,0.01975521,-0.01053498,-0.007281909
0.9761952,-0.2889037,-0.1825389,0.001088288,0.004318171,0.006682879,0.021522,-0.008222983,-0.008897139
0.9767568,-0.2885175,-0.1800166,0.001638913,0.004643255,0.0091163,0.02191229,-0.011883,-0.01044472
0.978225,-0.2876952,-0.1826767,0.003095513,0.005403895,0.006364391,0.02244282,-0.01227086,-0.01044469
0.9798108,-0.2875225,-0.1834882,0.004669277,0.005514156,0.005458409,0.009562525,-0.006459968,-0.01011382
0.9789885,-0.2855475,-0.1829159,0.003834081,0.007426023,0.005933639,0.001243017,0.005329195,-0.007171067
0.9780295,-0.2830468,-0.1856828,0.00286144,0.009862753,0.003067185,-0.00651209,0.01440925,-0.004455386
0.9775171,-0.2843854,-0.1843559,0.002334542,0.008459105,0.004292277,-0.01180433,0.010414,-0.0002826156
0.9768923,-0.2835671,-0.1829291,0.001694295,0.009211,0.005615221,-0.006806525,0.001944597,0.007443913
0.9770248,-0.2833598,-0.1832055,0.001810401,0.009350565,0.005233284,-0.01045746,-0.00210334,0.005669752
0.9769764,-0.2901327,-0.1838664,0.001744689,0.00250823,0.004465044,-0.01068342,-0.0001310261,0.00522181
0.976377,-0.2957549,-0.1859976,0.00112705,-0.003184893,0.00222512,-0.007939394,0.005974824,0.008717952
0.976089,-0.2968681,-0.1864183,0.0008200356,-0.004370371,0.001694289,-0.01166828,0.009527932,0.003496954
0.9765497,-0.295619,-0.186573,0.001260866,-0.003194291,0.001428624,-0.007774529,0.009673303,0.002186468
0.9766782,-0.2952352,-0.1874448,0.001368817,-0.002883906,0.0004451103,-0.008213658,0.007377192,0.001422999
0.9772057,-0.2965992,-0.188793,0.001875075,-0.004321281,-0.001015187,-0.008788438,0.004761735,-0.002196303
0.9791499,-0.2954514,-0.1882367,0.003797387,-0.003246557,-0.0005709461,-0.002406406,0.008354476,-0.0011681
0.9791502,-0.2956598,-0.1867539,0.00377504,-0.003527159,0.0008000522,-0.003724132,0.01200247,-0.003876268
0.9769741,-0.2963882,-0.1882675,0.001575535,-0.004326712,-0.0008247987,-0.006286691,0.01045629,-0.005597766
0.9750501,-0.2952288,-0.1897494,-0.0003727019,-0.003237066,-0.002417023,-0.013656,0.01154384,-0.003298517
0.9746592,-0.2958411,-0.1927498,-0.0007884445,-0.003917482,-0.005526469,-0.02324432,0.01359426,-0.003871529
0.9762002,-0.2938703,-0.1928471,0.0007270861,-0.002012865,-0.005731292,-0.01633998,0.01400554,-0.00343858
0.9761632,-0.290769,-0.1871423,0.0006642197,0.001024387,-0.0001319713,-0.008723993,0.01365852,-5.40318e-05
0.9735681,-0.2887677,-0.1861519,-0.001957148,0.002963752,0.0007552325,-0.01613704,0.006324627,0.006380418
0.9714645,-0.2857193,-0.186465,-0.004087179,0.005952307,0.000341426,-0.01941226,-0.00558953,0.0128352
0.9718489,-0.2864048,-0.1838038,-0.003729231,0.005208846,0.002904352,-0.01200507,-0.01344785,0.01446045
0.972888,-0.29009,-0.1829456,-0.002716335,0.001467265,0.003666911,-0.008958583,-0.01703724,0.01474697
0.9724519,-0.2925968,-0.1809618,-0.003178135,-0.001094479,0.005557373,-0.004948423,-0.02011864,0.0148124
0.9754329,-0.2920907,-0.1779972,-0.0002221959,-0.0006416884,0.008430919,0.004277743,-0.02459841,0.013403
0.9814038,-0.2908632,-0.1778197,0.005724391,0.0005340629,0.008519426,0.009420049,-0.02627577,0.01345564
0.9838517,-0.2919161,-0.1746705,0.008148565,-0.0005690033,0.01158121,0.008964479,-0.016959,0.0125907
0.9835611,-0.2907063,-0.1707384,0.007834566,0.0005922703,0.0154271,0.001495118,-0.005453207,0.006260535
0.9828584,-0.2886854,-0.1812762,0.007108348,0.002566301,0.004803885,-0.004631587,-0.005617034,-0.0008835323
0.981766,-0.288757,-0.1938981,0.005992163,0.002449354,-0.007903011,-0.00308545,-0.0009422997,-0.001533483
0.9783099,-0.2878809,-0.1891484,0.002511629,0.003281577,-0.003237472,-0.002208631,0.01120874,0.001807691
0.9752591,-0.2876503,-0.184425,-0.0005642842,0.00346963,0.001402809,-0.003227997,0.007256644,0.003875034
0.9781441,-0.2894254,-0.1869861,0.002295013,0.001653158,-0.001240191,-0.00106756,0.0007278116,0.00645771
0.9804408,-0.2915734,-0.1842426,0.004565352,-0.0005351606,0.001422853,0.00278515,0.002121851,0.00554366
0.9784115,-0.2915208,-0.1826835,0.002509063,-0.0005217179,0.0029031,0.003285985,-0.003447361,0.001250931
0.9769634,-0.2907962,-0.1850019,0.001033283,0.0001647567,0.0005073752,0.006931517,-0.005588258,0.00361368
0.9751557,-0.2937263,-0.1870202,-0.0008028159,-0.002802219,-0.001586716,0.01420542,-0.00517627,0.005339239
0.9733981,-0.2951317,-0.1927429,-0.002589282,-0.004243333,-0.007383435,0.01921641,-0.01116794,0.004656962
0.9736461,-0.2919097,-0.192282,-0.002370493,-0.00105551,-0.006994603,0.02732373,-0.01127114,0.009343163
0.9736415,-0.289216,-0.1831431,-0.002404428,0.00160543,0.002074596,0.02960904,-0.01374955,0.008187866
0.973851,-0.2884053,-0.1808772,-0.002224152,0.002384908,0.004273352,0.02324063,-0.02158962,0.001201073
0.9755489,-0.2888896,-0.1799021,-0.0005551749,0.001870845,0.005183613,0.02018346,-0.02140343,-0.001063046
0.976836,-0.288449,-0.1749428,0.0007033682,0.002282829,0.01008018,0.01624966,-0.02006991,-0.0008949382
0.9765988,-0.2848874,-0.1769494,0.0004380655,0.005817061,0.008012709,0.01284367,-0.01755996,-0.000821007
0.9769569,-0.2814295,-0.1823549,0.00076853,0.009248388,0.002547664,0.01088858,-0.01156118,0.001629688
0.9811177,-0.2820355,-0.1868056,0.00490215,0.008616408,-0.001961463,0.003983345,-0.01028605,0.004078711
0.985759,-0.2860965,-0.1911428,0.009516678,0.00452948,-0.006355756,0.0001897076,-0.006709208,-0.001924196
0.9852846,-0.2885131,-0.1868223,0.009015517,0.00208694,-0.002090803,-0.0003030954,0.001095478,-0.004136138
0.9828639,-0.2879671,-0.180255,0.006567673,0.002606678,0.004422511,-0.002102036,0.002836034,0.003699007
0.9796927,-0.2890292,-0.1836322,0.003368707,0.001518033,0.0009930357,-0.003591616,0.0008494866,0.003172272
0.9749036,-0.2919072,-0.1847414,-0.001448872,-0.001386696,-0.0001667553,-0.007055492,-0.002256582,0.002099785
0.9753957,-0.2922777,-0.181615,-0.00098593,-0.001784194,0.002910612,-0.003658728,-0.005236192,0.005191371
0.9775539,-0.29112,-0.1822822,0.001142619,-0.0006534953,0.002195818,0.005294498,-0.003562526,0.003335615
0.9739235,-0.2918036,-0.1774203,-0.002517846,-0.001363963,0.007011558,0.007973555,-0.005757186,0.004656394
0.9728753,-0.2922483,-0.1729167,-0.003596298,-0.00183536,0.01147013,0.01151356,-0.01221278,0.004912773
0.9751828,-0.2934491,-0.1764097,-0.001319113,-0.003062485,0.007932931,0.01388284,-0.01578691,0.003208337
0.9749244,-0.2970502,-0.1771,-0.001607605,-0.006689227,0.007198766,0.01373291,-0.02125678,0.003456197
0.9753302,-0.2972014,-0.1764922,-0.00123152,-0.006865416,0.007762749,0.01757523,-0.0232161,0.001924137
0.9762438,-0.2931342,-0.18164,-0.0003471912,-0.002821898,0.002570911,0.01454915,-0.02065912,0.005994976
0.97821,-0.2897105,-0.1939375,0.00159033,0.0005793878,-0.009770786,0.008096808,-0.01667708,0.009275466
0.9798397,-0.2896411,-0.2041384,0.003191907,0.0006277478,-0.02001592,0.007135042,-0.007924924,0.006444976
0.9770681,-0.2907926,-0.200244,0.0003926815,-0.0005434096,-0.01616478,0.004483309,-0.008266658,0.006231121
0.9756345,-0.2891733,-0.1941182,-0.00106809,0.001057552,-0.01008043,0.000251702,-0.01293776,0.006686462
0.9769177,-0.2881792,-0.1925917,0.0001883862,0.002034492,-0.008592974,-0.004573047,-0.008886005,0.006973349
0.9782609,-0.2886942,-0.1872513,0.001505537,0.001503543,-0.003288809,-0.007172491,-0.008741885,0.006818242
0.9793303,-0.2888702,-0.1866876,0.002549351,0.001312548,-0.002758178,-0.00648148,-0.008637487,0.006856922
0.9771311,-0.2908946,-0.1930818,0.0003249545,-0.0007259957,-0.009182372,-0.01295629,-0.007269552,0.008578078
0.9736026,-0.2918708,-0.1962308,-0.003228131,-0.001715438,-0.01235791,-0.01899587,-0.0143961,0.0108931
0.9719305,-0.2923389,-0.1972482,-0.00492434,-0.002195843,-0.01339821,-0.01094621,-0.02204108,0.01503021
0.9714379,-0.2946469,-0.1929057,-0.005440267,-0.004515215,-0.009074578,-0.002255278,-0.02697089,0.01556165
0.971863,-0.2945319,-0.1871596,-0.005037341,-0.004410554,-0.003342811,-0.002431207,-0.02639384,0.01526229
0.9741092,-0.2932413,-0.1900537,-0.002812078,-0.003128941,-0.006246815,-0.001503344,-0.02528276,0.01837613
0.975953,-0.2935485,-0.1924794,-0.0009877658,-0.003443757,-0.008677928,0.002200783,-0.03065636,0.01694148
0.9753579,-0.2960536,-0.1931179,-0.00160092,-0.005955034,-0.009317257,0.004665465,-0.02785232,0.01476241
0.9773444,-0.3009175,-0.1951599,0.0003691639,-0.01082334,-0.01135549,0.003706999,-0.018977,0.01439232
0.9804076,-0.3027021,-0.1935036,0.003417333,-0.01261037,-0.009690426,-0.00184395,-0.01135634,0.009857052
0.9792373,-0.3014522,-0.1924524,0.002233246,-0.01136048,-0.008625639,-0.005420861,-0.003744062,0.003855745
0.9785632,-0.3006298,-0.193255,0.001546652,-0.01053525,-0.009409449,-0.005059056,-0.0009057092,3.425538e-05
0.9794332,-0.2971713,-0.1931165,0.002405074,-0.007070724,-0.009247017,-0.004762968,0.003216301,0.0006266391
0.9776781,-0.2938407,-0.1931612,0.000639214,-0.003730734,-0.00926266,-0.005227025,0.004214936,0.00186411
0.9746163,-0.2939496,-0.1939106,-0.002432573,-0.003826876,-0.009977798,-0.006086037,0.003626739,-0.0005403741
0.9729385,-0.2943996,-0.1946671,-0.004119621,-0.004260708,-0.01069473,-0.006461857,0.01077818,0.0005196579
0.9735454,-0.2975163,-0.1935324,-0.003521049,-0.007357999,-0.009515294,-0.006737701,0.01294534,0.001787159
0.9749937,-0.3003874,-0.193328,-0.002079998,-0.01020633,-0.009260821,-0.004894252,0.01650079,-0.003118116
0.9750644,-0.297975,-0.1966973,-0.002015534,-0.007767784,-0.01257487,-0.002849979,0.02243552,-0.006089566
0.9747689,-0.2977333,-0.1992658,-0.002316083,-0.00749636,-0.01508265,-0.001281402,0.0183437,-0.005771189
0.9742304,-0.2972543,-0.1961209,-0.002858304,-0.006983971,-0.01187174,0.004029776,0.01694337,-0.005411201
0.9728242,-0.2918899,-0.1911465,-0.004267027,-0.001582646,-0.006825709,0.004199205,0.01598299,-0.005610474
0.9716308,-0.2913155,-0.1892092,-0.005461546,-0.0009678712,-0.004811482,0.003279511,0.01159467,-0.006574548
0.969638,-0.2948076,-0.1856061,-0.00745397,-0.004416343,-0.001126299,0.008982133,0.01209584,-0.005907628
0.96889,-0.2964832,-0.1826791,-0.008199852,-0.006045278,0.001887508,0.007707254,0.01145239,-0.005228597
0.9711374,-0.2962567,-0.1856999,-0.005948198,-0.00576925,-0.001042529,0.005316206,0.008540377,-0.00328802
0.9728926,-0.2954769,-0.190925,-0.00418664,-0.004936996,-0.006173092,0.007026443,0.006069327,-0.000744958
0.9741686,-0.2983022,-0.1948469,-0.002902093,-0.007707056,-0.009997322,0.003592666,0.007013948,-0.001100656
0.9748244,-0.3011688,-0.1931862,-0.002235349,-0.01051567,-0.008235838,0.002537167,0.01007898,0.00055859
0.9742297,-0.3008867,-0.1902879,-0.002816927,-0.01017265,-0.005233599,0.003822569,0.008716783,0.003159738
0.972519,-0.2981345,-0.1897803,-0.004512293,-0.007356518,-0.004619196,0.003656447,0.008860486,0.003108659
0.9689882,-0.2944681,-0.1867445,-0.008025535,-0.00362314,-0.001473931,0.005667799,0.009103423,0.001409037
0.9684838,-0.2964834,-0.188949,-0.008510122,-0.00556852,-0.003566703,0.006037934,0.005016376,-0.0006635087
0.9692375,-0.2987,-0.1939984,-0.007734101,-0.007712352,-0.008502225,0.004784324,0.003960263,0.001115349
0.966504,-0.2973861,-0.1917357,-0.01044265,-0.00632298,-0.006123908,0.003966894,0.00502694,0.003034765
0.9670405,-0.2989246,-0.1874918,-0.009878328,-0.007783249,-0.001762554,0.003642909,0.0053488,0.00101837
0.9716609,-0.298899,-0.1825097,-0.005227066,-0.007676838,0.00333842,0.002653697,0.006336561,0.0002230072
0.9746551,-0.2969034,-0.1827866,-0.002198758,-0.00559773,0.003181442,-0.001826634,0.008356788,0.0008980963
0.9742318,-0.2962652,-0.1899927,-0.002584982,-0.00487358,-0.003904244,-0.006460709,0.01042397,0.00145927
0.9726629,-0.2945232,-0.1936212,-0.004114022,-0.003043159,-0.007412062,-0.008425916,0.008271003,0.003116805
0.9739401,-0.29425,-0.1939953,-0.002794157,-0.00267939,-0.007665438,-0.009931139,0.005207071,0.00425299
0.9741834,-0.2955977,-0.1875241,-0.002505634,-0.003934607,-0.001073406,-0.01204026,0.006823039,0.003846186
0.9737979,-0.2959877,-0.1810347,-0.002843441,-0.004230349,0.00553681,-0.01157293,0.01074785,0.002744005
0.9756377,-0.2959618,-0.187898,-0.0009537751,-0.004108597,-0.001206084,-0.00881759,0.01687557,0.0001773661
0.9739163,-0.295484,-0.192598,-0.002623297,-0.00353367,-0.005786522,-0.006418139,0.02154,-0.002850739
0.9719497,-0.2951529,-0.1878873,-0.004536215,-0.003104185,-0.0009570708,-0.002325542,0.01634983,-0.002592478
0.972786,-0.2948237,-0.1859315,-0.003644418,-0.002675596,0.001116302,0.001706725,0.01001924,-0.0009885884
0.9739035,-0.2940384,-0.1860698,-0.002469736,-0.001790134,0.001094409,0.006739666,0.01289797,0.0001110577
0.9766199,-0.2929535,-0.1834701,0.0003053562,-0.0006044437,0.003808896,0.01059607,0.01574175,0.0001493044
0.9769189,-0.2928616,-0.1820139,0.0006643329,-0.0004113579,0.005378023,0.008573676,0.01933641,-0.007387181
0.9756609,-0.2952497,-0.1822156,-0.0005326234,-0.00269818,0.005286903,0.01142587,0.02628579,-0.01352793
0.9758014,-0.2957353,-0.1801368,-0.0003302277,-0.003082651,0.007473618,0.01840022,0.02230748,-0.01079218
0.9746773,-0.2920674,-0.1808298,-0.001391871,0.0006861468,0.00688544,0.02116782,0.01410668,-0.01068455
0.9747756,-0.2899041,-0.1831618,-0.001230701,0.002949768,0.004654761,0.01886816,0.01037724,-0.00769688
0.975568,-0.2934418,-0.1816591,-0.0003751062,-0.0004883141,0.006254823,0.01029709,0.005062442,-0.004056126
0.9756264,-0.297197,-0.1836884,-0.0002533477,-0.004144886,0.0043188,0.005603404,0.006467204,-0.007053256
0.9761871,-0.2932372,-0.1896747,0.0003706363,-8.761025e-05,-0.001578562,0.002668981,0.008643806,-0.002323935
0.9739055,-0.2897373,-0.1936334,-0.001847869,0.003508577,-0.005452579,-0.002588908,0.004448428,0.002912565
0.9715927,-0.2923419,-0.1918779,-0.004097874,0.0009987285,-0.003616455,0.0001067744,0.004045786,0.003536747
0.9751474,-0.2923328,-0.1837514,-0.0004806164,0.001100847,0.004586728,0.002591495,0.0007591501,0.004804742
0.9796189,-0.2922709,-0.1787544,0.004052929,0.001253785,0.009656591,0.001311422,-0.001925992,0.001129544
0.9788784,-0.2931871,-0.1799982,0.003373924,0.000426622,0.00848162,-0.0001124428,0.001847106,-0.0008678733
0.975206,-0.2912475,-0.1810848,-0.0002378233,0.002453018,0.007459496,-0.003859136,0.001156968,-0.003036386
0.972506,-0.2933312,-0.1790483,-0.002878301,0.0004537781,0.009555806,-0.003257841,0.0003002159,-0.002665253
0.9731867,-0.2970027,-0.1789331,-0.002139117,-0.003135869,0.009725803,-0.001805541,-0.00214756,0.002851854
0.97699,-0.2962627,-0.1846017,0.001721629,-0.002316408,0.004106859,-0.00150207,-0.00689871,0.002213248
0.9793862,-0.2930945,-0.1866613,0.00417413,0.0009288609,0.002091583,0.001854216,-0.001785302,0.004920054
0.9787381,-0.2888698,-0.1824161,0.003580964,0.00522821,0.006375872,0.0006290584,0.004959313,0.006150767
0.9776037,-0.2892168,-0.1787686,0.002499898,0.004953209,0.01005729,-0.005938029,0.00498863,0.001613904
0.9770018,-0.2908917,-0.1771933,0.001949602,0.003347551,0.01166108,-0.009856692,0.00347684,0.004420523
0.9759487,-0.2878287,-0.1759499,0.0009461455,0.006476743,0.01292751,-0.008192832,0.001700995,0.004937283
0.9751568,-0.2892387,-0.1757887,0.0002019859,0.005129618,0.01310574,-0.008090531,0.001382238,0.002169049
0.9752087,-0.2935541,-0.1822754,0.0002997012,0.0008736553,0.006630009,-0.01366061,0.0035368,-0.003393052
0.97451,-0.2942012,-0.1857423,-0.0003552848,0.0002824911,0.003167908,-0.01693123,0.004393647,-0.01261946
0.9741343,-0.2931015,-0.176621,-0.0006891129,0.001434621,0.01228796,-0.01559485,0.004030008,-0.01137155
0.9736425,-0.2887747,-0.1691944,-0.001141081,0.005810306,0.01970707,-0.01258112,0.003383123,-0.008618905
0.9730857,-0.2882503,-0.1704023,-0.001659747,0.006380205,0.01848533,-0.009259071,-0.003263731,-0.01144907
0.9744488,-0.2925847,-0.1736706,-0.0002602919,0.002087589,0.01519636,-0.005840727,-0.01167318,-0.01092924
0.9753058,-0.2960558,-0.1739272,0.0006313747,-0.001345353,0.01491197,-0.001399383,-0.01282328,-0.01082787
0.9769883,-0.2994033,-0.1741311,0.002346899,-0.004658322,0.01467295,0.002153766,-0.01146401,-0.01094824
0.9788688,-0.2945976,-0.1785075,0.004258698,0.0001786708,0.01025384,0.004498684,-0.01103471,-0.008077482
0.9787251,-0.2892591,-0.1815806,0.004144534,0.005545437,0.007130763,0.005460772,-0.009489464,-0.006477623
0.9788286,-0.2942303,-0.181153,0.004275548,0.0005993985,0.007501025,0.003657435,-0.00762796,-0.005623363
0.9774911,-0.2965909,-0.1797806,0.002963439,-0.001738935,0.008809198,0.001246305,-0.007390617,-0.002711582
0.9782199,-0.2950665,-0.181488,0.003715355,-0.0001951373,0.007030919,0.0003457496,-0.006073667,0.0002338548
0.9799133,-0.2942431,-0.1856877,0.005429624,0.0006449545,0.002753898,0.0003584143,-0.002746424,0.0009756268
0.9768656,-0.2928085,-0.1887474,0.002400329,0.002093847,-0.0003890837,2.859626e-05,-0.004927739,-0.000550819
0.9761142,-0.2949737,-0.1920715,0.001664859,-5.950182e-05,-0.003801699,0.0001392206,-0.007595084,-0.003055553
0.9783986,-0.298616,-0.1928705,0.003962688,-0.003692282,-0.004693942,0.0005733137,-0.004137404,-0.003864547
0.9794471,-0.298592,-0.1910959,0.005022109,-0.003660869,-0.003016367,0.0001863137,-0.001853037,-0.002145681
0.9782831,-0.2953323,-0.1864184,0.003866546,-0.0003954537,0.001560935,-0.0002135487,-0.001286999,0.000910707
0.9751046,-0.2918094,-0.1808332,0.0006938115,0.003131455,0.007043277,-7.895231e-05,-0.004165689,0.002708038
0.9748491,-0.2907613,-0.1803448,0.0004415627,0.00418208,0.00742655,0.002593152,-0.01167315,0.0004177565
0.976733,-0.2910551,-0.1807192,0.002326253,0.003889121,0.006944779,0.005031748,-0.01532618,-0.001389627
0.9801125,-0.2901829,-0.1834117,0.005704277,0.004760547,0.00414281,0.003448962,-0.01487592,0.001287908
0.9833631,-0.2896568,-0.1861389,0.008950959,0.005284034,0.001304134,0.002974042,-0.01220643,0.002042157
0.9812125,-0.2898206,-0.1863754,0.006793856,0.005115736,0.0009545021,0.001138777,-0.004972141,-0.0002867684
0.9777596,-0.2885005,-0.1927294,0.00333175,0.006429215,-0.005513817,-0.003966564,0.001649592,-0.001129503
0.9758221,-0.2889342,-0.1968459,0.001382291,0.00598676,-0.009745278,-0.004460373,-0.0004192645,-0.0003681862
0.9752458,-0.2914037,-0.1902826,0.000791348,0.003506258,-0.003297133,-0.002637657,-0.005921286,0.002913795
0.9744535,-0.2930852,-0.1821609,-1.806396e-05,0.001811465,0.004710107,0.0001008144,-0.00668804,0.007180482
0.9717036,-0.2950193,-0.1827686,-0.002787285,-0.0001383299,0.003988695,0.003217601,-0.009274618,0.009388475
0.9742916,-0.294323,-0.1878,-0.0002206856,0.0005402801,-0.001155428,0.0001157771,-0.01346323,0.008703646
0.9785067,-0.2913346,-0.1892733,0.003971323,0.00350902,-0.002740372,-0.002044581,-0.01250037,0.006839937
0.9770997,-0.2904802,-0.1911486,0.002539515,0.004341797,-0.004725869,0.001704892,-0.009610508,0.007954756
0.9782847,-0.290778,-0.1904788,0.003698089,0.004020669,-0.0041645,0.003620925,-0.006044879,0.009528688
0.980373,-0.2905008,-0.1886332,0.005758439,0.004272613,-0.002425165,0.003159974,-0.003253761,0.009555126
0.9785952,-0.2902356,-0.1876791,0.003951053,0.004510703,-0.001574857,0.003972152,-0.001336508,0.009885419
0.9790623,-0.2917892,-0.1829468,0.004386858,0.002928033,0.003056283,0.006250434,-0.001393418,0.008330346
0.9790872,-0.2924395,-0.1831066,0.00437877,0.002246866,0.002798087,0.006572546,-0.006606717,0.003381616
0.9758507,-0.2910022,-0.1835747,0.001107611,0.00365157,0.002234287,0.004204015,-0.008590231,-0.003142594
0.9735349,-0.2921231,-0.1804452,-0.001244456,0.002496257,0.005270561,0.003306942,-0.005980967,-0.004104237
0.9733848,-0.2938174,-0.1822334,-0.001432143,0.0007659504,0.00339168,0.003056625,-0.003180188,0.0008255256
0.975725,-0.294145,-0.1814482,0.0008691924,0.0004008482,0.004088501,0.003385088,-0.00125953,0.003146001
0.977078,-0.2931893,-0.1798974,0.002182493,0.001317732,0.005553212,0.004203446,-0.004245076,0.003911368
0.9761935,-0.2906754,-0.183045,0.001257438,0.003791516,0.002321381,0.000951722,-0.005768236,0.0034955
0.9763432,-0.2918103,-0.1846898,0.001365799,0.002615488,0.0005944766,-0.00192278,-0.004876779,0.001607532
0.9764595,-0.2942437,-0.1857623,0.001440075,0.0001398297,-0.0005583347,-0.0002259265,-0.006265452,0.002853128
0.976523,-0.2943215,-0.1882197,0.001461094,1.887638e-05,-0.003093948,0.001211169,-0.004696271,0.003072467
0.9773309,-0.2952207,-0.1900908,0.002225986,-0.0009242541,-0.005041107,0.002301708,-0.002610378,0.001583628
0.9779737,-0.2960472,-0.1856603,0.002825345,-0.001795351,-0.0006842748,0.005050672,-0.003249874,0.001080026
0.9772618,-0.2973535,-0.1792387,0.002069561,-0.00314651,0.005666197,0.007253051,-0.005923524,-0.0004598221
0.9739306,-0.2968406,-0.1817746,-0.001305848,-0.002678455,0.00306159,0.008340081,-0.01122195,-0.0002912553
0.9714203,-0.293657,-0.183465,-0.003860541,0.0004603428,0.001304725,0.009963417,-0.01454173,0.0004480042
0.9727842,-0.2935215,-0.1815588,-0.002541022,0.0005514645,0.003146662,0.01008033,-0.01304855,0.0005930632
0.975041,-0.2931235,-0.1874755,-0.0003282851,0.0009055203,-0.002832156,0.006176777,-0.007896177,0.002273507
0.9754712,-0.292838,-0.1942778,5.82296e-05,0.001147515,-0.009694432,0.002310046,-0.004599837,0.002432689
0.9747339,-0.2958123,-0.1945976,-0.0007221327,-0.001869657,-0.0100718,0.002875681,-0.005680776,0.001732768
0.9728837,-0.2978684,-0.1906725,-0.002614721,-0.003967988,-0.006201366,0.003918079,-0.005726784,0.002065805
0.9725796,-0.2987315,-0.1863993,-0.002960293,-0.004872519,-0.001979542,0.001331758,-0.005413796,0.003600024
0.9747433,-0.2959226,-0.1870325,-0.0008371747,-0.002103941,-0.002660918,-0.000901187,-0.006059302,0.005290436
0.9734641,-0.2919234,-0.1873268,-0.002155802,0.001856273,-0.002999912,-0.003100404,-0.005541055,0.004930748
0.9730137,-0.2921347,-0.185291,-0.002644332,0.001607238,-0.001005394,-0.00757031,-0.006135138,0.006214611
0.9760605,-0.2918906,-0.1863602,0.0003656976,0.001814935,-0.002112585,-0.009360377,-0.006965981,0.007525813
0.9773398,-0.2921691,-0.1873397,0.001609737,0.001501153,-0.003126693,-0.005881359,-0.004504483,0.002965511
0.9800266,-0.2937074,-0.1874043,0.004262564,-7.122995e-05,-0.003222582,-0.0007589001,-0.002736421,-0.001058097
0.9797038,-0.2929789,-0.1881719,0.003907012,0.0006242319,-0.004018209,-0.001798034,-0.004277428,0.002875868
0.9768067,-0.2928326,-0.1890535,0.0009781911,0.0007386224,-0.004924436,-0.004723317,-0.004724799,0.006909018
0.9775141,-0.2932854,-0.1908362,0.001654762,0.0002549281,-0.006728335,-0.002760213,-0.004832033,0.004501386
0.9755305,-0.2938425,-0.1906518,-0.0003587634,-0.0003320434,-0.006561656,-0.003482192,-0.003850998,0.003325553
0.9741717,-0.2975119,-0.1898349,-0.001746551,-0.004030213,-0.005758871,-0.001725486,-7.214214e-05,0.003061063
0.9739626,-0.301598,-0.191515,-0.001983825,-0.008143867,-0.007449247,0.00400925,0.0003183539,0.0004543479
0.972961,-0.30139,-0.1928872,-0.003012476,-0.007962008,-0.008828017,0.004568655,-0.002134216,0.001142758
0.9761552,-0.300438,-0.1959412,0.0001557036,-0.007034188,-0.01188448,0.004538594,-0.003785337,0.001861317
0.9765332,-0.3011503,-0.1995412,0.0005089887,-0.00776859,-0.01548271,0.003928293,-0.003888484,0.001713993
0.9742462,-0.2996894,-0.1949851,-0.001801619,-0.006327337,-0.01092013,0.003167069,-0.002956204,0.00369474
0.9734311,-0.2992478,-0.1854408,-0.002639115,-0.005902763,-0.001364581,0.002342522,-0.004017242,0.002138978
0.9731938,-0.2998867,-0.181757,-0.002897525,-0.006555704,0.002335297,-0.001387453,-0.004273106,-0.0009577675
0.9753526,-0.2975498,-0.185175,-0.0007584557,-0.00423,-0.001062126,-0.001517764,-0.003156633,-0.00109029
0.9759649,-0.2966363,-0.1884267,-0.0001643815,-0.003324466,-0.004289177,-0.000996317,-0.001565983,-0.0005312581
0.9764227,-0.2961094,-0.1874924,0.0002765117,-0.002802552,-0.003326366,-0.002178086,0.0006212304,0.0003029568
0.9765623,-0.2959134,-0.1861443,0.0004004508,-0.002608482,-0.001946127,-0.001881328,-0.0007149836,8.51164e-05
0.9739347,-0.2981817,-0.1840618,-0.002241394,-0.004875696,0.0001719798,-0.001816054,-0.001040917,-0.001366355
0.9734542,-0.2972187,-0.1816377,-0.00273485,-0.003908716,0.002634808,-0.001323028,0.000298232,-0.001440642
0.9736278,-0.2966059,-0.184915,-0.002572894,-0.003288955,-0.0006010031,-0.001676252,-0.002760486,-0.0003080319
0.9747021,-0.2979214,-0.1870989,-0.001508922,-0.004594666,-0.002741063,-0.0006754136,-0.004879878,0.001618971
0.9764679,-0.296993,-0.1861214,0.0002480758,-0.00365355,-0.001717564,0.002175679,-0.003574258,0.002729613
0.9763045,-0.2981209,-0.1887972,7.723875e-05,-0.004765926,-0.004345287,0.001915678,-0.0007753496,0.001686448
0.9766409,-0.2991798,-0.188174,0.0004074674,-0.005806439,-0.003672067,-0.0007368317,0.001407063,0.001204181
0.9753317,-0.2979639,-0.188174,-0.0009066436,-0.004569464,-0.003620364,-0.001558328,-2.322906e-05,-0.0003842614
0.9718257,-0.2969268,-0.1910131,-0.004416395,-0.003508363,-0.006405907,0.0009747765,0.000554053,-0.004619227
0.969299,-0.2952734,-0.1881161,-0.006945607,-0.001828287,-0.003453638,0.001989273,0.001892735,-0.00582711
0.9731705,-0.2959348,-0.1913339,-0.003075166,-0.002460337,-0.006614581,0.00360116,-0.0001054517,-0.003216369
0.9799439,-0.2981306,-0.1963325,0.003698645,-0.00462432,-0.01155455,0.006808837,-0.0009577498,-0.0009097274
0.9775109,-0.2984636,-0.1941674,0.001267556,-0.004923113,-0.0093289,0.006198606,-0.002602775,0.001477027
0.9737664,-0.2965502,-0.1982415,-0.002473821,-0.002973173,-0.01334031,0.005549386,-0.002872327,0.003006269
0.9739841,-0.2923405,-0.201514,-0.002251846,0.001275342,-0.01654787,0.003726879,-0.000907262,-0.0006747024
0.9729835,-0.2911795,-0.1987215,-0.003246941,0.002477232,-0.0136875,0.002889996,-0.002126814,-0.004297955
0.9750936,-0.2946578,-0.1953665,-0.00113016,-0.0009584475,-0.01026158,0.004022245,-0.0009437914,-0.00253226
0.9764518,-0.296804,-0.1906665,0.0002358835,-0.003060623,-0.005487353,0.001023324,0.0009128687,-0.002790595
0.9753313,-0.2961041,-0.1910919,-0.0008755207,-0.002315427,-0.005835202,0.002606904,-0.0003056087,-0.00437327
0.9734131,-0.2967495,-0.1928618,-0.002783661,-0.002914225,-0.007524431,0.005244837,0.000830446,-0.001845274
0.9693097,-0.3004951,-0.1931323,-0.006875889,-0.006612095,-0.007711109,0.004444973,0.001648679,-0.0005410776
0.9704165,-0.3013038,-0.1961876,-0.005756746,-0.007371832,-0.01067955,0.008138156,0.001449957,-0.00218863
0.9720407,-0.2958378,-0.1972793,-0.004118857,-0.001855507,-0.01168146,0.008810667,0.003086146,-0.002941797
0.9698954,-0.2912057,-0.1974424,-0.006248908,0.002828068,-0.01175155,0.006472468,0.00514926,-0.001035679
0.9709069,-0.292621,-0.198476,-0.005220624,0.001465296,-0.01268892,0.002974112,0.005225584,0.002738321
0.970264,-0.2947828,-0.1968807,-0.005844905,-0.0006431775,-0.01099403,-0.002898565,0.001641724,0.005990209
0.9695047,-0.295252,-0.1932097,-0.006583718,-0.001058584,-0.007219946,-0.001185123,-0.0006921804,0.006686415
0.9744537,-0.2987396,-0.1912986,-0.001612299,-0.004491977,-0.005202351,0.001003527,0.001956927,0.003519493
0.9788254,-0.299722,-0.1894967,0.002783678,-0.005419769,-0.003290886,-0.00317958,0.006572788,-0.00167424
0.9793088,-0.2963612,-0.1860835,0.003293141,-0.002004025,0.0002348221,-0.003953314,0.009684457,-0.004970401
0.9781687,-0.2964206,-0.187609,0.002180555,-0.002007995,-0.001175862,-0.002374613,0.01177285,-0.003090207
0.9765645,-0.2960496,-0.1903686,0.000604901,-0.001581246,-0.003818524,-0.002457397,0.01472415,-0.0004923888
0.9734773,-0.2960509,-0.1898978,-0.002452743,-0.001526579,-0.0032292,-0.002345765,0.01393848,-0.003305786
0.9725583,-0.29827,-0.1907676,-0.003341585,-0.003689426,-0.003979004,-0.001985771,0.008792424,-0.004557291
0.9745335,-0.2969118,-0.1901984,-0.00133533,-0.002274931,-0.003288759,-0.0005245554,0.005728668,-0.002985233
0.9733887,-0.2969269,-0.1898659,-0.002448434,-0.002233549,-0.00283424,0.0004010577,0.00583078,-0.00490743
0.9735539,-0.2974245,-0.1910704,-0.00225068,-0.002674616,-0.003916111,-0.0006350584,0.006545693,-0.0075865
0.9760694,-0.2949239,-0.190716,0.0002979316,-0.0001175095,-0.003438505,-0.0008706812,0.005889793,-0.01008689
0.9763979,-0.2945336,-0.1909581,0.0006601328,0.0003293847,-0.003557284,-0.002482938,0.006062615,-0.01049948
0.9762465,-0.2960194,-0.1866749,0.0005428237,-0.00110008,0.0008494665,-0.004528903,0.007190453,-0.007306602
0.9734782,-0.297967,-0.181946,-0.002190986,-0.00299168,0.00570162,-0.002360206,0.005098112,-0.004578663
0.971746,-0.2975387,-0.188005,-0.00388857,-0.002507688,-0.0002348321,-0.00110282,0.001773869,-0.002412104
0.9754247,-0.2964532,-0.1945371,-0.0001749203,-0.001366818,-0.006645358,-0.0006955044,5.652414e-05,-0.001295652
0.9791423,-0.2978039,-0.1931593,0.003577798,-0.002662548,-0.005147068,0.002019194,0.003228678,-0.0002553386
0.9794094,-0.2971101,-0.1909014,0.003880068,-0.001914064,-0.002769866,0.001428619,0.008488613,-0.001518793
0.9760622,-0.2965695,-0.1891742,0.0005677694,-0.001319255,-0.0009246354,-6.272612e-06,0.00763948,-0.00563227
0.9740793,-0.2955427,-0.1860289,-0.001380705,-0.0002386201,0.002337506,-0.0001676785,0.006399456,-0.003885199
0.9752719,-0.2917278,-0.1844088,-0.0001540553,0.003629616,0.004072784,-0.002892048,0.005292464,-0.002970506
0.9760865,-0.2912433,-0.1835722,0.0006940558,0.004166671,0.005022645,-0.002623923,0.00158636,-0.006939394
0.9765915,-0.2930261,-0.1833442,0.001232034,0.002435555,0.005361634,0.0005530127,0.001916076,-0.0067746
0.9763975,-0.2941906,-0.1856021,0.00107027,0.001321409,0.003211864,0.000683548,0.002037092,-0.005390867
0.9762997,-0.2948076,-0.1849576,0.001003975,0.0007534265,0.003961569,0.001317413,0.001440352,-0.004087964
0.9764902,-0.2944826,-0.1842196,0.001225151,0.00112603,0.004801421,0.003230919,0.003633421,-0.0026373
0.9759298,-0.2958461,-0.1876587,0.0006943988,-0.000191336,0.001460651,0.003480296,0.004522762,-0.002701223
0.9746985,-0.2988756,-0.1895293,-0.0005081066,-0.003176351,-0.0003153324,0.00397105,0.003948589,-0.003126986
0.9728216,-0.3004773,-0.190803,-0.00235723,-0.004734994,-0.0014982,0.004194277,0.001010797,-0.004814025
0.9721539,-0.2983978,-0.190623,-0.002998117,-0.002613734,-0.001231008,0.001875534,-0.0004040896,-0.004652196
0.9706408,-0.2961067,-0.1895166,-0.004485174,-0.0002820399,-4.108078e-05,0.001293566,0.004384527,-0.004143454
0.9693681,-0.2968445,-0.1908775,-0.005732453,-0.0009803167,-0.001321862,0.004094387,0.009202078,-0.004373147
0.9739417,-0.2949711,-0.1888928,-0.001133853,0.0009314739,0.0007393972,0.004830668,0.00943979,-0.003615774
0.9782165,-0.2917558,-0.1837195,0.003165685,0.004184049,0.005985843,0.004575312,0.007532067,-0.004454866
0.9761351,-0.2933253,-0.1798792,0.001108658,0.002650584,0.00989573,0.005207975,0.004226444,-0.002797416
0.9737091,-0.2955162,-0.1829149,-0.001293503,0.0004942706,0.006925785,0.004655107,-0.00348642,-0.0006808246
0.9736968,-0.2958596,-0.1888853,-0.001282451,0.0001838919,0.001016952,0.005261422,-0.006724975,-0.001608353
0.9733736,-0.2963214,-0.1857045,-0.001582685,-0.0002462465,0.004255079,0.0074275,0.001524251,-0.000538875
0.9734524,-0.2965372,-0.1838217,-0.001481484,-0.0004319438,0.006190959,0.009345777,0.006147419,0.001530527
0.9729675,-0.2973894,-0.1860176,-0.001944325,-0.001255483,0.004043701,0.01008696,0.0005703557,0.002473887
0.9718044,-0.2979678,-0.1837952,-0.003085652,-0.001806642,0.006310345,0.01100179,-0.003390665,0.0005330064
0.9735471,-0.2985543,-0.1848127,-0.001321413,-0.002367097,0.005332611,0.01177071,-0.0008486856,-0.002810309
0.9759297,-0.299293,-0.1853541,0.001082508,-0.003080862,0.004826351,0.00373635,0.003065326,-0.003182228
0.97671,-0.2930419,-0.1838276,0.001883897,0.003194081,0.006383477,-0.007574919,0.007242474,-0.0003200849
0.9766236,-0.285074,-0.1855851,0.001818196,0.01118481,0.004651833,-0.00804697,0.007688275,0.003920265
0.9760126,-0.2870414,-0.1855832,0.001227579,0.009238864,0.004674964,-0.005349215,-0.001906179,0.003854281
0.9765528,-0.2901016,-0.1873751,0.001787552,0.00619828,0.002899715,-0.007600145,-0.005631861,0.001149176
0.9765153,-0.2891237,-0.1903721,0.001769125,0.007193693,-8.513743e-05,-0.008625671,0.0004777119,-0.0001141079
0.9757409,-0.2906398,-0.1910874,0.00101311,0.005692702,-0.0007925675,-0.007863992,0.000226553,-0.00186661
0.974875,-0.2907756,-0.1920077,0.0001647383,0.005569436,-0.001709044,-0.008460039,0.002117298,-0.001440469
0.9725847,-0.2904251,-0.189338,-0.00210882,0.005929742,0.0009608222,-0.007492954,0.006007721,-0.0007452091
0.9719119,-0.2952053,-0.1858904,-0.002765574,0.001156567,0.004405241,-0.004265487,0.002347467,-0.001548118
0.9726712,-0.298057,-0.1840852,-0.00199083,-0.001690906,0.006203968,-0.002268045,-0.0004953012,-0.000507366
0.9735289,-0.2947266,-0.1832661,-0.001118303,0.001641016,0.007013245,-0.002650673,-0.002133114,-0.001448411
0.9743071,-0.2916317,-0.1870891,-0.000325671,0.004734985,0.003177126,-0.003279138,-0.0009901402,-0.00524643
0.973539,-0.2927788,-0.1903733,-0.001079794,0.003584542,-0.0001235308,-0.002484831,0.000232615,-0.007182392
0.974895,-0.2935684,-0.1897137,0.000289859,0.002789046,0.000516583,-0.003984981,-0.002696201,-0.005497727
0.9758357,-0.2928296,-0.1890684,0.001243852,0.003519598,0.001139478,-0.007458578,-0.00118686,-0.002142411
0.9735032,-0.2939691,-0.188306,-0.001075753,0.002369485,0.001876922,-0.007982929,0.0002172729,-0.0004619343
0.9741306,-0.2918041,-0.1851635,-0.0004358273,0.004521447,0.004991863,-0.006741748,0.001097673,-0.001253797
0.9749185,-0.2905417,-0.1830558,0.0003640982,0.005768488,0.007069656,-0.005176557,0.003388709,-0.004154021
0.973772,-0.2956856,-0.1876141,-0.0007706984,0.0006069815,0.002479125,-0.004975128,0.001485051,-0.005489333
0.9746949,-0.2959519,-0.1922774,0.0001634797,0.0003206839,-0.00221885,-0.004749218,-0.0001323547,-0.003449413
0.9751227,-0.2926615,-0.190765,0.000602168,0.003588917,-0.0007431988,-0.002106945,-0.002007633,-0.00222345
0.9749836,-0.2913253,-0.191044,0.0004736286,0.004900983,-0.001060813,-0.00265033,-0.001890712,-0.001840865
0.974767,-0.2912547,-0.194315,0.0002671968,0.004945439,-0.004371965,-0.004647542,-0.0003313614,-0.001537038
0.9733496,-0.2946777,-0.1932696,-0.001140555,0.001494289,-0.003367806,-0.004239802,-0.00337624,-0.001846667
0.9738213,-0.2967358,-0.1921456,-0.0006595596,-0.0005939329,-0.002285891,-0.004242418,-0.004555412,-0.002061302
0.9761968,-0.2983715,-0.1938079,0.001724899,-0.002261482,-0.003990737,-0.002856941,-0.004099566,-0.004510656
0.9771608,-0.2991621,-0.1928714,0.002697345,-0.003085467,-0.003096954,-0.001206229,-0.002472259,-0.006910243
0.9760851,-0.2960346,-0.1927169,0.001629683,7.486584e-06,-0.002984931,-0.001561628,0.0002149427,-0.003702674
0.9761213,-0.2955934,-0.1936182,0.001673354,0.0004132003,-0.003928287,-0.001186967,6.048612e-05,-3.247972e-05
0.9768819,-0.2958354,-0.1918794,0.002440672,0.0001349529,-0.002230936,-0.0001252616,0.0007337603,-0.001428287
0.9756863,-0.2955256,-0.1896485,0.001251108,0.0004079368,-4.053124e-05,0.001817988,0.0006317553,-0.001770945
0.974979,-0.2953243,-0.1865582,0.0005491141,0.0005719661,0.00301029,0.00484597,0.001821003,-0.0004424613
0.9751155,-0.2935252,-0.1872621,0.0006900684,0.002333371,0.002267795,0.004355531,0.004735515,-0.001667337
0.9763509,-0.2940943,-0.1913781,0.001929123,0.001726216,-0.001885846,0.0001963885,0.003594943,-0.0005721742
0.9773049,-0.2942754,-0.1913041,0.002886006,0.001506875,-0.001848586,-0.0007126341,0.003057506,0.001690202
0.9756809,-0.2933377,-0.1891768,0.001264068,0.00240597,0.0002430037,0.001185523,0.001899393,0.0009526409
0.9763922,-0.2924035,-0.1873827,0.001976487,0.003301425,0.002002436,0.00131716,-0.001941153,0.001262298
0.9769481,-0.2915068,-0.1904093,0.002532484,0.004159091,-0.001057746,0.0009387516,-0.004850944,0.001291328
0.9758797,-0.2937758,-0.195085,0.001463239,0.001850788,-0.005765848,-0.0004422617,-0.007074071,-0.0005190813
0.9777124,-0.2958954,-0.1910537,0.003294043,-0.0003085011,-0.00176586,-0.0009974659,-0.005789179,-0.0007498279
0.9780388,-0.2986451,-0.1859789,0.003617492,-0.003098082,0.003279069,0.001304299,-0.001463155,-0.001940144
0.977374,-0.2992497,-0.1844796,0.002948626,-0.00374252,0.004749845,0.000708508,0.001856192,-0.004111511
0.9767845,-0.2948342,-0.1849095,0.002353766,0.0006333591,0.004292551,-0.002707045,-0.0002796344,-0.001570766
0.9738796,-0.2936415,-0.1881934,-0.0005576742,0.001786724,0.0009821551,-0.005052155,-0.00481326,0.0003870598
0.9724289,-0.2930675,-0.1880725,-0.002016098,0.00232196,0.001077366,-0.005144968,-0.002315263,-0.004090572
