accx,accy,accz,body_accx,body_accy,body_accz,body_gyrox,body_gyroy,body_gyroz
1.03854,-0.0442108,0.05086479,0.0122384,0.001118735,-0.013708,-0.009866433,-0.03416737,-0.04209744
1.044067,-0.04133595,0.04818037,0.01778744,0.004052072,-0.01623929,-0.01427022,-0.02679249,-0.03383679
1.038105,-0.04183064,0.0502122,0.01184802,0.003620835,-0.01403839,-0.02290037,-0.01506876,-0.02254187
1.029793,-0.04168975,0.0622426,0.003560391,0.003829424,-0.001823929,-0.02603859,-0.0125088,-0.004557791
1.026687,-0.04379382,0.07242099,0.0004795496,0.001796621,0.008552273,-0.02272897,-0.017464,0.0102106
1.026039,-0.04499118,0.07028022,-0.0001432524,0.0006735177,0.006621458,-0.02668984,-0.02487736,0.0161024
1.024203,-0.04552049,0.06332225,-0.001953805,0.0002209497,-0.0001161612,-0.02303717,-0.04088688,0.03174115
1.024126,-0.04622578,0.06227437,-0.002005901,-0.0004055364,-0.000934822,-0.01078771,-0.05600052,0.04887823
1.023744,-0.04859966,0.05950539,-0.002363273,-0.002698878,-0.003466982,0.003098979,-0.05694655,0.05459636
1.024142,-0.05421092,0.05502462,-0.001939487,-0.008228127,-0.00770442,0.01798599,-0.05210118,0.06399315
1.025701,-0.05960205,0.05556461,-0.000355666,-0.01353578,-0.006915427,0.02721656,-0.0484888,0.06988688
1.024836,-0.06034973,0.05495936,-0.001194452,-0.01419834,-0.007266762,0.04171406,-0.0409268,0.06719437
1.024843,-0.05536141,0.05210754,-0.001162213,-0.00912294,-0.00986042,0.05427147,-0.03490368,0.06476683
1.024516,-0.04854993,0.04729971,-0.001463721,-0.002222257,-0.01440638,0.05926492,-0.0347927,0.063008
1.02125,-0.04218304,0.04432444,-0.004703919,0.004235829,-0.01711644,0.0707985,-0.03484018,0.05760544
1.019169,-0.04007925,0.04819699,-0.00675874,0.006432411,-0.01297553,0.06967256,-0.03646378,0.05298519
1.022543,-0.04241373,0.04956098,-0.003358412,0.00419173,-0.01134028,0.0613859,-0.03925744,0.05296735
1.027291,-0.04163709,0.04775256,0.00141581,0.005062567,-0.0128748,0.06452247,-0.04008202,0.04187606
1.026825,-0.03932288,0.04679248,0.0009771215,0.007470825,-0.01355864,0.05776907,-0.03934134,0.03035399
1.027275,-0.03605859,0.0443638,0.001454717,0.01082842,-0.01570901,0.04850888,-0.03424953,0.03180485
1.028584,-0.03160957,0.04487047,0.00279087,0.01536934,-0.0149221,0.04367825,-0.02868097,0.02762976
1.025253,-0.03314934,0.04940307,-0.0005119627,0.01391923,-0.0101075,0.02944525,-0.02741759,0.01769257
1.024391,-0.03538613,0.05357655,-0.001346642,0.0117691,-0.005650534,0.0207825,-0.02485837,0.01076552
1.025402,-0.03417543,0.05479493,-0.0003082659,0.01306274,-0.004147639,0.01738091,-0.01945393,0.008349642
1.024725,-0.0352911,0.05829324,-0.0009592236,0.01202569,-0.0003643863,0.008148977,-0.01644165,0.007062252
1.025188,-0.03671128,0.06636427,-0.0004687364,0.01067929,0.007991271,0.002416696,-0.01812404,0.004801022
1.024946,-0.03744029,0.06908151,-0.0006851566,0.01001876,0.01099189,-0.005680344,-0.02041284,0.00724815
1.024889,-0.03719783,0.07046478,-0.0007153561,0.01032406,0.01265614,-0.01990606,-0.01836756,0.006268978
1.025233,-0.03527504,0.07413559,-0.0003459272,0.01230375,0.01660435,-0.0229517,-0.01376739,0.00338788
1.024748,-0.03592581,0.07129488,-0.0008050329,0.01170364,0.0140362,-0.02400106,-0.008991537,0.007281135
1.025164,-0.03576251,0.06847859,-0.0003646012,0.01191106,0.01148649,-0.03599829,-0.005641093,0.01022251
1.024984,-0.03457174,0.06739531,-0.0005189744,0.01313914,0.01066287,-0.03834539,-0.006411066,0.01392515
1.025056,-0.03849561,0.06457245,-0.0004230868,0.009245548,0.008091936,-0.03761259,-0.007516613,0.01722901
1.025554,-0.04163363,0.06663503,9.912043e-05,0.006130654,0.0103981,-0.04421369,-0.008816483,0.01615962
1.023798,-0.04029785,0.06835312,-0.001633124,0.007482432,0.01235086,-0.04278234,-0.01222644,0.01790425
1.021614,-0.0408322,0.06963438,-0.00379441,0.00695705,0.01385729,-0.04403236,-0.01263668,0.01842161
1.021699,-0.04592281,0.07574324,-0.003686622,0.001868551,0.02018121,-0.04575455,-0.01786621,0.02070843
1.023211,-0.05035517,0.07830401,-0.002151739,-0.002568292,0.02294616,-0.04263235,-0.03439202,0.03518406
1.024415,-0.04895631,0.07324774,-0.0009248758,-0.001180018,0.0180824,-0.04470365,-0.04591623,0.05563536
1.027328,-0.04864989,0.06378826,0.002011275,-0.0008897544,0.008803087,-0.03750868,-0.03633531,0.06837495
1.029104,-0.05459058,0.06033141,0.003809171,-0.006851637,0.005513777,-0.02746757,-0.01306269,0.06371295
1.027156,-0.06005357,0.06313345,0.0018832,-0.01234018,0.008470721,-0.02361782,0.01380506,0.05131351
1.022965,-0.06430674,0.06383915,-0.002285732,-0.01662238,0.009318802,-0.01485592,0.04505694,0.02749361
1.008433,-0.06779694,0.07294226,-0.01679665,-0.02014405,0.0185518,-0.007503009,0.04196681,-0.008237849
0.9943749,-0.06007416,0.08223763,-0.03083314,-0.01245403,0.02796432,-0.008344568,-0.005099095,-0.01379865
1.00127,-0.04532212,0.07331826,-0.0239158,0.002264876,0.01914891,-0.01100138,-0.03431659,0.001377731
1.023952,-0.04351304,0.05900654,-0.001208998,0.004040849,0.004927539,0.0002341159,-0.03628651,0.01625105
1.046238,-0.04856598,0.05235694,0.02110425,-0.001045104,-0.00164519,0.008080604,-0.02181523,0.0419016
1.040877,-0.04591925,0.06198611,0.01577251,0.001568695,0.008047889,-0.01140579,-0.007047395,0.02989897
1.021712,-0.04153089,0.0775267,-0.003362357,0.005924233,0.02363988,-0.02599512,-0.01817894,0.002443727
1.024662,-0.0381842,0.07169983,-0.0003816874,0.00923808,0.01785196,-0.01858386,-0.02109127,0.01862555
1.023568,-0.04090047,0.06414294,-0.001444231,0.0064887,0.01032145,-0.01361912,-0.02479194,0.01764969
1.019416,-0.05167212,0.0665829,-0.005565117,-0.004316542,0.01277527,-0.0183724,-0.04041774,0.00553648
1.02714,-0.05807997,0.05960174,0.002190767,-0.01075836,0.005795719,-0.01698607,-0.033843,0.01850925
1.023791,-0.05904618,0.05855255,-0.001126498,-0.01175847,0.004736325,-0.01284991,-0.02536083,0.01692866
1.02379,-0.05567124,0.05851309,-0.001095124,-0.008416755,0.004675418,-0.01510139,-0.01638053,0.01751996
1.025208,-0.04931109,0.05384724,0.0003552241,-0.002088639,-2.248081e-05,-0.00635643,-0.00789047,0.01336741
1.022443,-0.04615229,0.06603172,-0.002376967,0.00103958,0.01212003,0.004380523,-0.01663176,-0.004560942
1.029115,-0.04482818,0.07234331,0.004326985,0.002334608,0.01838017,0.004248762,-0.02065928,0.001873447
1.027727,-0.04666223,0.06580283,0.002970969,0.000472884,0.01177891,0.005254066,-0.02174772,0.003158856
1.02661,-0.04905569,0.06519516,0.001885913,-0.001946895,0.01110127,0.00203974,-0.02356992,-0.001313502
1.027104,-0.0497555,0.06867828,0.002411375,-0.002671696,0.01450541,-0.002265995,-0.02417226,0.006674406
1.021048,-0.04991658,0.07441442,-0.003613777,-0.002856339,0.02015373,-0.0007511931,-0.03059103,0.004539862
1.02332,-0.04667781,0.07210698,-0.001311893,0.0003603749,0.01774967,0.001379435,-0.03351502,0.005811442
1.025747,-0.04678486,0.06741212,0.001145002,0.0002327754,0.01294938,0.00299324,-0.03377591,0.007641081
1.028423,-0.04807429,0.06565783,0.003849482,-0.001075731,0.01108096,0.004633748,-0.03278174,0.00437662
1.029129,-0.04640246,0.06059051,0.004583084,0.000578452,0.00589116,0.008394601,-0.0301006,0.008996066
1.025326,-0.04767908,0.06227404,0.0008066366,-0.0007144286,0.007444341,0.009484121,-0.03175867,0.0128889
1.026146,-0.04725596,0.0630997,0.001652464,-0.0003062215,0.008132319,0.007465055,-0.03384526,0.01793302
1.021822,-0.04661138,0.05880487,-0.002646703,0.0003247428,0.003693032,0.00614383,-0.03339563,0.01872759
1.020787,-0.04656651,0.05802873,-0.003658554,0.0003572422,0.002766233,0.005206912,-0.03288932,0.01604826
1.024292,-0.04327867,0.05847915,-0.0001312654,0.003633865,0.003060477,0.002736588,-0.03440887,0.02124636
1.023633,-0.04297771,0.06181962,-0.0007690543,0.00392461,0.006239898,-0.003547107,-0.03586384,0.0203461
1.029339,-0.0449369,0.06504572,0.004957018,0.001955985,0.009300614,-0.003264948,-0.03509822,0.01737871
1.032318,-0.04582697,0.06650115,0.007956129,0.001057099,0.01058671,0.0003464624,-0.0343717,0.01932999
1.029989,-0.04352069,0.06826291,0.005645379,0.003355054,0.01217541,-0.00495204,-0.03109475,0.01747895
1.031512,-0.04015663,0.06744576,0.00718473,0.006711118,0.01118168,-0.01092868,-0.0245164,0.02011402
1.032316,-0.04179969,0.06333152,0.008003104,0.005060166,0.006887482,-0.01461197,-0.02052962,0.02531629
1.031663,-0.04318153,0.06000161,0.00736271,0.003670264,0.00337454,-0.01619937,-0.01919752,0.02570909
1.029934,-0.04547293,0.06062824,0.005644579,0.001370463,0.003815491,-0.0163449,-0.01777424,0.02733604
1.028691,-0.05031388,0.05812066,0.004408395,-0.003479297,0.001120091,-0.02426778,-0.01807213,0.02785801
1.028233,-0.04986557,0.05639904,0.003955194,-0.003040116,-0.0007909241,-0.03100047,-0.0219494,0.02543742
1.024626,-0.05093882,0.05766175,0.0003511937,-0.004122625,0.0002814161,-0.02496527,-0.02756592,0.02361734
1.020041,-0.056005,0.05172277,-0.004234412,-0.009197929,-0.005848292,-0.01946271,-0.03318218,0.02221163
1.020537,-0.05446862,0.0498061,-0.003741553,-0.007670195,-0.007955318,-0.01900144,-0.03644892,0.02023161
1.025677,-0.05172105,0.05478417,0.001393768,-0.00493043,-0.003166461,-0.0147915,-0.03043644,0.01595901
1.028078,-0.05258024,0.06146612,0.003788027,-0.005796284,0.003328083,-0.01324055,-0.02225423,0.01144653
1.027636,-0.05038337,0.0692835,0.003338268,-0.003604705,0.01096024,-0.01391602,-0.0247391,0.01139719
1.026055,-0.0480556,0.05892289,0.001746633,-0.001280735,0.000416656,-0.01230155,-0.0267592,0.01245155
1.024064,-0.04636571,0.04510085,-0.000255365,0.0004068936,-0.01358592,-0.01579961,-0.02474461,0.007962257
1.025185,-0.0449567,0.05239519,0.0008521561,0.001815095,-0.006469117,-0.01824394,-0.02881252,0.004570792
1.025477,-0.04827103,0.05671075,0.001128839,-0.001498723,-0.002327438,-0.01747444,-0.03016147,0.006925972
1.025278,-0.0493851,0.05400698,0.0009137074,-0.002611043,-0.005200932,-0.01975209,-0.02712492,0.007052746
1.026125,-0.04823779,0.05767997,0.001742548,-0.001460762,-0.001693147,-0.0188856,-0.02671499,0.008247576
1.024476,-0.04986195,0.05723747,7.489888e-05,-0.003080718,-0.002296045,-0.01818606,-0.0226348,0.01051942
1.023786,-0.04972577,0.05515312,-0.0006352385,-0.002939087,-0.004535762,-0.02016403,-0.01893185,0.005538748
1.024154,-0.04830953,0.05346893,-0.000287265,-0.001516103,-0.006370031,-0.01927422,-0.02020908,0.001664708
1.025191,-0.04668251,0.04875447,0.0007273745,0.0001189247,-0.01122896,-0.0195543,-0.01978122,0.003382215
1.028083,-0.04695119,0.05301716,0.003597071,-0.0001405316,-0.00710474,-0.02184676,-0.02054787,0.003068764
1.027896,-0.04907825,0.05768039,0.003386916,-0.002257247,-0.002573601,-0.02380729,-0.02116122,0.001083489
1.025523,-0.04926786,0.05208086,0.0009892634,-0.002435433,-0.00829865,-0.02378236,-0.01869964,0.001643176
1.024647,-0.05038679,0.05060927,8.841064e-05,-0.003541865,-0.009888993,-0.02198702,-0.01930085,0.003691124
1.024841,-0.05028516,0.05457738,0.000257756,-0.003426625,-0.00603263,-0.02023575,-0.01914138,0.005330049
1.025256,-0.04991598,0.05642249,0.0006465434,-0.003042667,-0.004292074,-0.01603942,-0.01729033,0.006820457
1.025107,-0.05339032,0.05520929,0.000470695,-0.006500991,-0.005602578,-0.01145984,-0.0183031,0.007567122
1.025769,-0.05549928,0.05241463,0.001105823,-0.008592566,-0.008487252,-0.008346398,-0.0174549,0.007966848
1.026671,-0.05475023,0.05191176,0.001980467,-0.00782456,-0.009072787,-0.007834727,-0.01545263,0.007466597
1.025127,-0.05159087,0.05343156,0.0004094887,-0.004644438,-0.00762817,-0.007842307,-0.01540807,0.006835994
1.022727,-0.0486745,0.05675811,-0.002018428,-0.001705386,-0.004369253,-0.003504276,-0.01608465,0.009015267
1.022308,-0.04905917,0.05932334,-0.002465283,-0.002065466,-0.001864178,-0.003021809,-0.01709314,0.009626038
1.024812,-0.05140521,0.05845235,1.066936e-05,-0.004385089,-0.002788038,-0.004772282,-0.0137764,0.005133912
1.027487,-0.05560115,0.0579509,0.002658009,-0.008552784,-0.003335296,-0.003491514,-0.008369314,-0.000469095
1.026559,-0.05648081,0.05846382,0.001701994,-0.009402271,-0.002861379,-0.006774979,-0.007605139,-0.002702009
1.025702,-0.05411724,0.05917377,0.0008180711,-0.0070064,-0.002183856,-0.008675617,-0.006307017,-0.00264414
1.026883,-0.05224995,0.06174287,0.001970996,-0.005104509,0.0003591164,-0.005136381,-0.003016624,-0.00384867
1.026517,-0.0490004,0.06393286,0.001578427,-0.001818028,0.002528942,-0.002061262,-0.0021193,-0.005260551
1.027003,-0.05019675,0.0591,0.002037076,-0.002975168,-0.002318538,0.0009653669,-0.002931394,-0.007929417
1.028408,-0.05558448,0.05287254,0.003414691,-0.008321521,-0.008555389,0.005190127,-0.005909477,-0.009100241
1.0273,-0.05769531,0.05547872,0.002280555,-0.01038878,-0.00595347,0.009350868,-0.008691494,-0.004920782
1.025801,-0.05668061,0.05767017,0.0007540428,-0.009328131,-0.003761215,0.009913041,-0.007943765,-0.002766946
1.024708,-0.05282943,0.05792046,-0.0003657639,-0.00542848,-0.003505145,0.0126253,-0.006798578,-0.003434584
1.024613,-0.05011543,0.06256244,-0.0004879066,-0.002663408,0.00114737,0.01808381,-0.00682075,-0.004025067
1.02547,-0.0503634,0.06210151,0.0003421923,-0.002857816,0.0007014397,0.01683838,-0.005872609,-0.006786083
1.024835,-0.04894879,0.0604919,-0.0003202197,-0.001387328,-0.0008890911,0.01797997,-0.004121097,-0.009405744
1.025368,-0.04718802,0.06301528,0.0001860916,0.000431414,0.001657089,0.02262613,-0.002566235,-0.009467233
1.027999,-0.04682847,0.05847288,0.002790888,0.0008507535,-0.002859129,0.02111334,-0.001648824,-0.008453124
1.029722,-0.04641359,0.05234478,0.004488387,0.001326915,-0.008957885,0.02027546,-0.001864026,-0.009351247
1.029042,-0.04562716,0.05381177,0.003781828,0.002175791,-0.007458437,0.01866411,-0.0008366688,-0.009114414
1.025948,-0.04576757,0.06000832,0.0006622295,0.002098647,-0.001226298,0.01468603,-0.0001971905,-0.006633564
1.024307,-0.04723296,0.06531087,-0.001004812,0.0006970071,0.004114867,0.01611552,-0.002324071,-0.006196343
1.02498,-0.04859775,0.06022176,-0.0003574193,-0.0006038152,-0.0009329407,0.01657399,-0.002905561,-0.005352407
1.025179,-0.05069302,0.05413358,-0.0001849199,-0.002635101,-0.006977455,0.01297189,-0.003104091,-0.005681638
1.02499,-0.05151887,0.05963227,-0.0003989319,-0.003397032,-0.00143287,0.01137559,-0.00417969,-0.006614681
1.024863,-0.04859755,0.06320053,-0.0005515139,-0.0004119095,0.00218336,0.01087594,-0.00593608,-0.004340627
1.02494,-0.04624853,0.06171174,-0.0004997299,0.002000717,0.0007443627,0.009352866,-0.01013541,-0.002991779
1.024123,-0.04704802,0.06175882,-0.00134136,0.001264441,0.0008427538,0.005802451,-0.01145007,0.0001758631
1.023189,-0.04761949,0.05929244,-0.00229932,0.0007555854,-0.00157111,0.00335867,-0.01037701,0.005223754
1.023696,-0.0460075,0.05916856,-0.001815652,0.002429408,-0.001641455,0.004979543,-0.01125937,0.006855744
1.023868,-0.04545114,0.06231907,-0.001666557,0.003046614,0.001563428,0.005197944,-0.01441188,0.006962694
1.024764,-0.04609141,0.06212977,-0.0007924793,0.002465974,0.001429125,0.002088683,-0.02036644,0.008012378
1.026952,-0.04569689,0.06225083,0.001374129,0.002918698,0.001605551,-0.003349879,-0.02298419,0.01231619
1.027483,-0.04550886,0.06387184,0.001885398,0.003163301,0.003282041,-0.009956317,-0.02073196,0.016011
1.02617,-0.04411382,0.06631908,0.0005528762,0.004613082,0.005784555,-0.01350325,-0.01894846,0.01468285
1.025396,-0.04236809,0.06901897,-0.0002402201,0.006411507,0.008539152,-0.01668102,-0.01652543,0.01172746
1.024174,-0.04282539,0.06683577,-0.001479848,0.006004571,0.006409641,-0.01875925,-0.01364665,0.009170845
1.021295,-0.04246053,0.06486323,-0.004375955,0.006417191,0.004489335,-0.01720184,-0.01509825,0.008383064
1.02167,-0.04121891,0.06626429,-0.004017317,0.007703693,0.005940837,-0.01974188,-0.01880946,0.00900026
1.023205,-0.04171777,0.06496673,-0.00249714,0.007246574,0.004691653,-0.02343124,-0.02074175,0.008770053
1.021828,-0.04305808,0.06535759,-0.0038881,0.005944591,0.005128554,-0.02380475,-0.02277997,0.007717375
1.023228,-0.04404165,0.06611343,-0.00250071,0.004995754,0.005927898,-0.02373321,-0.0205834,0.00669845
1.025263,-0.04476781,0.06233243,-0.0004772012,0.004300604,0.002187654,-0.02021574,-0.01564993,0.006208072
1.02484,-0.04454777,0.06217171,-0.0009090816,0.004547863,0.00206484,-0.0189777,-0.01685938,0.005917525
1.025213,-0.04413682,0.06423492,-0.0005449782,0.004982224,0.00416305,-0.02052971,-0.01722731,0.004781848
1.0249,-0.04485394,0.06831694,-0.000865048,0.004284672,0.008277105,-0.01840234,-0.01523312,0.000746421
1.024893,-0.04567552,0.07555802,-0.0008769712,0.003478802,0.01554702,-0.01625371,-0.01581518,-0.002720256
1.025259,-0.0477263,0.07353809,-0.0005158865,0.001439939,0.0135523,-0.01149201,-0.01476774,-0.002474946
1.024727,-0.04949722,0.06739748,-0.001050869,-0.0003227522,0.007432805,-0.007663593,-0.01272106,-0.006449208
1.025695,-0.04826243,0.06507795,-8.505857e-05,0.0009167817,0.005130011,-0.007670837,-0.009030073,-0.01415597
1.02769,-0.04727198,0.06180275,0.001909322,0.001908685,0.001867072,-0.003406012,-0.004836596,-0.01480369
1.029833,-0.04638606,0.05889882,0.004052854,0.00279295,-0.001028942,0.0004535595,-0.00155659,-0.01261791
1.029698,-0.04526177,0.0560849,0.003918975,0.003912578,-0.003839025,0.004511018,0.007304083,-0.01423572
1.028365,-0.04596055,0.05710491,0.002587314,0.003206198,-0.002818864,0.01095402,0.01429708,-0.01257364
1.028662,-0.04619467,0.05991042,0.002885731,0.002961587,-1.649753e-05,0.01081213,0.01125962,-0.008991015
1.0245,-0.04648006,0.05729196,-0.001274072,0.002662919,-0.00264105,0.009502063,0.008943833,-0.009213543
1.018608,-0.04764567,0.05626809,-0.007163631,0.001481316,-0.00367362,0.01316983,0.01034721,-0.007816594
1.01881,-0.04731281,0.05579074,-0.006959335,0.001795607,-0.004161939,0.01456578,0.006982981,-0.005321215
1.020417,-0.04783057,0.05405257,-0.005349254,0.00125686,-0.005912939,0.01296354,0.002800753,-0.005036147
1.021066,-0.05189058,0.05367944,-0.004696102,-0.002826386,-0.006300319,0.01122864,0.001702983,-0.004307588
1.02261,-0.05514554,0.05024352,-0.003147513,-0.006106533,-0.00975145,0.009043166,-0.002981812,-0.003776683
1.023004,-0.05228184,0.04900852,-0.002747063,-0.003269576,-0.01100208,0.01132635,-0.006390763,-0.004865648
1.023507,-0.04724843,0.04747011,-0.002237121,0.001735902,-0.01255596,0.01744995,-0.003899804,-0.007131914
1.025681,-0.04662627,0.04310532,-5.395625e-05,0.002329159,-0.0169354,0.02107158,-0.002151261,-0.008110468
1.025447,-0.04734556,0.04857027,-0.0002788284,0.00158008,-0.01148356,0.02329191,-0.001912695,-0.00524248
1.024222,-0.0458691,0.05628874,-0.001492284,0.003025899,-0.003776097,0.02383607,-0.003458596,-0.001515791
1.025449,-0.04381695,0.05769718,-0.0002534239,0.005046575,-0.002376274,0.02121713,-0.006758556,-0.001090392
1.025608,-0.04275364,0.05840637,-8.15583e-05,0.006077514,-0.00167324,0.0187641,-0.008861799,-0.001276716
1.027257,-0.04478268,0.05566557,0.001580751,0.004015096,-0.004417769,0.02177502,-0.009180975,4.476757e-05
1.030455,-0.04609129,0.05382073,0.00479345,0.002672025,-0.006263909,0.0267471,-0.007886723,-0.0008561553
1.029215,-0.04209925,0.05878053,0.003568735,0.006628482,-0.001302925,0.02362758,-0.007036119,-0.001819611
1.028171,-0.03906935,0.06299869,0.002539829,0.009621577,0.002918884,0.01712957,-0.005932087,-0.002692249
1.02775,-0.04124957,0.06154604,0.002133413,0.007403158,0.001472145,0.01417011,-0.004702135,-0.005495321
1.024754,-0.04350783,0.05836966,-0.0008476737,0.005105093,-0.001696301,0.01471711,-0.006307029,-0.004839244
1.024416,-0.04301041,0.05731493,-0.001170559,0.005561002,-0.002741237,0.01672529,-0.009469254,-0.00425535
1.025168,-0.04270866,0.05680026,-0.0004039738,0.005819457,-0.003244323,0.01452814,-0.01187142,-0.004666058
1.023035,-0.0422508,0.05536953,-0.00252284,0.006232216,-0.004661677,0.01217359,-0.01159367,-0.002498792
1.021927,-0.03992178,0.05388849,-0.003616302,0.008514241,-0.006127513,0.01093816,-0.01210793,-0.003460381
1.024539,-0.03818027,0.05600231,-0.0009906292,0.01020676,-0.003996575,0.008595266,-0.01497841,-0.004098752
1.028488,-0.03715845,0.06100839,0.002972942,0.01117737,0.001028568,0.007762752,-0.01348199,-0.003591985
1.029847,-0.03754143,0.06187023,0.004345409,0.01074075,0.0019113,0.004051602,-0.01078526,-0.004846635
1.02817,-0.03958617,0.06173364,0.002682483,0.008639706,0.001797212,0.0004239541,-0.01005467,-0.003782082
1.027024,-0.03986383,0.06294938,0.001550213,0.008302922,0.003036791,-0.002572001,-0.00743788,-0.004661456
1.026876,-0.03946395,0.0623704,0.001414482,0.008640786,0.002482679,-0.007726153,-0.007282324,-0.005920158
1.025365,-0.0397719,0.06305447,-8.372103e-05,0.008267854,0.003192391,-0.008284176,-0.008511183,-0.005502391
1.024407,-0.04027545,0.065387,-0.001030659,0.007696321,0.005551022,-0.008992956,-0.00726932,-0.006351459
1.025582,-0.04060655,0.06845052,0.0001557834,0.007294239,0.008640769,-0.01014885,-0.007969703,-0.002356055
1.026897,-0.04039691,0.07009263,0.001481127,0.007429909,0.01030879,-0.008668316,-0.00865652,0.001449516
1.02809,-0.04169255,0.07075989,0.002684173,0.006057358,0.01100113,-0.01020614,-0.007714115,-0.001982646
1.02817,-0.04201021,0.0717164,0.00277236,0.005659939,0.01198131,-0.01093659,-0.007095871,-0.005613867
1.027313,-0.03936847,0.06526718,0.001923748,0.008219146,0.005553864,-0.01293612,-0.004459586,-0.006899313
1.027919,-0.03869963,0.05820522,0.002537309,0.008802766,-0.001488549,-0.01666918,-0.00261505,-0.01030043
1.027617,-0.04080163,0.06106687,0.002241976,0.006612863,0.001390374,-0.01541489,-0.004334886,-0.01476017
1.02566,-0.04244885,0.06343017,0.0002898493,0.004875113,0.003768715,-0.01556323,-0.005595043,-0.01475028
1.024703,-0.04201361,0.0612751,-0.000662878,0.005217326,0.001626478,-0.01703125,-0.0041653,-0.01286999
1.024734,-0.03897553,0.059937,-0.0006287536,0.008160018,0.0002990278,-0.01379707,-0.001444224,-0.01163928
1.025109,-0.03495672,0.05790639,-0.0002514608,0.01208115,-0.001723059,-0.01063905,0.0002535682,-0.009872902
1.024116,-0.03397844,0.05748201,-0.001242387,0.0129594,-0.002140863,-0.009667142,-0.0008936146,-0.01110724
1.023783,-0.03697301,0.05927276,-0.001574049,0.009862262,-0.0003452894,-0.008347265,-0.002746559,-0.01460491
1.027392,-0.03815128,0.05806859,0.002034982,0.008578802,-0.0015462,-0.01024692,-0.0005534514,-0.0165154
1.0303,-0.03606901,0.05842832,0.004942402,0.01055321,-0.001184624,-0.01414053,0.00265829,-0.0168611
1.02944,-0.03493248,0.06192377,0.004081871,0.01157921,0.002311399,-0.01204459,0.003678942,-0.01664786
1.028149,-0.03451552,0.06383137,0.002789008,0.01188289,0.004218351,-0.01009537,0.005718836,-0.01310396
1.027656,-0.03498497,0.06550148,0.002293552,0.01129733,0.005886531,-0.01242544,0.006320702,-0.008754061
1.026254,-0.03694272,0.06407923,0.0008878153,0.009220572,0.004460925,-0.01203075,0.005568031,-0.008373607
1.02661,-0.03871937,0.05872104,0.00123822,0.007322044,-0.0009021463,-0.01241778,0.00490689,-0.003462346
1.028808,-0.03944633,0.05502053,0.003431208,0.006470441,-0.004609039,-0.01360125,0.002255363,0.001553472
1.027284,-0.03866373,0.05884112,0.001900116,0.007125796,-0.0007961039,-0.01225246,0.002850805,-0.002528259
1.025459,-0.03871296,0.06548636,6.704285e-05,0.006946911,0.005840396,-0.01314453,0.005196643,-0.006165919
1.02515,-0.03924613,0.06213059,-0.0002508418,0.00628184,0.002474798,-0.01395645,0.004883871,-0.009389903
1.024332,-0.03859645,0.05879965,-0.001079196,0.006797553,-0.0008670695,-0.01297263,0.004950226,-0.01265083
1.025648,-0.03880059,0.06005225,0.0002268813,0.006457565,0.0003735112,-0.01186933,0.001628495,-0.01336246
1.025792,-0.03775356,0.05704988,0.0003594277,0.007367031,-0.002641833,-0.008793495,-0.002580114,-0.01817054
1.025439,-0.03449909,0.05797917,-5.542114e-06,0.01048234,-0.001726306,-0.007564874,0.0003215174,-0.0234005
1.026679,-0.03143029,0.05858892,0.001222167,0.01341039,-0.001130919,-0.008178964,0.004065098,-0.02589445
1.027764,-0.03134447,0.05916212,0.002293902,0.0133538,-0.0005725375,-0.004348579,0.005445182,-0.02703334
1.029959,-0.03479323,0.06611782,0.004475799,0.009760815,0.006367979,0.0003623024,0.008548945,-0.02646713
1.028157,-0.03419449,0.0641098,0.002658917,0.01021345,0.004344334,0.001213512,0.009856182,-0.02590763
1.024826,-0.03203158,0.05821166,-0.0006870796,0.01222836,-0.001569983,0.004085237,0.00929753,-0.02064465
1.025164,-0.03494944,0.05745212,-0.0003646294,0.009160582,-0.002346242,0.01057915,0.009703729,-0.01543897
1.024316,-0.03528707,0.05534271,-0.001228181,0.008671148,-0.004472767,0.01305343,0.007279856,-0.01295067
1.023319,-0.03417738,0.05633434,-0.00224203,0.009627191,-0.0034984,0.01344195,0.003807298,-0.005557182
1.021948,-0.03615356,0.05783404,-0.003630159,0.007495635,-0.002015864,0.01863449,0.0001848496,-0.003444323
1.021155,-0.03620538,0.05720728,-0.004439688,0.007286809,-0.002659509,0.02362985,-0.006856161,-0.002132554
1.0213,-0.03550609,0.05792872,-0.004311008,0.007827632,-0.001954506,0.02430999,-0.01055725,0.005522927
1.018504,-0.03360638,0.05604407,-0.007122978,0.009567536,-0.003855025,0.02459443,-0.01164222,0.005698823
1.019561,-0.03120024,0.05256233,-0.006081329,0.01181261,-0.00735187,0.02499267,-0.01716561,0.0104891
1.023289,-0.0338517,0.04905189,-0.002368386,0.008998836,-0.01087638,0.02529624,-0.0219586,0.01925463
1.024534,-0.03667692,0.04734411,-0.001136276,0.006010075,-0.01259676,0.02898731,-0.02459849,0.01628245
1.025842,-0.0361961,0.04940073,0.0001597736,0.006326279,-0.01055079,0.0343308,-0.02693898,0.01639968
1.02473,-0.03556137,0.04970663,-0.0009627878,0.006795484,-0.0102531,0.03489682,-0.02605283,0.0192953
1.024788,-0.0342239,0.05002658,-0.0009134989,0.007966711,-0.009938526,0.03164435,-0.02355425,0.01874672
1.026577,-0.03213092,0.05207886,0.0008667098,0.009892834,-0.007888479,0.02818544,-0.02287447,0.01914698
1.02611,-0.03170042,0.05146394,0.000393497,0.01015592,-0.00850225,0.0227844,-0.02358164,0.01729696
1.025959,-0.03131649,0.0512618,0.0002359304,0.01037186,-0.008699648,0.01550017,-0.02489727,0.01780165
1.022811,-0.02846403,0.05286678,-0.002917061,0.01305571,-0.007086209,0.0079018,-0.02898462,0.01888672
1.019608,-0.02818589,0.05526954,-0.006123764,0.01316455,-0.004671144,0.002540351,-0.03260053,0.017003
1.022283,-0.02931658,0.05856639,-0.003451164,0.0118637,-0.001358185,0.000926395,-0.03056174,0.01319998
1.025839,-0.02704787,0.05910103,0.0001035004,0.01396127,-0.0008037762,-0.003067557,-0.02578217,0.002495768
1.028784,-0.02743525,0.05837379,0.003047718,0.01340165,-0.001507831,-0.007618407,-0.02093378,-0.007557687
1.03281,-0.02876011,0.06094955,0.007074762,0.0119033,0.001094275,-0.005430486,-0.01655161,-0.01081239
1.036711,-0.02784637,0.06366117,0.01097791,0.01264221,0.003835084,-0.003625005,-0.008819929,-0.01524533
1.036254,-0.02873794,0.06309425,0.01052263,0.01157442,0.003299793,-0.004744896,0.004730061,-0.02230121
1.031663,-0.02730827,0.06473785,0.005933103,0.01282642,0.004977035,-0.003365148,0.014401,-0.02362521
1.029362,-0.02416876,0.06889779,0.003633631,0.01578676,0.009172143,-0.005708566,0.01629225,-0.01931787
1.028294,-0.02224674,0.06743866,0.00256585,0.01752797,0.007749157,-0.01091403,0.01524143,-0.01821703
1.025586,-0.01994687,0.06198497,-0.0001431972,0.01964513,0.002332035,-0.01049302,0.01221277,-0.01742411
1.02332,-0.02135583,0.05851735,-0.002411142,0.01805128,-0.001098968,-0.01017571,0.0108352,-0.0152416
1.023279,-0.02502919,0.05938314,-0.002454591,0.01419057,-0.0001966926,-0.0109967,0.0130674,-0.01630331
1.024022,-0.02698468,0.06257196,-0.00171502,0.01204513,0.003028401,-0.008675329,0.01445416,-0.0183343
1.023399,-0.02662497,0.06266761,-0.002341836,0.0122123,0.003159934,-0.01072089,0.01474568,-0.01962787
1.024267,-0.0242356,0.06230868,-0.001477712,0.01440661,0.002836311,-0.01956774,0.01541947,-0.01835839
1.027432,-0.02503257,0.06299506,0.001682309,0.01341209,0.003557195,-0.02963805,0.01594204,-0.0155474
1.029971,-0.02745424,0.06304507,0.00421723,0.01079042,0.003640705,-0.03669741,0.01622055,-0.01157006
1.029784,-0.02804467,0.06399809,0.00402502,0.00999762,0.004626024,-0.04184412,0.0160428,-0.007494915
1.027774,-0.02933,0.06191768,0.002010109,0.008507759,0.002576497,-0.04593542,0.01717786,-0.01025052
1.026771,-0.03098825,0.05847142,0.001000399,0.00664304,-0.0008404286,-0.04486112,0.01855693,-0.01363417
1.024728,-0.03253876,0.05890933,-0.001048447,0.004884456,-0.0003747571,-0.04356576,0.01821486,-0.01336292
1.024919,-0.03205917,0.05999906,-0.0008645903,0.005154743,0.0007411937,-0.03841008,0.01862964,-0.01338912
1.027262,-0.03042023,0.06068367,0.001470187,0.006583518,0.001450521,-0.02780071,0.01963387,-0.01127069
1.02338,-0.03070693,0.06304491,-0.002419207,0.006086151,0.003834949,-0.02636867,0.01951907,-0.009173093
1.020825,-0.03061414,0.0666953,-0.004983253,0.005968052,0.00750688,-0.02460427,0.01661379,-0.005418499
1.022972,-0.0313547,0.06776548,-0.002844628,0.005016666,0.008596744,-0.02108965,0.009453317,-0.0008111778
1.023072,-0.03214692,0.06727365,-0.002751936,0.004013995,0.008122424,-0.02465222,0.001953968,-0.0005526816
1.023939,-0.02995268,0.06689013,-0.001893387,0.00599844,0.007753933,-0.02301823,-0.0003575754,0.004892129
1.024756,-0.02805051,0.06082363,-0.001083966,0.007691729,0.001699748,-0.02375275,0.001500666,0.01369013
1.025266,-0.02640878,0.05665628,-0.0005813481,0.009125647,-0.002458071,-0.02896534,0.0016126,0.01617806
1.026814,-0.0248013,0.06133011,0.0009609098,0.01052643,0.002222651,-0.03027664,0.0007685024,0.01929009
1.026205,-0.02638963,0.06336969,0.00034514,0.008732542,0.004266621,-0.0352272,0.002160992,0.02334935
1.024578,-0.02878498,0.05959236,-0.001286952,0.006132763,0.0004912188,-0.0373093,0.002849995,0.0237514
1.023622,-0.02847087,0.05779292,-0.00224826,0.006243664,-0.00130867,-0.03476995,0.002591531,0.02304103
1.023703,-0.02993167,0.06196234,-0.002171787,0.004581007,0.002858078,-0.03162712,0.002662609,0.02075932
1.024327,-0.03437655,0.06525673,-0.001552087,-6.415414e-05,0.00614765,-0.02485427,0.002439034,0.01758064
1.026959,-0.03476141,0.06190462,0.001076169,-0.0006474327,0.002788573,-0.02117534,0.001436944,0.01302688
1.030578,-0.03412605,0.05997347,0.004692865,-0.0002082201,0.0008482842,-0.01984657,-0.001484354,0.005358173
1.029214,-0.03541416,0.06165292,0.003326407,-0.001689802,0.002516478,-0.0120448,-0.003202033,-0.001053
1.027047,-0.03439408,0.06219781,0.001157506,-0.0008601476,0.003048078,-0.0006487224,-0.0009280593,-0.001510364
1.026374,-0.03386925,0.06248035,0.0004818072,-0.0005223419,0.003315348,0.0038177,0.00253949,0.006013102
1.024196,-0.03104186,0.06361872,-0.001697438,0.002121724,0.004436476,0.007379724,0.003973754,0.01247847
1.024763,-0.02494954,0.06577106,-0.001132286,0.008034562,0.006569578,0.01441456,0.003388078,0.009272515
1.025665,-0.02401141,0.06537667,-0.000232053,0.008797029,0.006153887,0.01490435,0.004810644,0.005281677
1.024494,-0.02551417,0.06018444,-0.001405251,0.007122225,0.0009382187,0.01830146,0.008371566,0.004091407
1.025116,-0.02500808,0.05982674,-0.0007844912,0.007459716,0.0005549801,0.01932959,0.00994092,0.004175505
1.025203,-0.02481093,0.06574596,-0.0006983958,0.007491508,0.006446666,0.009031429,0.009030221,0.006552239
1.024686,-0.02546562,0.06650525,-0.001216069,0.006674563,0.007176471,0.005190522,0.008124892,0.006361951
1.025415,-0.02682779,0.06538437,-0.0004870337,0.005153095,0.006024065,0.00238601,0.009119418,0.005560469
1.025825,-0.02819804,0.0658177,-7.716922e-05,0.003626417,0.006423718,0.001334945,0.01022745,0.004748066
1.026395,-0.02809787,0.06462772,0.0004930881,0.003573022,0.00519784,0.00677894,0.01096032,0.0008915591
1.025768,-0.02716351,0.06675086,-0.0001337865,0.004356695,0.007282817,0.007872896,0.01196368,-0.0004274493
1.024367,-0.02683854,0.06813211,-0.001533601,0.004533849,0.008623569,0.01324307,0.01074543,0.0007941054
1.025071,-0.02542634,0.06748448,-0.0008295233,0.005801065,0.00793298,0.01565289,0.007548968,0.002343544
1.025268,-0.02427928,0.06784735,-0.000630765,0.00680589,0.00825032,0.01511811,0.004994934,0.006372455
1.024517,-0.02535485,0.06569847,-0.00138018,0.005590719,0.006053237,0.02171493,0.004829436,0.01304442
1.024273,-0.02559589,0.06499059,-0.00162152,0.005212603,0.005294452,0.01816798,0.003699669,0.01834741
1.023341,-0.02738462,0.06189276,-0.002551349,0.003289219,0.002143049,0.01444039,0.0005495919,0.01479175
1.023391,-0.03012591,0.05687997,-0.002498654,0.000415699,-0.002925788,0.01828367,0.0006568661,0.01046932
1.023958,-0.02821808,0.05870486,-0.001927814,0.002193782,-0.001159118,0.01525505,-0.0006069044,0.01488026
1.023411,-0.02601163,0.06081257,-0.002471225,0.004273055,0.0008885986,0.01064168,-0.001841584,0.01690234
1.023598,-0.0266137,0.06205686,-0.002278994,0.003546377,0.002071409,0.004400876,0.003854118,0.01538154
1.023761,-0.02732336,0.06327843,-0.002110171,0.002714661,0.003230226,-0.0002115108,0.005518629,0.01432582
1.02362,-0.02797258,0.06207755,-0.00224482,0.001945917,0.001965456,0.002054537,0.003923082,0.007639085
1.024605,-0.02795942,0.06268529,-0.001253282,0.0018421,0.002508304,0.001711111,0.01007795,0.002671634
1.025269,-0.02789057,0.06379603,-0.0005809672,0.00179656,0.003553268,0.0008947281,0.01570697,0.004298537
1.025037,-0.02965427,0.06515304,-0.0008041966,-7.890556e-05,0.004843701,0.001459783,0.01604958,0.003904193
1.024886,-0.03100653,0.06833478,-0.0009458914,-0.001540217,0.007958068,-0.001886041,0.01834557,0.002852265
1.025209,-0.02936236,0.07200745,-0.0006130903,-2.273359e-06,0.01156248,-0.005073696,0.02069816,0.003891694
1.025781,-0.02716322,0.07443327,-2.942749e-05,0.002093578,0.01391889,-0.004672708,0.01736142,0.003276492
1.025674,-0.02717982,0.07204244,-0.0001252877,0.001976635,0.01145717,-0.004561816,0.01589442,0.00327616
1.024708,-0.02702783,0.06951785,-0.001079171,0.002031221,0.008859881,-0.007970789,0.02279551,0.004512518
1.023809,-0.02459867,0.0713264,-0.001965854,0.004365823,0.0105937,-0.01308423,0.02758461,0.003227488
1.023759,-0.02447744,0.07247468,-0.002002933,0.004395259,0.01166505,-0.02000035,0.02257177,0.00166879
1.024415,-0.02761853,0.07374866,-0.001333011,0.00116497,0.0128597,-0.0285985,0.01414108,0.0005708721
1.025274,-0.02836582,0.0747096,-0.0004599724,0.0003310179,0.01373865,-0.03387851,0.01074905,-4.373676e-05
1.025225,-0.02860925,0.06876125,-0.0004944937,3.436605e-06,0.007705461,-0.03693911,0.01297319,0.0005619177
1.024654,-0.03034103,0.06283725,-0.001049887,-0.001809921,0.001693681,-0.03841362,0.01486823,-0.001579699
1.024801,-0.03041654,0.06538714,-0.0008876202,-0.001964353,0.004153008,-0.03594226,0.01374732,-0.004923255
1.022958,-0.03153834,0.06833099,-0.002714063,-0.00316232,0.007003764,-0.0354856,0.01204819,-0.0083872
1.019639,-0.03401696,0.06811667,-0.006017253,-0.005714173,0.00669398,-0.03751401,0.01182123,-0.0084971
1.01892,-0.03363778,0.07058619,-0.0067186,-0.005405107,0.009065755,-0.03948961,0.01100212,-0.000400315
1.019724,-0.03184705,0.07419072,-0.005896992,-0.003681129,0.01257025,-0.04428363,0.006971955,0.00326656
1.020846,-0.03179307,0.07440534,-0.004756496,-0.00369038,0.01268244,-0.04715535,0.001187117,0.00211968
1.022952,-0.03285951,0.06882294,-0.002630751,-0.004816392,0.006995103,-0.04956412,-0.002539461,0.007810745
1.025122,-0.03532197,0.06194285,-0.0004393066,-0.007334627,7.544725e-06,-0.05740452,-0.003737879,0.01248898
1.025428,-0.038692,0.0631014,-0.0001104883,-0.01075645,0.00105637,-0.06179454,-0.005277651,0.01065271
1.02464,-0.03798114,0.06597161,-0.0008753959,-0.01009309,0.003814962,-0.06041164,-0.00409169,0.008098927
1.025104,-0.03648383,0.06563287,-0.0003875056,-0.008638654,0.003363048,-0.0604251,-0.000546856,0.00721376
1.024941,-0.03830806,0.06884563,-0.0005252268,-0.01050086,0.006461301,-0.05819733,-0.001508433,0.003705384
1.023888,-0.03930192,0.06939689,-0.001552362,-0.01152754,0.006896874,-0.05000951,-0.005735527,-0.002227594
1.023534,-0.04317715,0.0684543,-0.001879652,-0.01543014,0.005837513,-0.03977146,-0.01043616,-0.003625274
1.02341,-0.04800654,0.07143167,-0.001976413,-0.02028104,0.008697068,-0.02894866,-0.01223834,-0.005548487
1.023974,-0.04673296,0.06758181,-0.001384909,-0.0190226,0.004728402,-0.01973463,-0.01161869,-0.01165338
1.024511,-0.04657613,0.06309368,-0.0008191255,-0.01887397,0.0001205678,-0.01326225,-0.0131377,-0.01356364
1.025095,-0.04667385,0.06581156,-0.0002066421,-0.01897244,0.002718072,-0.005264031,-0.00938165,-0.0111885
1.025866,-0.03893649,0.06573575,0.0005930696,-0.01122802,0.002521485,0.003641665,-0.002015148,-0.009616683
1.027327,-0.03022883,0.06465593,0.002084192,-0.002505321,0.001320752,0.01165124,0.0002921987,-0.007185812
1.030095,-0.02902232,0.06564294,0.004881231,-0.001276026,0.002186935,0.01220988,0.001982388,-0.002902447
1.029285,-0.0314169,0.06521535,0.004100871,-0.003640541,0.001638833,0.004342691,0.001179981,0.0008754913
1.026117,-0.03071659,0.06392109,0.0009616759,-0.002903351,0.0002246093,0.002769169,-0.001933318,0.005758003
1.024607,-0.02990694,0.05915646,-0.0005193317,-0.002050472,-0.004659176,0.001601898,-0.001656609,0.008671165
1.023057,-0.03145312,0.05481978,-0.002042422,-0.003547499,-0.009113792,3.915076e-05,-0.003806559,0.005650348
1.024294,-0.03238569,0.06106948,-0.0007780836,-0.004425407,-0.002980308,0.006401308,-0.008705773,0.003622377
1.026137,-0.03452867,0.06866931,0.001090994,-0.006508555,0.004505474,0.003949883,-0.01040404,0.003434385
1.025606,-0.03525858,0.06493054,0.0005863135,-0.007173709,0.0006549875,0.002311671,-0.01064922,0.00159716
1.027863,-0.03193682,0.06174079,0.002868203,-0.003782503,-0.002644059,0.009316943,-0.01003919,-0.0009608566
1.030281,-0.02990314,0.06351423,0.00531083,-0.001674954,-0.0009773627,0.01065151,-0.005047123,-0.006233624
1.030266,-0.02942069,0.06182648,0.005319153,-0.001114561,-0.002769119,0.01686395,0.001145999,-0.01184796
1.028234,-0.02987275,0.06236184,0.003309238,-0.001485029,-0.002334829,0.02590832,0.002449726,-0.01505887
1.022434,-0.03045323,0.06345174,-0.002469962,-0.001980701,-0.001342898,0.03513935,0.003436534,-0.01969433
1.01946,-0.0302773,0.06251541,-0.005425125,-0.001717105,-0.002373935,0.04502988,0.007557323,-0.02383053
1.021864,-0.03192192,0.06538198,-0.003003088,-0.003271553,0.0004012979,0.04411253,0.008661639,-0.02486397
1.023163,-0.03220401,0.06761981,-0.001686658,-0.003461264,0.002551191,0.04770799,0.007391783,-0.02626619
1.023226,-0.03161818,0.06965982,-0.001608401,-0.002781102,0.004506582,0.05538347,0.009195706,-0.02652583
1.025448,-0.03229826,0.06971494,0.0006292227,-0.003365136,0.004480227,0.05289695,0.01183341,-0.02576445
1.027381,-0.03168476,0.06615571,0.002577381,-0.002654097,0.0008424684,0.05064847,0.0123372,-0.02500384
1.026042,-0.03199339,0.06678229,0.001252563,-0.002863925,0.001393325,0.04942503,0.01205525,-0.02228508
1.024931,-0.03176708,0.06611286,0.000154618,-0.002537766,0.0006509036,0.04727236,0.009851951,-0.02166418
1.024315,-0.02966467,0.06501002,-0.0004487628,-0.0003346862,-0.0005222287,0.04603586,0.004249126,-0.01972059
1.023132,-0.02731727,0.0677047,-0.00162046,0.002113938,0.002104813,0.0428173,-0.00141355,-0.0158022
1.024606,-0.02355156,0.06905973,-0.0001351236,0.005981037,0.003394803,0.04112044,-0.002822653,-0.01519208
1.025577,-0.02124078,0.0726061,0.0008459762,0.008392889,0.006878578,0.04143711,-0.00290422,-0.01257934
1.024706,-0.02161451,0.07313277,-1.485138e-05,0.008119308,0.007344825,0.03918309,-0.005820167,-0.01005374
1.02506,-0.02382866,0.06986027,0.0003479046,0.006003774,0.004013768,0.03553995,-0.003295303,-0.008928238
1.025051,-0.02729754,0.07056676,0.0003471336,0.002631483,0.004663287,0.03517056,0.002014332,-0.009575483
1.024915,-0.03006734,0.07053587,0.0002186339,-4.408955e-05,0.004576804,0.03348953,-0.001299868,-0.01388632
1.025802,-0.0310174,0.0734805,0.00111338,-0.0009024684,0.007467031,0.02257791,-0.003426213,-0.01365411
1.028495,-0.02841079,0.07765919,0.003812854,0.001793225,0.01159223,0.007944528,-0.00410253,-0.01363467
1.030989,-0.02563446,0.07609462,0.006311764,0.004655911,0.009974694,-0.005572428,-0.008361306,-0.01471833
1.027388,-0.02512819,0.07531508,0.002716142,0.005245633,0.009142298,-0.0230322,-0.005289226,-0.01186964
1.023061,-0.02539737,0.07335061,-0.001607772,0.005056749,0.007124725,-0.04293187,-0.0002973249,-0.01016524
1.025206,-0.02661743,0.0734313,0.0005403018,0.003913583,0.007151814,-0.06238834,0.0005951101,-0.006268832
1.026835,-0.02413835,0.08094331,0.002170591,0.006465936,0.01460946,-0.08345481,0.004781577,-0.004282587
1.025833,-0.01886086,0.08371806,0.001169123,0.01181284,0.01732872,-0.1039125,0.01600654,-0.006298724
1.02654,-0.01777887,0.0843531,0.001875499,0.01296,0.0179066,-0.1272346,0.03003287,-0.009439223
1.025607,-0.02061812,0.09011533,0.0009416955,0.01018124,0.02360934,-0.1465406,0.03334676,-0.02282181
1.024127,-0.02342944,0.08644935,-0.0005412355,0.007425297,0.01988084,-0.1468589,0.03179767,-0.03884016
1.023548,-0.02171683,0.07544452,-0.001123566,0.009187937,0.008809814,-0.1516947,0.02691281,-0.04521247
1.018504,-0.01724833,0.07473268,-0.006171173,0.01370089,0.008027824,-0.1669987,-0.0003707131,-0.04810764
1.013232,-0.01286316,0.08298494,-0.01144838,0.0181246,0.01620587,-0.1714399,-0.0201444,-0.05867012
1.014507,-0.005771487,0.09925635,-0.01017782,0.02524841,0.03239879,-0.1873121,0.0008881487,-0.07389651
1.021729,0.003098781,0.112407,-0.002959632,0.03414361,0.0454659,-0.2132446,0.03143857,-0.07985737
1.030855,0.01060717,0.1043257,0.006162472,0.04166867,0.03729475,-0.2319527,0.04326221,-0.08023676
1.033861,0.01150957,0.09435131,0.009165876,0.04257811,0.02722294,-0.2548632,0.04032332,-0.0777468
1.030174,0.008911267,0.09440584,0.005476404,0.0399758,0.02717154,-0.2661352,0.03520539,-0.06869799
1.027512,0.007216358,0.09283837,0.002811469,0.03826453,0.02548912,-0.273302,0.0360782,-0.05894756
1.025935,-0.003287472,0.09322706,0.001232005,0.02773097,0.02575342,-0.284785,0.03493017,-0.0483913
1.021635,-0.0129782,0.09451754,-0.003071308,0.01799653,0.02690977,-0.2760869,0.02528255,-0.04191681
1.014293,-0.0120778,0.09549169,-0.01041721,0.01883913,0.02773975,-0.2704538,0.004315558,-0.03670267
1.004551,-0.0154829,0.09945439,-0.02016255,0.01536232,0.03154795,-0.2745215,-0.02424924,-0.02410899
1.000214,-0.02507427,0.1005303,-0.02450177,0.005685722,0.03245866,-0.2659734,-0.04440327,-0.01153238
1.002147,-0.03715591,0.09856199,-0.0225693,-0.006493923,0.03031409,-0.2566902,-0.06787857,0.004664807
1.000347,-0.04725484,0.09229928,-0.02436692,-0.01670243,0.02386375,-0.2436299,-0.1086195,0.01539308
1.003274,-0.05083771,0.08381827,-0.0214337,-0.02040474,0.01518373,-0.215086,-0.1430847,0.01263272
1.013801,-0.05245546,0.08427313,-0.01089487,-0.02214988,0.01542851,-0.1843344,-0.1614174,0.01543788
1.020164,-0.05390367,0.09066661,-0.004515057,-0.02373139,0.02160136,-0.1582295,-0.1717953,0.0157084
1.026859,-0.0622763,0.09619432,0.002201043,-0.03224123,0.02689824,-0.1136228,-0.1765556,0.01323864
1.034141,-0.07044584,0.103195,0.009509859,-0.04054974,0.03365802,-0.04440961,-0.1758404,0.01930513
1.039523,-0.07413936,0.1070589,0.01492277,-0.04438161,0.03727082,0.01363959,-0.175026,0.02139158
1.042905,-0.08672298,0.09584149,0.01833895,-0.05710044,0.02579176,0.04458079,-0.1979298,0.02850564
1.040989,-0.09793311,0.07583918,0.01645888,-0.06843981,0.005517313,0.0734021,-0.2359863,0.04563274
1.048059,-0.1092727,0.0671373,0.02356501,-0.07989948,-0.003466527,0.1257447,-0.2484435,0.06782486
1.069657,-0.1201383,0.06268203,0.04519917,-0.09087258,-0.008212249,0.1775965,-0.2257345,0.1010448
1.085787,-0.1151947,0.04961254,0.0613631,-0.08602019,-0.02157894,0.2044186,-0.1694796,0.1355528
1.072432,-0.1136673,0.04361699,0.04803715,-0.08456418,-0.02787636,0.2211473,-0.09495457,0.1627506
1.041016,-0.111386,0.04801448,0.01664321,-0.08233126,-0.02378307,0.2159336,-0.05420305,0.1721213
1.02579,-0.09313999,0.04630315,0.00143065,-0.06410792,-0.02579863,0.2060442,-0.06228234,0.1591957
1.012203,-0.07545852,0.03922825,-0.01215158,-0.04642158,-0.0331756,0.2113108,-0.06512071,0.1389785
1.00061,-0.05968246,0.03349182,-0.02374661,-0.03061223,-0.03920972,0.1947377,-0.05064222,0.1190873
1.007867,-0.04875656,0.02673646,-0.0164983,-0.01962476,-0.04625603,0.1738634,-0.04549196,0.1101441
1.003926,-0.04762013,0.01927265,-0.02045232,-0.0183993,-0.05400153,0.1639739,-0.04221138,0.1141449
1.001539,-0.0509904,0.01117316,-0.0228557,-0.02165426,-0.06237075,0.1537893,-0.05930224,0.1173992
1.015502,-0.05968139,0.002096272,-0.008910912,-0.03020478,-0.07170251,0.1591133,-0.08677359,0.1260124
1.02694,-0.06715867,-0.005248832,0.002508034,-0.03751728,-0.07928458,0.1613681,-0.08363261,0.1444317
1.043548,-0.06795586,-0.01345042,0.0190956,-0.03812588,-0.08770198,0.1583423,-0.07577935,0.1579627
1.058142,-0.06247855,-0.02462207,0.03366752,-0.03243658,-0.0990649,0.1593377,-0.06347768,0.1740645
1.069844,-0.050816,-0.04223236,0.04534588,-0.02053916,-0.1168383,0.1498272,-0.03059331,0.2002794
1.065207,-0.03671181,-0.062221,0.04068099,-0.006178208,-0.1369578,0.1367153,-0.009493904,0.2073317
1.022261,-0.03330821,-0.05998544,-0.002298628,-0.002497515,-0.1348165,0.1062202,-0.009229473,0.1939958
0.9769441,-0.04584503,-0.04053665,-0.04765492,-0.01473875,-0.115421,0.04949242,-0.008552956,0.1872506
0.9563047,-0.05448327,-0.02948733,-0.06833794,-0.02306454,-0.1043804,0.005702157,-0.00688418,0.1789242
0.9612657,-0.05531052,-0.0209836,-0.06342156,-0.02356365,-0.09583827,-0.01533182,-0.01526789,0.1597322
0.9778165,-0.05073114,-0.01536807,-0.04691311,-0.01864137,-0.09013559,-0.04746643,-0.01564485,0.1327862
1.000983,-0.0361554,-0.01423218,-0.02378397,-0.003708988,-0.08886269,-0.08548871,-0.01778258,0.1026991
1.035139,-0.02624804,-0.01270941,0.01034128,0.006567328,-0.08715244,-0.1177773,-0.03651833,0.08788359
1.051679,-0.02178028,-0.02464655,0.02685694,0.01141444,-0.09885117,-0.1743671,-0.02618994,0.07702874
1.056852,-0.0207642,-0.03448841,0.03200979,0.01281807,-0.1084031,-0.2324042,0.01249899,0.06138967
1.049441,-0.02387258,-0.02444562,0.02458392,0.01010321,-0.09801835,-0.2705536,0.02959089,0.06678198
1.025766,-0.02140901,-0.0104574,0.0008949748,0.01296415,-0.08363553,-0.3138577,0.003655071,0.06724279
1.027591,-0.0219644,0.001573931,0.002707361,0.012808,-0.07115726,-0.3345254,-0.02891954,0.04043961
1.031929,-0.0242773,0.003898013,0.007034328,0.01089435,-0.06833483,-0.3312571,-0.02595563,0.01420035
1.02612,-0.02645066,-0.006187724,0.001214122,0.009118562,-0.07787217,-0.3326567,-0.03155413,-0.0181859
1.029334,-0.03296368,-0.01260199,0.004417734,0.002999965,-0.08368929,-0.3237956,-0.05082411,-0.05492014
1.025758,-0.03032187,-0.01076088,0.0008319169,0.006031867,-0.08120339,-0.3069753,-0.04384208,-0.07636377
1.029327,-0.02354584,-0.01163822,0.004391579,0.01319258,-0.08138929,-0.2874235,-0.04803801,-0.09360957
1.034758,-0.01630268,-0.01750233,0.00981248,0.02081383,-0.08651633,-0.2783325,-0.0820918,-0.1144419
1.030577,-0.007510392,-0.01753943,0.005620669,0.02997616,-0.08577176,-0.2959433,-0.1154301,-0.128534
1.031393,-0.008451212,-0.02264187,0.006425946,0.02939566,-0.09004886,-0.3134983,-0.1259281,-0.1264014
1.027606,-0.002110067,-0.03517027,0.00262734,0.0360856,-0.1017091,-0.3240623,-0.1321365,-0.1232924
1.0233,0.01320506,-0.03586855,-0.00169132,0.05173608,-0.1014968,-0.3337665,-0.1546174,-0.1211419
1.024585,0.01063926,-0.03625466,-0.0004195583,0.04949005,-0.1009306,-0.3375339,-0.1617796,-0.1132672
1.023696,-0.0005570597,-0.038891,-0.001323447,0.03859573,-0.102573,-0.3390204,-0.1643602,-0.1117301
1.021682,-0.0112067,-0.03444224,-0.003351589,0.02822855,-0.09708945,-0.3300467,-0.1752974,-0.1031484
1.021476,-0.02512482,-0.03584925,-0.003573722,0.0145723,-0.09742133,-0.3121336,-0.17328,-0.08937406
1.022894,-0.02615218,-0.03712434,-0.00217066,0.01378583,-0.0975818,-0.2831554,-0.177704,-0.07613888
1.019446,-0.02538949,-0.03262361,-0.005634383,0.01476847,-0.09192789,-0.2488787,-0.1724268,-0.05588049
1.015151,-0.03283795,-0.03160937,-0.009944591,0.007519247,-0.08972299,-0.2331652,-0.1566171,-0.045332
1.011542,-0.02793969,-0.03020709,-0.01356838,0.01259638,-0.08709385,-0.2171426,-0.1584428,-0.02969392
1.007844,-0.02458694,-0.03090867,-0.01727942,0.01610804,-0.08653377,-0.2070125,-0.1516068,-0.007386232
1.010197,-0.02723431,-0.03392186,-0.01493749,0.01359993,-0.08825199,-0.217999,-0.150113,-0.003133153
1.010236,-0.02498291,-0.03488504,-0.01490694,0.01597124,-0.08788834,-0.2157839,-0.1594537,0.006461508
1.008905,-0.0311589,-0.03852497,-0.01624283,0.009896156,-0.09017096,-0.2071243,-0.15629,0.03061675
1.011633,-0.03338176,-0.04306799,-0.01351648,0.007755641,-0.09332751,-0.2020016,-0.1548996,0.04976347
1.017077,-0.0332259,-0.05983055,-0.008069716,0.007975926,-0.1086755,-0.1937371,-0.1395318,0.06596687
1.029924,-0.04407173,-0.08421768,0.00478564,-0.002822623,-0.1316206,-0.188189,-0.1140218,0.07540141
1.044073,-0.05165618,-0.08195933,0.01894641,-0.01037592,-0.1278926,-0.1708578,-0.08651989,0.06497912
1.059184,-0.06030049,-0.07525998,0.03407164,-0.01900377,-0.1196955,-0.1501451,-0.02686577,0.04330596
1.07267,-0.06683459,-0.08824157,0.04757461,-0.02553435,-0.1311509,-0.1328448,0.02905455,0.007469104
1.066132,-0.06478994,-0.08617618,0.0410526,-0.0234971,-0.1275307,-0.1163917,0.04284412,-0.04047402
1.047089,-0.06265309,-0.0731573,0.02202267,-0.02137654,-0.112928,-0.1137556,0.04780583,-0.06812747
1.034241,-0.05543994,-0.07045322,0.009184485,-0.01418677,-0.1086116,-0.1080725,0.0593255,-0.0853603
1.029717,-0.04488765,-0.07085802,0.004664867,-0.003663497,-0.107376,-0.09817,0.06290227,-0.09676152
1.027368,-0.03682844,-0.07554268,0.002315775,0.004361997,-0.1103933,-0.0962582,0.06355453,-0.08553288
1.017489,-0.03579402,-0.07359601,-0.007567496,0.005358488,-0.1067531,-0.09076391,0.06479379,-0.06680312
1.011602,-0.03751996,-0.06772358,-0.01346305,0.003590612,-0.09916205,-0.08121782,0.06411173,-0.03230564
1.017478,-0.03479191,-0.06859714,-0.007599958,0.006272904,-0.09829306,-0.06653063,0.06423011,-0.004389756
1.018293,-0.03642695,-0.06412353,-0.00679949,0.004588413,-0.09205437,-0.04916713,0.06154489,0.002516547
1.019091,-0.03682001,-0.06319036,-0.006017478,0.00414236,-0.08933518,-0.03436722,0.059612,0.03200525
1.022769,-0.03511916,-0.06497981,-0.002357933,0.005786842,-0.08931933,-0.02106975,0.05291008,0.05527861
1.023581,-0.0381591,-0.06339978,-0.001564629,0.002687302,-0.08591648,-0.0140973,0.04413025,0.0573871
1.029929,-0.03864515,-0.0659403,0.004763197,0.002138615,-0.08661839,-0.00118819,0.04631547,0.06112171
1.031676,-0.04114694,-0.06414014,0.00648955,-0.0004285828,-0.08296555,0.02317084,0.04484076,0.05494741
1.030029,-0.0451029,-0.06520221,0.004821207,-0.004452349,-0.0821626,0.04288613,0.04872437,0.05549339
1.033405,-0.04705436,-0.069072,0.008174384,-0.00647355,-0.08415675,0.05580216,0.06183336,0.05387161
1.031606,-0.05020734,-0.06943671,0.006351164,-0.009697592,-0.08263681,0.0732093,0.07046533,0.0442395
1.031401,-0.05051636,-0.07226746,0.006121161,-0.0100783,-0.08357541,0.1009105,0.08916413,0.04598446
1.03267,-0.05222053,-0.06817091,0.00736328,-0.01185402,-0.07758069,0.1197196,0.1023335,0.0436686
1.030254,-0.05340132,-0.06377932,0.004918256,-0.01310549,-0.07128641,0.1268569,0.1044652,0.04107861
1.0307,-0.04884149,-0.06101925,0.005333063,-0.008614742,-0.06662083,0.1426309,0.1121992,0.03604934
1.030286,-0.04502246,-0.05568635,0.004886603,-0.004862562,-0.05938148,0.1468043,0.1080169,0.0298377
1.028999,-0.04273811,-0.05870689,0.003564283,-0.002642482,-0.0604966,0.1386607,0.1002231,0.03885884
1.026573,-0.04265408,-0.05791893,0.001101749,-0.002619907,-0.05780629,0.1408667,0.09974094,0.04600901
1.023638,-0.04376063,-0.05255014,-0.001872058,-0.003784992,-0.0505402,0.1358186,0.09381907,0.04743587
1.025743,-0.04414508,-0.05287451,0.0001933561,-0.004224928,-0.04897436,0.1329298,0.09512794,0.04399607
1.02812,-0.04870797,-0.05255611,0.002528374,-0.008840114,-0.04677488,0.1408215,0.1086112,0.03888709
1.029477,-0.05612434,-0.05439727,0.003842912,-0.01630528,-0.0467461,0.1420956,0.1212306,0.04352598
1.029783,-0.06117752,-0.05774896,0.004105252,-0.02140323,-0.04824087,0.1528014,0.1243621,0.04810765
1.028481,-0.06151386,-0.06010308,0.002758091,-0.02177956,-0.04875276,0.1644196,0.121142,0.05205572
1.029397,-0.06151739,-0.06001465,0.003628472,-0.02181744,-0.0468383,0.1703731,0.1252216,0.05243199
1.029403,-0.06535521,-0.05398289,0.003587429,-0.02568316,-0.03899812,0.1919752,0.1274612,0.04617888
1.028551,-0.0675708,-0.0501241,0.002686776,-0.02791934,-0.03334999,0.2081512,0.1268792,0.04381202
1.028628,-0.07034665,-0.04859104,0.002714973,-0.03070757,-0.0300483,0.2155149,0.1371401,0.04257872
1.027384,-0.07514483,-0.04570595,0.001420644,-0.03550894,-0.02541699,0.2306676,0.1437303,0.04197551
1.027385,-0.07334926,-0.04379887,0.00137038,-0.03370638,-0.0217878,0.2383269,0.1434565,0.04192025
1.026787,-0.06821984,-0.04049333,0.0007210397,-0.0285588,-0.01678603,0.2378486,0.1414912,0.03866476
1.022757,-0.06637369,-0.03681917,-0.003361542,-0.02668258,-0.01144329,0.2373069,0.134029,0.03825033
1.019587,-0.06649545,-0.0335135,-0.006583424,-0.02676186,-0.006498534,0.2290488,0.1257129,0.04140849
1.018914,-0.06795903,-0.03201249,-0.007309054,-0.02817015,-0.003389776,0.2145141,0.1093141,0.0440304
1.019542,-0.07406143,-0.03224327,-0.006732362,-0.03420408,-0.002046025,0.2105261,0.08327441,0.04711253
1.019331,-0.08821546,-0.0291395,-0.00699462,-0.04827593,0.002597311,0.2167785,0.06291228,0.05233753
1.01737,-0.1001717,-0.02683082,-0.009004163,-0.06013529,0.006408882,0.223922,0.054407,0.05917852
1.016967,-0.09986627,-0.02661429,-0.009454322,-0.05971697,0.008089965,0.2418798,0.04239598,0.06653982
1.020086,-0.09682985,-0.02759526,-0.00638038,-0.05655008,0.008533632,0.2585955,0.02200531,0.07405573
1.024444,-0.0963387,-0.02986238,-0.00206508,-0.05590955,0.007649809,0.2581883,0.01843698,0.08067367
1.027097,-0.0940754,-0.02644533,0.0005486833,-0.05347679,0.01240759,0.2565224,0.0300826,0.08334124
1.029506,-0.09452215,-0.02258263,0.002921318,-0.05373313,0.01756732,0.2561213,0.036766,0.081354
1.029456,-0.09672582,-0.02030919,0.002837193,-0.05572467,0.02109294,0.2547876,0.03513235,0.07452528
1.023699,-0.093783,-0.01325743,-0.002951073,-0.05254736,0.02935086,0.2535538,0.03182692,0.05985917
1.021576,-0.09217906,-0.01077889,-0.005103718,-0.05068607,0.03298825,0.2414217,0.03359966,0.04521861
1.026222,-0.09445572,-0.01437468,-0.0004849517,-0.05268218,0.03050274,0.2219715,0.02930589,0.03819189
1.029713,-0.09590433,-0.01527557,0.002982234,-0.05382681,0.03066244,0.2089294,0.02646769,0.03319271
1.02895,-0.100837,-0.0152871,0.002197198,-0.05843187,0.03166089,0.2058514,0.0369414,0.03257608
1.026689,-0.1073183,-0.01641747,-8.420734e-05,-0.06456147,0.0314892,0.2021246,0.04768409,0.0362118
1.027899,-0.1086415,-0.01577511,0.001107832,-0.06550867,0.03303841,0.1920597,0.05802075,0.03366982
1.028219,-0.1094842,-0.01130695,0.001411104,-0.06595042,0.03836119,0.1879685,0.06393662,0.02702949
1.026268,-0.1120306,-0.006686292,-0.0005547946,-0.06807033,0.04378379,0.1890385,0.06244167,0.0217612
1.027336,-0.1104875,-0.007828003,0.0004996152,-0.06607498,0.04339091,0.1834159,0.06043485,0.01715972
1.02649,-0.1085138,-0.01052629,-0.0003582774,-0.06362283,0.04138794,0.1725839,0.05662447,0.01377868
1.023379,-0.1105319,-0.009380615,-0.003479673,-0.06513621,0.0431752,0.16568,0.05206649,0.01160351
1.021521,-0.1108898,-0.009513104,-0.005346274,-0.0649629,0.04363051,0.16495,0.04790016,0.01112018
1.021728,-0.1117264,-0.009421819,-0.005146097,-0.06524199,0.04425588,0.1627013,0.04611727,0.01061089
1.022731,-0.1129634,-0.004129375,-0.004149201,-0.06589524,0.05002882,0.1588865,0.04487215,0.01011489
1.019969,-0.108977,0.001357004,-0.006915253,-0.06129889,0.05594222,0.1574608,0.04110771,0.01350376
1.018728,-0.1056505,0.005087011,-0.008157641,-0.05733659,0.06004576,0.1546345,0.0340945,0.01692512
1.019831,-0.1049293,0.008008958,-0.007054285,-0.05595437,0.06328764,0.1488275,0.02410403,0.01865
1.019394,-0.1045878,0.01007378,-0.007488625,-0.05492727,0.06561864,0.1433268,0.0164581,0.01992384
1.020507,-0.1043459,0.008229427,-0.006369129,-0.05397602,0.06398659,0.1395125,0.006862094,0.0183349
1.021398,-0.1038036,0.002616232,-0.005470209,-0.05270139,0.05853185,0.1320195,0.002457242,0.01608925
1.022804,-0.1059509,0.002165856,-0.004052206,-0.05409439,0.0581864,0.1234529,0.008105979,0.01291802
1.025093,-0.108764,0.003294505,-0.00174912,-0.05613196,0.05936699,0.1205731,0.01004815,0.008549407
1.025286,-0.1114836,0.002691112,-0.001539743,-0.05805583,0.05876322,0.1136149,0.01484277,0.005084276
1.024961,-0.11359,0.004938964,-0.00184425,-0.05934682,0.06095912,0.1015632,0.02026365,0.00278191
1.024814,-0.1128147,0.005014248,-0.001968962,-0.05773713,0.06093168,0.09287575,0.01796213,0.003357034
1.024821,-0.1126066,0.001047259,-0.001938392,-0.05667634,0.05681205,0.08087638,0.01734354,0.002981042
1.023214,-0.1124903,-0.004452267,-0.003518631,-0.05568981,0.05111102,0.06784792,0.01762054,0.001318903
1.021486,-0.1132621,-0.00738333,-0.005216886,-0.05557452,0.04793088,0.06100493,0.01807597,0.0001498854
1.022281,-0.1145939,-0.008052914,-0.004391393,-0.05600317,0.04696621,0.05117915,0.01701444,-0.004658985
1.022426,-0.1137189,-0.008730536,-0.004213278,-0.05420963,0.04594917,0.03954866,0.01503855,-0.006942368
1.022431,-0.1153211,-0.004129758,-0.004172447,-0.05487881,0.05016792,0.03517677,0.01942007,-0.003559509
1.024036,-0.1186363,-0.0006379268,-0.00253045,-0.05724726,0.05323674,0.03158173,0.02259684,-0.00183613
1.025386,-0.120937,0.001338011,-0.001141698,-0.05858819,0.05475018,0.02116111,0.02277001,-0.00384329
1.024336,-0.121338,0.008254365,-0.002150071,-0.05801694,0.06116587,0.007005214,0.02399313,-0.01165145
1.02303,-0.1188176,0.007808391,-0.003413213,-0.05451236,0.06018222,-0.008272665,0.02162655,-0.01982022
1.024691,-0.1159231,-0.0007010048,-0.001708364,-0.0506225,0.05109928,-0.03034765,0.01682769,-0.01944822
1.026046,-0.111032,-0.006755951,-0.0003074932,-0.04472575,0.04443626,-0.05326714,0.01076814,-0.02279931
1.027436,-0.1080943,-0.01132622,0.00112917,-0.04077305,0.03922506,-0.05848864,0.004898165,-0.03491176
1.03002,-0.1101777,-0.01340582,0.003761343,-0.04183337,0.03647363,-0.04936308,0.004436437,-0.03906375
1.028817,-0.1104054,-0.01365308,0.002607628,-0.04103112,0.03552575,-0.04172823,0.01280069,-0.04162583
1.02492,-0.1110242,-0.02009974,-0.0012401,-0.04061422,0.02835185,-0.03662214,0.02433097,-0.0499411
1.022866,-0.1120959,-0.02480414,-0.003245362,-0.04064571,0.02289591,-0.03202358,0.02257035,-0.04902648
1.022915,-0.1044389,-0.01898717,-0.003146947,-0.03194517,0.02793945,-0.03132202,0.01708674,-0.0476696
1.022346,-0.09053956,-0.01652086,-0.003665607,-0.01700012,0.02961278,-0.03398933,0.01976006,-0.04964109
1.02015,-0.08407176,-0.01758157,-0.005812557,-0.009486309,0.0277417,-0.03993821,0.01256928,-0.04061504
1.020905,-0.0883225,-0.01748784,-0.005007345,-0.01269278,0.0270097,-0.05058401,0.00421271,-0.03099617
1.024292,-0.09154288,-0.02073342,-0.001569749,-0.01487275,0.02292499,-0.05792355,0.00294841,-0.0236365
1.025399,-0.09181496,-0.02008024,-0.0004117078,-0.01411015,0.02272762,-0.05862836,-0.006513048,-0.01378166
1.025208,-0.09566091,-0.02174043,-0.0005517356,-0.01692881,0.02020744,-0.05765345,-0.01613327,-0.01051271
1.024819,-0.1000914,-0.02811774,-0.000888933,-0.02034086,0.01296266,-0.05238694,-0.02170909,-0.01108235
1.024855,-0.1023862,-0.02829005,-0.0008015989,-0.02162721,0.01191747,-0.04135443,-0.02469354,-0.01097482
1.025348,-0.1016204,-0.02846678,-0.0002574884,-0.01986409,0.01086454,-0.02755542,-0.02456127,-0.0118575
1.024721,-0.09956989,-0.03225151,-0.0008337055,-0.01682807,0.006202375,-0.01347129,-0.02836398,-0.01145841
1.025209,-0.1009818,-0.03545874,-0.0002946693,-0.01726733,0.002118545,-0.001506488,-0.03144461,-0.008972057
1.025755,-0.103962,-0.03284098,0.0003022865,-0.0192884,0.003862614,0.007477423,-0.03286049,-0.007585611
1.024544,-0.1080459,-0.02872023,-0.0008589646,-0.02242752,0.007114565,0.01421569,-0.03515658,-0.009296715
1.023443,-0.1098355,-0.03277072,-0.001911106,-0.02328702,0.002201955,0.02261984,-0.03784739,-0.01056809
1.023454,-0.1068052,-0.03361029,-0.001850575,-0.01934172,0.0005086054,0.03143663,-0.03973364,-0.01202271
1.02599,-0.1056874,-0.02658162,0.0007339474,-0.01732441,0.006693427,0.03449602,-0.03743983,-0.01711647
1.02843,-0.1039976,-0.02095397,0.003221219,-0.01475089,0.01148853,0.03241415,-0.03257613,-0.02105166
1.030501,-0.1030308,-0.01964634,0.005339129,-0.01291669,0.01197593,0.03059098,-0.02115072,-0.02168919
1.032232,-0.1049862,-0.02241365,0.007115367,-0.01402131,0.008401509,0.03158917,-0.01005495,-0.02279421
1.028252,-0.1017945,-0.02239552,0.003179423,-0.00999603,0.007626392,0.03208078,-0.004296178,-0.02581222
1.023892,-0.09970523,-0.01980228,-0.001138037,-0.00709079,0.009440971,0.03268457,0.005427585,-0.03107318
1.024737,-0.1010699,-0.01900412,-0.0002524279,-0.007657505,0.00947566,0.03315639,0.01248467,-0.03429464
1.025731,-0.1003224,-0.01798598,0.0007806497,-0.006130687,0.009746054,0.02849923,0.02293594,-0.03582316
1.025648,-0.1001762,-0.01999643,0.0007348909,-0.005224097,0.007003993,0.02847865,0.04001725,-0.0414555
1.026708,-0.1001742,-0.02319072,0.001830381,-0.004481191,0.003094653,0.03985073,0.04877598,-0.04541155
1.027864,-0.1027221,-0.02229938,0.003019518,-0.00630786,0.003287995,0.05411214,0.06059423,-0.045988
1.02852,-0.1053619,-0.01985477,0.003707547,-0.008246481,0.005052116,0.06569428,0.07262119,-0.04707595
1.029658,-0.1048212,-0.01914925,0.004875765,-0.007024688,0.005095042,0.07237338,0.06811416,-0.04945406
1.029105,-0.1084287,-0.02101314,0.004350258,-0.00997125,0.00258673,0.08031467,0.06650025,-0.05636375
1.027624,-0.1126972,-0.02381278,0.002894354,-0.01359873,-0.0008389011,0.08966096,0.07461243,-0.06315251
1.027227,-0.1109869,-0.02512655,0.002520344,-0.0112672,-0.002759882,0.09334508,0.07961637,-0.06976109
1.026562,-0.1074661,-0.0211288,0.001875922,-0.007144498,0.0006497631,0.101792,0.08665465,-0.07567391
1.02658,-0.1063726,-0.01499991,0.001911173,-0.005468373,0.006209895,0.1158693,0.08788081,-0.07517091
1.023972,-0.1056817,-0.01415819,-0.0006804614,-0.004213797,0.006502198,0.125582,0.0812346,-0.08068373
1.02062,-0.1032893,-0.0144848,-0.0040199,-0.001276583,0.005645318,0.133523,0.08461817,-0.09173077
1.02283,-0.1014306,-0.01473727,-0.001798059,0.001107919,0.004881491,0.1371154,0.08881631,-0.09605576
1.024594,-0.1012623,-0.01809476,-2.456518e-05,0.00178302,0.001031322,0.1410051,0.09797314,-0.100628
1.024311,-0.1034037,-0.01910359,-0.0002999482,0.0001295011,-0.0004516621,0.159335,0.1139993,-0.1030596
1.022933,-0.104169,-0.01825831,-0.001671325,-0.0001670223,-6.210829e-05,0.1857749,0.1033004,-0.100772
1.019753,-0.09987304,-0.02248087,-0.004846677,0.004578752,-0.004722,0.1993256,0.09084064,-0.109224
1.021391,-0.09425633,-0.02702328,-0.003204741,0.01062631,-0.009683347,0.1870189,0.1032944,-0.123077
1.023305,-0.09057553,-0.02542393,-0.001286864,0.0147188,-0.008484398,0.1703316,0.1074845,-0.1262123
1.020692,-0.09100618,-0.0220361,-0.003898367,0.01468032,-0.005478241,0.1734306,0.1083234,-0.125132
1.020323,-0.0955989,-0.01683648,-0.004265187,0.0104599,-0.0006415718,0.1791351,0.1179706,-0.1276424
1.020446,-0.09884499,-0.01157263,-0.004140278,0.00756602,0.004277845,0.1790258,0.1233907,-0.1324458
1.019998,-0.09157964,-0.01372177,-0.004587176,0.01516344,0.001802333,0.1706497,0.1317464,-0.1399286
1.022042,-0.08020024,-0.01505819,-0.002540894,0.02685466,0.0001570857,0.1441475,0.1454328,-0.153533
1.022592,-0.08134217,-0.01153338,-0.001989348,0.02600388,0.003390074,0.1218535,0.1603352,-0.1664715
1.021061,-0.08632678,-0.009269004,-0.003517611,0.0212892,0.005379098,0.1092448,0.1709712,-0.1700201
1.021259,-0.08670661,-0.002383931,-0.003316124,0.02115764,0.0120046,0.09984615,0.1676293,-0.1766884
1.024776,-0.08687062,0.004283686,0.0002047329,0.02122002,0.0184275,0.1038262,0.159794,-0.1802723
1.030461,-0.08205298,0.001771703,0.005894229,0.02624202,0.01568454,0.1079817,0.1573423,-0.1698282
1.037364,-0.07615132,0.003120232,0.0128018,0.03232576,0.0168146,0.1083129,0.1627697,-0.1573668
1.048352,-0.07329933,0.0127134,0.02379404,0.03533719,0.0262006,0.1078333,0.1801157,-0.1307816
1.0563,-0.06979331,0.02043874,0.03174639,0.03897949,0.03372865,0.09865095,0.1953158,-0.1033221
1.049959,-0.06687471,0.02654642,0.0254065,0.0420106,0.03964723,0.08759367,0.1918667,-0.0961085
1.03714,-0.06763081,0.03556139,0.01258513,0.04134258,0.0484793,0.07784472,0.1744449,-0.07978319
1.025038,-0.07608342,0.04935146,0.0004763251,0.03295309,0.06209041,0.06409986,0.1554717,-0.06741802
1.012859,-0.08500623,0.0622455,-0.01171306,0.02406821,0.07480675,0.03219844,0.1461584,-0.07376194
1.005517,-0.08748782,0.06713334,-0.01907032,0.02159958,0.07951505,-0.007775504,0.1457016,-0.06683105
1.000038,-0.08676249,0.07817238,-0.02456576,0.02231344,0.0903694,-0.01645833,0.137453,-0.06032802
0.9973183,-0.07917161,0.1006032,-0.02730393,0.02986901,0.1126067,-0.004457352,0.1211519,-0.07302201
1.001933,-0.06594899,0.1160587,-0.02270717,0.04303289,0.1278559,0.005236361,0.1076302,-0.08520637
1.004033,-0.05560923,0.1313344,-0.02062441,0.05329046,0.1429077,0.02123147,0.08690028,-0.08894211
1.004445,-0.05070099,0.1479059,-0.02022576,0.05809253,0.1592326,0.02937158,0.05179173,-0.0896246
1.011912,-0.04446845,0.1509229,-0.01276978,0.06419413,0.161975,0.02152622,0.01720234,-0.08176361
1.025963,-0.03542503,0.1565162,0.00127434,0.07308078,0.1672602,0.00747749,0.005512598,-0.05365371
1.039881,-0.03587592,0.1528829,0.01519029,0.07244614,0.1632802,-0.0231319,0.008727524,-0.009417559
1.046227,-0.04372973,0.1260224,0.02153671,0.06438038,0.1360297,-0.0560782,0.002000507,0.03753196
1.04798,-0.05407823,0.1159805,0.02329188,0.0537909,0.1255511,-0.06383251,-0.0003927907,0.06485224
1.037502,-0.07386653,0.1245596,0.01281789,0.0337324,0.1336445,-0.05622138,-0.008307739,0.06055563
1.010694,-0.09571729,0.1285429,-0.01398618,0.01158288,0.1370911,-0.03758184,-0.04958946,0.04468103
0.998166,-0.1022345,0.1257877,-0.02651034,0.004740007,0.1337464,-0.003698374,-0.0866266,0.01749447
1.018452,-0.0876279,0.1101218,-0.006219431,0.0189962,0.1174369,0.02841279,-0.08437457,-0.01682541
1.049113,-0.06571574,0.08507793,0.02444783,0.0405352,0.09169468,0.04952624,-0.06176922,-0.02757571
1.060963,-0.04445209,0.06026746,0.03630523,0.06140401,0.06613162,0.06835972,-0.0468219,-0.02238692
1.053327,-0.02818264,0.05314561,0.02867571,0.07725701,0.05820476,0.07517708,-0.02984887,-0.01079894
1.037546,-0.03308592,0.06658152,0.01289934,0.07191498,0.0707858,0.05675938,-0.01258617,0.01794751
1.008223,-0.05024545,0.08651574,-0.01642285,0.05429357,0.08981775,0.03317291,-0.01447464,0.05212097
0.979034,-0.07042626,0.1130977,-0.04561225,0.03362754,0.1154517,0.004211564,-0.01758004,0.07125566
0.9827038,-0.09226415,0.1293947,-0.04194412,0.01128189,0.1307557,-0.02557386,-0.03495841,0.06348985
1.010546,-0.0975993,0.1274814,-0.01410272,0.005418189,0.1278041,-0.02827149,-0.04829598,0.04697484
1.035752,-0.09733306,0.1253719,0.01110525,0.005137494,0.1246105,-0.0318602,-0.02052025,0.0386822
1.050239,-0.09955607,0.121213,0.0255963,0.002351688,0.1193217,-0.04048325,-0.0003693431,0.0274658
1.046141,-0.08871758,0.1097725,0.02150386,0.01261395,0.1067056,-0.04513928,0.004517078,0.02573423
1.04103,-0.06602814,0.103139,0.01639802,0.03471576,0.09885152,-0.08382836,0.009059517,0.02496169
1.045986,-0.03567878,0.1009595,0.02135853,0.06446714,0.09540767,-0.1434929,0.01326384,0.01040026
1.038397,-0.01833875,0.08570464,0.01377281,0.08119874,0.07884648,-0.1973067,0.02283302,0.02390639
1.03077,-0.02055893,0.07327289,0.006145229,0.07835854,0.06506851,-0.2388654,0.01292964,0.05642385
1.025704,-0.02600014,0.07875353,0.001076682,0.07228429,0.06916579,-0.2629116,-0.006827696,0.08161509
1.012806,-0.04984576,0.07578377,-0.01182603,0.04779154,0.06477852,-0.2674468,-0.03292627,0.1160355
1.013652,-0.08587765,0.06735334,-0.01098789,0.01109832,0.0548994,-0.2366499,-0.06664464,0.139859
1.019052,-0.1081115,0.07044108,-0.005597603,-0.01180971,0.05651039,-0.1838868,-0.08630373,0.1507934
1.022288,-0.1148948,0.06998536,-0.002371515,-0.01927751,0.054553,-0.1325627,-0.09402997,0.1547048
1.027418,-0.1061518,0.0626219,0.002746574,-0.01122608,0.04566609,-0.1071544,-0.08435866,0.1452856
1.026585,-0.09295155,0.06048537,0.001901762,0.001278671,0.04198749,-0.1068084,-0.07588875,0.1460482
1.030481,-0.07840384,0.05873702,0.005785224,0.01512929,0.03868175,-0.09656634,-0.07830059,0.1452866
1.032533,-0.06266535,0.05139252,0.007822957,0.03017069,0.02976784,-0.09867852,-0.0775175,0.1421212
1.033713,-0.05803209,0.04203147,0.008988987,0.03410768,0.01882883,-0.1173251,-0.08190853,0.15372
1.040013,-0.05444943,0.03044063,0.01527213,0.03699514,0.005655191,-0.1341547,-0.07553192,0.1629379
1.03649,-0.05362661,0.02648833,0.0117317,0.03712386,0.0001192667,-0.1552782,-0.06751069,0.1745568
1.031791,-0.06520892,0.02781243,0.007011848,0.02484856,-0.0001369169,-0.1594741,-0.0781691,0.1820623
1.028003,-0.07400795,0.0189635,0.003201305,0.01535791,-0.01055867,-0.163335,-0.09338844,0.1747128
1.020865,-0.07945809,0.0155102,-0.003962655,0.009218239,-0.01557326,-0.1716606,-0.120348,0.167887
1.014378,-0.0853944,0.0183005,-0.01047699,0.002595592,-0.01432869,-0.1685688,-0.1546441,0.1595865
0.9961657,-0.08535797,0.008235615,-0.02871859,0.001950159,-0.02591982,-0.1782196,-0.1865277,0.1427064
0.9713625,-0.08554778,-0.006227358,-0.05355137,0.001084369,-0.04188565,-0.17942,-0.2304264,0.11464
0.963871,-0.09071114,-0.01301592,-0.06107067,-0.004747718,-0.05014953,-0.1714679,-0.2879568,0.09391291
0.9683589,-0.1023684,-0.009137984,-0.05660585,-0.01706503,-0.04771506,-0.1737108,-0.3428458,0.08454349
0.9619271,-0.1252631,-0.005902093,-0.06305348,-0.04060914,-0.04588671,-0.1624259,-0.3780726,0.06082535
0.9589947,-0.1414546,-0.01047766,-0.06599158,-0.05743694,-0.05183016,-0.1449594,-0.408053,0.03872582
0.9737349,-0.1388904,-0.01736141,-0.05124472,-0.05549278,-0.0600387,-0.111561,-0.4522464,0.02463728
1.010975,-0.1517648,-0.04624049,-0.01398375,-0.06896758,-0.09019592,-0.06245382,-0.4607695,0.00495393
1.088888,-0.1791548,-0.0828485,0.0639649,-0.09693471,-0.1280313,-0.02433972,-0.3350858,-0.01018845
1.13406,-0.1788453,-0.08150616,0.1091847,-0.09717487,-0.1278603,0.0351478,-0.08110392,-0.03602344
1.104419,-0.1591062,-0.06485408,0.07959855,-0.07795394,-0.1123183,0.08700447,0.1408119,-0.07331412
1.097389,-0.1224268,-0.05092253,0.07262509,-0.04175766,-0.09943074,0.07163438,0.2501566,-0.09388721
1.10282,-0.07697578,-0.02148127,0.07811021,0.003246936,-0.07096401,0.0166302,0.2965837,-0.09881623
1.054473,-0.07109536,-0.00232845,0.02981199,0.008717403,-0.05271426,-0.08086513,0.2739333,-0.09572086
0.9981407,-0.0698767,0.007547811,-0.02648041,0.009561022,-0.04366901,-0.201288,0.206908,-0.09078548
0.9681869,-0.05378421,0.0227392,-0.05640183,0.02531133,-0.029237,-0.2678225,0.1456985,-0.07954693
0.9663349,-0.07164761,0.01677378,-0.05822693,0.007136385,-0.03589132,-0.2835354,0.0575368,-0.05260225
0.9795625,-0.08408074,0.01450435,-0.04497513,-0.005579678,-0.03878061,-0.269642,-0.004184702,-0.03123285
0.9910899,-0.08227524,0.01659147,-0.03342337,-0.004029968,-0.03724575,-0.2493498,-0.01807344,-0.02084862
1.011202,-0.1006158,-0.003103547,-0.01328509,-0.02260021,-0.05742674,-0.240744,-0.06433395,-0.001904712
1.020481,-0.1121562,-0.00612367,-0.00397683,-0.0343445,-0.06086758,-0.2041862,-0.0893907,0.02328706
1.018227,-0.1308151,-0.00696861,-0.006197103,-0.05318159,-0.06206862,-0.1559607,-0.08704727,0.03620477
1.028908,-0.1511498,-0.01955515,0.004519161,-0.07366771,-0.07494713,-0.1066851,-0.09448591,0.03020717
1.036654,-0.1554615,-0.01896758,0.01230479,-0.07810239,-0.07458773,-0.03233657,-0.05900752,0.01570113
1.038921,-0.1602195,-0.0213059,0.01461245,-0.08295291,-0.07709064,0.02684631,-0.01964569,-0.004536329
1.04223,-0.1437027,-0.02027091,0.01796368,-0.06649601,-0.07615692,0.05549101,0.01155903,-0.02204427
1.040501,-0.1266125,-0.01627495,0.01627782,-0.04943174,-0.07219931,0.06062509,0.05089856,-0.02487433
1.036631,-0.1113112,-0.01142654,0.01244912,-0.0341216,-0.06732699,0.05427762,0.06794406,-0.02667637
1.031215,-0.08643589,0.001031197,0.007073803,-0.009203287,-0.05478413,0.04781378,0.07859554,-0.030397
1.023558,-0.09134793,0.007076417,-0.0005449618,-0.01403942,-0.0485941,0.02039908,0.07155481,-0.02976814
1.017671,-0.093351,0.01705892,-0.006395868,-0.01593554,-0.03840916,-0.002692862,0.06568099,-0.03045247
1.019568,-0.08711885,0.02163445,-0.004463841,-0.009567232,-0.03357604,-0.0137559,0.06815415,-0.02981214
1.020304,-0.09506955,0.02031927,-0.003695043,-0.01735436,-0.03458128,-0.03459206,0.05130081,-0.02914094
1.016593,-0.09162946,0.02460811,-0.007375117,-0.01372501,-0.029933,-0.04949297,0.04036002,-0.03026066
1.016125,-0.09214306,0.01799084,-0.007813264,-0.01402531,-0.03614424,-0.06102298,0.01869383,-0.02839602
1.013322,-0.09301751,0.01399308,-0.01058682,-0.01466398,-0.03969211,-0.0697864,-0.001102944,-0.02730144
1.015818,-0.08788658,0.006299397,-0.008061086,-0.009276391,-0.0468945,-0.07110409,-0.008793085,-0.02614697
1.020636,-0.09182866,-0.006744327,-0.003213663,-0.0129425,-0.05940757,-0.0702477,-0.02796504,-0.02204986
1.017946,-0.09334677,0.004607939,-0.005873868,-0.01416685,-0.047487,-0.06556963,-0.03292038,-0.01683125
1.019402,-0.09668769,0.01422893,-0.004387828,-0.01719766,-0.03726173,-0.05898413,-0.05170455,-0.01182583
1.019329,-0.09964698,0.004125388,-0.004430636,-0.01983168,-0.04672695,-0.0439593,-0.07495847,-0.01242472
1.016832,-0.09752703,-0.002062434,-0.006895279,-0.01737238,-0.05224437,-0.02844912,-0.07556036,-0.01360741
1.011156,-0.1696273,-0.07383061,-0.004197165,-0.0003250488,0.004875646,-0.07930902,0.05098138,-0.03362563
1.016432,-0.1728391,-0.07805668,0.001099843,-0.0035221,0.0007262152,-0.0869591,0.04862363,-0.0354331
1.022509,-0.1762764,-0.08416814,0.007203484,-0.006934757,-0.005308425,-0.0963423,0.0567698,-0.03223201
1.025209,-0.1866502,-0.08202112,0.009932311,-0.01727445,-0.003084529,-0.09866893,0.07484813,-0.03571678
1.020484,-0.193269,-0.07775671,0.005239718,-0.02384991,0.001256729,-0.1020014,0.09551578,-0.03840172
1.013806,-0.1906026,-0.07751825,-0.001403694,-0.02113072,0.001571863,-0.101507,0.09145277,-0.04295205
1.01644,-0.1909868,-0.07569178,0.001267481,-0.02145232,0.003474595,-0.09587184,0.08063155,-0.05157794
1.018413,-0.1942311,-0.07451043,0.003278334,-0.02462404,0.004731456,-0.09801778,0.09165368,-0.05316229
1.015175,-0.1932638,-0.07593825,8.017862e-05,-0.02357382,0.003378066,-0.1063664,0.08984504,-0.05477754
1.016901,-0.1911817,-0.07953122,0.001846967,-0.02139837,-0.0001418501,-0.1162488,0.08748892,-0.06196182
1.016338,-0.1927283,-0.08330408,0.001325145,-0.02284089,-0.003843224,-0.1220951,0.09495444,-0.07081181
1.014034,-0.1954061,-0.08208188,-0.0009368528,-0.02540384,-0.002551098,-0.1254452,0.08860298,-0.07557768
1.016317,-0.1996889,-0.07770759,0.001387626,-0.02956089,0.001891587,-0.1322201,0.08904362,-0.07972741
1.016995,-0.2054501,-0.0716638,0.002108247,-0.03518498,0.008002149,-0.1247623,0.09238279,-0.08441991
1.017542,-0.2111032,-0.06259217,0.002697192,-0.04068933,0.01713859,-0.1015646,0.08756837,-0.07773394
1.0152,-0.2163371,-0.05660531,0.0003972849,-0.0457621,0.0231876,-0.08055473,0.08332104,-0.07062738
1.010915,-0.2121014,-0.05606992,-0.003845889,-0.0413519,0.02378152,-0.05953666,0.07476117,-0.06780817
1.014288,-0.2016775,-0.06421138,-0.0004311509,-0.03073965,0.01569395,-0.046218,0.07740105,-0.06079137
1.016762,-0.1936226,-0.07737246,0.002083713,-0.02248207,0.002581394,-0.03885365,0.08998833,-0.05955255
1.014635,-0.1914279,-0.07591082,-3.588111e-06,-0.02007059,0.004085901,-0.02019848,0.10713,-0.06131859
1.014836,-0.2007452,-0.07342198,0.0002373911,-0.02915743,0.00661197,-0.0008297686,0.1275219,-0.0634854
1.013843,-0.2039611,-0.07974408,-0.0007168549,-0.03212954,0.000321546,0.01284967,0.1172931,-0.06911224
1.011681,-0.1929333,-0.07033407,-0.002840758,-0.02084472,0.009757784,0.02197567,0.09916326,-0.06974414
1.012364,-0.1812776,-0.06250257,-0.002119958,-0.008919229,0.01761002,0.02434927,0.0990252,-0.06675329
1.013168,-0.1741706,-0.06829514,-0.001279042,-0.00153044,0.01183244,0.0282059,0.08466173,-0.06373281
1.013072,-0.178463,-0.06570197,-0.001338972,-0.005530479,0.01443449,0.03446394,0.07590183,-0.06313698
1.014151,-0.1884997,-0.06058313,-0.000223863,-0.01526549,0.01955579,0.04582487,0.08458102,-0.06685545
1.014056,-0.1958913,-0.05797912,-0.0002841215,-0.02234691,0.0221554,0.06433531,0.08167016,-0.07089767
1.012518,-0.1975372,-0.0603196,-0.001787335,-0.02367477,0.01980315,0.07498533,0.08133099,-0.07455175
1.012478,-0.1955103,-0.06764346,-0.001794222,-0.02132216,0.01245972,0.07721385,0.08447148,-0.07650918
1.012457,-0.2021861,-0.06700425,-0.001781219,-0.02766508,0.0130713,0.08556236,0.0780864,-0.07511957
1.012442,-0.2049781,-0.0660725,-0.00176358,-0.03011694,0.01396732,0.09440939,0.07540023,-0.07177731
1.012328,-0.2047962,-0.0674773,-0.00184624,-0.02958779,0.0125187,0.1015484,0.07543589,-0.071342
1.010504,-0.211202,-0.06700273,-0.003638336,-0.03563905,0.01294137,0.1195368,0.07529555,-0.07281513
1.009114,-0.2069828,-0.06921573,-0.004996747,-0.03105796,0.01066847,0.1381006,0.07604327,-0.07141318
1.008646,-0.2045729,-0.07078042,-0.005433476,-0.02827856,0.009036044,0.1444346,0.07294715,-0.06947721
1.008506,-0.2050714,-0.07262048,-0.005542444,-0.02840001,0.007120641,0.1463806,0.06368955,-0.06274867
1.0091,-0.1943598,-0.07283987,-0.004917831,-0.01730404,0.006818642,0.1495402,0.05240424,-0.05378529
1.010163,-0.1902286,-0.07036965,-0.003822737,-0.01278141,0.009199353,0.1485317,0.05095103,-0.04865793
1.011246,-0.1887182,-0.07063887,-0.002708097,-0.0108735,0.008834043,0.1435533,0.04978707,-0.03955438
1.012781,-0.1826827,-0.06929869,-0.001140758,-0.00443513,0.01007185,0.1397445,0.04343766,-0.03323717
1.014883,-0.1799309,-0.0679141,0.0009951422,-0.001276389,0.01134803,0.1306387,0.04350175,-0.03555906
1.014928,-0.1765552,-0.06901403,0.001072992,0.00250922,0.01013383,0.1205998,0.04130297,-0.03498685
1.015101,-0.1728774,-0.06764543,0.001279455,0.00659848,0.01138249,0.1082269,0.0384053,-0.03209641
1.016818,-0.1707859,-0.0658317,0.003030482,0.009101491,0.01307079,0.08655981,0.03942478,-0.03160589
1.016746,-0.1701014,-0.06509693,0.002991418,0.01019603,0.01367475,0.07530565,0.03772984,-0.0302006
1.01757,-0.1684873,-0.06622477,0.003848365,0.01221725,0.01241077,0.06036379,0.042265,-0.03129998
1.018539,-0.1663688,-0.0718385,0.004850202,0.0147385,0.006655734,0.02921462,0.05075978,-0.03895019
1.017807,-0.1653065,-0.07559675,0.004149762,0.01619755,0.002751288,0.01187241,0.05301582,-0.04433571
1.018155,-0.1640868,-0.06845891,0.004527263,0.01780664,0.009738473,-0.0006095714,0.05190934,-0.04079611
1.018588,-0.1653341,-0.05728434,0.004989966,0.01693997,0.02075824,-0.01780394,0.0530874,-0.03633755
1.020649,-0.1649792,-0.05414153,0.007077554,0.01766538,0.02374206,-0.02741821,0.05862908,-0.03787894
1.022665,-0.1663829,-0.0517531,0.009119056,0.01662103,0.02596697,-0.0421809,0.05937817,-0.0383953
1.019325,-0.1699296,-0.04663033,0.005802234,0.01342146,0.03092117,-0.06008484,0.05293363,-0.0362443
1.014962,-0.1678593,-0.04811995,0.001460127,0.01582573,0.02925732,-0.07141608,0.04847522,-0.03700243
1.014679,-0.1705634,-0.04934749,0.001195179,0.01344167,0.02784924,-0.08115084,0.04749325,-0.03432054
1.015747,-0.1755464,-0.04881265,0.002279128,0.008764468,0.02819673,-0.08561718,0.04737327,-0.03197138
1.015352,-0.176878,-0.05692767,0.001897129,0.007723752,0.01988714,-0.09097832,0.04957521,-0.03638945
1.016,-0.1804602,-0.06523828,0.002555465,0.004417447,0.01137461,-0.09937846,0.05603562,-0.03735249
1.017029,-0.1807011,-0.06616589,0.003592559,0.004437572,0.01023797,-0.09789746,0.0601832,-0.03424456
1.01567,-0.1807879,-0.06465056,0.002239826,0.004597007,0.01153762,-0.0972718,0.06045035,-0.03318856
1.01487,-0.1829422,-0.06276102,0.001443153,0.002674335,0.01320534,-0.1017681,0.0595672,-0.03962738
1.015341,-0.1817199,-0.06325157,0.001915153,0.004113771,0.01248723,-0.0999379,0.05418867,-0.04741383
1.015196,-0.1820066,-0.0658207,0.001769398,0.004030029,0.009685238,-0.09972684,0.05233908,-0.04341097
1.014329,-0.1843026,-0.06593884,0.0008991871,0.001923231,0.009329354,-0.09935936,0.05395735,-0.0387897
1.013212,-0.1861112,-0.0648328,-0.0002228817,0.0002902813,0.01019327,-0.09401213,0.05218913,-0.03799498
1.012098,-0.1876838,-0.06637425,-0.001343751,-0.001119713,0.008405815,-0.09276973,0.05301883,-0.03479282
1.010695,-0.1882902,-0.06825981,-0.002755535,-0.0015761,0.006270846,-0.0925767,0.05116916,-0.0361611
1.010975,-0.1882534,-0.06797333,-0.00248603,-0.001401321,0.006305057,-0.09041381,0.04444404,-0.0371661
1.012632,-0.1871812,-0.06777931,-0.000840581,-0.000202456,0.006244502,-0.08543832,0.0387819,-0.03327523
1.013467,-0.1862363,-0.06632675,-1.868545e-05,0.0008580387,0.00744073,-0.07766396,0.03425763,-0.03082456
1.013999,-0.1858439,-0.06451011,0.0005001587,0.001355733,0.008999745,-0.07416514,0.0323593,-0.02792978
1.013123,-0.1841419,-0.06533829,-0.0003897658,0.003152889,0.007913025,-0.06861346,0.02991898,-0.02335468
1.011927,-0.1819201,-0.06587239,-0.001601472,0.005460148,0.007119823,-0.05878176,0.02758536,-0.01729346
1.012961,-0.1788118,-0.06685598,-0.0005827028,0.008644427,0.00587694,-0.05578263,0.02476144,-0.01181113
1.014479,-0.1752344,-0.06868933,0.0009198729,0.01228856,0.003784507,-0.05486305,0.02016254,-0.01228264
1.015582,-0.1764731,-0.06825589,0.00200659,0.01110713,0.003959496,-0.04762155,0.01794239,-0.01168713
1.015454,-0.1809653,-0.06764198,0.001861861,0.006662785,0.004316047,-0.03892133,0.01575918,-0.006508369
1.013602,-0.1824167,-0.06824359,-7.129925e-06,0.005249952,0.003458575,-0.03426163,0.01703317,-0.005642082
1.011954,-0.1812496,-0.06815604,-0.001673027,0.006446608,0.003292169,-0.03486606,0.01629285,-0.006396835
1.011182,-0.1792743,-0.0671162,-0.002462331,0.008442553,0.00408031,-0.0361679,0.01005139,-0.003673524
1.013833,-0.1768475,-0.0637511,0.0001708815,0.01088135,0.007196305,-0.03450031,0.009637356,0.00129277
1.018425,-0.1744048,-0.05694224,0.004745362,0.01332753,0.01375881,-0.0350029,0.008510981,0.007063033
1.018632,-0.1736468,-0.05451559,0.004934933,0.01408052,0.0159418,-0.03735288,0.008290269,0.006754998
1.017553,-0.1732023,-0.06050829,0.003837633,0.0145114,0.009707898,-0.03821336,0.0102435,0.004805133
1.018281,-0.1698576,-0.06435901,0.004547597,0.01783371,0.00561833,-0.03957708,0.006285992,0.008890113
1.017684,-0.1699857,-0.06327307,0.003931741,0.01767445,0.006467792,-0.04183501,0.005085375,0.01033705
1.016181,-0.1727263,-0.0662697,0.002409405,0.01489366,0.003237227,-0.04558313,0.003490688,0.00963897
1.015203,-0.1727348,-0.07099208,0.001411455,0.01483595,-0.001716309,-0.04705226,0.003328719,0.00895421
1.016752,-0.1756938,-0.06816383,0.002939366,0.01181872,0.0008839156,-0.04709786,0.007123202,0.003343475
1.01926,-0.176419,-0.06491808,0.005425742,0.01102638,0.003905146,-0.04963401,0.006366699,0.0007146306
1.018935,-0.1755018,-0.06896137,0.005077916,0.01186771,-0.0003588878,-0.04752542,0.01109567,0.001194361
1.019203,-0.1803905,-0.07233474,0.005322785,0.00689476,-0.003948929,-0.04319993,0.0163744,-0.002128138
1.020033,-0.1822664,-0.07394327,0.006128062,0.004926543,-0.00576968,-0.0401016,0.01754278,-0.006331472
1.018703,-0.1850084,-0.07452031,0.004772767,0.002084658,-0.006553998,-0.03713795,0.02176337,-0.009314641
1.017465,-0.1893106,-0.07283329,0.003507572,-0.002324185,-0.005068798,-0.03798411,0.02071635,-0.008954298
1.015344,-0.1851686,-0.07456564,0.001357599,0.001704996,-0.006997053,-0.03332701,0.02103182,-0.007927388
1.013381,-0.1825454,-0.07415488,-0.0006346501,0.004210061,-0.006775866,-0.02444961,0.02559848,-0.009101001
1.013228,-0.1835823,-0.06908598,-0.0008188964,0.003050164,-0.001889815,-0.02100768,0.02399708,-0.009288777
1.01249,-0.1821896,-0.06850491,-0.00158922,0.004315541,-0.001484646,-0.01666642,0.01995056,-0.009731312
1.014039,-0.1817754,-0.07402949,-7.319243e-05,0.004598697,-0.007178052,-0.01277347,0.01650808,-0.009996778
1.016331,-0.1820446,-0.07982871,0.002185961,0.004194951,-0.0131388,-0.007722454,0.01588784,-0.009366269
1.015462,-0.1829215,-0.07667694,0.001283324,0.00318058,-0.01014089,0.0006411076,0.01987621,-0.009909942
1.01691,-0.1836685,-0.07257326,0.002696702,0.002293381,-0.006182993,0.0004660605,0.02233508,-0.01228858
1.019889,-0.1834288,-0.07608795,0.005640597,0.002390838,-0.009835119,-0.0008400551,0.01904553,-0.01568867
1.019703,-0.1842255,-0.07532669,0.005419689,0.001450097,-0.009202734,0.004421711,0.01570702,-0.01614766
1.018276,-0.1849792,-0.07397198,0.00395624,0.0005509399,-0.007968148,0.00519293,0.01671483,-0.0149766
1.015064,-0.1844994,-0.0745521,0.000707711,0.0008844817,-0.0086595,0.005877219,0.01508439,-0.0139341
1.0112,-0.1827328,-0.06736345,-0.003193623,0.002504385,-0.001573142,0.01006379,0.01085834,-0.01121662
1.011865,-0.1816204,-0.06234661,-0.002566712,0.00346986,0.003350206,0.01134922,0.009279359,-0.007623944
1.013591,-0.1831171,-0.06723644,-0.0008788948,0.001826402,-0.001624663,0.01520912,0.007861217,-0.002733616
1.012191,-0.1856049,-0.07237196,-0.002317364,-0.0008076722,-0.006837134,0.02165493,0.00703513,-0.001924827
1.013291,-0.1861667,-0.06896554,-0.001255404,-0.001514996,-0.003499792,0.02431079,0.005913906,-0.004460114
1.015714,-0.1829842,-0.06173704,0.00113002,0.001523065,0.003667323,0.02331771,0.002424117,-0.002376808
1.014928,-0.178973,-0.05977845,0.0003067639,0.005391218,0.005571823,0.02244836,0.002017455,-0.002332051
1.014443,-0.1776108,-0.06427243,-0.0002144249,0.006611921,0.001030505,0.02288253,0.003192671,-0.002919603
1.013926,-0.1781694,-0.07113951,-0.0007683998,0.005913411,-0.005877643,0.01976373,0.0002314398,0.001356537
1.014376,-0.1795689,-0.07086551,-0.0003537343,0.00437544,-0.005638668,0.01797418,-0.002510393,0.002168089
1.016089,-0.1810309,-0.06878769,0.001324549,0.00277652,-0.00358996,0.01911531,-0.002861438,-0.000910754
1.015076,-0.1808738,-0.07115252,0.0002771006,0.002798206,-0.005978063,0.01497038,-0.001868931,-0.004554814
1.015027,-0.1804248,-0.06876636,0.0001949596,0.003113529,-0.003609454,0.01105643,0.001507323,-0.003618693
1.015684,-0.1825397,-0.06828703,0.0008189608,0.0008667151,-0.003142106,0.01106519,0.00429528,0.002222262
1.014765,-0.1838652,-0.06993329,-0.0001316438,-0.0005886869,-0.004794939,0.009916582,0.006575811,0.00209618
1.014539,-0.1823095,-0.06730053,-0.0003895733,0.0008391478,-0.002163529,0.007016463,0.007914169,-0.002026935
1.013646,-0.1815455,-0.06702142,-0.001312367,0.001477501,-0.001880754,0.005458894,0.008159045,-0.005373166
1.013628,-0.1819512,-0.0665619,-0.001359729,0.0009486263,-0.001412819,0.005683135,0.01160667,-0.006580536
1.014468,-0.1819388,-0.06646961,-0.0005483043,0.0008404433,-0.00130763,0.00507798,0.01019095,-0.006393255
1.014345,-0.1809523,-0.06669595,-0.0006988765,0.001708837,-0.001516887,0.006618299,0.006238887,-0.01084979
1.014868,-0.1802169,-0.06442581,-0.0002024314,0.002328926,0.000774236,0.01044643,0.01176462,-0.01251131
1.01475,-0.18062,-0.06372553,-0.0003456398,0.001813148,0.001499075,0.01321061,0.01408304,-0.009927131
1.015048,-0.1800695,-0.06349758,-7.205784e-05,0.002253708,0.001754773,0.01166336,0.009576674,-0.01103477
1.016198,-0.1778292,-0.06439041,0.00105464,0.004386792,0.0008925151,0.006553104,0.007012167,-0.01255282
1.016737,-0.1755974,-0.06490187,0.001571964,0.006513879,0.0004140932,0.006469116,0.004815206,-0.01359424
1.01834,-0.1765702,-0.06504236,0.003153359,0.00543893,0.0003087916,0.005686429,0.005326423,-0.01230883
1.017714,-0.1797478,-0.06526572,0.002507107,0.002161319,0.0001225053,0.001623219,0.005103503,-0.008792259
1.015639,-0.1810032,-0.0611222,0.000412239,0.0008082278,0.004304705,0.001864978,0.003180746,-0.008230083
1.016745,-0.1807955,-0.05980577,0.001499185,0.0009203613,0.005661073,-0.0005379124,0.003673696,-0.007768107
1.015768,-0.1806364,-0.06555938,0.0005039337,0.0009861195,-5.173281e-05,-0.003722733,0.002576508,-0.007481396
1.0125,-0.1828337,-0.07260872,-0.002782451,-0.001302143,-0.007059672,-0.003705612,0.003636977,-0.008490501
1.011342,-0.1868576,-0.07379208,-0.003958158,-0.00541458,-0.00820103,-0.005851425,0.006959898,-0.008579051
1.011276,-0.1876894,-0.07124916,-0.004040951,-0.006332327,-0.005615341,-0.005682027,0.006434001,-0.009081247
1.014368,-0.1848444,-0.07436931,-0.0009638384,-0.00357035,-0.008691755,-0.003306569,0.007705734,-0.008801547
1.019022,-0.1822082,-0.07602595,0.003675439,-0.00101387,-0.01030347,-0.003231848,0.01318003,-0.007543016
1.020261,-0.1831467,-0.07312708,0.004900515,-0.002028883,-0.00735828,-0.003266227,0.01604313,-0.005686423
1.018641,-0.184105,-0.06904482,0.003268025,-0.003060169,-0.003228094,-0.002730895,0.01418056,-0.002844585
1.015527,-0.1827424,-0.06326702,0.0001408801,-0.001767122,0.002599249,-0.003540904,0.009450366,-0.002596045
1.013276,-0.1834251,-0.06429288,-0.002121761,-0.002515915,0.001624341,-0.005285156,0.003804527,-0.001401582
1.014331,-0.1825856,-0.06515488,-0.001078972,-0.001738942,0.0008143924,-0.006129272,0.0009875281,0.001509143
1.016168,-0.1775084,-0.05813234,0.0007469515,0.003279363,0.007889754,-0.006560708,-0.0003845102,-0.002566173
1.015259,-0.1744254,-0.05601325,-0.0001724248,0.006306875,0.01006198,-0.006750512,-0.002776173,-0.006576601
1.01436,-0.177833,-0.06010738,-0.0010811,0.00284677,0.006020744,-0.009169928,-0.00265537,-0.002040491
1.014071,-0.1831122,-0.0643071,-0.001379289,-0.002481932,0.001873172,-0.01154959,9.597718e-05,0.001445181
1.012085,-0.1826037,-0.06918293,-0.003375025,-0.002020303,-0.002951531,-0.008232598,0.003695521,-0.0003998021
1.014422,-0.1834269,-0.07353904,-0.001046441,-0.002887562,-0.00725759,-0.007798009,0.006647149,-0.00305278
1.019523,-0.1864723,-0.07219103,0.004047733,-0.005974156,-0.005860424,-0.01198352,0.006025685,-0.004208246
1.020753,-0.1837808,-0.06639037,0.005270429,-0.00332095,-1.131656e-05,-0.01301117,0.005504193,-0.003529657
1.020423,-0.1832696,-0.06640499,0.004934544,-0.002845078,2.189558e-05,-0.01296773,0.007845459,-0.002580471
1.017234,-0.1831579,-0.0693035,0.001738571,-0.002765517,-0.002829428,-0.01229974,0.007341682,-0.00395491
1.013915,-0.1800918,-0.06785824,-0.001586849,0.0002715722,-0.001337654,-0.01269485,0.006421501,-0.01275579
1.015044,-0.179457,-0.06693433,-0.0004641815,0.0008803044,-0.000367892,-0.01322688,0.009032995,-0.02208892
1.014954,-0.1757707,-0.06548809,-0.0005605815,0.00454337,0.001123499,-0.009842173,0.008988821,-0.01802157
1.013788,-0.1755983,-0.06330807,-0.001732149,0.00469513,0.00334787,-0.007117636,0.0084222,-0.008598062
1.01645,-0.1812217,-0.06508304,0.0009233277,-0.0009466692,0.001616294,-0.003270573,0.00888986,-0.00418508
1.018936,-0.180997,-0.06584543,0.003403737,-0.000738428,0.0008961872,0.003481592,0.006239659,-0.006545537
1.015956,-0.1797125,-0.06441126,0.0004170323,0.00053162,0.002371398,0.008349729,0.003956461,-0.01392513
1.012292,-0.1790936,-0.06341613,-0.003252116,0.001137876,0.003406216,0.01028067,0.002900733,-0.01365263
1.012299,-0.1768536,-0.06054052,-0.003251577,0.003366928,0.006319995,0.009562777,0.001599156,-0.01117514
1.012902,-0.1764345,-0.06120544,-0.00265409,0.003776571,0.005691483,0.008210347,-0.001750889,-0.01258091
1.013944,-0.1745196,-0.06716381,-0.001616653,0.005683161,-0.0002324596,0.006265803,-0.00353987,-0.009284778
1.014448,-0.171471,-0.06931845,-0.001117322,0.008724403,-0.002354734,0.00481042,-0.001081239,-0.009808474
1.013823,-0.1698216,-0.0678362,-0.001746765,0.01036695,-0.0008421022,0.003115561,-0.003251365,-0.01177034
1.01533,-0.1672324,-0.06754054,-0.0002427914,0.01294921,-0.0005179162,-0.001977237,-0.003780791,-0.009902097
1.015868,-0.1649006,-0.06725333,0.0002920364,0.0152734,-0.000203932,-0.004282781,0.0003854614,-0.01105467
1.013812,-0.1649544,-0.06500265,-0.001766896,0.01521079,0.00207182,-0.00414048,0.0001245997,-0.009549936
1.01326,-0.1646514,-0.06125583,-0.002320244,0.01550304,0.005841999,-0.00858431,-4.305417e-05,-0.009160658
1.012383,-0.1632199,-0.05617273,-0.003198042,0.01692121,0.01094659,-0.01424152,-0.004014929,-0.01031225
1.010899,-0.1631586,-0.05059455,-0.004682954,0.01696612,0.01654401,-0.01944744,-0.01331356,-0.005247062
1.013648,-0.163375,-0.05201021,-0.001933198,0.01672948,0.0151448,-0.02859248,-0.02002296,-0.001375661
1.016761,-0.1638104,-0.0589977,0.001181637,0.01626959,0.008170377,-0.03638935,-0.02325329,0.002465638
1.016125,-0.1646844,-0.0595411,0.0005471745,0.0153663,0.007636271,-0.03928314,-0.0212478,0.01048092
1.0164,-0.1657204,-0.05632088,0.0008259525,0.01429585,0.01086177,-0.04465499,-0.01951134,0.01392372
1.01722,-0.1691655,-0.05700888,0.001649751,0.01081086,0.01017487,-0.04667968,-0.01788834,0.01323206
1.016363,-0.1717053,-0.05983674,0.0007974494,0.008225679,0.007343699,-0.0460849,-0.01530848,0.01652151
1.016951,-0.1723956,-0.06466794,0.001390823,0.007484374,0.002504679,-0.05084099,-0.01633815,0.017215
1.018734,-0.1744078,-0.06551144,0.003178714,0.005415766,0.001648953,-0.04802106,-0.01460622,0.0135501
1.019733,-0.1746189,-0.05638126,0.004183019,0.005143075,0.01076265,-0.04362407,-0.01411013,0.01414548
1.019215,-0.1741343,-0.05353925,0.003670845,0.005561129,0.01358391,-0.04382827,-0.01523513,0.01408864
1.016253,-0.1756372,-0.05848874,0.0007141075,0.003987124,0.00860926,-0.03398816,-0.0123933,0.01309605
1.013596,-0.176574,-0.05630399,-0.001937458,0.002974702,0.01076425,-0.02515833,-0.01208298,0.01345644
1.013715,-0.176696,-0.05795024,-0.001814284,0.002773079,0.009083519,-0.02441761,-0.01119052,0.01201369
1.015178,-0.1758419,-0.06009809,-0.000346236,0.003543945,0.006896446,-0.02107528,-0.007443874,0.009949373
1.016509,-0.1744516,-0.05454369,0.0009883473,0.004847529,0.01240686,-0.01498844,-0.003605262,0.003273786
1.016863,-0.1734089,-0.05658374,0.001347237,0.005800512,0.01031803,-0.0104339,-0.002948981,-0.00298884
1.016676,-0.1731191,-0.06126663,0.001164264,0.005997606,0.005581527,-0.00908181,-0.004516593,-0.002580715
1.016602,-0.1740785,-0.06634924,0.001093618,0.004942879,0.0004405879,-0.004862908,4.341885e-05,0.0006142593
1.016303,-0.1739379,-0.07086689,0.0007980081,0.004985556,-0.004139779,0.001318126,0.001659827,0.004895074
1.014965,-0.1762822,-0.06670101,-0.0005364767,0.002540999,-4.046675e-05,0.003070741,-0.002973877,0.004544533
1.013249,-0.1836597,-0.06773724,-0.002250424,-0.004938782,-0.001146569,0.005470807,-0.006118045,0.004483311
1.01371,-0.186687,-0.06933273,-0.001786746,-0.008069951,-0.002814746,0.01114236,-0.009729242,0.008730839
1.014355,-0.1798312,-0.06596486,-0.001139704,-0.001318896,0.0004781128,0.01405203,-0.01101616,0.007402369
1.013578,-0.1716958,-0.06534906,-0.001914467,0.006711328,0.001016998,0.01356523,-0.01057613,0.005289077
1.014628,-0.1727654,-0.06128038,-0.0008613802,0.005536467,0.005007158,0.01505458,-0.009177939,0.006438475
1.017635,-0.1751911,-0.06175571,0.002148084,0.003005406,0.004451885,0.01523839,-0.007531202,0.005638625
1.019962,-0.1725983,-0.06502413,0.004476922,0.005492741,0.001102225,0.01295369,-0.008666576,0.004038655
1.018228,-0.1736719,-0.06408021,0.00274479,0.004313664,0.00196378,0.01183523,-0.007808765,0.00262592
1.015085,-0.1742471,-0.06961322,-0.0003957518,0.00363312,-0.003652483,0.009991753,-0.007775903,0.004819901
1.015544,-0.1727815,-0.07285798,6.487978e-05,0.00499351,-0.006981027,0.009863648,-0.009484281,0.01053763
1.013906,-0.1741986,-0.06597254,-0.001571989,0.00347136,-0.0001794259,0.007746512,-0.01198546,0.01298528
1.011088,-0.173472,-0.06036941,-0.004389083,0.004093104,0.005340155,0.001366763,-0.01692592,0.01171957
1.013216,-0.17334,-0.0640922,-0.002260086,0.004120672,0.001534272,3.678391e-05,-0.01760738,0.0107382
1.014711,-0.1740942,-0.06937052,-0.0007643597,0.00326235,-0.003826629,0.002219435,-0.01841851,0.01207565
1.015352,-0.1733328,-0.06764296,-0.0001224684,0.003920118,-0.002180893,0.003752918,-0.02093834,0.01396479
1.016849,-0.1752937,-0.06761917,0.001375805,0.001856021,-0.002237902,0.005413794,-0.01850383,0.01577217
1.0164,-0.1779628,-0.06825514,0.0009281199,-0.000915546,-0.002953368,0.004894519,-0.01650589,0.01868075
1.016812,-0.1795129,-0.06735334,0.001341131,-0.002567359,-0.0021295,0.004363087,-0.01533092,0.0211979
1.016843,-0.1778052,-0.07076703,0.001373932,-0.0009601986,-0.005619311,0.008269833,-0.01477138,0.02154207
1.015903,-0.1750514,-0.0714436,0.0004351362,0.001694321,-0.006369916,0.01201722,-0.0171321,0.0187113
1.015093,-0.1764802,-0.07094966,-0.0003743312,0.0001679168,-0.005947575,0.01054323,-0.01709765,0.01715022
1.012277,-0.1757684,-0.07118511,-0.003189477,0.0007837739,-0.006251862,0.01010382,-0.01675845,0.01756091
1.011912,-0.1732298,-0.06784561,-0.003553222,0.003228108,-0.002978151,0.01343524,-0.01822573,0.01633132
1.013277,-0.1736218,-0.06603974,-0.002187088,0.002743702,-0.001234832,0.01550165,-0.01804533,0.01876567
1.013076,-0.1736364,-0.06465335,-0.002387563,0.00263844,9.229256e-05,0.01581796,-0.01808387,0.02076796
1.014186,-0.1735585,-0.06412134,-0.001275444,0.002627475,0.0005682915,0.01520153,-0.0180599,0.01794597
1.014159,-0.1737117,-0.06566253,-0.001300038,0.002387114,-0.001025743,0.01389389,-0.01755539,0.01636514
1.013634,-0.1734843,-0.06685161,-0.001822771,0.002529178,-0.002264557,0.01333766,-0.01773684,0.01360281
1.015073,-0.1740736,-0.06986521,-0.0003807984,0.001856129,-0.00532478,0.01446476,-0.01897509,0.01292337
1.015493,-0.1753522,-0.06980841,4.274078e-05,0.0004954586,-0.005311395,0.01504638,-0.02258648,0.01619908
1.015448,-0.177445,-0.06777709,1.394095e-06,-0.001677527,-0.003320165,0.01181511,-0.02141893,0.01673832
1.016316,-0.1793582,-0.06835419,0.0008739554,-0.003669161,-0.003933931,0.00867,-0.01274676,0.01550774
1.017797,-0.1803324,-0.06829878,0.002359375,-0.004719694,-0.003911709,0.009435471,-0.00579115,0.0142199
1.018535,-0.1784699,-0.0707665,0.0031026,-0.002931071,-0.006409086,0.01012711,-0.00476148,0.01381174
1.017857,-0.1750037,-0.07278539,0.002429892,0.0004636717,-0.008454,0.00914282,-0.007550355,0.01053335
1.017453,-0.1761223,-0.0694304,0.002031125,-0.0007236403,-0.005121253,0.009358026,-0.007830279,0.006804787
1.015376,-0.1772153,-0.06643961,-4.156808e-05,-0.001882732,-0.002148813,0.009618049,-0.008042548,0.008041113
1.01202,-0.174354,-0.0657601,-0.003393029,0.0009151425,-0.001483778,0.007901176,-0.01210761,0.007170288
1.011978,-0.1730935,-0.06727848,-0.003430281,0.002114927,-0.0030129,0.007117608,-0.01168072,0.009906895
1.013212,-0.1721303,-0.07263846,-0.00219177,0.003020007,-0.008379956,0.007974437,-0.01191487,0.01627476
1.01358,-0.1727139,-0.07719231,-0.001819187,0.002380646,-0.01293716,0.007750652,-0.01536963,0.01470712
1.015802,-0.1755255,-0.07433591,0.0004074027,-0.000484349,-0.01008015,0.00628119,-0.01561452,0.01503973
1.017392,-0.1748334,-0.07011067,0.002002295,0.0001565795,-0.005850097,0.004397575,-0.0189103,0.01895902
1.015606,-0.1738602,-0.06938477,0.0002207957,0.001080869,-0.005115069,0.001846628,-0.01884885,0.01701929
1.014711,-0.1737027,-0.06775839,-0.0006684746,0.001191433,-0.003475281,-0.003779174,-0.01339059,0.01537959
1.015344,-0.1735103,-0.06867392,-3.031439e-05,0.001339063,-0.004373238,-0.00976453,-0.01249423,0.0150203
1.014589,-0.175815,-0.07109258,-0.0007807775,-0.001008488,-0.006770287,-0.008816853,-0.01043853,0.01296016
1.014566,-0.1771847,-0.07232733,-0.0007984388,-0.002419052,-0.00797945,-0.006835414,-0.008195338,0.01406943
1.016437,-0.1781736,-0.07303732,0.001078381,-0.003446758,-0.008659867,-0.009163906,-0.008793579,0.01334638
1.017036,-0.1796701,-0.07026359,0.001682479,-0.004980068,-0.005852547,-0.008304024,-0.008904412,0.01103538
1.015564,-0.1789,-0.069004,0.000215585,-0.004244421,-0.004555363,-0.006742324,-0.01000907,0.01333511
1.014882,-0.1771916,-0.06622276,-0.0004608794,-0.002568155,-0.001732653,-0.007688131,-0.01090313,0.01285526
1.015411,-0.1764181,-0.06208575,7.344651e-05,-0.0018242,0.002449443,-0.006018918,-0.01125041,0.01246121
1.015318,-0.1794632,-0.06515826,-1.496694e-05,-0.00489627,-0.0005747279,-0.004172557,-0.009017205,0.01399619
1.015195,-0.1844179,-0.06613064,-0.0001326682,-0.009875427,-0.001495896,-0.002373374,-0.007052556,0.01270873
1.01534,-0.1859632,-0.0649635,1.694697e-05,-0.01144221,-0.0002749944,0.00113933,-0.00886041,0.01301516
1.015247,-0.1862593,-0.06742255,-7.137316e-05,-0.01175648,-0.002678011,0.003354298,-0.008732621,0.01055529
1.015289,-0.1878155,-0.06845353,-2.46417e-05,-0.01332729,-0.003650909,0.003774548,-0.00840232,0.006912582
1.014921,-0.1880162,-0.06829735,-0.0003881229,-0.0135384,-0.003434766,0.006084549,-0.007170458,0.005982883
1.013483,-0.1867811,-0.06698645,-0.001821434,-0.01230924,-0.00206216,0.01233301,-0.004972141,0.003257771
1.012149,-0.1860093,-0.06454441,-0.003151033,-0.01153859,0.0004431632,0.01348906,-0.005904282,0.001380021
1.013157,-0.1829066,-0.06169292,-0.002138952,-0.008431903,0.003359275,0.01105878,-0.005569026,0.0006423166
1.01478,-0.1803702,-0.06198917,-0.0005117346,-0.005886224,0.003128599,0.01504754,-0.007805041,0.001751124
1.014847,-0.1825117,-0.06689861,-0.0004398247,-0.00801334,-0.001714645,0.01798603,-0.01201771,0.003078773
1.016156,-0.1828986,-0.0724515,0.0008744678,-0.008380619,-0.00720098,0.01720621,-0.01104713,0.002536873
1.016858,-0.1834827,-0.07739816,0.001581639,-0.008939919,-0.01208068,0.01581505,-0.01082113,0.003357606
1.013701,-0.1860831,-0.07153061,-0.001570143,-0.01151037,-0.006145558,0.01468646,-0.01185298,0.003723893
1.011552,-0.1844075,-0.06065476,-0.003713421,-0.009799514,0.004798597,0.01483805,-0.01126255,0.005661773
1.012659,-0.1839448,-0.06201302,-0.002600778,-0.009296315,0.003509247,0.01222171,-0.01168903,0.009019548
1.013765,-0.1848768,-0.06353847,-0.001489107,-0.01018247,0.002052913,0.01194783,-0.01090205,0.01144896
1.013949,-0.1837347,-0.06155745,-0.001299179,-0.008989299,0.004102911,0.01221981,-0.00868513,0.01191861
1.013755,-0.1867308,-0.06344764,-0.001486673,-0.01192895,0.002281206,0.00845329,-0.008383355,0.006685303
1.013346,-0.1878341,-0.06465944,-0.001888266,-0.01297064,0.001137121,0.007934243,-0.008207259,0.003402795
1.013958,-0.1824198,-0.06882955,-0.001268464,-0.007489346,-0.002966262,0.005100718,-0.007260369,0.005184655
1.015774,-0.1788787,-0.07357994,0.0005548868,-0.003875968,-0.007650941,0.0004024249,-0.0058626,0.006183071
1.015877,-0.1784673,-0.07317921,0.0006670549,-0.003387266,-0.00718539,-0.0004765125,-0.003121829,0.006419268
1.015768,-0.1783532,-0.07023269,0.0005670837,-0.003191254,-0.004174716,-0.002533637,-0.003729099,0.005304366
1.018085,-0.1793978,-0.06737942,0.002892728,-0.004149724,-0.001257804,-0.002583501,-0.006206415,0.003578312
1.018571,-0.1829993,-0.07125218,0.003387866,-0.007661096,-0.005067392,-0.003037409,-0.006214021,0.002087056
1.017626,-0.1844756,-0.07560435,0.00245227,-0.009043581,-0.009356784,-0.006724156,-0.007286783,0.002523141
1.017883,-0.1824156,-0.07235452,0.002718339,-0.006886301,-0.006044392,-0.005495083,-0.006527748,0.004092364
1.015943,-0.1825458,-0.07000431,0.0007871484,-0.006915636,-0.003631628,-0.0005857272,-0.004283568,0.002979468
1.012795,-0.1820277,-0.06646812,-0.002352794,-0.006293528,-3.282517e-05,0.001661196,-0.005831732,0.003433399
1.011912,-0.1813134,-0.05917934,-0.003227346,-0.005471999,0.007318521,0.0009535952,-0.00854945,0.005484434
1.012581,-0.1827593,-0.05812373,-0.002550874,-0.006807842,0.008436298,0.001088514,-0.009678793,0.005950264
1.012929,-0.1823785,-0.06065154,-0.002196073,-0.006314246,0.005969786,0.002295707,-0.008146485,0.006186129
1.013322,-0.1825781,-0.06440239,-0.001795473,-0.006398573,0.002278915,0.00339095,-0.005712583,0.006013303
1.015123,-0.1816391,-0.07359053,1.322472e-05,-0.00534188,-0.006850808,0.004312164,-0.004083025,0.006972817
1.015773,-0.1785203,-0.07592406,0.0006713155,-0.002103243,-0.009127424,-0.0001592454,-0.007452647,0.007845226
1.014625,-0.1782619,-0.07035172,-0.0004688158,-0.001723209,-0.003499382,-0.005509381,-0.01365099,0.007848574
1.013899,-0.1809223,-0.06961286,-0.001187587,-0.004260478,-0.002705816,-0.003474309,-0.009166708,0.007752815
1.01348,-0.1843774,-0.06807603,-0.001598213,-0.007591073,-0.001115154,-0.002263795,-0.002447222,0.004544178
1.01404,-0.1821472,-0.06772152,-0.001030214,-0.005235329,-0.0007076663,-0.005188634,-0.002378376,0.001999183
1.015023,-0.178668,-0.07088081,-3.9232e-05,-0.001629646,-0.003814838,-0.005822427,-0.001722198,0.003283885
1.017604,-0.1816013,-0.06808328,0.002550138,-0.00443576,-0.0009660441,-0.006696982,-0.003597689,0.003934539
1.020488,-0.1823653,-0.06760023,0.005442532,-0.005071944,-0.0004325456,-0.009148002,-0.004302004,0.002566501
1.016813,-0.1812678,-0.07069535,0.001775392,-0.003846285,-0.003478049,-0.009718764,-0.002024661,0.0007116191
1.013465,-0.1809357,-0.0709508,-0.001565274,-0.003385904,-0.003684675,-0.01079115,-0.0002876737,-0.0008451547
1.016264,-0.1796118,-0.07218817,0.001241407,-0.001933614,-0.004873914,-0.01144905,0.002108716,-0.002702999
1.017345,-0.1814335,-0.07218376,0.00232879,-0.003627071,-0.004821948,-0.006414954,-0.001017009,-0.004105547
1.018002,-0.1825768,-0.07218355,0.002991843,-0.004642475,-0.00477458,-0.0009589793,-0.002576315,-0.00379142
1.01841,-0.1831604,-0.07163382,0.003406505,-0.005098741,-0.004177961,-0.002800643,0.0006529916,-0.003493974
1.015629,-0.1842641,-0.06692696,0.0006300569,-0.006075549,0.000575615,-0.005355701,0.0009128859,-0.00435223
1.014899,-0.1825662,-0.06251942,-9.542228e-05,-0.004251371,0.005029653,-0.0034705,0.001330571,-0.005295617
1.015344,-0.1825335,-0.06148214,0.0003530376,-0.004092981,0.006112979,-0.003414546,-0.002289703,-0.005516724
1.015584,-0.1793861,-0.06402492,0.0005959506,-0.0008206172,0.003615456,-0.003526251,-0.005694095,-0.00685037
1.017242,-0.1742851,-0.06445429,0.00225603,0.004404373,0.003230248,-0.002094422,-0.002855456,-0.01022228
1.018197,-0.1764062,-0.06354676,0.003212602,0.002406157,0.004180611,-0.003091804,-0.001750969,-0.01161638
1.017507,-0.1774682,-0.06655942,0.002523319,0.001465265,0.001209239,-0.002952679,0.0001339512,-0.007688817
1.016021,-0.1765098,-0.06881845,0.001037521,0.002542925,-0.001010151,-0.002212205,0.002810842,-0.00337334
1.016574,-0.1783192,-0.07001682,0.001588879,0.0008505718,-0.002170528,-0.002299854,0.00389978,-0.003901281
1.016661,-0.1783696,-0.06984805,0.00167367,0.0009146576,-0.001965355,-0.001363877,0.003943078,-0.004548761
1.013476,-0.1790963,-0.0696641,-0.001514518,0.0002998503,-0.001746451,-0.001657956,0.002158983,-0.005201373
1.01207,-0.180857,-0.07170095,-0.002924398,-0.001351716,-0.003749692,-0.001258814,0.002989955,-0.007329628
1.013384,-0.1780825,-0.069847,-0.001614804,0.001528876,-0.001863342,8.399294e-05,0.002759437,-0.002611763
1.01534,-0.1748052,-0.06576186,0.0003362414,0.004909368,0.002253102,0.0009283654,-0.0001478221,0.002135606
1.015702,-0.1753819,-0.06219508,0.0006924409,0.004432633,0.005850052,0.001301845,-0.003344866,-0.004835593
1.0152,-0.1735751,-0.06127284,0.0001850407,0.006336004,0.006801146,-6.485761e-05,-0.006927148,-0.01140916
1.017493,-0.1681685,-0.0639458,0.002471848,0.01183528,0.004155459,-0.0001267903,-0.005230727,-0.009461373
1.019315,-0.1661533,-0.06407693,0.004286649,0.01393881,0.004049781,-0.0007701497,-0.00266526,-0.008136351
1.018831,-0.1690679,-0.06526636,0.003795309,0.01110787,0.002883815,-0.006608868,-0.000416068,-0.008841242
1.017418,-0.1722307,-0.06595368,0.002374844,0.00802335,0.002217885,-0.01657845,0.005864981,-0.007678005
1.015898,-0.1704623,-0.06247371,0.0008466686,0.009864454,0.005717098,-0.0257709,0.009132425,-0.007330213
1.01489,-0.1672097,-0.0623085,-0.000171418,0.01318377,0.005899295,-0.02845032,0.0113644,-0.009253506
1.012852,-0.1666303,-0.06299253,-0.002219296,0.01382353,0.005229858,-0.02947611,0.01203855,-0.01049174
1.011351,-0.165461,-0.06399639,-0.003731043,0.01504666,0.004238017,-0.03372959,0.003869964,-0.01005114
1.011141,-0.1628039,-0.06590135,-0.003951914,0.0177504,0.002342454,-0.04184311,-0.004308405,-0.012467
1.013102,-0.1576296,-0.06332853,-0.002001694,0.02296381,0.004922002,-0.0569986,-0.005376431,-0.01668244
1.016315,-0.15439,-0.06201979,0.001199673,0.02623433,0.006234772,-0.07297903,-0.006539464,-0.01372823
1.015266,-0.154025,-0.06552347,0.0001397569,0.02662125,0.002732356,-0.08553889,-0.01038003,-0.00714911
1.013202,-0.1485937,-0.07131333,-0.001934745,0.03206491,-0.003058983,-0.09487168,-0.009729661,-0.005912525
1.013897,-0.1469062,-0.07451077,-0.001250516,0.0337541,-0.006260445,-0.0973674,-0.00976334,-0.006993337
1.015084,-0.1495096,-0.06926498,-7.356525e-05,0.03114089,-0.001020855,-0.09780752,-0.01578026,-0.002482153
1.015535,-0.1461487,-0.06513691,0.000368092,0.03447985,0.003099167,-0.09712076,-0.01678321,0.004634711
1.015676,-0.1468828,-0.07085481,0.0004993607,0.03371073,-0.002628476,-0.09188857,-0.01527458,0.004713298
1.018372,-0.1523526,-0.07734144,0.00318599,0.02819219,-0.009126329,-0.08588284,-0.0143917,0.006104487
1.022067,-0.1548826,-0.07859704,0.006871466,0.02559928,-0.01039422,-0.07996869,-0.006923511,0.00929658
1.023341,-0.1574965,-0.07933185,0.008136629,0.02290815,-0.01114181,-0.07545651,0.004169021,0.003411386
1.023767,-0.1590409,-0.07960303,0.008552447,0.02127221,-0.01142564,-0.06729069,0.01732076,0.001464752
1.025268,-0.1638215,-0.07774019,0.01004404,0.01638584,-0.00957472,-0.04938193,0.02996034,0.006791708
1.025284,-0.1765327,-0.07475899,0.01004775,0.003555141,-0.006604221,-0.02728492,0.03809591,0.0111784
1.022366,-0.1850785,-0.06921662,0.00711682,-0.005123149,-0.001070993,-0.00346884,0.03948162,0.01400101
1.020769,-0.185114,-0.06322391,0.005505179,-0.005302742,0.004914215,0.01047014,0.0367083,0.01240053
1.019445,-0.1865105,-0.05382752,0.004164042,-0.006853591,0.01430454,0.01186485,0.03847071,0.0125648
1.017137,-0.1876677,-0.04385692,0.001837236,-0.008173913,0.02426988,0.0204022,0.03704347,0.01336494
1.015912,-0.1876189,-0.04736544,0.0005918222,-0.008295444,0.02075596,0.03420875,0.0333728,0.01058046
1.013683,-0.1916791,-0.0513065,-0.001660312,-0.01253178,0.01680832,0.04529995,0.03290678,0.009329377
1.011986,-0.1934602,-0.04674443,-0.003382047,-0.01449346,0.02136169,0.05342796,0.02596369,0.007906937
1.011324,-0.1895488,-0.04639339,-0.0040696,-0.01076545,0.0217011,0.05339798,0.01959994,0.008053091
1.008126,-0.1826706,-0.04076687,-0.007294046,-0.004072327,0.02731217,0.04314458,0.00551481,0.01213762
1.003423,-0.1765781,-0.03423549,-0.01202483,0.001834484,0.0338233,0.02390512,-0.02363094,0.01751502
1.003147,-0.1768172,-0.04427987,-0.01232792,0.001409811,0.02375281,0.01188358,-0.03698749,0.02112435
1.006866,-0.1817559,-0.05340449,-0.008634962,-0.003713959,0.0145953,0.01242609,-0.03462465,0.02320397
1.00797,-0.186564,-0.05222026,-0.007555424,-0.008706061,0.01573941,0.01426865,-0.04012092,0.02823597
1.009199,-0.1848541,-0.05333068,-0.00635015,-0.007178353,0.01458143,0.01678002,-0.05094607,0.03339022
1.00911,-0.1795796,-0.0544656,-0.006460414,-0.002083525,0.01339142,0.01023841,-0.06175302,0.03903555
1.006968,-0.1762948,-0.05268064,-0.00862172,0.001024622,0.01511371,-0.001209916,-0.0731615,0.04443682
1.008919,-0.1719307,-0.05409044,-0.006687235,0.005215472,0.01363365,-0.003367832,-0.08010905,0.04525538
1.007667,-0.1729523,-0.0573676,-0.007953258,0.004024017,0.01027866,-0.007256055,-0.08301211,0.04670477
1.005951,-0.1752607,-0.06191511,-0.009680016,0.001549268,0.005645942,-0.0140599,-0.09347851,0.04723106
1.008706,-0.1727283,-0.06750549,-0.00693267,0.003918739,-3.666816e-05,-0.01834273,-0.1063943,0.04793282
1.008252,-0.17652,-0.06782836,-0.007390739,-3.223413e-05,-0.0004581938,-0.02170349,-0.1055641,0.05296867
1.008307,-0.1829187,-0.06816609,-0.00733626,-0.006586588,-0.0009002855,-0.02169473,-0.1004234,0.05733126
1.0093,-0.1884238,-0.07200358,-0.006339618,-0.01224324,-0.004847095,-0.02116583,-0.09645744,0.06137758
1.012164,-0.1926967,-0.07642236,-0.003468434,-0.01666318,-0.009379313,-0.02125438,-0.07870297,0.0639484
1.019388,-0.1905995,-0.0870503,0.003766505,-0.01470757,-0.02012379,-0.02236562,-0.05643874,0.06552516
1.022815,-0.1914468,-0.09595358,0.007207814,-0.01569023,-0.02914537,-0.02778395,-0.04077653,0.06421467
1.023786,-0.193141,-0.0956093,0.008195873,-0.01751296,-0.0289195,-0.03819677,-0.02038641,0.05628186
1.023823,-0.1897221,-0.0928623,0.008252176,-0.01421497,-0.02628927,-0.04975881,0.001113632,0.04907873
1.021473,-0.1884905,-0.08764813,0.005922232,-0.01309605,-0.02118862,-0.05803085,0.01232589,0.03921152
1.020063,-0.1887905,-0.08430608,0.004534116,-0.01350019,-0.01795557,-0.06645771,0.009891891,0.03145712
1.016568,-0.1901611,-0.08412946,0.001061865,-0.01496595,-0.0178824,-0.07075268,0.002664957,0.02925798
1.012469,-0.1918474,-0.07990061,-0.003014146,-0.01673817,-0.01375065,-0.06766506,0.001429762,0.01808642
1.014273,-0.1924375,-0.0767033,-0.001186612,-0.01740439,-0.01064348,-0.06345119,-0.001911653,0.0121086
1.016735,-0.1936677,-0.07838156,0.001299793,-0.01870064,-0.01240455,-0.04945911,-0.005712655,0.009188157
1.01473,-0.1927451,-0.07949295,-0.000682,-0.01783367,-0.01359105,-0.0247297,-0.003740201,-0.004605587
1.014878,-0.1918893,-0.0764854,-0.0005095726,-0.01702266,-0.01065066,-0.004234403,0.0009672765,-0.004417219
1.016085,-0.1918287,-0.07360183,0.0007215966,-0.01699587,-0.007826086,0.006494491,0.005431998,0.00179235
1.014274,-0.1906579,-0.07524497,-0.001064484,-0.0158477,-0.009519971,0.007841252,0.002517785,-0.0007585674
1.013673,-0.1891793,-0.07546396,-0.001641475,-0.01438047,-0.009781458,0.00893868,0.0008722541,0.0007179107
1.012231,-0.1859279,-0.07440888,-0.003058634,-0.01112923,-0.008760633,0.0154398,0.002938691,-0.003616258
1.012838,-0.1866823,-0.07591979,-0.002427397,-0.01187263,-0.01029756,0.01802072,0.001336004,-0.008304569
1.018941,-0.191712,-0.0777648,0.00369989,-0.01688035,-0.01216038,0.01673069,0.003501587,-0.01156561
1.023262,-0.1945052,-0.08145823,0.00804487,-0.0196409,-0.01586335,0.01964289,0.009179858,-0.02740301
1.024799,-0.1971358,-0.0849652,0.009605923,-0.0222278,-0.01937145,0.02655552,0.01951996,-0.03536496
1.024905,-0.1966603,-0.08644536,0.009735543,-0.02169769,-0.02084404,0.03257764,0.03374753,-0.03888362
1.024888,-0.1918643,-0.08679717,0.009740231,-0.0168359,-0.0211792,0.03577946,0.05002866,-0.05012539
1.024392,-0.1887128,-0.0849234,0.009263991,-0.01360751,-0.01927934,0.03902304,0.0724344,-0.05449594
1.022843,-0.1870584,-0.08294159,0.007732606,-0.01186525,-0.01726175,0.04193389,0.09033744,-0.06288673
1.023691,-0.186978,-0.07820975,0.008596176,-0.01168634,-0.0124843,0.03963876,0.1010901,-0.07169533
1.021853,-0.1873299,-0.07228449,0.006770423,-0.01192963,-0.006503712,0.03505281,0.09813808,-0.07083995
1.015601,-0.1836656,-0.07001887,0.0005285085,-0.008147045,-0.004173385,0.0355546,0.07735536,-0.07198966
1.009394,-0.1794876,-0.06509617,-0.005673044,-0.003841598,0.0008228339,0.03666903,0.06050271,-0.06882961
1.005498,-0.1793163,-0.05769476,-0.009564807,-0.003534344,0.008305762,0.03508141,0.04995412,-0.06542033
1.005959,-0.1794548,-0.05368087,-0.00910192,-0.003529146,0.01240815,0.035868,0.04066409,-0.0627849
1.007356,-0.1784143,-0.05378109,-0.00770476,-0.002338082,0.01240218,0.03660452,0.03243658,-0.05676856
1.010002,-0.1775606,-0.05568451,-0.005059936,-0.001327538,0.01059747,0.03960409,0.02420392,-0.05791912
1.012463,-0.1762855,-0.05592151,-0.002600675,0.0001097069,0.01046245,0.04779939,0.02179448,-0.05313578
1.012555,-0.1777386,-0.05747791,-0.002510429,-0.001176651,0.009010254,0.05023634,0.01692006,-0.04420172
1.014978,-0.1801527,-0.05978413,-8.913271e-05,-0.003420147,0.006809516,0.0433987,0.01300648,-0.04402267
1.016559,-0.1781955,-0.05989771,0.001489661,-0.001289095,0.006801895,0.03787715,0.01773509,-0.04329991
1.016611,-0.1767884,-0.06249848,0.001539469,0.0002943612,0.004306893,0.04141525,0.0209592,-0.04260302
1.01611,-0.1769734,-0.06642251,0.001035939,0.0002877785,0.0004878971,0.04379944,0.02195268,-0.04122274
1.014627,-0.1741164,-0.06645453,-0.0004499351,0.003324422,0.0005598081,0.03631761,0.02261667,-0.04029408
1.016448,-0.1715161,-0.06599055,0.001368298,0.006104963,0.001126353,0.02712349,0.02530534,-0.042165
1.016979,-0.1687815,-0.06887386,0.001897097,0.009019665,-0.001655968,0.01616629,0.02588604,-0.04261493
1.015232,-0.1609132,-0.06845971,0.0001468661,0.01706702,-0.001142549,0.002935536,0.01758811,-0.04208574
1.014194,-0.1539222,-0.06485254,-0.0008949162,0.02423492,0.002562055,-0.01300415,0.00503583,-0.03256642
1.011715,-0.1542323,-0.06386802,-0.003378185,0.02409814,0.003641996,-0.03915321,-0.008458064,-0.01739802
1.008835,-0.1535066,-0.05991488,-0.006261592,0.02499212,0.007688271,-0.05995862,-0.01817252,-0.0073282
1.006274,-0.1496488,-0.05596998,-0.008826247,0.02901198,0.01172361,-0.06350659,-0.0258947,0.0009499189
1.00835,-0.1517686,-0.05426253,-0.006753791,0.02704645,0.01351828,-0.06913978,-0.03429895,0.009412813
1.012221,-0.1546221,-0.051567,-0.002884435,0.02433831,0.01629715,-0.07990845,-0.04368996,0.01754328
1.011302,-0.1553442,-0.05908466,-0.003804356,0.02375147,0.0088583,-0.07965495,-0.05017131,0.02413707
1.012746,-0.1591202,-0.07208791,-0.002360284,0.02009987,-0.004071112,-0.07592126,-0.0476675,0.03453105
1.015807,-0.1623367,-0.07434839,0.0007016815,0.0169961,-0.006262709,-0.07579053,-0.05467763,0.04144372
1.015378,-0.1688031,-0.07128759,0.0002748262,0.01063046,-0.003137663,-0.06607979,-0.06401696,0.03492844
1.015145,-0.1737552,-0.07195382,4.593651e-05,0.00576705,-0.003743886,-0.05107431,-0.05990366,0.03470485
1.015311,-0.1701128,-0.07344195,0.0002162067,0.009486103,-0.005175894,-0.0427681,-0.06524092,0.0367013
1.015468,-0.172221,-0.07478314,0.0003789416,0.0074429,-0.006464485,-0.03847416,-0.07076409,0.03225787
1.016545,-0.1762792,-0.07903546,0.001462293,0.003438235,-0.01066731,-0.03334118,-0.06102399,0.03442322
1.018658,-0.1742813,-0.08051282,0.00358232,0.005478663,-0.01209772,-0.02673776,-0.04919831,0.02980008
1.019833,-0.173504,-0.07977179,0.004765121,0.006287897,-0.0113117,-0.01982466,-0.03874145,0.0231977
1.017591,-0.1699401,-0.08370668,0.002531184,0.00987336,-0.01520291,-0.01271788,-0.0328785,0.02627567
1.016539,-0.1658027,-0.08588958,0.00148603,0.0140224,-0.01734276,-0.01416872,-0.02947403,0.02340798
1.020315,-0.163924,-0.08551076,0.005269917,0.01590289,-0.01692078,-0.01838533,-0.02198846,0.01873636
1.023616,-0.1582807,-0.08988603,0.008578076,0.02153787,-0.021252,-0.01470549,-0.009369301,0.01396455
1.021684,-0.1550913,-0.0931043,0.006653227,0.02470882,-0.02442453,-0.01954323,0.0005611974,0.0079476
1.01767,-0.1584317,-0.08421515,0.002644315,0.02133934,-0.01548709,-0.02592774,-0.0009279154,0.01081197
1.015231,-0.1629043,-0.07239686,0.0002102469,0.01682688,-0.003617344,-0.02258131,-0.002098057,0.01362329
1.015283,-0.1663655,-0.07383349,0.0002648165,0.01331483,-0.004999161,-0.01944672,-0.0007523928,0.009803949
1.019208,-0.1692536,-0.07682353,0.004192192,0.01036512,-0.007931117,-0.01135267,-0.001498329,0.004192813
1.02215,-0.1766128,-0.07290869,0.007134767,0.002933922,-0.003955005,-0.003031493,0.006948143,-0.004096855
1.020932,-0.1852551,-0.07569412,0.005916306,-0.005790224,-0.006676075,0.002657754,0.02043024,-0.01207848
1.021293,-0.1770398,-0.08584064,0.006274829,0.002334497,-0.01675519,0.01206942,0.02824483,-0.01756079
1.022833,-0.1654706,-0.09455005,0.007811644,0.01380492,-0.02539391,0.02100583,0.03817335,-0.02883243
1.022079,-0.1734218,-0.0929788,0.007051132,0.005747548,-0.0237481,0.02752972,0.05381415,-0.04131812
1.021029,-0.1761581,-0.08580011,0.005992863,0.002898089,-0.01649031,0.02354547,0.06308489,-0.04320361
1.021299,-0.1690845,-0.08604087,0.006252616,0.009851913,-0.0166469,0.01422106,0.06975998,-0.04746348
1.023601,-0.1690419,-0.0843967,0.008540736,0.009768629,-0.01491322,0.01160315,0.08718719,-0.05934843
1.026758,-0.1619812,-0.0814765,0.01168226,0.01669768,-0.01189801,0.006853776,0.09993048,-0.06286506
1.026154,-0.1542544,-0.08305007,0.01105929,0.02428703,-0.01337102,-0.003444305,0.09860928,-0.06420118
1.021298,-0.1557665,-0.08004951,0.006181178,0.02263149,-0.01026435,-0.01451599,0.09641575,-0.07120021
1.017882,-0.1535851,-0.07752499,0.002739285,0.02466313,-0.007628306,-0.02211631,0.09252196,-0.07176949
1.017203,-0.1482485,-0.07421835,0.002031508,0.02984328,-0.004204959,-0.02736821,0.08667829,-0.07161075
1.015863,-0.1428518,-0.07117836,0.0006601397,0.03507635,-0.001043467,-0.0361762,0.08475008,-0.07458726
1.014573,-0.1387091,-0.07280964,-0.0006652442,0.03904736,-0.002548981,-0.0439556,0.08127346,-0.06969891
1.015325,-0.1387278,-0.06943424,4.950764e-05,0.03884839,0.0009559093,-0.05137153,0.07429251,-0.06494529
1.0157,-0.1418527,-0.06950623,0.0003849692,0.0355335,0.001016512,-0.05909513,0.06824546,-0.0616255
1.014847,-0.1445246,-0.06945917,-0.0005099755,0.03266143,0.001198677,-0.05903966,0.06127691,-0.05728235
1.015408,-0.1448255,-0.06148262,8.024115e-06,0.0321495,0.009312174,-0.05966956,0.05163398,-0.05420891
1.01548,-0.1469836,-0.05888167,3.509503e-05,0.02976929,0.0120511,-0.06200415,0.03960609,-0.04261829
1.014732,-0.148948,-0.05936922,-0.0007601707,0.02757168,0.01170163,-0.05700878,0.02238003,-0.03213578
1.015053,-0.1511427,-0.06149459,-0.0004855972,0.02513239,0.009713461,-0.05073912,0.005359682,-0.02457554
1.014761,-0.1547577,-0.06071567,-0.00082558,0.02126165,0.01062783,-0.03721507,-0.007551636,-0.01489647
1.014836,-0.1503747,-0.05540943,-0.0007998907,0.0253781,0.01606696,-0.01995579,-0.02057259,-0.01957682
1.015947,-0.1449718,-0.05617617,0.0002617449,0.03050375,0.01542969,-0.01207965,-0.02463475,-0.02233026
1.021543,-0.1505651,-0.0577646,0.005809431,0.0246228,0.01396644,0.001685422,-0.01361206,-0.008249802
1.029833,-0.1588674,-0.06565398,0.01404952,0.01602268,0.006197187,0.02048547,0.003080808,-0.002003377
1.026302,-0.1610008,-0.07396588,0.01046831,0.01358157,-0.002000052,0.03356669,0.009380709,-0.01385434
