accx,accy,accz,body_accx,body_accy,body_accz,body_gyrox,body_gyroy,body_gyroz
0.9951205,-0.1586884,0.214071,-0.006878545,-0.01067908,0.005889552,-0.1032803,-0.0322874,-0.02050129
0.9978499,-0.1609325,0.2128458,-0.004124516,-0.012709,0.004591578,-0.1008926,-0.02633187,-0.02901469
0.9982275,-0.1632168,0.2099063,-0.0037174,-0.01477247,0.001572061,-0.1011613,-0.02122447,-0.03065264
0.9996505,-0.1668003,0.209367,-0.002260474,-0.01812882,0.0009460606,-0.100249,-0.02194128,-0.03010126
1.000645,-0.1666641,0.2082911,-0.001227384,-0.01775932,-0.0002226734,-0.09834271,-0.02892548,-0.03039325
0.9990834,-0.1643807,0.2064374,-0.0027472,-0.01523676,-0.00217446,-0.0975109,-0.03617563,-0.03157022
0.9973727,-0.1622207,0.2039295,-0.004412118,-0.01283194,-0.004785233,-0.08729606,-0.03631243,-0.03865185
0.9951865,-0.158878,0.2004078,-0.00654897,-0.009239134,-0.008413562,-0.07762255,-0.02819274,-0.04222994
0.9957934,-0.1570865,0.1989236,-0.005889495,-0.007192651,-0.01000728,-0.08023864,-0.02093816,-0.0428361
0.9997113,-0.1563932,0.2014862,-0.001915735,-0.006240325,-0.007556274,-0.08379468,-0.01746154,-0.04220831
1.002191,-0.1570584,0.2047429,0.0006230656,-0.006642926,-0.004412157,-0.08611063,-0.01384784,-0.04165811
1.003499,-0.1573341,0.2038166,0.001993024,-0.006653084,-0.005451541,-0.09336544,-0.01675275,-0.03850476
1.002475,-0.1567389,0.2047116,0.001032823,-0.005790037,-0.004669339,-0.09695392,-0.02391096,-0.0321081
1.000424,-0.1596421,0.2084599,-0.0009529704,-0.00842363,-0.001033137,-0.09497011,-0.02344818,-0.03276167
0.9996571,-0.1629356,0.2099832,-0.001652226,-0.01144639,0.0003792395,-0.09303568,-0.02365379,-0.03119172
0.9977821,-0.1640784,0.209346,-0.003458517,-0.01231745,-0.0003674967,-0.08616394,-0.02715353,-0.02805602
0.9969258,-0.1615527,0.2027879,-0.004244879,-0.009519258,-0.00703343,-0.08043746,-0.02497821,-0.02742984
0.9975468,-0.1575909,0.1987837,-0.003552823,-0.005284547,-0.01114355,-0.07717076,-0.02558074,-0.01855968
0.998964,-0.157249,0.2046034,-0.002063627,-0.004669775,-0.005427091,-0.07167873,-0.02766881,-0.01302364
1.000774,-0.1562525,0.2088135,-0.0001806527,-0.003400812,-0.001317224,-0.07030054,-0.02662388,-0.01599859
0.9999575,-0.1589765,0.2072398,-0.0009236072,-0.005853246,-0.002987755,-0.06413936,-0.02937373,-0.01819212
0.9996783,-0.1647293,0.2070444,-0.001128788,-0.01133568,-0.003276541,-0.05816339,-0.02912505,-0.01984276
1.000341,-0.1608999,0.2138589,-0.0003916172,-0.007237577,0.003448075,-0.06074541,-0.02530095,-0.02113201
0.9997915,-0.154816,0.2186691,-0.0008667506,-0.0008867279,0.008172051,-0.05954256,-0.02465355,-0.01988793
1.000062,-0.1527773,0.2149304,-0.0005220606,0.00141675,0.004350276,-0.06058113,-0.03130847,-0.01552739
1.000043,-0.1509533,0.2104865,-0.0004665369,0.003502755,-0.0001735115,-0.06175873,-0.04213733,-0.01047178
1.000258,-0.1515752,0.2070719,-0.0001784564,0.003139654,-0.003665244,-0.05895259,-0.03963541,-0.005996749
1.001902,-0.1513968,0.2074831,0.001538992,0.003572783,-0.003328148,-0.05967441,-0.03270756,-0.005643716
1.003044,-0.150015,0.2135619,0.002753857,0.00520481,0.002679645,-0.05726947,-0.03293452,-0.005714429
1.001984,-0.1502128,0.2178043,0.001765089,0.005252064,0.006854037,-0.05452653,-0.02941109,-0.0003633438
0.9996117,-0.1502013,0.2138361,-0.0005372579,0.005502989,0.002820689,-0.05371153,-0.0233184,0.003206927
0.9985452,-0.1527743,0.2085136,-0.001534923,0.003163172,-0.002564315,-0.05276665,-0.01723562,0.00493185
0.9967978,-0.1550532,0.2114724,-0.003214916,0.001110797,0.0003344125,-0.05263555,-0.01981463,0.0003850759
0.9949822,-0.1529903,0.2116951,-0.004964424,0.003393386,0.0004997089,-0.05045606,-0.02894544,-0.008844975
0.9964799,-0.1508071,0.2070898,-0.003402001,0.005789136,-0.004160533,-0.05152543,-0.02978579,-0.00616465
0.9988094,-0.148524,0.2068842,-0.001008796,0.008277368,-0.004418459,-0.05327788,-0.03345265,-0.002688323
1.000143,-0.1464765,0.2077054,0.0003869839,0.01052222,-0.003646814,-0.05292087,-0.03574281,-0.002594467
0.9986919,-0.1466141,0.2123899,-0.001002325,0.01057373,0.0009909981,-0.05011148,-0.03129387,0.003097094
0.9962389,-0.1459084,0.2158541,-0.003395253,0.01145978,0.004411291,-0.04394746,-0.03371755,0.002565393
0.998292,-0.1441032,0.2081631,-0.001283104,0.01343621,-0.003320914,-0.04405002,-0.03213447,0.001894074
1.000418,-0.1459795,0.2023011,0.0009008778,0.01172154,-0.009221441,-0.04525136,-0.02667072,0.006916222
0.9997673,-0.149601,0.2098596,0.0003064767,0.008251694,-0.001698789,-0.0463823,-0.02573593,0.006499185
1.000487,-0.1493932,0.2195682,0.001081547,0.008600969,0.007976918,-0.05024102,-0.02670635,0.008376078
1.001837,-0.1487733,0.2196092,0.002485374,0.009352172,0.007987599,-0.04770915,-0.03288004,0.01304072
1.003116,-0.1480214,0.218211,0.003817016,0.01022494,0.006561195,-0.0483085,-0.03148419,0.01146929
1.002881,-0.1468514,0.2174399,0.00363246,0.01150535,0.005763732,-0.05290585,-0.01931554,0.0111301
1.000233,-0.1505483,0.2129978,0.001033034,0.007908376,0.001296526,-0.05234914,-0.01155036,0.01312805
0.9984272,-0.1544471,0.2131833,-0.0007265207,0.004098967,0.001458141,-0.05289135,-0.01495707,0.01230994
0.9963535,-0.1554151,0.2142445,-0.002755674,0.003210063,0.002496481,-0.05447794,-0.02286704,0.01209452
0.9943008,-0.1554958,0.2133425,-0.004765605,0.003198563,0.001572583,-0.0537816,-0.02121101,0.01261796
0.9943123,-0.1532227,0.2159805,-0.004713166,0.005531121,0.004189445,-0.0498391,-0.02188224,0.01299933
0.994255,-0.1504926,0.2154317,-0.004730929,0.008311398,0.003620081,-0.04734252,-0.02590766,0.01427183
0.993644,-0.1493178,0.2126855,-0.005303631,0.009527198,0.0008539015,-0.04793617,-0.02163541,0.01537581
0.9927563,-0.1507565,0.2124416,-0.006153956,0.008120416,0.0005903728,-0.04188214,-0.02503806,0.02042737
0.992849,-0.1541443,0.2127781,-0.006024683,0.004755652,0.0009076477,-0.03551783,-0.02840119,0.02740418
0.9941549,-0.1576481,0.2157228,-0.004682605,0.001266307,0.003833382,-0.03429028,-0.02629703,0.02805276
0.9963689,-0.160528,0.2193369,-0.002432606,-0.001607351,0.007428789,-0.02948315,-0.03011364,0.02276857
0.9993617,-0.1612745,0.220071,0.0005958911,-0.00235525,0.008144149,-0.02333009,-0.03046715,0.01153808
0.9974325,-0.1613872,0.2180271,-0.001297697,-0.002476376,0.006081134,-0.01992748,-0.03064669,0.00356836
0.9942053,-0.1610274,0.2127863,-0.004489437,-0.002131318,0.0008206558,-0.01902242,-0.03131075,0.005760409
0.9962245,-0.1611737,0.2072152,-0.002435038,-0.002298027,-0.004770825,-0.01812854,-0.03072368,0.006029694
0.996346,-0.163879,0.2089583,-0.002278395,-0.005028839,-0.003048481,-0.0167936,-0.03425825,0.006294152
0.9956372,-0.1671871,0.2185535,-0.002952142,-0.008366997,0.006525521,-0.01891108,-0.03205476,0.005973062
0.9989821,-0.1704775,0.2242621,0.0004278771,-0.01169109,0.01221271,-0.01853797,-0.0251049,-0.004409375
1.000402,-0.1692772,0.2205845,0.001883076,-0.01052739,0.008513014,-0.01259016,-0.02127029,-0.01427182
0.9977537,-0.1638622,0.2158829,-0.0007306626,-0.005151048,0.003788291,-0.006231549,-0.02257888,-0.01672675
0.9937143,-0.1609819,0.2163675,-0.004735449,-0.002310733,0.00424857,-0.00289351,-0.02337733,-0.01312818
0.992432,-0.1583699,0.2173108,-0.00598334,0.0002603439,0.005166306,-0.005410801,-0.01995399,-0.005341368
0.9953194,-0.1550893,0.2161292,-0.003061605,0.00349918,0.003957727,-0.01049285,-0.02133984,-0.000378862
0.9974302,-0.1532794,0.21683,-0.0009162783,0.00526675,0.004630026,-0.01496223,-0.02117627,-0.00283498
0.9967334,-0.1530137,0.21744,-0.001578523,0.005489368,0.005210209,-0.01730935,-0.01930834,-0.008919641
0.9935191,-0.1527706,0.2183498,-0.004758207,0.005688643,0.006088524,-0.02139112,-0.02291317,-0.01060318
0.9908648,-0.1504949,0.219399,-0.007377735,0.007919562,0.007104637,-0.03187445,-0.02701246,-0.009375379
0.9933755,-0.1501497,0.2159764,-0.004831843,0.00821884,0.003647205,-0.03936021,-0.03316787,-0.003933902
0.9967501,-0.1527263,0.2157963,-0.001421604,0.005595177,0.003430472,-0.04515838,-0.03166673,0.005785571
0.9970174,-0.1549361,0.2191686,-0.001118073,0.003336823,0.006764329,-0.05059849,-0.02284121,0.01009205
0.997992,-0.1546694,0.2195574,-0.0001067891,0.003553613,0.007112879,-0.04754268,-0.01955995,0.007893614
0.999312,-0.1533297,0.221101,0.00125028,0.004842109,0.008614338,-0.04699963,-0.01814679,0.004072446
0.9980625,-0.15385,0.2201794,3.804743e-05,0.004269161,0.007648466,-0.0492479,-0.02547552,0.005131916
0.9965949,-0.1506398,0.2165254,-0.001392223,0.007425419,0.003948071,-0.04854242,-0.03440135,0.006234497
0.9961895,-0.1462165,0.2165114,-0.001760201,0.01179336,0.0038854,-0.05486372,-0.03007493,0.005881716
0.9982135,-0.1483345,0.2165199,0.0003011052,0.009618299,0.003843129,-0.06171429,-0.02646524,0.01032765
1.002185,-0.1514954,0.2162252,0.004309421,0.006398561,0.003495682,-0.06185225,-0.02226462,0.008990907
1.001907,-0.1536895,0.2173635,0.004068633,0.004143568,0.004579229,-0.06032491,-0.01381261,0.006885291
0.9998575,-0.1558918,0.2170429,0.002055596,0.001878526,0.004202053,-0.05783952,-0.01581088,0.007165809
0.998342,-0.1566256,0.2140755,0.0005757262,0.001080072,0.001176227,-0.0543781,-0.0213908,0.001000698
0.9944926,-0.1562558,0.2116856,-0.00323896,0.001383707,-0.001273665,-0.04818527,-0.02255306,-0.0007337443
0.9942444,-0.1525246,0.212498,-0.003453361,0.005047375,-0.0005225654,-0.04250401,-0.02545514,0.0001242299
0.9955664,-0.1486898,0.2113149,-0.002098251,0.008813258,-0.001768007,-0.04234939,-0.02335432,0.002098137
0.9945194,-0.1504435,0.2103303,-0.003112814,0.006989393,-0.002815662,-0.04250609,-0.0153399,0.006279693
0.9962634,-0.1524957,0.2134292,-0.001336919,0.004865593,0.0002196676,-0.03852353,-0.01151972,-0.001208969
0.9967333,-0.1500939,0.2128993,-0.0008355723,0.007194411,-0.0003738509,-0.03410387,-0.01327392,-0.009915498
0.9969518,-0.1498387,0.2116689,-0.0005860672,0.0073751,-0.001667838,-0.03191124,-0.01955982,-0.008587533
1.000432,-0.1532763,0.2136447,0.00292499,0.003861553,0.0002446523,-0.02872255,-0.02335086,-0.007991654
0.9991845,-0.1545301,0.2149992,0.00170695,0.002530316,0.001536357,-0.025298,-0.02198811,-0.008084466
0.9958921,-0.1535421,0.217327,-0.001556271,0.003439532,0.003801826,-0.02181189,-0.02065364,-0.004135118
0.995664,-0.1523335,0.2160421,-0.001755989,0.004568147,0.002455243,-0.01597067,-0.01951514,-0.003742293
0.9954667,-0.1535324,0.2095086,-0.00192557,0.003288226,-0.004139407,-0.01450921,-0.0217129,-0.008597101
0.9951751,-0.1550282,0.2055073,-0.002190071,0.001710432,-0.008201202,-0.01478583,-0.02164254,-0.01091125
0.9943287,-0.1532007,0.2073579,-0.003010029,0.003455112,-0.006409832,-0.01016284,-0.01725716,-0.01291994
0.9953756,-0.1514519,0.2133466,-0.001937053,0.005120441,-0.0004788308,-0.009453343,-0.01639085,-0.01482189
0.9984037,-0.1495055,0.2166136,0.001116653,0.00698277,0.002732187,-0.0110436,-0.01746831,-0.01519866
0.998579,-0.1492797,0.2154218,0.001317233,0.007123759,0.001486145,-0.009838717,-0.02147055,-0.01800095
0.9968396,-0.1516416,0.2140876,-0.0003974059,0.004676382,9.944081e-05,-0.01292296,-0.02116067,-0.01783846
0.9952104,-0.1531511,0.2118093,-0.002002485,0.003080685,-0.00222966,-0.01606468,-0.01613603,-0.01680079
0.99573,-0.155372,0.2090666,-0.001459129,0.0007729823,-0.005021439,-0.01520817,-0.01900674,-0.01863449
0.997345,-0.1506484,0.2098934,0.0001790728,0.005409318,-0.004241775,-0.01603137,-0.02443147,-0.01781137
0.9969066,-0.1413447,0.2115751,-0.0002364641,0.01462521,-0.002605043,-0.01934154,-0.02947106,-0.01577824
0.9964399,-0.1413973,0.207426,-0.00068095,0.01448419,-0.006796794,-0.02929256,-0.03045875,-0.01070773
0.99619,-0.1436037,0.2041295,-0.0009089879,0.01218832,-0.0101334,-0.04417081,-0.02407579,-0.004379823
0.9981267,-0.1467158,0.2082733,0.001049075,0.008985382,-0.006026872,-0.05158917,-0.02094674,-0.001543688
1.00133,-0.1547281,0.2119591,0.004272746,0.0008806205,-0.002375213,-0.05499412,-0.01980158,0.0004998779
0.9998751,-0.1549877,0.2130029,0.002838429,0.000527204,-0.001362364,-0.06074479,-0.01482582,0.001379554
0.9984011,-0.1491166,0.2131057,0.001383858,0.006303214,-0.001287313,-0.06203476,-0.009727209,0.003800721
0.9989628,-0.1472058,0.213744,0.001963922,0.008117828,-0.0006737006,-0.06259076,-0.01199994,0.003301961
0.9982754,-0.1484239,0.216369,0.001293917,0.006802504,0.001929725,-0.06659795,-0.01789497,0.0002820222
0.9986911,-0.152651,0.2163674,0.001725986,0.002477134,0.001909259,-0.07018237,-0.01731057,0.006933142
0.9989754,-0.155562,0.2162656,0.002025504,-0.0005330431,0.001791104,-0.07353308,-0.01637313,0.01367681
0.9988495,-0.1543633,0.2176845,0.001913638,0.0005657255,0.003196101,-0.06858295,-0.01667515,0.01542423
0.9987223,-0.1555088,0.2180581,0.001799241,-0.0006800467,0.003557777,-0.05749732,-0.01553784,0.01739243
0.9967074,-0.1587908,0.219958,-0.0002040872,-0.004062301,0.005447469,-0.04964961,-0.01632381,0.01658729
0.9970744,-0.1614947,0.2203352,0.0001732209,-0.006866095,0.00581593,-0.04020308,-0.01624656,0.01716563
0.999698,-0.1643872,0.2209828,0.002805893,-0.009857671,0.006455865,-0.0303067,-0.01785639,0.01771885
1.000037,-0.1621092,0.2253466,0.003152682,-0.007677209,0.01081265,-0.01671844,-0.02007257,0.01869222
0.9992159,-0.1548564,0.224441,0.002338259,-0.0005198665,0.009900284,-0.005791237,-0.01827277,0.02154003
0.9982585,-0.1516333,0.2189772,0.001386196,0.002610159,0.004429457,-0.01025879,-0.01832803,0.01940648
0.9983927,-0.1510612,0.2173066,0.001524287,0.003091507,0.00275119,-0.0123761,-0.02121328,0.01820474
0.9988642,-0.1498262,0.2165713,0.001998287,0.004238299,0.002007471,-0.01012504,-0.02364034,0.01927929
0.9974396,-0.1520152,0.214616,0.0005749105,0.001963213,4.302243e-05,-0.01139613,-0.02281957,0.01677027
0.9971125,-0.1556134,0.2149813,0.0002476451,-0.001718765,0.0003983595,-0.008034149,-0.01912938,0.010817
0.9982462,-0.1569776,0.2158607,0.001379963,-0.003164544,0.001267134,-0.007113352,-0.01573545,0.002417429
0.9988016,-0.1570938,0.2145978,0.001932822,-0.003359825,-7.079899e-06,-0.007481363,-0.0114499,-0.002046317
0.9993411,-0.1577492,0.2126988,0.002468545,-0.004091718,-0.001918058,-0.003490174,-0.008464705,-0.002126321
1.001022,-0.161442,0.2087066,0.004144027,-0.007858066,-0.005922663,-0.0003716467,-0.006548485,-0.0008549027
1.003329,-0.1634693,0.2053131,0.006445556,-0.00995581,-0.009328649,0.003599472,-0.006371183,0.003040779
1.001269,-0.1554598,0.2072621,0.004377312,-0.002013148,-0.007392028,0.003530006,-0.01228891,0.008949217
0.9976842,-0.146294,0.2087122,0.000783259,0.007089458,-0.005953559,-0.001071551,-0.0155607,0.01544752
0.9986508,-0.1498964,0.2093258,0.001739023,0.003427344,-0.005350698,-0.006662282,-0.0125543,0.01576468
0.9991412,-0.1550433,0.2132677,0.002217049,-0.001775955,-0.001418297,-0.01535746,-0.01034921,0.01388148
0.9990852,-0.1531598,0.2157841,0.002147262,5.435352e-05,0.001089981,-0.01601222,-0.009559111,0.0184448
1.00021,-0.153502,0.2161585,0.003256861,-0.000338176,0.001457518,-0.01225146,-0.009901034,0.01728892
0.9982247,-0.151858,0.2152738,0.001254736,0.001258566,0.0005670684,-0.01462109,-0.01158944,0.01077563
0.9967446,-0.1489595,0.2113949,-0.0002434115,0.004112663,-0.003316517,-0.01276382,-0.01496003,0.01049084
0.9990754,-0.1500279,0.2085203,0.002068033,0.00300244,-0.006194696,-0.01212321,-0.01709301,0.01225355
1.000642,-0.1488604,0.2098524,0.00361437,0.004130506,-0.004864943,-0.01451273,-0.01507393,0.0153959
0.9991163,-0.1499479,0.2122349,0.00206666,0.003005716,-0.002483479,-0.01008928,-0.0133446,0.01681672
0.9979186,-0.1515247,0.2126372,0.000846123,0.001393479,-0.002080679,-0.007642364,-0.01288068,0.0157168
0.9990268,-0.1516056,0.212765,0.001930288,0.001278987,-0.001950758,-0.003028797,-0.01468382,0.0155167
0.999835,-0.1555363,0.2137777,0.002713529,-0.002683704,-0.0009345992,0.002389825,-0.0174703,0.01010337
1.000875,-0.1546106,0.2159125,0.003727554,-0.001788331,0.001205177,-0.0004623772,-0.0147068,0.006627775
1.001639,-0.1531291,0.2184583,0.004464612,-0.0003354825,0.003757313,0.003422447,-0.01210449,0.006010313
0.9994243,-0.1560713,0.2182333,0.002221562,-0.003304527,0.003539711,0.006716784,-0.0137765,0.002823052
0.9978985,-0.1549171,0.2170283,0.0006664682,-0.002175472,0.002342887,0.000573846,-0.01373579,0.004800589
0.9984959,-0.1527687,0.2147663,0.001233631,-5.036172e-05,8.964849e-05,-0.0007715356,-0.01311794,0.005302554
0.9979287,-0.1508815,0.2112284,0.0006352026,0.001815393,-0.003439017,0.001133335,-0.01413542,0.004063467
0.9964498,-0.1506543,0.2130073,-0.000875581,0.002022843,-0.001650406,0.003600604,-0.01595222,0.005681346
0.9953074,-0.1532568,0.2186012,-0.002050587,-0.0005979018,0.003953764,0.004655432,-0.01782718,0.004010537
0.9942199,-0.155389,0.223799,-0.003171212,-0.002746792,0.00916217,0.002891847,-0.01575491,0.003428068
0.9940343,-0.1593276,0.2264669,-0.003389973,-0.006700592,0.01184062,0.0007824667,-0.01269856,0.002776591
0.9953646,-0.1585544,0.2229392,-0.002092842,-0.005940925,0.008323,-0.003920624,-0.01426914,0.004222913
0.9971068,-0.1550464,0.2181726,-0.0003835103,-0.002444615,0.003565369,-0.00463718,-0.01417026,0.01078426
0.9989621,-0.1576647,0.2160189,0.00143937,-0.005072584,0.00141944,-0.003976373,-0.01050142,0.009446759
0.9983862,-0.1573928,0.2168315,0.0008314854,-0.004808295,0.002238448,-0.006211789,-0.008949405,0.005014504
0.9961357,-0.1559712,0.2219559,-0.001450581,-0.003391999,0.007367807,-0.003500259,-0.009483608,0.004353494
0.997555,-0.1574248,0.2243076,-6.218495e-05,-0.004848776,0.009722925,-0.001236773,-0.01098418,4.787681e-05
0.9988471,-0.1548236,0.2204075,0.001199525,-0.002248338,0.005824294,-0.002453148,-0.01023595,-0.001253688
0.999063,-0.1528962,0.2156156,0.001385746,-0.000319435,0.001031887,-0.003423588,-0.006965717,0.00128975
1.000645,-0.1523054,0.21403,0.002938334,0.0002750939,-0.0005563897,-0.006755928,-0.005982295,-0.0003662679
0.99899,-0.1517625,0.215055,0.001255009,0.0008237792,0.000463872,-0.01191374,-0.006953055,0.0004021158
0.9977319,-0.1547688,0.2146352,-3.129223e-05,-0.002174749,3.750527e-05,-0.01492282,-0.009871796,0.002719428
0.9981967,-0.1550118,0.2150101,0.0004058825,-0.002408361,0.0004041225,-0.0124703,-0.01208174,0.001136461
0.996738,-0.1532433,0.2160259,-0.001079969,-0.0006286423,0.001410014,-0.009097514,-0.01030877,-0.0003821259
0.9974757,-0.1544758,0.2145468,-0.0003688504,-0.001848335,-8.04916e-05,-0.008027224,-0.009076927,-0.002228702
0.9993555,-0.1544222,0.2139062,0.001484928,-0.001780361,-0.0007337394,-0.004957231,-0.00737174,-0.001709646
1.00023,-0.1537242,0.2112908,0.002334385,-0.001066549,-0.003363114,-0.003164251,-0.004879603,0.0009608357
1.00003,-0.1544603,0.208302,0.00210869,-0.001785375,-0.006366831,-0.004829574,-0.005914911,0.00208956
0.9977649,-0.1541504,0.2103392,-0.0001803106,-0.001456904,-0.004345105,-0.004821857,-0.008172074,0.003843521
0.9971794,-0.1534372,0.2115632,-0.0007896661,-0.000723908,-0.003136959,-0.002385061,-0.01046524,0.003527369
0.9991541,-0.1517321,0.2111214,0.001161604,0.00100224,-0.003594538,-0.0007932627,-0.008302318,0.004667633
1.001525,-0.1495634,0.211105,0.003509224,0.00319295,-0.00362659,0.0002853777,-0.002193331,0.009838382
1.001414,-0.1525364,0.2105798,0.003376081,0.0002428461,-0.004167,0.003813357,-0.001879257,0.01244843
0.9982082,-0.156633,0.209925,0.000148061,-0.003830373,-0.004836324,0.006134824,-0.002339969,0.0126405
0.9965643,-0.1554851,0.2099749,-0.001517771,-0.002658381,-0.004800101,0.006260743,-0.003751764,0.01141047
0.9972363,-0.1541584,0.2149538,-0.0008674071,-0.001307094,0.0001660862,0.01117248,-0.01067502,0.01067413
0.9984335,-0.1543003,0.2214088,0.000308569,-0.001423729,0.006609552,0.01962658,-0.01296303,0.01288089
0.9988526,-0.1540994,0.2230333,0.0007068589,-0.001196997,0.008223361,0.02324354,-0.01291412,0.01979321
0.9989979,-0.1558987,0.222424,0.0008318169,-0.002969916,0.007603979,0.01975434,-0.01457156,0.02832959
1.001395,-0.1589382,0.2217813,0.003209297,-0.005982534,0.006951168,0.01707575,-0.01228513,0.02810903
1.002832,-0.1594406,0.2219532,0.004626814,-0.006457421,0.007112749,0.02010417,-0.007647192,0.02639473
0.9994841,-0.1565226,0.2209251,0.001259021,-0.003510949,0.006073846,0.0248025,-0.005623432,0.0289759
0.9961738,-0.1558162,0.2181083,-0.002070525,-0.002775254,0.003245358,0.03059028,-0.007163677,0.02636176
0.9996125,-0.1579835,0.2152634,0.001348904,-0.004912223,0.0003878235,0.03479508,-0.006849886,0.02360392
1.002582,-0.1560806,0.2126118,0.004299623,-0.002977995,-0.002277334,0.03496171,-0.00818589,0.02000843
0.9973389,-0.1527683,0.2187176,-0.0009625955,0.0003666301,0.003814002,0.03491294,-0.01208608,0.01217841
0.9941931,-0.1510924,0.2262589,-0.004127248,0.002075781,0.01134009,0.03265654,-0.009884322,0.012691
0.9965667,-0.1508311,0.2182791,-0.001772222,0.002371079,0.003343911,0.03039941,-0.00797232,0.01531596
0.9980945,-0.1539915,0.2119442,-0.0002626223,-0.0007547804,-0.003008472,0.03185698,-0.005646157,0.01172199
0.9997449,-0.1547137,0.2172047,0.001370022,-0.00144214,0.002233318,0.03065569,-0.0006122842,0.01111228
1.000909,-0.1535026,0.2176345,0.002516848,-0.0001958893,0.002643258,0.02815417,-0.002404535,0.01121245
1.00158,-0.1535328,0.2162243,0.003170432,-0.0001908352,0.001212356,0.02654501,-0.004370337,0.01029825
1.002861,-0.151312,0.2196206,0.004435163,0.002065291,0.004586859,0.02296879,-0.003790545,0.01171527
1.001386,-0.1512191,0.2207957,0.00294329,0.002193435,0.005739125,0.02157116,-0.005465557,0.01141062
0.9984238,-0.1526457,0.2190406,-3.525768e-05,0.0008017679,0.003960049,0.02060096,-0.004067914,0.01030522
0.9972518,-0.1523631,0.2180866,-0.001223961,0.001118899,0.002980876,0.01742863,-0.0006218763,0.008327869
0.9956458,-0.151009,0.2181686,-0.00284664,0.002507,0.003036466,0.01700629,0.0008678596,0.004651624
0.9953223,-0.1471427,0.2181291,-0.003186639,0.006406516,0.002969289,0.01559384,-0.000551102,0.003611739
0.9983905,-0.1454529,0.2188738,-0.0001346901,0.008128672,0.003685004,0.009232057,-0.002973623,0.002706697
0.9992579,-0.1451161,0.2199226,0.0007169646,0.008496376,0.004703671,0.004165777,-0.001077769,0.001538574
0.9990221,-0.1438735,0.2193704,0.0004658148,0.009768142,0.00411996,0.00346092,0.002485654,0.002274422
0.9994592,-0.1458616,0.2198133,0.0008879907,0.007806941,0.004530064,0.002958842,0.004354444,-0.0003758706
0.9973326,-0.1507944,0.2228711,-0.001253165,0.002898616,0.007553739,0.0002162355,0.004798606,-0.004179003
0.9967173,-0.1553491,0.22643,-0.001882608,-0.001634301,0.01107686,-0.001004138,0.001563607,-0.005363262
0.9977204,-0.1520656,0.2257464,-0.0008931547,0.001668436,0.01035578,-2.350333e-05,-0.00126944,-0.009893556
0.9981695,-0.1457961,0.2194909,-0.0004570947,0.007954544,0.004060808,2.487798e-05,-0.001423967,-0.0151548
0.9998185,-0.1471565,0.2161172,0.001179447,0.00660823,0.0006453871,0.000800493,-0.0009909202,-0.01499181
1.00036,-0.1482586,0.2173041,0.001708941,0.005517384,0.001788617,0.002735114,0.003293204,-0.01509537
0.9998952,-0.1484439,0.2184438,0.001232878,0.005340307,0.002882809,0.006678618,0.006085215,-0.01705425
0.9999434,-0.1522612,0.2206712,0.001270146,0.001528332,0.005062896,0.01535444,0.003185922,-0.01548254
0.9995119,-0.1535942,0.221203,0.000827953,0.0001975828,0.005545731,0.02635857,0.001962902,-0.01252707
0.9973612,-0.1541496,0.2212434,-0.001333015,-0.0003583718,0.005535506,0.0370284,0.001790257,-0.009494403
0.9947312,-0.1542289,0.224516,-0.003973012,-0.0004407551,0.008755732,0.04890142,0.000494785,-0.004588356
0.9947167,-0.1509305,0.2243095,-0.003997057,0.002852022,0.008495052,0.06339397,-0.0004196409,0.0005312795
0.9945893,-0.1496926,0.2220166,-0.004133268,0.004081997,0.006146106,0.07094088,-0.002987948,0.006324919
0.9934359,-0.1518794,0.2214917,-0.005294651,0.001884949,0.005563074,0.0686637,-0.005771094,0.00908761
0.9947684,-0.1546173,0.2187307,-0.003969103,-0.000865372,0.002741911,0.07107639,-0.006855809,0.006739064
0.9967558,-0.1555695,0.2188082,-0.001987492,-0.00183198,0.002757279,0.07840079,-0.00457328,0.004617863
0.9977694,-0.1549162,0.2216444,-0.0009783603,-0.001194926,0.0055296,0.08958423,0.0005303143,0.0004270914
0.9986725,-0.1541287,0.2214347,-7.84546e-05,-0.0004252261,0.005254278,0.1096704,0.0005916516,-0.006688065
0.9978687,-0.1523019,0.2222508,-0.0008841522,0.00138238,0.006003164,0.1249479,-0.001399675,-0.01005388
0.9957371,-0.1532423,0.2214771,-0.003016463,0.0004215713,0.005160536,0.1331181,0.0006175671,-0.005089484
0.995131,-0.1543467,0.2180595,-0.003622069,-0.0007043634,0.001672474,0.1459679,0.001652428,0.002073825
0.9943388,-0.149275,0.2192824,-0.00441253,0.00434477,0.002823395,0.1531866,0.002583928,0.001139642
0.9922131,-0.1453289,0.225192,-0.006535049,0.008267316,0.008659621,0.1461765,0.001338389,-0.0001578496
0.9920897,-0.1446368,0.2307766,-0.00665365,0.008934717,0.01416953,0.1390023,-0.00395961,0.002240313
0.9930067,-0.1409433,0.2273869,-0.005730149,0.01260203,0.01070349,0.1337472,-0.007454841,0.002007242
0.994487,-0.1372954,0.2211233,-0.004241403,0.01622197,0.004361806,0.122671,-0.01203807,0.005067173
0.9986126,-0.1386771,0.2231846,-0.0001052375,0.01480992,0.00634303,0.1167447,-0.0125493,0.01333682
1.000568,-0.1399292,0.2227644,0.001862482,0.01352465,0.005840914,0.1140703,-0.005648672,0.02089913
0.9969915,-0.1373956,0.2201934,-0.001699832,0.01602178,0.003186191,0.1003962,-0.003741152,0.01952517
0.9928066,-0.1350163,0.2197372,-0.005868857,0.01836073,0.002644596,0.0860319,-0.006985378,0.01141039
0.9927748,-0.1302707,0.2163142,-0.005883244,0.02306181,-0.0008653452,0.07688085,-0.01092605,0.009246685
0.9955108,-0.1253133,0.2219144,-0.003128021,0.02796965,0.004646799,0.06280547,-0.01375123,0.008363023
0.9975179,-0.1249991,0.231804,-0.001099903,0.0282286,0.01444725,0.04118303,-0.01419648,0.008697351
0.999858,-0.1255865,0.2311828,0.001262926,0.02757945,0.01373581,0.01923305,-0.01449299,0.01183778
1.003188,-0.1305225,0.2295526,0.004617038,0.0225743,0.01201377,0.003426763,-0.01059486,0.00930984
1.00409,-0.1346937,0.2285647,0.00554473,0.01832609,0.01093223,-0.01266815,-0.001981181,0.010786
0.9998636,-0.1293011,0.2240599,0.00134428,0.02363338,0.006331772,-0.03015116,0.005308047,0.01780902
0.9953144,-0.123698,0.2208681,-0.003178187,0.02914269,0.00304238,-0.04420394,0.004787935,0.02124492
0.9970137,-0.1218414,0.2203242,-0.001451668,0.0308965,0.002398927,-0.05552122,0.00233296,0.01856045
0.9983491,-0.1210701,0.2205265,-8.87121e-05,0.03155543,0.002500092,-0.06302879,0.007202069,0.01244308
0.9961722,-0.1239823,0.2182189,-0.002237639,0.02852073,9.006846e-05,-0.07361279,0.006011088,0.0152517
0.9964939,-0.1306179,0.2156531,-0.001887547,0.02175201,-0.002579324,-0.08552713,0.002547496,0.01627155
0.9959595,-0.1337545,0.2165317,-0.002393359,0.01847146,-0.001804809,-0.09029557,0.007087571,0.008677112
0.9956844,-0.1319569,0.2171852,-0.002639493,0.02011458,-0.001255602,-0.09180118,0.006214746,0.006755624
0.9994947,-0.1357063,0.2165507,0.001200193,0.01620014,-0.001994254,-0.09233402,0.00555067,0.003471986
1.002401,-0.1448054,0.217137,0.004135871,0.006925884,-0.001511532,-0.09626588,0.006702288,-0.004327839
1.003068,-0.1502261,0.2169768,0.004832237,0.001320559,-0.001774381,-0.09747407,0.004018389,-0.01075032
1.000473,-0.1492702,0.2149815,0.002267388,0.00208329,-0.003871135,-0.08812628,0.005684278,-0.0121222
0.9961046,-0.1473812,0.2144126,-0.002072413,0.003771464,-0.004540081,-0.07778118,0.005203992,-0.009845994
0.9944107,-0.149237,0.2147648,-0.003737891,0.001708343,-0.004285912,-0.06824054,0.002095883,-0.01097322
0.9942442,-0.1488313,0.2151496,-0.003876421,0.001900992,-0.003996889,-0.06115088,-0.0005232836,-0.004955871
0.9956773,-0.1479023,0.2161544,-0.002415623,0.002612222,-0.003085349,-0.05793542,-0.004796938,0.003651978
0.9971775,-0.1493044,0.2167374,-0.0008880073,0.0009882937,-0.002592762,-0.05479576,-0.004046534,0.006942283
0.9970702,-0.1482769,0.2188492,-0.0009680273,0.001790895,-0.0005683394,-0.05449558,-0.002495261,0.01322006
0.9965284,-0.1494005,0.2201182,-0.0014827,0.0004400059,0.0006162887,-0.05313155,-0.003383081,0.01618444
0.9957113,-0.1534784,0.2190886,-0.002272797,-0.003866819,-0.0004945283,-0.04533027,-0.004998138,0.02134319
0.9975394,-0.1564541,0.2195919,-0.0004178366,-0.007072196,-6.925981e-05,-0.03418057,-0.008706352,0.02852516
0.9995387,-0.1562362,0.2194594,0.001608129,-0.00708384,-0.0002767937,-0.02672002,-0.01152695,0.02852259
0.9982775,-0.1530056,0.2192682,0.0003733816,-0.004081628,-0.0005398422,-0.02126727,-0.01378648,0.03039348
0.9974776,-0.1514004,0.2206243,-0.0004004167,-0.0027029,0.0007474639,-0.0145589,-0.01352239,0.03112813
0.9971979,-0.1486639,0.2236239,-0.0006543939,-0.0001902486,0.003681268,-0.01340172,-0.01006045,0.02839886
0.9970104,-0.1479037,0.2270267,-0.0008165657,0.0003491934,0.007021236,-0.01183967,-0.005717699,0.0257933
0.9974185,-0.1523891,0.2222992,-0.0003834224,-0.004353414,0.002233367,-0.007522604,-0.001936185,0.02443146
0.9971635,-0.1532599,0.2159589,-0.0006138877,-0.005437507,-0.004164817,-0.003857774,-0.002697038,0.02576439
0.9975217,-0.1525194,0.2180257,-0.0002315458,-0.004905813,-0.002153527,0.002308254,-0.002293663,0.02570998
0.9991037,-0.1514814,0.219324,0.001374065,-0.004071565,-0.0009082203,0.002892317,-0.001814858,0.02858144
1.000477,-0.1486018,0.2194192,0.002770873,-0.001390403,-0.0008635927,0.004480669,-0.008220908,0.03090141
1.000055,-0.1497714,0.2235886,0.002371365,-0.002752632,0.003257894,0.007512757,-0.009863734,0.02811517
0.9988848,-0.1536402,0.225832,0.001222726,-0.006808132,0.005455656,0.0006611433,-0.007265221,0.0277747
0.999411,-0.1554619,0.2261199,0.001769854,-0.008810285,0.005700133,-0.001350121,-0.009919319,0.03015011
1.000263,-0.1525281,0.227252,0.00264203,-0.006050126,0.006790626,-0.0003808791,-0.009066103,0.03384511
1.000085,-0.1473406,0.2275435,0.002482948,-0.001029379,0.007041962,-8.001472e-05,-0.006736518,0.03428427
0.9998792,-0.1443384,0.2300633,0.00229462,0.001813357,0.00952281,0.005985946,-0.008872436,0.03096777
1.000186,-0.1475367,0.2321879,0.0026175,-0.001537409,0.01160904,0.003509829,-0.006826474,0.02440218
1.000972,-0.1535447,0.2306388,0.003419659,-0.007690747,0.01002189,-0.000527824,-0.001236229,0.01567615
1.001051,-0.1479093,0.2320333,0.003511821,-0.002193613,0.01137812,0.0006163362,0.001295604,0.01749675
0.9988268,-0.1418575,0.2328157,0.001299999,0.003727038,0.01212155,-0.004463007,-0.0005150035,0.02007143
0.9962519,-0.1456097,0.2299149,-0.001264204,-0.0001492225,0.009180706,-0.008044971,-0.002505578,0.01592565
0.9972768,-0.144457,0.2270291,-0.0002301033,0.0008861638,0.006253393,-0.007385689,-0.003098541,0.02072816
0.9997387,-0.1439178,0.2228731,0.002239542,0.001314748,0.00205426,-0.005479201,-0.006096058,0.0248529
1.000107,-0.1462435,0.2259705,0.002614151,-0.001115322,0.00510696,-0.002133032,-0.00600269,0.01950705
0.9998005,-0.1453815,0.2313925,0.002312826,-0.0003514997,0.01048263,-0.001777341,-0.005432812,0.01628048
0.9981734,-0.1460944,0.2250588,0.0006893682,-0.001156574,0.004100847,-0.002662319,-0.008284077,0.0144042
0.996481,-0.1448197,0.2214333,-0.001000782,3.183758e-05,0.0004254852,-0.006260223,-0.006119087,0.01109493
0.9972981,-0.1438852,0.2245788,-0.0001828253,0.0008857664,0.00351947,-0.01204542,-0.00426255,0.008624975
0.9972757,-0.1452284,0.2244925,-0.0002054834,-0.0005324383,0.003380027,-0.01400925,-0.004138217,0.006438678
0.9960993,-0.145921,0.2277319,-0.001383258,-0.001294781,0.006564852,-0.01339894,-0.001824301,0.003083715
0.9953235,-0.1483085,0.2317116,-0.002161381,-0.003746881,0.01048843,-0.01302259,-0.002983399,-0.001574243
0.9939115,-0.1492083,0.2282173,-0.003576515,-0.004706145,0.006936422,-0.01471272,-0.003306802,-0.002851818
0.9930612,-0.1508566,0.2246102,-0.004430485,-0.006408849,0.003269742,-0.01541492,-0.000231474,-0.002133478
0.9945506,-0.1551701,0.2256692,-0.00294507,-0.01077147,0.004267521,-0.01464646,0.002199101,-0.003550678
0.996725,-0.1575007,0.2227437,-0.0007747792,-0.01314585,0.001279089,-0.01542698,0.003615212,-0.004075859
0.9956379,-0.1567554,0.2172227,-0.001866069,-0.0124386,-0.004306281,-0.01366207,0.002871319,-0.006898107
0.9934023,-0.1548494,0.2192426,-0.004105666,-0.01056465,-0.002351972,-0.0123987,0.001661289,-0.01265103
0.9933798,-0.1573273,0.2209117,-0.004131993,-0.0130682,-0.0007491655,-0.01382034,0.0005322788,-0.01393971
0.9945189,-0.1599928,0.2187299,-0.002996149,-0.01575295,-0.002997697,-0.01366742,-0.001661228,-0.0103097
0.9970887,-0.1598739,0.2194573,-0.0004291709,-0.01564637,-0.002337082,-0.01422168,-0.0003960778,-0.005282277
0.998901,-0.1634199,0.2195077,0.001381107,-0.01919742,-0.002353354,-0.0126455,0.006859603,-0.004702875
0.999126,-0.1648171,0.2203937,0.001604558,-0.02059213,-0.001533444,-0.007513712,0.0141589,-0.008161469
0.9963964,-0.1616705,0.2194886,-0.001126031,-0.01743504,-0.002503833,-0.005328412,0.01379286,-0.008806743
0.9913973,-0.1587483,0.2125601,-0.006125652,-0.0144939,-0.009496628,-0.01042411,0.003871906,-0.007880673
0.9942384,-0.1555486,0.2112211,-0.003284433,-0.01126678,-0.01089854,-0.02167971,-0.006474834,-0.00470806
0.9980414,-0.1550978,0.2175816,0.0005193563,-0.01078,-0.004598966,-0.03192838,-0.00564735,-0.001071981
0.9953637,-0.1562788,0.2235253,-0.002156709,-0.01191664,0.001286161,-0.03947736,0.0002217732,-0.002571348
0.9982821,-0.1576412,0.2221012,0.0007641066,-0.0132264,-0.0001940019,-0.03899823,0.001855358,-0.001006604
1.000957,-0.1620251,0.2150124,0.003442463,-0.01754955,-0.007336505,-0.03152411,0.005253527,0.009315512
0.9959065,-0.1646281,0.2100559,-0.00160456,-0.02008341,-0.01234391,-0.03217584,0.008013629,0.01871252
0.9931807,-0.1616651,0.2017803,-0.004326146,-0.017043,-0.0206674,-0.03185102,0.003546895,0.01749492
0.9950538,-0.1564632,0.1978904,-0.002448165,-0.01175529,-0.02460125,-0.02763482,0.002862739,0.01254133
0.9993424,-0.1550748,0.2058428,0.001846009,-0.01027263,-0.01668794,-0.02920937,0.01388454,0.009744303
1.004353,-0.1599461,0.2075958,0.006863012,-0.01504156,-0.01496856,-0.02776742,0.02399252,0.002717321
1.006155,-0.1651423,0.2020787,0.008671602,-0.02012741,-0.02051313,-0.02811237,0.01791994,0.003581862
1.001538,-0.1661891,0.1996468,0.00406085,-0.02105599,-0.02296566,-0.02661683,0.006045235,0.01132024
0.9953703,-0.1638903,0.2047095,-0.002101003,-0.01863078,-0.01791638,-0.01200863,0.002711099,0.007728256
0.9960176,-0.159661,0.2106652,-0.001448035,-0.01426704,-0.01196612,-0.001076772,0.001904399,0.005961604
0.9998034,-0.1557372,0.2045329,0.002343108,-0.01020069,-0.01809574,-0.003572549,0.007419795,0.00527856
1.00226,-0.1570977,0.2003077,0.004804747,-0.01141105,-0.02230987,-0.0066677,0.01743195,7.655863e-05
1.00181,-0.1642714,0.2041791,0.004358432,-0.01842715,-0.01841874,0.0007010802,0.01949287,0.006064133
0.9991541,-0.1700788,0.2055352,0.001706613,-0.02406983,-0.01703374,0.009043173,0.01861785,0.01527405
0.9984281,-0.1707974,0.2099219,0.000983465,-0.02461641,-0.01260904,0.01844443,0.01457247,0.02089005
0.9967857,-0.1646558,0.2137512,-0.0006569334,-0.01829526,-0.008732387,0.03161524,0.012406,0.018553
0.9960439,-0.1584983,0.2118489,-0.001397633,-0.01195083,-0.01057848,0.03164625,0.01601891,0.008748981
0.9960242,-0.1622056,0.212756,-0.001416861,-0.01546391,-0.009606335,0.03073265,0.01274723,0.00947091
0.9941725,-0.1649868,0.2149064,-0.003268721,-0.01804387,-0.007382577,0.03498444,0.009481122,0.01230477
0.9969601,-0.1625362,0.2127661,-0.0004816723,-0.01538526,-0.009441519,0.03210912,0.007533211,0.0190625
0.9977171,-0.1610173,0.2113302,0.0002744046,-0.01365184,-0.01078833,0.02917992,0.002954288,0.03497766
0.9949478,-0.1563573,0.212739,-0.002496008,-0.008771173,-0.009282981,0.02367348,0.003835591,0.03589488
0.9961357,-0.1540111,0.216501,-0.001309374,-0.006198578,-0.005417454,0.01802972,0.001489895,0.02360094
0.9939988,-0.1573507,0.2247539,-0.003447697,-0.009306581,0.002945539,0.01448389,-0.003158997,0.007674677
0.991921,-0.1609755,0.2276061,-0.005526777,-0.01269537,0.005913811,0.01158793,-0.006350793,-0.004780981
0.993851,-0.1642385,0.2264931,-0.00359774,-0.01571813,0.004921904,0.01081566,-0.01288085,-0.004933263
0.9937604,-0.1602465,0.2353762,-0.003688849,-0.011482,0.01393003,0.0008984374,-0.01275428,-0.008423735
0.9944536,-0.1532722,0.2425779,-0.002995506,-0.004260128,0.02125948,-0.004601087,-0.0113767,-0.01285603
0.9939105,-0.1556986,0.2397726,-0.003537655,-0.006435769,0.01858346,-0.001932226,-0.01200024,-0.009118107
0.9924294,-0.1586449,0.2357655,-0.005016887,-0.009128811,0.01470556,-0.006174676,-0.003744327,-0.01070816
0.9944124,-0.1581072,0.2328023,-0.003031014,-0.008335965,0.01187033,-0.006937996,0.005963745,-0.01467459
0.9955186,-0.1607098,0.2320315,-0.001920803,-0.01068172,0.01122545,-0.00783829,0.01358895,-0.0146818
0.9949148,-0.1615702,0.23219,-0.00251934,-0.01128399,0.01150679,-0.01400453,0.01646364,-0.01543768
0.9933948,-0.1606936,0.2326385,-0.004032898,-0.01014826,0.01207444,-0.01887417,0.01275169,-0.01559309
0.9920646,-0.1604612,0.2337912,-0.005355383,-0.009655905,0.01334196,-0.02322261,0.01173349,-0.01856615
0.9914069,-0.1591762,0.2335108,-0.006003846,-0.008110473,0.01317131,-0.02652531,0.006648884,-0.02195146
0.9885081,-0.1601375,0.2340456,-0.008891892,-0.008811008,0.01381019,-0.03252401,-0.0003799871,-0.01506856
0.9867682,-0.162487,0.2351373,-0.0106192,-0.0108998,0.01499985,-0.03876956,0.0005491149,-0.004607032
0.9880606,-0.1667876,0.2346033,-0.009312052,-0.01493993,0.01455701,-0.04071609,-0.0001505643,-0.0006691571
0.9903302,-0.1723427,0.2330829,-0.007025284,-0.0202348,0.01312047,-0.03146122,-0.0009105743,-0.002515777
0.9928249,-0.1727272,0.2304782,-0.004510803,-0.020359,0.01059196,-0.01406699,0.0008233772,-0.00500563
0.9927797,-0.1709933,0.2283172,-0.004533457,-0.01836465,0.00849924,-0.00941771,0.0002906674,-0.005958083
0.9903386,-0.1705921,0.2288907,-0.006949379,-0.0177024,0.009132968,-0.008333085,0.001216622,-0.008700925
0.9881183,-0.1707471,0.2298176,-0.009141742,-0.01759569,0.01011199,-0.005107894,-0.0002153789,-0.008654595
0.9891418,-0.1710953,0.2293342,-0.008087433,-0.01768127,0.009672503,-0.008341902,-0.004355845,-0.006807165
0.9932374,-0.170622,0.2317459,-0.003958014,-0.01694435,0.01211996,-0.00488346,-0.006264407,-0.008904838
0.9949944,-0.1703398,0.2347259,-0.002164201,-0.0163975,0.01512743,0.0006519461,-0.006918223,-0.008425356
0.9935998,-0.1682738,0.2345019,-0.003519158,-0.01406578,0.01492237,0.004203422,-0.005964515,-0.007233872
0.9915677,-0.1656508,0.2359964,-0.005508952,-0.01117591,0.01642721,0.01049477,-0.006660223,-0.006133405
0.9912311,-0.1661641,0.2365632,-0.005800631,-0.01142138,0.01699554,0.01390165,-0.008650103,-0.001851793
0.992475,-0.1654196,0.2328038,-0.004509181,-0.01040826,0.01322857,0.01834574,-0.009968408,-0.001141844
0.9934063,-0.163014,0.2303318,-0.003527827,-0.007733588,0.01073983,0.01687337,-0.01013831,-0.000656273
0.9958155,-0.1636506,0.2288875,-0.001066196,-0.008101,0.009269784,0.01106436,-0.003386087,-0.001312091
0.9964261,-0.1638165,0.2269232,-0.0004009354,-0.007997687,0.007270824,0.01199598,0.002738458,-0.01220438
0.994289,-0.1597224,0.2273071,-0.002481462,-0.003634934,0.0076116,0.01137901,-9.102979e-05,-0.02272541
0.9944081,-0.1561531,0.2265999,-0.002304025,0.0002021421,0.006852927,0.009390451,-0.002911676,-0.02231168
0.9944762,-0.1553121,0.223944,-0.002176009,0.001309457,0.004137858,0.004433433,-0.003466181,-0.01968129
0.9943195,-0.1533243,0.2249009,-0.002271318,0.003561494,0.005028158,-0.002022643,-0.006071884,-0.02185393
0.9946777,-0.1492667,0.2253114,-0.001850642,0.007880476,0.005365141,-0.002028021,-0.005891964,-0.02409717
0.9941959,-0.1466552,0.2229609,-0.002268804,0.01074974,0.0029346,-0.005195696,-0.001988035,-0.02691562
0.9947714,-0.147163,0.2238828,-0.001628638,0.01049519,0.003770568,-0.01260838,-0.0004010468,-0.03137603
0.9955285,-0.1478119,0.2263524,-0.0008062133,0.01009407,0.006148646,-0.01969081,0.001922303,-0.03392203
0.9968458,-0.1491506,0.2266098,0.0005771423,0.00899696,0.006309379,-0.02574279,0.004505844,-0.03848322
0.9978177,-0.1521093,0.2242326,0.001615353,0.006272946,0.003830692,-0.03223269,0.001488115,-0.0379846
0.9969375,-0.1517093,0.2215456,0.0008017278,0.006900191,0.001037908,-0.0424793,0.00016327,-0.02794657
0.9972002,-0.1492122,0.2201924,0.001130794,0.009616541,-0.0004250283,-0.04755774,0.00499138,-0.02491466
0.9972222,-0.1509165,0.2178763,0.001218851,0.008123214,-0.002854299,-0.05046829,0.008758094,-0.03071917
0.9961316,-0.1570288,0.2166444,0.000193762,0.00221312,-0.004202007,-0.05295621,0.005760742,-0.0367213
0.9960544,-0.162252,0.2167871,0.0001813774,-0.002816737,-0.004177116,-0.04635962,0.001287747,-0.03884966
0.9974615,-0.1618122,0.216774,0.001652416,-0.002192456,-0.004309461,-0.0406572,0.001533043,-0.0366565
0.9991638,-0.1584964,0.2189835,0.003417628,0.001299328,-0.00221997,-0.03529859,0.0008450336,-0.03712363
0.9978967,-0.155571,0.2219614,0.002212182,0.004392206,0.0006378296,-0.03052819,2.279135e-05,-0.03869438
0.9964122,-0.150747,0.2240777,0.0007877585,0.0093752,0.002634116,-0.03600185,0.001891295,-0.04152909
0.9976793,-0.1485111,0.226561,0.002113511,0.01176156,0.004997883,-0.03877666,0.002422933,-0.04544664
0.9982719,-0.1520125,0.2311468,0.002762909,0.008401708,0.009464655,-0.0366148,0.002040371,-0.03964554
0.9985797,-0.1536978,0.2332548,0.003125619,0.006848785,0.01145407,-0.03397042,-0.0005978804,-0.03328102
0.9985921,-0.1544359,0.2245209,0.003190913,0.006233864,0.002601778,-0.02764354,-0.002928448,-0.03727226
0.9965448,-0.1568152,0.2161444,0.001194218,0.003968467,-0.005892759,-0.02417802,-0.001418998,-0.0392721
0.9953259,-0.1577751,0.2208852,2.375583e-05,0.003113274,-0.001269454,-0.018202,-0.0009533234,-0.0365189
0.9957858,-0.1589343,0.2247152,0.0005297824,0.002049868,0.002444006,-0.01114143,-0.002491274,-0.03625342
0.996023,-0.1582145,0.2212634,0.000810807,0.002856751,-0.001123102,-0.01147346,-0.004718267,-0.03342033
0.9957816,-0.156863,0.2227418,0.0006109994,0.004286928,0.0002414177,-0.005018097,-0.007359063,-0.02826311
0.9964435,-0.1573189,0.2249451,0.001312174,0.003901367,0.002332534,0.005075196,-0.007376748,-0.02789005
0.9995474,-0.1568456,0.2213985,0.004453173,0.004437023,-0.001324567,0.003933327,-0.00477377,-0.02609915
1.002413,-0.1588646,0.2165336,0.007353784,0.0024726,-0.006297963,0.002458197,-0.003132072,-0.02147289
1.001773,-0.1598433,0.2107456,0.006745934,0.001540855,-0.01219201,0.006123095,-0.002081921,-0.01975328
1.000136,-0.1549488,0.2115934,0.005138285,0.00647499,-0.01144752,0.007013374,-0.001896531,-0.01534995
0.9990016,-0.1486581,0.2174777,0.004029722,0.01279817,-0.005662838,0.006719532,-0.004340679,-0.009782846
0.9966306,-0.1450824,0.2173926,0.001681972,0.01639915,-0.005843727,0.006289123,-0.006306653,-0.01094382
0.9964516,-0.1458717,0.2174773,0.001523181,0.01562766,-0.005850449,0.005373065,-0.007923339,-0.01121351
0.9980026,-0.145534,0.2152065,0.003091328,0.01597549,-0.008208164,0.006169952,-0.008223937,-0.006658512
0.9963332,-0.1450282,0.2103534,0.001436137,0.01648326,-0.01314336,0.004421276,-0.006364669,-0.00588728
0.9966507,-0.1468207,0.2133368,0.001765064,0.0146845,-0.01023677,1.216474e-05,-0.006689588,-0.006274941
0.9982889,-0.1452727,0.21595,0.003411782,0.01621771,-0.00769476,-0.004385217,-0.004933621,-0.006593467
0.99694,-0.1440704,0.2160088,0.002068669,0.01739658,-0.007701242,-0.009014879,-0.001205854,-0.009548062
0.9985997,-0.1421928,0.214922,0.003731462,0.01924203,-0.00884738,-0.01200158,-0.001144284,-0.004953973
0.9992706,-0.1399773,0.210884,0.00440279,0.0214162,-0.01293841,-0.01410339,-0.002227248,0.001471519
0.9959538,-0.146683,0.2123225,0.001083743,0.01465994,-0.01154643,-0.01267699,-0.005765074,0.001406805
0.995512,-0.1525667,0.2135741,0.0006370218,0.008716344,-0.01033469,-0.01015825,-0.0112938,0.003803169
0.9968253,-0.1505469,0.2115165,0.001942991,0.01066709,-0.01242514,-0.01143415,-0.01248899,0.002356537
1.000225,-0.1516358,0.2129055,0.005332675,0.00950028,-0.01106193,-0.01113962,-0.008994928,-0.002510988
1.003936,-0.1547868,0.2126687,0.009032337,0.006262947,-0.01131726,-0.01174206,-0.006381864,0.000413712
1.001176,-0.1499001,0.2118488,0.006257589,0.01105525,-0.01214832,-0.01266484,-0.006785508,0.002842806
0.997613,-0.1438267,0.2120758,0.002677239,0.01702646,-0.01192498,-0.01222063,-0.006371279,0.004757883
0.9988481,-0.1461796,0.2103964,0.003892541,0.01456395,-0.01360057,-0.0158731,-0.006556203,0.01028857
1.000247,-0.1490604,0.2097601,0.005269322,0.01156598,-0.01422533,-0.01704934,-0.007937878,0.009901156
1.001635,-0.1513233,0.2080544,0.00663248,0.009178544,-0.01591169,-0.01630946,-0.006430751,0.009431595
1.003649,-0.1560042,0.2071889,0.008618044,0.004366304,-0.0167498,-0.01639549,-0.004000609,0.01379908
1.002647,-0.1560764,0.2133509,0.00758596,0.004156291,-0.01055242,-0.009566548,-0.002647152,0.01099994
1.001356,-0.154285,0.2187425,0.00626163,0.005804074,-0.005117349,0.002943176,-0.003064189,0.006158535
1.001607,-0.1523504,0.2159602,0.006476192,0.00758964,-0.007848323,0.01199193,-0.003987748,0.006748435
1.001096,-0.1487402,0.2128355,0.005926157,0.01104603,-0.01091424,0.009270951,-0.001107815,0.006777291
1.001476,-0.1495784,0.2139078,0.0062641,0.01004945,-0.00977583,0.003968658,0.00393812,0.007852854
1.001391,-0.1509411,0.2123407,0.006134365,0.008524029,-0.01126976,0.002720943,0.00690483,0.008157132
0.9998256,-0.1494238,0.2103605,0.004521032,0.0098746,-0.01316979,-1.200975e-05,0.004357652,0.005588058
0.9982007,-0.1496411,0.2133644,0.002845423,0.009486795,-0.01007906,0.005978516,-0.001757161,0.004058155
0.9966616,-0.1485688,0.2153814,0.001252875,0.01038507,-0.007968425,0.01379322,-0.00389659,0.002308224
0.9981891,-0.1462983,0.214496,0.00272443,0.01247818,-0.008753843,0.01133195,-0.00176627,0.001929336
1.000479,-0.1468347,0.2136035,0.004956612,0.01176131,-0.009540327,0.01123628,0.002520779,0.0001606126
1.000815,-0.1459056,0.2139923,0.005231537,0.01250674,-0.009039622,0.01025382,0.00662133,-0.004324963
1.001719,-0.1440291,0.2164255,0.006074076,0.01419672,-0.006488875,0.003581632,0.007204678,-0.004404262
1.001341,-0.1477515,0.2189807,0.005630813,0.0102848,-0.003810941,-0.0007315987,0.008445744,-0.002193439
0.9996239,-0.1535374,0.2210051,0.003847769,0.004306597,-0.001659027,-0.001123594,0.009410289,0.001775744
0.9973291,-0.1549737,0.2210044,0.001484761,0.002675616,-0.001527988,0.001536962,0.005237032,0.00637166
0.99516,-0.1530014,0.2195424,-0.0007543199,0.004451239,-0.002854579,0.001933275,0.001805426,0.003165539
0.9974442,-0.1512443,0.2194194,0.00145843,0.006010191,-0.002838979,0.001266182,0.002653161,-0.0006916777
0.9994737,-0.1511218,0.2187644,0.003415436,0.005933407,-0.00335274,0.0024336,0.003392754,0.003738185
0.9965381,-0.1507667,0.2164759,0.0004062472,0.006088552,-0.005497678,0.00215547,0.002616563,0.007629997
0.9953104,-0.1507058,0.2131558,-0.0008958086,0.005948991,-0.008672278,0.002379683,0.002800757,0.00974387
0.9978487,-0.1525319,0.2128093,0.001567547,0.003922254,-0.008871402,0.002267108,0.003978675,0.01480402
0.9993295,-0.1533226,0.2152155,0.00297308,0.002931046,-0.006316308,0.003708274,0.003586727,0.01268097
0.9986082,-0.1525563,0.2148654,0.002176299,0.003497353,-0.006515848,0.008816466,0.003044093,0.004371653
0.9984582,-0.1523419,0.216622,0.001950751,0.003512523,-0.004607486,0.01126989,0.00493942,0.00176989
0.999757,-0.1511676,0.2189703,0.003173893,0.004488788,-0.002106283,0.01038997,0.006182649,0.00266754
1.000612,-0.1495171,0.2167513,0.00395379,0.005942589,-0.004171531,0.009760567,0.00464628,0.004195349
1.001735,-0.1508623,0.2155199,0.005000797,0.004402227,-0.005248662,0.01065324,0.00367371,0.004507978
1.002416,-0.1530458,0.2135801,0.005605984,0.00202528,-0.00703398,0.01070062,0.003705059,0.0038031
0.9985167,-0.1528633,0.2135155,0.001631746,0.002016282,-0.006943939,0.01093664,0.003412044,0.004451916
0.9940846,-0.1528237,0.2186508,-0.002875757,0.00186664,-0.001653902,0.01574799,0.003512989,0.003771405
0.9954869,-0.1538037,0.2199353,-0.001548571,0.0006998915,-0.0002148995,0.02109958,0.003855475,0.003907178
0.9969362,-0.1543296,0.2183718,-0.000173865,-1.004222e-05,-0.001624479,0.0228909,0.004376973,0.002255276
0.9951383,-0.1543298,0.2169082,-0.002045539,-0.0001912335,-0.002934834,0.02156056,0.003166394,-0.001150815
0.9957784,-0.1534375,0.2157749,-0.00147829,0.0005234607,-0.00391599,0.02057551,0.001296823,0.0002066461
0.9963743,-0.151517,0.2163359,-0.0009540911,0.002269796,-0.003204108,0.02103646,0.001342565,0.000721276
0.9952577,-0.1493176,0.2150241,-0.002141007,0.004298748,-0.004366419,0.01902131,6.215336e-06,0.001284715
0.9961165,-0.1498434,0.2158161,-0.001351122,0.003606209,-0.003426439,0.01788425,-0.001946621,0.004531235
0.9962825,-0.1527223,0.2179885,-0.001252225,0.00056432,-0.001107617,0.01863683,-0.002342163,0.005180002
0.9969184,-0.1540734,0.2170886,-0.0006816261,-0.0009459886,-0.001862886,0.01816399,-0.002100545,0.005086659
0.9979333,-0.1553305,0.2160767,0.000269849,-0.002358358,-0.002732094,0.0179938,-0.001279205,0.004626812
0.9961534,-0.1552939,0.2142761,-0.001571448,-0.002472804,-0.004392046,0.01699488,-0.001178004,0.003588303
0.9972374,-0.1514826,0.2161983,-0.0005468479,0.001191753,-0.002331382,0.01583713,-0.0008830014,0.004085967
0.9999173,-0.1481472,0.2188908,0.002075721,0.004384968,0.0004974115,0.01549886,0.0002116771,0.004332042
0.9999445,-0.147779,0.2172097,0.002047572,0.004615402,-0.001049731,0.01597817,0.001206083,0.001558864
0.9997038,-0.1479114,0.2199038,0.001753521,0.004349424,0.001775709,0.01941171,0.001637617,-0.0002986224
0.9972648,-0.1451825,0.2208339,-0.000736932,0.006948893,0.00283442,0.0207113,0.002303801,0.002558494
0.9948018,-0.1433459,0.2186423,-0.003249534,0.008659826,0.0007684873,0.01225612,0.004766073,0.003200311
0.9958326,-0.1449337,0.2208338,-0.002266353,0.006949909,0.003082442,0.0002644249,0.00522529,0.002545225
0.9967695,-0.1445174,0.2185572,-0.001375012,0.007247308,0.0009248927,-0.0035486,0.003423468,0.0003473398
0.9982289,-0.1442718,0.2168389,4.094751e-05,0.007377002,-0.0006779515,-0.006365073,0.0008373586,-0.005335797
1.000846,-0.1457171,0.2205814,0.002616307,0.005818293,0.003176321,-0.01233205,-0.002987752,-0.0008758908
1.000451,-0.1458491,0.2220033,0.002182477,0.00557547,0.004706215,-0.01259726,-0.002317293,0.003808561
0.9992397,-0.1460196,0.2241173,0.0009336285,0.005296356,0.00692414,-0.01372185,-0.000538992,-0.003271799
1.000357,-0.1455279,0.2223414,0.002014936,0.005681483,0.005247912,-0.01564631,-0.001281692,-0.005638225
1.000169,-0.1450422,0.2154732,0.001793218,0.006062689,-0.001525088,-0.01496643,0.001054866,-0.004618598
0.9993823,-0.1453033,0.2128654,0.0009739684,0.005698817,-0.004042255,-0.0183807,0.001617393,-0.009333071
0.9993102,-0.1459154,0.2137619,0.0008708598,0.004985592,-0.003059391,-0.0201498,0.0005834473,-0.01516895
0.9973194,-0.1471988,0.2163678,-0.001149675,0.003602687,-0.0003713042,-0.02150123,0.003791509,-0.01557393
0.9966987,-0.1475454,0.2175227,-0.001798681,0.00315804,0.0008617994,-0.02340475,0.006411416,-0.01163952
0.9979712,-0.1490374,0.2180797,-0.0005531208,0.001569414,0.00149315,-0.02117803,0.006770912,-0.01216648
0.9988404,-0.1506911,0.2203155,0.0002906671,-0.0001792719,0.003799326,-0.02082306,0.005575162,-0.01207954
1.000537,-0.1501116,0.2192571,0.001963476,0.0003066861,0.002807493,-0.01842457,0.00348161,-0.009768953
1.000328,-0.1507287,0.2181405,0.001731788,-0.0004020401,0.001753508,-0.01486893,0.002526574,-0.01084102
0.9994278,-0.151605,0.2182271,0.0008095822,-0.001368179,0.00189871,-0.01607314,0.002065736,-0.009692363
1.000169,-0.1505692,0.2180054,0.00153022,-0.0004202132,0.001731684,-0.01697159,0.002074992,-0.008926962
0.9991009,-0.1495273,0.2201711,0.0004427414,0.0005360189,0.003948178,-0.0160865,0.0009536879,-0.007604922
0.9981213,-0.1501349,0.2218407,-0.0005554078,-0.0001549883,0.005664588,-0.01076675,0.00100911,-0.004298201
0.998403,-0.1508586,0.2235572,-0.0002912612,-0.0009597031,0.007423919,-0.004099936,0.003915454,-0.007070056
0.9968723,-0.1495876,0.2249771,-0.001838697,0.0002325486,0.008882461,-0.002896311,0.005055889,-0.006989895
0.9952073,-0.1482563,0.2216882,-0.003519327,0.001487547,0.005627826,-0.002316109,0.005384747,-0.0008644584
0.9956619,-0.1484888,0.2179539,-0.003079327,0.00118115,0.001923248,0.0003154603,0.005152616,0.004074249
0.9964226,-0.1501558,0.2190987,-0.002332043,-0.0005572664,0.003093474,-5.25731e-05,0.003728002,0.008458827
0.9965165,-0.1522773,0.2204833,-0.002250236,-0.002747909,0.004498959,-0.00377058,0.001579824,0.008741398
0.9975868,-0.1538495,0.2186073,-0.001190678,-0.004386616,0.002639644,-0.004685327,0.0001180382,0.007706199
0.9984713,-0.153142,0.2184722,-0.0003155791,-0.003742998,0.002517051,-9.986764e-06,0.003322543,0.003893115
0.9979172,-0.1482525,0.218373,-0.0008777352,0.001085526,0.002426246,0.006607859,0.002361235,-0.00376901
0.9962192,-0.1445142,0.2171148,-0.002582533,0.004765618,0.001172491,0.008968852,-0.002234284,-0.001124489
0.9938952,-0.1456202,0.217555,-0.004911949,0.003604149,0.001613422,0.01142063,-0.00225948,0.003894457
0.9957271,-0.1472161,0.2156298,-0.003084025,0.001955146,-0.0003145541,0.01634907,-0.005734947,0.004190439
0.9987009,-0.1466518,0.2155585,-0.0001128022,0.002468653,-0.0003919878,0.01268487,-0.002498439,0.00850015
0.9970682,-0.1460208,0.218517,-0.00174647,0.00305096,0.002557426,0.007879112,0.006608722,0.00851943
0.9976263,-0.1470687,0.2175572,-0.001187899,0.001956366,0.001585535,0.007988367,0.001835597,0.005595355
0.999573,-0.1474423,0.2152662,0.0007606493,0.00153793,-0.0007201491,0.005644135,-0.0002661206,0.003497871
0.9986208,-0.1482128,0.2144698,-0.0001883811,0.0007242884,-0.001533773,0.006976152,0.003511913,-0.002268979
1.000268,-0.1500439,0.2196123,0.001462924,-0.001148355,0.003589302,0.0106996,0.001466852,-0.001407551
1.002074,-0.149873,0.2256602,0.00327484,-0.001017223,0.009615597,0.01266556,0.00395498,0.0006739434
1.000244,-0.1486469,0.2192387,0.001450787,0.0001707164,0.003170259,0.01063127,0.004112884,-0.005132216
0.9983937,-0.1456399,0.2100685,-0.0003923896,0.003141294,-0.006025843,0.002375693,0.0008569245,-0.00609783
0.9977072,-0.1437197,0.210065,-0.001071319,0.005026543,-0.00605722,-0.001695613,0.002194812,-0.000585398
0.9981241,-0.1463969,0.2159675,-0.0006464005,0.00231582,-0.0001840486,-0.002960122,0.0007122386,0.004236593
0.9996595,-0.1480372,0.2214956,0.0008976089,0.0006431742,0.005313449,-0.003853786,-0.0009380517,0.004684808
1.000191,-0.1461142,0.2192161,0.001438192,0.002534938,0.00300233,-0.002992956,-0.001524251,0.002282826
0.9980713,-0.1415345,0.2161004,-0.0006721278,0.007084419,-0.0001461435,-0.005076556,0.0009727711,0.003408256
0.9968232,-0.1388994,0.2189874,-0.00191058,0.009689954,0.002707112,-0.00407205,0.007609613,0.004196271
0.9991026,-0.1458172,0.2176514,0.0003788286,0.002743041,0.001336491,-0.003301505,0.00665833,0.005717408
1.000946,-0.155131,0.2135266,0.002232197,-0.006599658,-0.002823824,-0.005428332,0.003514332,0.01007378
1.00037,-0.1545488,0.212828,0.001666998,-0.006046108,-0.003558645,-0.006066983,0.003554634,0.008446606
0.9991647,-0.1515476,0.2147376,0.000471907,-0.003072868,-0.001685511,-0.00975038,0.002736719,0.006004019
0.9990768,-0.1527461,0.2195469,0.0003943921,-0.004298455,0.003087123,-0.00862038,0.00402416,0.004980566
0.9999137,-0.1511136,0.2184858,0.001241469,-0.002691863,0.001989331,-0.003149739,0.003981323,0.0004468099
0.9989117,-0.1516069,0.2133612,0.0002495827,-0.00320978,-0.003171986,-0.001244281,0.003405314,0.001712165
0.9975391,-0.1532693,0.2117411,-0.001113252,-0.00489547,-0.004828718,0.0008159176,0.003977964,0.005246217
0.9982874,-0.1474321,0.2076024,-0.0003552868,0.0009200719,-0.009003621,-0.0003259974,0.002776193,0.004962538
0.9981552,-0.1435077,0.2054477,-0.0004779861,0.004824353,-0.01119364,-0.001770774,0.004479317,0.008686369
0.9981597,-0.1445616,0.2075935,-0.0004642625,0.003751691,-0.009081789,-0.0003089091,0.00591907,0.009526459
0.9990114,-0.147181,0.2119393,0.0003965733,0.001114755,-0.004768103,0.002145409,0.003659738,0.005472384
0.9964874,-0.1519108,0.2189928,-0.002118532,-0.003631486,0.002255391,0.005045479,0.001224099,0.006495122
0.9951942,-0.1550295,0.216883,-0.003402869,-0.006765607,0.0001177338,0.003297205,-0.001325477,0.007316231
0.9976627,-0.1545201,0.2127551,-0.0009256261,-0.006270407,-0.004035994,0.005695241,-7.710334e-05,0.006109689
0.9995066,-0.1509126,0.2172636,0.0009271167,-0.002675564,0.0004488295,0.01134523,0.00161433,0.00746389
0.9998078,-0.150633,0.2191088,0.001237205,-0.002406953,0.002272346,0.01091118,-0.001461253,0.007812172
0.9973473,-0.1527006,0.220831,-0.001214421,-0.004483697,0.003974807,0.01396949,-0.001335534,0.006684793
0.9969335,-0.1525817,0.2218047,-0.001619476,-0.004372247,0.004930352,0.01703414,0.002538271,0.004215283
0.9982853,-0.1547872,0.2167921,-0.0002588455,-0.00658319,-9.904907e-05,0.01811407,0.003437437,0.001499272
0.9964027,-0.1534653,0.2161378,-0.002132714,-0.005264704,-0.0007688807,0.02210078,0.003132884,0.005439484
0.9974138,-0.1469891,0.2168766,-0.001112726,0.001210361,-4.443607e-05,0.02082735,0.005693118,0.01156213
0.9991156,-0.1431874,0.2154925,0.0005979837,0.005013005,-0.001441763,0.01888296,0.006047169,0.01195117
0.9998679,-0.1442595,0.216761,0.001359357,0.00394376,-0.0001853213,0.01787124,0.002563952,0.01395536
1.002378,-0.1492199,0.2182933,0.003878394,-0.001012347,0.001336025,0.01230535,0.00261609,0.0161331
1.000105,-0.1504387,0.2202745,0.001614699,-0.002225448,0.003307296,0.008922959,0.002221726,0.009471614
0.9967362,-0.1478077,0.2197178,-0.001745873,0.0004125799,0.002741495,0.008911644,0.0008515815,0.005116681
0.9946479,-0.1461251,0.2183902,-0.003825856,0.002103251,0.001405435,0.009039577,0.001001277,0.01034027
0.9921373,-0.1459554,0.2186284,-0.006328277,0.002282161,0.001635831,0.007133535,-0.002076648,0.01402044
0.9948718,-0.1480499,0.2139119,-0.00358546,0.0001976592,-0.00308805,0.003105322,-0.001137938,0.01229115
0.9970305,-0.1473289,0.2110649,-0.001418231,0.000929405,-0.005941876,-0.0001795596,0.001635918,0.01265247
0.9957423,-0.1460125,0.2130137,-0.002697515,0.002256964,-0.003999165,-0.001564266,0.001228019,0.01540632
0.9975293,-0.1452661,0.213554,-0.0009010846,0.003015008,-0.003464123,-1.643616e-05,0.003910087,0.01303817
0.9997539,-0.1428932,0.2147667,0.001333341,0.005399759,-0.002255603,0.0005196767,0.005572471,0.007295422
1.000448,-0.1480871,0.2176801,0.002037856,0.0002177153,0.000654649,0.001529679,0.007296435,0.002134315
1.001561,-0.1539854,0.2213281,0.003160926,-0.005668971,0.00430064,0.005064887,0.009522701,-0.0009197312
1.001655,-0.1507285,0.221646,0.003265606,-0.002400507,0.00461737,0.003999505,0.008289251,-0.0007277975
1.000134,-0.1473551,0.2198,0.001755176,0.000984501,0.002770891,0.0008051103,0.006899695,-0.002493948
0.999697,-0.1454202,0.2202808,0.001328525,0.002930999,0.003251574,-0.002027377,0.004920797,-0.002743315
0.9996741,-0.1436214,0.2193304,0.001315487,0.004741443,0.002301203,-0.004083415,0.005599958,-0.0003796793
0.9971951,-0.1455753,0.2180547,-0.001154041,0.002798795,0.001025604,-0.003374065,0.007342356,-0.001238282
0.9950544,-0.1475409,0.2155408,-0.003285666,0.000844057,-0.001488182,-0.003244667,0.005966461,0.000460927
0.9957491,-0.147242,0.2108623,-0.002582156,0.001153202,-0.006166599,0.0009195815,0.005740388,0.003141838
0.9973929,-0.1483658,0.2124327,-0.0009297138,3.899234e-05,-0.004595853,0.005180856,0.003054041,0.003671042
0.9982389,-0.1498843,0.2159539,-7.522548e-05,-0.001470431,-0.001074062,0.0007376664,-0.001690108,0.005472953
0.9985765,-0.1501274,0.2143678,0.0002708585,-0.001705003,-0.002658983,-0.002458679,-0.002061003,0.007417598
0.9979866,-0.1501559,0.2135676,-0.0003106885,-0.001725528,-0.003457289,0.0004160775,7.389145e-05,0.01026308
0.996431,-0.1497703,0.2147365,-0.001858012,-0.0013323,-0.002285902,0.003937346,0.003518954,0.01002566
0.9963405,-0.1500808,0.2152167,-0.001940338,-0.001635439,-0.001802396,0.006063829,0.007517985,0.009050378
0.9959328,-0.1499517,0.216944,-0.002339788,-0.001499119,-7.104216e-05,0.006914863,0.00719558,0.0115453
0.9953043,-0.148673,0.2215284,-0.002959955,-0.0002134499,0.00451825,0.007267765,0.00342823,0.008940967
0.9968212,-0.1473252,0.2251689,-0.001434509,0.001141213,0.008164167,0.00827032,0.001208681,0.004597256
0.998413,-0.1449496,0.223212,0.0001661013,0.00352357,0.006212997,0.01200549,-0.001694143,0.003571248
1.000407,-0.143942,0.2206275,0.002168779,0.004537632,0.00363402,0.01700226,-0.002582208,0.003849169
0.999628,-0.1452269,0.2219447,0.001399316,0.003258737,0.00495642,0.01806385,0.0003100882,0.006058978
0.9965034,-0.1480839,0.2239813,-0.00171601,0.0004071447,0.006997488,0.01513134,0.0001875127,0.003962217
0.9970999,-0.1511083,0.2242966,-0.001110181,-0.002612528,0.007316359,0.0144346,0.001893726,8.577398e-05
0.9964529,-0.1503222,0.2225172,-0.001747832,-0.00182237,0.00553931,0.01482451,0.003715677,0.003170773
0.9940349,-0.1497942,0.2208479,-0.004156324,-0.001290768,0.003870974,0.01349289,0.001206089,0.009198695
0.9937466,-0.1530979,0.2197065,-0.004434873,-0.004591153,0.002728857,0.01370723,0.0007727274,0.01247182
0.9937663,-0.1548554,0.2212415,-0.004404984,-0.006345526,0.004261594,0.01149995,-0.001515544,0.01122217
0.995553,-0.1531172,0.225116,-0.002607625,-0.004604142,0.008132054,0.008443015,-0.002054915,0.00789174
0.9966883,-0.1512605,0.2227126,-0.001460959,-0.002743917,0.005722686,0.00966635,0.0001726583,0.006531291
0.9966731,-0.1512244,0.2195354,-0.001464041,-0.002703801,0.002537423,0.009453032,-0.002698376,0.007523691
0.9993577,-0.1513461,0.2199343,0.001233326,-0.002820873,0.002926157,0.008145924,-0.003195822,0.01094495
1.000778,-0.1504267,0.2173591,0.002667147,-0.001896201,0.0003387807,0.008440542,-0.002454665,0.01325767
0.9996453,-0.1497446,0.2159529,0.001548042,-0.001208005,-0.001081603,0.007484218,-0.002445384,0.009983304
0.9989382,-0.1497323,0.2147211,0.0008550276,-0.001188983,-0.002329456,0.003880405,-0.0008052372,0.005903587
0.9981552,-0.1491,0.2143102,8.623506e-05,-0.0005491101,-0.002757839,-0.0002740606,-0.002273506,0.004266135
0.9966876,-0.1473804,0.2180534,-0.001367101,0.001178774,0.0009666521,-0.001459899,-0.001734073,0.002410054
0.9952292,-0.1471331,0.2192075,-0.002811072,0.001434874,0.002100903,-0.0008201162,-0.0003247965,0.003095897
0.9945545,-0.149588,0.2211505,-0.003471302,-0.001010673,0.004022975,0.0008279482,-0.0009263867,0.005678459
0.993604,-0.152349,0.2209305,-0.004407098,-0.003761789,0.003781054,0.003719,-7.982361e-05,0.007038994
0.9934437,-0.1534051,0.2151782,-0.004552275,-0.004807573,-0.00199416,0.005568493,-0.0009806207,0.009463058
0.9975317,-0.1527081,0.2170094,-0.0004486096,-0.004099645,-0.000186881,0.004657504,-0.0009459363,0.01153762
1.001103,-0.1524943,0.2230532,0.003138658,-0.003874146,0.005832074,-0.0009516728,9.604424e-05,0.01245015
0.997423,-0.1528886,0.2235001,-0.0005244438,-0.004255738,0.006253277,-0.008131363,2.138368e-07,0.01083173
0.9931517,-0.1517817,0.2218817,-0.004778842,-0.003135232,0.004608297,-0.009737809,0.001067482,0.006183137
0.9944682,-0.1513814,0.2247742,-0.003445004,-0.002720101,0.007472991,-0.006390713,0.0004199455,0.005017763
0.9951706,-0.153255,0.2288959,-0.002724724,-0.004577846,0.01156554,-0.004525632,-0.001117495,0.005745121
0.9947926,-0.1547556,0.2272195,-0.003084423,-0.006061353,0.009858394,-0.004776397,-0.003395131,0.006496579
0.9963573,-0.1547045,0.2274891,-0.001500699,-0.005991844,0.01009527,-0.00291525,-0.005548885,0.008953879
0.9960094,-0.1551759,0.2267574,-0.001828965,-0.006443263,0.009328612,-0.0004144286,-0.002154458,0.007872627
0.9955475,-0.1562748,0.2182148,-0.002270587,-0.0075206,0.0007486437,-0.0006504146,0.001596932,0.005961443
0.9970992,-0.155365,0.2142876,-0.0006979039,-0.006587362,-0.003218258,-0.0003880061,0.0005910399,0.007427313
0.9973786,-0.1551479,0.2161351,-0.0003970379,-0.006344828,-0.0014127,0.001661926,-0.0004935882,0.009511976
0.9975726,-0.1566862,0.2179989,-0.0001809666,-0.007855614,0.0004074956,0.002125426,-0.0001667563,0.01075636
0.9990212,-0.157698,0.2200781,0.001290144,-0.008837587,0.002441636,0.005590069,-0.001617037,0.00837992
1.000449,-0.1603075,0.219707,0.002740927,-0.01141485,0.002024111,0.01442859,-0.00399457,0.006620906
1.000353,-0.1619708,0.2177936,0.002667648,-0.01304314,6.311732e-05,0.01849763,-0.004628842,0.009302079
0.9987724,-0.1620073,0.2170239,0.001109997,-0.01304154,-0.0007551469,0.0177095,-0.003659773,0.01022309
0.9964554,-0.1611029,0.2167701,-0.001184394,-0.01209576,-0.001058319,0.01878859,-0.002131683,0.008361237
0.9926325,-0.1564684,0.217417,-0.00498487,-0.007416171,-0.0004613884,0.01916256,-0.002796094,0.005296958
0.9921684,-0.1543483,0.2195548,-0.005426615,-0.005247348,0.001626037,0.01815054,-0.005124382,0.002988232
0.9949916,-0.1543941,0.2197708,-0.002581039,-0.005240661,0.001791538,0.01666676,-0.005755308,0.004583332
0.9943985,-0.1534607,0.2181997,-0.003151647,-0.004251195,0.0001696749,0.01571722,-0.004943196,0.006028225
0.9941823,-0.1554634,0.2161468,-0.003344923,-0.006194395,-0.001933923,0.01539862,-0.002830671,0.005063886
0.9950711,-0.1576633,0.215454,-0.002433021,-0.008331617,-0.002677272,0.01387264,-0.0008933083,0.005717042
0.9949106,-0.1602225,0.2202596,-0.002569854,-0.01082479,0.002078068,0.01456213,-0.001529758,0.008596914
0.9965011,-0.1598789,0.2211854,-0.0009553501,-0.01041186,0.002954118,0.01571739,-0.003548778,0.01103102
0.9968976,-0.1567199,0.2179978,-0.0005343685,-0.007180219,-0.0002827127,0.01527187,-0.004643311,0.01248162
0.9970097,-0.1588242,0.2219512,-0.0003974502,-0.009208356,0.003621927,0.01453492,-0.004222225,0.011768
0.9975934,-0.1588661,0.2243164,0.0002114424,-0.009170725,0.005938866,0.01085178,-0.004028071,0.007982971
0.9957328,-0.1573822,0.2229943,-0.001623696,-0.007603867,0.004568878,0.008298976,-0.004438967,0.006952649
0.9947256,-0.1589391,0.2228723,-0.00260529,-0.009074524,0.004399217,0.008075452,-0.004436127,0.01099807
0.9943163,-0.1571374,0.2171678,-0.002988846,-0.007183182,-0.001352918,0.00930643,-0.004479859,0.01263727
0.9943555,-0.1561264,0.2121437,-0.002923565,-0.006079379,-0.006424326,0.009849572,-0.004972206,0.008952446
0.9955569,-0.1555322,0.215719,-0.001695785,-0.005389292,-0.002895959,0.002906606,-0.005858712,0.005296065
0.9954972,-0.1534984,0.220907,-0.001728742,-0.003256723,0.002245902,-0.00170112,-0.00748957,0.004959613
0.9971313,-0.156497,0.2242012,-6.756234e-05,-0.006153866,0.005494749,-0.0005430286,-0.008803523,0.005568643
1.000216,-0.1632978,0.2272812,0.003044566,-0.01285068,0.008530134,-0.001108614,-0.007202563,0.004482143
0.9999171,-0.1679658,0.2258657,0.002772929,-0.01741222,0.007070406,-0.002419049,-0.005309174,0.003259489
0.9958744,-0.1636872,0.2179074,-0.00124242,-0.01302445,-0.0009318911,-0.00744013,-0.0067475,0.00314131
0.9925177,-0.1577168,0.2127367,-0.004571918,-0.006941773,-0.00614646,-0.01078592,-0.008658139,0.002899189
0.99415,-0.1606006,0.2143594,-0.002912609,-0.009710406,-0.004567249,-0.009047238,-0.008379542,0.003740483
0.9980192,-0.161774,0.2174632,0.000983548,-0.01076568,-0.001506179,-0.0100399,-0.005468759,0.004100074
1.000248,-0.1597923,0.2190737,0.003239525,-0.008662824,6.25076e-05,-0.0130199,-0.003364083,0.0005955305
1.000336,-0.1603947,0.2205776,0.003353994,-0.009141304,0.001525646,-0.01533214,-0.003632887,-0.001104561
0.9997009,-0.1570388,0.2234979,0.002745065,-0.005658728,0.00440617,-0.01588315,-0.002652523,-0.0006470007
1.00008,-0.154534,0.2237551,0.003149955,-0.003024567,0.004624456,-0.01638614,-0.00430389,-0.005024472
1.00009,-0.1561725,0.2212145,0.003184235,-0.004531556,0.002045748,-0.01847014,-0.006894706,-0.007357064
0.9993193,-0.1544428,0.2160278,0.002437761,-0.002668252,-0.003178442,-0.02090164,-0.005097103,-0.005751808
0.9970769,-0.153894,0.2110159,0.0002181853,-0.001984201,-0.008227027,-0.02282344,-0.005704611,-0.008109954
0.9931824,-0.156455,0.2166264,-0.003654778,-0.004408746,-0.002652203,-0.02179503,-0.007205529,-0.00880131
0.9925306,-0.1575681,0.2222543,-0.004285953,-0.005384361,0.00294126,-0.02049546,-0.005819553,-0.008099904
0.9954809,-0.159884,0.2185102,-0.001315926,-0.007561974,-0.0008359447,-0.01934974,-0.004309569,-0.00937835
0.9975046,-0.1644639,0.2172479,0.000726778,-0.01200277,-0.002129995,-0.01540579,-0.002630747,-0.005850551
0.9983128,-0.1674839,0.2184399,0.001553319,-0.01488302,-0.0009684174,-0.0105571,-0.004060794,-0.001955515
0.9988242,-0.1635414,0.2179592,0.0020823,-0.01079969,-0.001478195,-0.006371797,-0.005334304,-0.0002644649
0.9988156,-0.1588033,0.2180545,0.002090488,-0.005919585,-0.001410424,-0.00512856,-0.003835617,0.00165036
0.9997535,-0.1614893,0.217358,0.003044245,-0.00846244,-0.002133064,-0.005442819,-0.004035864,-0.001500821
1.00213,-0.1617893,0.2142861,0.005435342,-0.008618202,-0.005229431,-0.003425357,-0.004341251,-0.005472412
1.003423,-0.1591756,0.2098251,0.006742477,-0.005859313,-0.009713286,-0.0009973321,-0.007506751,-0.004361669
1.002576,-0.1602212,0.2071674,0.005907178,-0.006758731,-0.01239167,-0.001987622,-0.01166429,-0.003335028
1.001423,-0.1604973,0.2082486,0.00476461,-0.006887897,-0.01132864,-0.005411645,-0.008332439,-0.004729275
1.000277,-0.1612106,0.2148461,0.003627576,-0.007453545,-0.004746494,-0.006115846,-0.002909844,-0.005171311
0.9986895,-0.1615982,0.2214631,0.002046231,-0.00769298,0.001858382,-0.004651798,-0.002075498,-0.00342341
0.9984984,-0.1605124,0.2165453,0.001859693,-0.006458351,-0.003068591,-0.004811415,-0.004807496,-0.0006119729
0.9996655,-0.1614394,0.2099033,0.003029365,-0.007236116,-0.009716619,-0.006607549,-0.007478987,-0.0005286111
1.000231,-0.1611612,0.2126137,0.003595569,-0.006808298,-0.007009289,-0.01132184,-0.00582604,-0.002679769
0.9995531,-0.1611533,0.2112529,0.002916064,-0.006650484,-0.008369827,-0.02047536,-0.003229832,-0.001587034
0.9971552,-0.1632727,0.2061889,0.0005146932,-0.0086198,-0.01343007,-0.02514492,-0.003289663,-0.002567043
0.9950662,-0.1641753,0.2074818,-0.001579704,-0.009372046,-0.01212969,-0.01733805,-0.002673388,-0.004995057
0.9956008,-0.1632719,0.2104633,-0.001052222,-0.00831816,-0.009136619,-0.01238,-0.002334988,-0.002074508
0.9963115,-0.1591237,0.2152642,-0.0003502803,-0.00401913,-0.004319913,-0.01898997,-0.003747467,-0.000415345
0.9958104,-0.1562883,0.2184232,-0.0008614365,-0.001032897,-0.001140844,-0.02243706,-0.005894687,-0.0005561877
0.9969467,-0.1602676,0.2155957,0.0002635165,-0.004861497,-0.003944156,-0.02070538,-0.008535092,-0.002678171
0.9999131,-0.1635696,0.2120518,0.003217445,-0.008013159,-0.00745997,-0.02080297,-0.006783007,-0.006052633
1.002246,-0.1590484,0.2041952,0.005537268,-0.003342141,-0.01528457,-0.02188887,-0.003512915,-0.001801701
1.002623,-0.155371,0.1980843,0.005898606,0.0004846007,-0.02135951,-0.02258584,-0.003854768,0.002385429
0.9992533,-0.1599834,0.2069329,0.002513239,-0.003979392,-0.01247032,-0.02126384,-0.003173849,-0.0002532853
0.9959415,-0.1625051,0.2177319,-0.0008159336,-0.006353662,-0.00162581,-0.01532864,-0.003157344,-0.003312922
0.9979978,-0.1596318,0.2175873,0.001221553,-0.003334107,-0.001720137,-0.008555439,-0.003489316,-0.004730462
0.9994701,-0.159494,0.216566,0.002673908,-0.003051287,-0.002686699,-0.009875485,-0.002127843,-0.003981013
0.9972606,-0.1608487,0.2205827,0.0004433438,-0.004262306,0.001388842,-0.01203602,-0.002459753,-0.0008955259
0.9970003,-0.1613436,0.2233155,0.0001609227,-0.004614964,0.004184126,-0.007319995,-0.001433058,0.0008985735
0.9983774,-0.1612095,0.2212349,0.001514944,-0.004340134,0.002169103,-0.006387509,-0.0009339249,-0.0013144
0.9987953,-0.1608653,0.2153363,0.001908815,-0.00385681,-0.003661385,-0.007561665,-0.002098267,-0.001890151
0.9987003,-0.1616574,0.2108453,0.001788952,-0.004511424,-0.008081922,-0.00439694,-0.001536983,0.004068393
0.998465,-0.1628552,0.211632,0.00152808,-0.00557336,-0.007222599,0.0002021935,-0.002293001,0.009552377
0.9986484,-0.1643451,0.211723,0.001685116,-0.006929041,-0.0070567,0.005127968,-0.002298133,0.007796417
0.9986972,-0.1642544,0.2087813,0.001706898,-0.006705642,-0.009921412,0.005483499,-0.002483762,0.004089529
0.9984806,-0.1633337,0.2091959,0.001462561,-0.005653806,-0.009427517,0.006807401,-0.004283662,0.002172765
0.998342,-0.1632787,0.2105301,0.001295622,-0.005469033,-0.008011631,0.01370215,-0.002804952,-0.000759457
0.9968219,-0.1591471,0.2082574,-0.0002534729,-0.001209095,-0.01020028,0.01309212,-0.0006281231,0.001366326
0.9952176,-0.1538601,0.2079477,-0.001887083,0.004204791,-0.01042331,0.006686298,0.0007942322,0.005011669
0.9957159,-0.1553393,0.2086181,-0.00141846,0.002850637,-0.00966373,0.004748164,0.0004585342,-3.679834e-06
0.996177,-0.1601374,0.207036,-0.0009871766,-0.001824584,-0.01115385,0.005182328,-0.001249057,-0.002372164
0.9956472,-0.164053,0.2076065,-0.001546797,-0.005619518,-0.01048873,0.007149398,-0.0007685254,0.001487629
0.9957861,-0.1679059,0.2106237,-0.001437536,-0.009354143,-0.007373947,0.01148882,-0.001809377,0.004082439
0.9963559,-0.1683537,0.2144345,-0.000897034,-0.009685671,-0.003462782,0.01293506,-0.002149915,0.006829511
0.9974824,-0.1660217,0.2146641,0.0002006357,-0.007239239,-0.003130077,0.01185915,-0.0005330564,0.00737158
0.9993633,-0.1659843,0.211932,0.002053204,-0.007088971,-0.005756809,0.01445777,-0.00140606,0.006120467
0.9997948,-0.1652133,0.2133807,0.002456754,-0.00620647,-0.004200543,0.01463552,-0.001748798,0.006299426
0.9997353,-0.1646159,0.2162159,0.002369721,-0.00549876,-0.001255924,0.01209481,-0.001458876,0.006524428
1.000052,-0.1658651,0.2173053,0.00265907,-0.006638795,-5.549119e-05,0.01214771,0.000949564,0.006444929
0.9980589,-0.1640425,0.2118355,0.0006392775,-0.004708073,-0.005412901,0.009282283,0.004735491,0.006866366
0.9959698,-0.1633983,0.203933,-0.001476465,-0.003956736,-0.01320204,0.009380708,0.002592536,0.009807985
0.9946564,-0.1643544,0.2088891,-0.002816221,-0.004806653,-0.00813144,0.01116664,0.0004997212,0.01154002
0.9929229,-0.1635125,0.2149888,-0.004575569,-0.003859551,-0.001915968,0.006279542,0.002335844,0.006081424
0.9952834,-0.1641043,0.2132724,-0.002240166,-0.004347084,-0.003515674,0.002811523,0.00204406,-0.001700642
0.9987025,-0.1638985,0.2145735,0.001154543,-0.004037966,-0.002096927,0.002205654,0.001553217,-0.003992781
0.9970678,-0.1636644,0.2158575,-0.00050356,-0.003701492,-0.0006947502,0.007154028,0.001820246,-0.004357548
0.9955805,-0.1636946,0.215555,-0.002013337,-0.003630341,-0.0008787967,0.01424875,0.0007665973,-0.007041299
0.9961863,-0.1608942,0.2121668,-0.001429131,-0.0007295143,-0.004148435,0.0117669,0.0001681205,-0.006769925
0.9955874,-0.1590715,0.2064323,-0.002048498,0.001192514,-0.009764578,0.009500449,-0.000171994,-0.004996905
1.006306,-0.146073,0.1497184,-0.004467632,-0.0204363,-0.01158866,0.02172956,0.0113447,-0.0317325
1.011583,-0.1464427,0.1509049,0.000902978,-0.0201032,-0.01037555,0.01956457,0.003522209,-0.03099536
1.013118,-0.1462248,0.154676,0.002528961,-0.01918769,-0.006577148,0.01714117,0.003207146,-0.02540263
1.012845,-0.1483716,0.1545533,0.0023459,-0.02064264,-0.006671659,0.02093113,0.00960211,-0.0225136
1.011768,-0.1509736,0.1580128,0.001355064,-0.02255894,-0.003182834,0.02004053,0.01346485,-0.02510637
1.010531,-0.1502251,0.1604008,0.0002026925,-0.02113126,-0.0007642938,0.02450244,0.01621822,-0.02465782
1.009841,-0.1494547,0.1601966,-0.0004059438,-0.01968843,-0.0009368808,0.02786742,0.01407689,-0.024594
1.008792,-0.1500267,0.1640258,-0.001376591,-0.01959493,0.002925015,0.02419053,0.008964892,-0.02454531
1.010862,-0.1489873,0.1602028,0.0007695063,-0.01789748,-0.0008644178,0.0193011,0.007587151,-0.02348923
1.011262,-0.1459484,0.155897,0.001242742,-0.01420818,-0.005135938,0.01110301,0.007445933,-0.0246487
1.011728,-0.1440544,0.1556786,0.001779391,-0.01167185,-0.005319499,0.009799556,0.01384668,-0.02734751
1.012806,-0.1414739,0.1519407,0.002925496,-0.008457676,-0.009021672,0.009963732,0.02081894,-0.03151793
1.011589,-0.1394137,0.1528674,0.001772924,-0.005772861,-0.008058281,0.00622432,0.01851247,-0.03564116
1.013212,-0.1404584,0.1542027,0.003458616,-0.006202794,-0.006685057,0.008743938,0.01996406,-0.03971659
1.011842,-0.141082,0.1532186,0.002147253,-0.006222136,-0.007629781,0.008516704,0.02476498,-0.04096948
1.008191,-0.1402082,0.1521936,-0.001448007,-0.004755052,-0.008613886,0.005205539,0.02179246,-0.04025563
1.006785,-0.1391012,0.1493517,-0.002801387,-0.003066455,-0.01141298,0.003606773,0.01801019,-0.04319669
1.006236,-0.1389818,0.1538896,-0.003301621,-0.002377523,-0.006830261,-0.002702456,0.01692772,-0.03910089
1.00966,-0.1370916,0.160455,0.0001695187,6.946163e-05,-0.0002179201,-0.008068451,0.01340881,-0.03122598
1.010255,-0.1330028,0.1608367,0.0008088794,0.004701864,0.0002128729,-0.01413875,0.01278821,-0.03377602
1.009134,-0.131969,0.1590962,-0.0002696366,0.006265302,-0.001476669,-0.02673395,0.01526412,-0.03313728
1.0107,-0.1321927,0.1531834,0.001335649,0.006556662,-0.007336851,-0.03873567,0.01473541,-0.0281621
1.011018,-0.1325662,0.1484406,0.001690234,0.006682981,-0.01202536,-0.04604207,0.01864802,-0.02846359
1.013203,-0.1340541,0.1522628,0.00391043,0.005678971,-0.008147043,-0.04896135,0.02240677,-0.02482824
1.012601,-0.1344049,0.1562081,0.003340697,0.005795834,-0.004143685,-0.0512726,0.01819916,-0.01960427
1.009773,-0.1357807,0.1541961,0.0005419178,0.004870868,-0.00609558,-0.04852957,0.01706599,-0.01823177
1.009944,-0.1378478,0.1550885,0.0007401615,0.003237582,-0.005141058,-0.04305755,0.01853875,-0.01878844
1.009225,-0.1384279,0.158699,4.552989e-05,0.003074112,-0.001466374,-0.04999686,0.01898638,-0.02292303
1.00995,-0.1382504,0.1575394,0.0007927757,0.003650953,-0.002560061,-0.05583302,0.02078953,-0.0249519
1.009977,-0.1345754,0.1567869,0.0008393216,0.007708055,-0.003245025,-0.05342858,0.02156662,-0.02193033
1.009154,-0.130638,0.1529708,3.44418e-05,0.01201007,-0.006992028,-0.05440564,0.02354175,-0.01787823
1.010278,-0.1337534,0.1463073,0.001173351,0.009241743,-0.01358501,-0.05334023,0.02402784,-0.01383671
1.009617,-0.1380832,0.1502476,0.000526481,0.005241232,-0.009572393,-0.05062692,0.01846193,-0.01238066
1.010722,-0.1376159,0.1554224,0.001642381,0.006020057,-0.004323506,-0.0480422,0.01243048,-0.01421508
1.012615,-0.1369044,0.1535448,0.003545048,0.007025434,-0.006125038,-0.04429027,0.009990322,-0.01617203
1.012103,-0.1354308,0.1526971,0.003040679,0.008775316,-0.00689468,-0.03677048,0.01181939,-0.01711072
1.010753,-0.1312964,0.150193,0.001696197,0.01316862,-0.009318974,-0.02648787,0.01552773,-0.01440726
1.008066,-0.1297852,0.1484825,-0.0009869877,0.01492124,-0.01094762,-0.02844607,0.01360208,-0.01044508
1.008065,-0.132311,0.1550577,-0.0009867804,0.01261934,-0.004288472,-0.02982521,0.0111778,-0.0138341
1.009883,-0.1360628,0.1607125,0.0008308893,0.009073855,0.00145217,-0.02025307,0.01591751,-0.01831646
1.01061,-0.1384698,0.158569,0.001556516,0.006855845,-0.0006036329,-0.01481659,0.01650507,-0.01834544
1.011384,-0.137726,0.1574773,0.002327134,0.007771495,-0.00160621,-0.006911917,0.01059965,-0.02075318
1.010183,-0.1372768,0.1608821,0.001122365,0.008375791,0.001888841,0.00217324,0.006403278,-0.02134773
1.009573,-0.1395816,0.1612088,0.0005058117,0.006209842,0.002306514,0.006949276,0.006357975,-0.01704736
1.011677,-0.140391,0.158038,0.002602224,0.005523379,-0.0007729839,0.01428081,0.01083395,-0.01117635
1.012724,-0.1369816,0.1568447,0.003640829,0.00904029,-0.001874853,0.01474842,0.01141663,-0.004739446
1.010324,-0.1324332,0.1592683,0.00123076,0.01368125,0.0006400189,0.01014292,0.007855456,-0.002271853
1.006108,-0.1314988,0.1619271,-0.002997178,0.01469345,0.003389672,0.005713218,0.005454653,-0.002394534
1.005626,-0.1350609,0.15845,-0.003491023,0.01119462,2.850483e-06,-0.004085807,0.004524136,-0.001766183
1.010197,-0.1386398,0.1542793,0.00106545,0.007664687,-0.004078599,-0.008789568,0.007016881,-0.003504665
1.014029,-0.1398607,0.1557607,0.004883696,0.006478822,-0.002508818,-0.005550211,0.008135723,-0.01099877
1.012894,-0.1389433,0.1551542,0.003732972,0.007417951,-0.003028129,-0.002766191,0.01032262,-0.01795628
1.011273,-0.1344723,0.1511814,0.002095984,0.01189774,-0.006914659,-0.002242229,0.01253009,-0.01461772
1.012041,-0.1315987,0.1478398,0.002846733,0.01476763,-0.01017089,-0.006671393,0.008727392,-0.01073502
1.010068,-0.1338448,0.148739,0.0008565012,0.0125057,-0.009187055,-0.01209897,0.008189324,-0.01043677
1.008762,-0.1334915,0.1556423,-0.0004689227,0.01283118,-0.002199475,-0.01297552,0.01053442,-0.004068846
1.010413,-0.1307554,0.1582923,0.00116182,0.01552771,0.0005344718,-0.01766963,0.01096363,-0.001521492
1.009906,-0.1305038,0.1547227,0.0006344152,0.01572841,-0.002951658,-0.03114141,0.00849553,-0.004618835
1.011616,-0.1317556,0.1542333,0.002323315,0.0144143,-0.003358075,-0.03674773,0.004529274,-0.002506229
1.01527,-0.1377822,0.1587305,0.005955747,0.00831446,0.001221408,-0.03011282,0.006810983,1.67146e-05
1.014934,-0.1440676,0.1619255,0.00559692,0.001945132,0.004498031,-0.02650815,0.008238863,0.003789568
1.011692,-0.142869,0.1568729,0.002331435,0.003049987,-0.0004741029,-0.01952294,0.00619866,0.008058782
1.008999,-0.1438494,0.1510751,-0.0003865298,0.001966759,-0.006192563,-0.005774719,0.006622205,0.004959246
1.012049,-0.1485631,0.1507969,0.002638286,-0.002858048,-0.006392648,0.001268967,0.004861788,0.001431215
1.015478,-0.1451047,0.1488204,0.006041062,0.0004819829,-0.008292087,0.007120316,0.004089883,-0.0001189415
1.01267,-0.1407764,0.1496161,0.003205311,0.004685435,-0.00742011,0.01509513,0.00508728,-0.001925551
1.011654,-0.1433505,0.1560905,0.002160621,0.001980674,-0.0008699494,0.01774331,0.001230689,-0.0002006743
1.013079,-0.1418851,0.1580449,0.003557263,0.003310285,0.001159594,0.02652247,-0.00189484,0.0035644
1.012353,-0.1382041,0.1572568,0.002800195,0.00685098,0.0004459851,0.04229683,-0.0006622873,0.008395271
1.012364,-0.1378975,0.1572855,0.002780304,0.007013168,0.00054821,0.04514543,0.0006735413,0.01014518
1.012716,-0.1346826,0.1559623,0.003099405,0.01007986,-0.0007023884,0.04345294,0.003512535,0.008133933
1.012345,-0.1326998,0.1554375,0.002695004,0.01191084,-0.001155744,0.04235792,0.004434587,0.009887904
1.012546,-0.1308593,0.1533424,0.002861927,0.01359621,-0.00318057,0.02641643,0.001001155,0.01230011
1.012544,-0.1243181,0.1505226,0.002824639,0.01997876,-0.005931257,0.01259081,0.001998613,0.0132621
1.012062,-0.1245693,0.149051,0.002306629,0.01956539,-0.007334876,0.01207694,0.003260523,0.01411231
1.010603,-0.1307627,0.146883,0.0008109232,0.01320596,-0.009435699,0.01280133,0.002592431,0.01408408
1.008256,-0.1335256,0.149017,-0.001574111,0.01027301,-0.007235052,0.01317123,0.008159857,0.01447798
1.008187,-0.1358197,0.1537712,-0.001681792,0.007805132,-0.002414422,0.01022256,0.01104474,0.01115652
1.010473,-0.1379164,0.1553076,0.0005650052,0.005531026,-0.000811921,0.009066758,0.005475784,0.009687629
1.011792,-0.1363757,0.150532,0.001844878,0.006891293,-0.005521585,0.0115784,5.474417e-05,0.01225019
1.012063,-0.1314487,0.1421377,0.002076706,0.01163495,-0.01385011,0.01000164,0.001924432,0.008080403
1.012543,-0.1275196,0.1437146,0.002517506,0.0153782,-0.01220731,0.006848209,0.008124203,0.004728852
1.012707,-0.1274176,0.1482359,0.002641096,0.01529173,-0.007619531,0.002338789,0.01006781,0.005407766
1.01237,-0.1282715,0.147043,0.002264412,0.01424672,-0.008745211,-0.00138505,0.008201839,0.003462526
1.012451,-0.1296243,0.1512839,0.002305807,0.01270015,-0.004435946,-0.009730708,0.004337136,0.00365988
1.012647,-0.1319482,0.1581979,0.002461786,0.01017997,0.002547362,-0.02818389,0.002941358,0.003784772
1.012381,-0.1356976,0.161906,0.002155484,0.006231678,0.006325587,-0.03436939,0.005502003,0.002230153
1.012517,-0.1412798,0.1590972,0.002250816,0.0004485796,0.003587431,-0.02414628,0.009403287,0.003017069
1.012402,-0.1429201,0.1513025,0.002094864,-0.00139432,-0.004136753,-0.020383,0.0174888,0.003735052
1.011487,-0.1401556,0.1495383,0.001139494,0.001166538,-0.005830494,-0.02257043,0.01812959,0.003652763
1.010931,-0.1397587,0.1501014,0.000542702,0.001359545,-0.005197121,-0.01824665,0.0107378,0.003507606
1.010979,-0.1409047,0.1546588,0.0005496108,9.775405e-06,-0.0005695539,-0.01055206,0.009477743,0.00296348
1.011275,-0.1410017,0.1624448,0.0008048512,-0.0002902633,0.007286429,-0.006163997,0.009508733,0.002439393
1.011093,-0.1418544,0.1564805,0.0005820553,-0.001344826,0.001391606,-0.003826815,0.008737721,0.002265916
1.011165,-0.1414536,0.1472834,0.000613761,-0.001144164,-0.007736732,-0.001323933,0.007028889,0.002614476
1.011812,-0.1385717,0.1470774,0.001220376,0.001539712,-0.007874669,-0.001079444,0.004018629,0.00465303
1.011241,-0.1368874,0.1477107,0.0006093817,0.003028595,-0.007173844,-0.002400404,0.003274463,0.01000945
1.010708,-0.1372481,0.1492021,3.659541e-05,0.002475251,-0.005615229,-0.001003369,0.001503134,0.01409309
1.011287,-0.1380629,0.1493109,0.0005763642,0.001470762,-0.00543929,-0.0003154454,0.000497164,0.01120156
1.011753,-0.138161,0.1495524,0.001003381,0.001186211,-0.005130699,-0.001542172,-0.0001645753,0.007841298
1.013235,-0.1381757,0.1526498,0.002447366,0.0009884484,-0.001966261,-0.0001329896,0.0002174967,0.01022171
1.014775,-0.1387527,0.1526386,0.003950256,0.0002320283,-0.001910195,0.001850458,0.003689483,0.01030263
1.013213,-0.1399106,0.1569294,0.002350001,-0.001101504,0.002447764,0.004221174,0.006462277,0.006493863
1.010734,-0.1426921,0.1632512,-0.0001659609,-0.004054624,0.008836369,0.006344124,0.008699424,0.006018519
1.009478,-0.1436849,0.1574992,-0.001458109,-0.005214722,0.003150591,0.007250011,0.004458123,0.008361162
1.009488,-0.1420093,0.1484298,-0.001484521,-0.003701635,-0.005853615,0.01150268,0.0006313066,0.01204521
1.011998,-0.1396103,0.1459937,0.0009893238,-0.001460242,-0.00822553,0.01442394,0.003874453,0.01364727
1.013129,-0.1376383,0.1477163,0.002085747,0.0003594338,-0.006439728,0.01300201,0.001692639,0.012853
1.011835,-0.1432534,0.1519761,0.0007571373,-0.005402675,-0.002117277,0.0126347,-1.232512e-05,0.01331706
1.010853,-0.1501212,0.1566416,-0.0002587683,-0.01241184,0.002610252,0.01387065,-0.0003873695,0.01203184
1.009485,-0.1473632,0.1597519,-0.00166014,-0.009789366,0.005781917,0.0167369,-0.002832783,0.01193635
1.011231,-0.1454069,0.1598187,5.365924e-05,-0.007962217,0.005909124,0.0200253,0.002254076,0.01278836
1.013292,-0.1463756,0.1576439,0.002083415,-0.009053305,0.003793269,0.02064161,0.006282718,0.01083978
1.010292,-0.1428298,0.1564727,-0.0009483934,-0.005622894,0.002679407,0.01907884,0.003464804,0.0114182
1.007997,-0.1413258,0.1560877,-0.003272977,-0.004227037,0.002349857,0.01855782,-0.001186814,0.01241936
1.008203,-0.1406583,0.1536544,-0.003096203,-0.003660465,-3.00825e-05,0.01735669,-0.004497723,0.01331383
1.008441,-0.1368968,0.1502202,-0.00288577,7.251967e-06,-0.003412948,0.01148544,-0.002924406,0.01511516
1.008549,-0.1385262,0.1509816,-0.002804662,-0.001708858,-0.002602159,0.005840035,-0.0003494164,0.01288477
1.009091,-0.1403642,0.1537092,-0.002288753,-0.003626759,0.0001729379,0.004770217,0.001149381,0.01127838
1.010133,-0.1377534,0.1542783,-0.001270186,-0.001089149,0.0007877735,0.005425245,0.003599627,0.01151692
1.009763,-0.1397995,0.155313,-0.001663149,-0.003201995,0.001866414,0.004337192,0.006570717,0.008089058
1.010018,-0.1433873,0.1526033,-0.001428617,-0.006850114,-0.0008011544,0.002955878,0.005931903,0.003016316
1.01261,-0.1465031,0.1479971,0.001143942,-0.0100199,-0.00536709,0.002695572,0.002096314,0.002236276
1.014619,-0.1480817,0.1506225,0.003134462,-0.01164613,-0.002703109,0.001460479,-0.000536533,0.006758607
1.014017,-0.1428752,0.1536071,0.002515888,-0.006480547,0.0003185616,0.001677404,-0.001862516,0.009880407
1.012433,-0.1406728,0.15352,0.0009170345,-0.004312372,0.0002672779,0.002059353,0.002647364,0.008674558
1.012473,-0.143855,0.1522389,0.0009428488,-0.007522232,-0.0009795391,0.001741735,0.007794236,0.006314497
1.012555,-0.1451917,0.1495369,0.001010803,-0.008880033,-0.00364851,0.002464978,0.00540574,0.005344986
1.012346,-0.1455433,0.1540764,0.0007897665,-0.009246173,0.0009226871,0.00134755,0.003360869,0.004485936
1.012702,-0.1454379,0.1587438,0.00113345,-0.009148693,0.005620583,0.002416114,0.001890203,0.00206884
1.012363,-0.1451073,0.1524672,0.0007835585,-0.008819484,-0.0006268312,0.002906572,0.000486157,0.002446768
1.012321,-0.1430796,0.1467986,0.0007314158,-0.006786646,-0.006267605,-0.0002446418,0.00299524,0.00316629
1.011378,-0.1416016,0.1475716,-0.0002213081,-0.005297049,-0.005468014,-0.0008565962,0.002151695,0.0005921959
1.008691,-0.143061,0.1509064,-0.002918071,-0.00673861,-0.002107503,-0.003447253,-0.0003611072,0.0006869407
1.007113,-0.1438863,0.1541739,-0.004504411,-0.007539812,0.001184814,-0.005042919,0.001149777,0.001866039
1.007508,-0.1445451,0.153953,-0.004117518,-0.008168694,0.0009880777,-0.001055923,0.0001586549,0.00233754
1.009116,-0.14263,0.153821,-0.002515812,-0.006217749,0.0008794228,0.0001391272,-0.001174896,0.006407322
1.010668,-0.1396852,0.1556566,-0.0009703116,-0.003231415,0.002737507,-0.002677208,0.0007125228,0.01150153
1.012856,-0.1406852,0.1558337,0.00121325,-0.004184603,0.002936226,-0.005668694,-0.0003641577,0.01439183
1.014035,-0.1421244,0.1561226,0.002388786,-0.005571747,0.00324555,-0.004895933,-0.0009336691,0.01328205
1.011996,-0.1440315,0.1558095,0.0003469409,-0.007422011,0.002951757,-0.002456868,0.0007696854,0.007431984
1.011839,-0.1457628,0.1516386,0.0001875936,-0.009091784,-0.001201216,-0.001613346,0.00128831,0.001460821
1.01215,-0.1456192,0.1488388,0.0004973966,-0.008882091,-0.003984298,0.0003901745,0.003300133,-0.00202576
1.009525,-0.1440902,0.1508494,-0.002128299,-0.00728247,-0.001958166,-0.0002315073,0.004091286,-0.001969144
1.009324,-0.1405434,0.1524474,-0.002329237,-0.003660751,-0.000345699,-0.002329574,0.004710212,0.0004547704
1.010492,-0.1381419,0.1519872,-0.001160676,-0.00118015,-0.0007921914,-0.002282803,0.007156745,0.0002467191
1.01125,-0.13725,0.1533407,-0.0004007861,-0.0002053435,0.0005741348,-0.003000561,0.006345543,-0.0006299362
1.012775,-0.1397207,0.1559798,0.001125965,-0.002589796,0.003225297,-0.001577576,0.005996651,-0.002251258
1.010977,-0.1451387,0.157286,-0.000668747,-0.007918607,0.00454263,0.002818242,0.007063808,-0.004150943
1.008633,-0.1465655,0.1568347,-0.003009774,-0.009253448,0.004101513,0.007965724,0.005225392,-0.0003733299
1.009854,-0.1457347,0.1540643,-0.001784334,-0.00832802,0.001340065,0.01154567,0.00274826,0.001234754
1.010119,-0.1445265,0.152781,-0.00151517,-0.007022466,6.443114e-05,0.01186121,0.0003023938,0.001238991
1.00932,-0.1421246,0.1550611,-0.00230893,-0.004520587,0.002351005,0.009107281,-0.001717824,0.005782293
1.009697,-0.1377009,0.157167,-0.001925926,5.595099e-06,0.00446215,0.002449152,-0.0007717021,0.006975843
1.008919,-0.1327839,0.1582564,-0.00269673,0.005027072,0.005555368,0.0009106063,0.002878549,0.008487355
1.007865,-0.134345,0.1561096,-0.003743055,0.003572013,0.003410927,0.003173012,0.005596684,0.009100678
1.008743,-0.1367065,0.1527658,-0.002856762,0.001317553,6.788784e-05,0.0004878927,0.005237081,0.005104093
1.010281,-0.1373727,0.1535405,-0.001308961,0.0007588643,0.0008417318,0.0009707906,0.003847461,0.002332986
1.011314,-0.141533,0.1522577,-0.0002653344,-0.003293874,-0.0004433916,0.001184681,0.001335653,-0.001998199
1.010507,-0.1411037,0.1490976,-0.001060139,-0.00275709,-0.003607289,0.000132435,-0.001203808,-0.001468232
1.009222,-0.1385314,0.1528487,-0.002333329,-7.755832e-05,0.0001389346,0.003592641,-0.0002180909,0.002306131
1.010839,-0.1392941,0.1576557,-0.0007030145,-0.0007336404,0.00493993,0.003632179,0.002585858,0.0007763411
1.012444,-0.1370197,0.1569485,0.0009161365,0.001646703,0.0042257,0.005581006,0.007901946,0.001171893
1.011441,-0.1366742,0.1555902,-7.233106e-05,0.002097143,0.002859171,0.008836318,0.01494297,0.0008278011
1.010013,-0.1387592,0.1546028,-0.001484191,0.0001157776,0.001862341,0.006422424,0.01291998,0.0005584767
1.009296,-0.1381834,0.1536511,-0.002185454,0.0007936749,0.0008999188,0.006445166,0.004036334,0.004704094
1.01013,-0.1408254,0.1543304,-0.00133425,-0.00174796,0.001567317,0.007492651,0.0006853952,0.007135881
1.011205,-0.1426988,0.1542837,-0.0002420529,-0.003522803,0.001507541,0.009713059,0.001993028,0.007495449
1.010448,-0.140179,0.1539487,-0.0009813135,-0.0009063002,0.001158358,0.01337392,0.005420194,0.005142602
1.00966,-0.1400334,0.1547046,-0.001751802,-0.0006658832,0.001898971,0.01106919,0.006265941,0.002710605
1.010949,-0.1404346,0.1562277,-0.000443711,-0.0009742009,0.003405822,0.008723286,0.0005036034,0.003321219
1.012186,-0.1401583,0.1592608,0.0008123442,-0.0006070611,0.006421582,0.01000905,-0.001954361,0.003977626
1.011354,-0.1404331,0.1602035,-1.194653e-07,-0.0007931432,0.00734569,0.008725019,-0.0001111651,0.005036948
1.011082,-0.1401054,0.1576369,-0.0002528334,-0.0003788346,0.004759167,0.007050673,0.0006281869,0.005628822
1.008919,-0.1403948,0.1562637,-0.002395963,-0.0005839225,0.003364554,0.01024866,0.001930562,0.006404087
1.005269,-0.1400957,0.1566265,-0.006025684,-0.0002026603,0.003704299,0.013,0.002993026,0.008326302
1.007775,-0.1387371,0.1554156,-0.003498788,0.001235871,0.002468715,0.01071644,0.002507044,0.01075665
1.011373,-0.1361121,0.1537841,0.0001199305,0.003938327,0.000811073,0.007173839,-0.002333768,0.0132068
1.012272,-0.1341688,0.15592,0.001040063,0.005956556,0.002919309,0.004001058,-0.007343619,0.01303385
1.011669,-0.1375553,0.1587549,0.0004588362,0.00264216,0.005725207,0.0033334,-0.006421481,0.01365778
1.008376,-0.1416717,0.1575713,-0.002811268,-0.00140508,0.004511145,0.00434834,-0.004559107,0.01373337
1.009674,-0.1434621,0.1561779,-0.001491692,-0.00312939,0.003085732,0.003418185,-0.003944866,0.008909466
1.012085,-0.146478,0.1561956,0.0009423328,-0.006081972,0.003070045,0.004146508,-0.00364299,0.005423449
1.011928,-0.1474287,0.1553829,0.00080806,-0.006971965,0.002222354,0.006041543,-0.001420491,0.00536416
1.014102,-0.1444458,0.1555018,0.003004816,-0.003930593,0.002305025,0.006344037,0.001928592,0.006797947
1.012459,-0.141711,0.1565362,0.001383865,-0.001139277,0.003301739,0.006320784,0.001997984,0.007428139
1.011441,-0.1389915,0.1560465,0.0003886597,0.001634754,0.002773168,0.002065252,0.003457219,0.005948375
1.013093,-0.1381036,0.1544325,0.002062666,0.002575437,0.001119103,-0.00235969,0.006804588,0.003892533
1.009091,-0.1417546,0.1537049,-0.001918209,-0.001024858,0.0003503223,0.003082089,0.005677943,-0.0005162599
1.006488,-0.1441209,0.1549917,-0.00449931,-0.00334244,0.00159495,0.008394654,-0.0002833379,-0.002668615
1.006914,-0.1432923,0.1579041,-0.004053019,-0.002466957,0.004464354,0.003818489,-0.006827732,-0.0005254989
1.007725,-0.1386665,0.159885,-0.003220875,0.002203948,0.006401402,-0.0002920508,-0.008585552,0.001118366
1.011723,-0.1330006,0.1566867,0.000797181,0.007913135,0.003158446,-0.003137461,-0.006050373,0.004589236
1.014947,-0.137874,0.1526283,0.00404199,0.003081115,-0.0009456817,-0.009567741,-0.000458472,0.007641499
1.014348,-0.1443665,0.1559996,0.003463632,-0.003372178,0.002379143,-0.01021292,0.007080564,0.006158085
1.011929,-0.1429243,0.1595022,0.001063888,-0.001892947,0.005834546,-0.00807298,0.005981876,0.00188262
1.011352,-0.1442358,0.157699,0.0005069044,-0.003169384,0.003983477,-0.01029125,-0.001153581,-0.003492583
1.010366,-0.1446164,0.1570105,-0.0004606816,-0.003516805,0.003246273,-0.008239255,-0.00152051,-0.006156622
1.00896,-0.1419529,0.1552727,-0.001848297,-0.0008215856,0.001458981,-0.005441244,-0.0005523901,-0.003735008
1.011298,-0.1442082,0.153063,0.0005073559,-0.003046675,-0.000800805,-0.006167547,0.001719947,0.001308477
1.012161,-0.1451886,0.1555382,0.001388048,-0.003998223,0.001623711,-0.004416283,0.006541482,0.003266542
1.011709,-0.1440713,0.1597767,0.0009526634,-0.002853148,0.005811174,-0.004654322,0.004726843,0.001203521
1.011836,-0.1455731,0.1635546,0.001095308,-0.004328087,0.009537507,-0.005409477,0.003062755,-0.0004497732
1.010539,-0.1459447,0.1625539,-0.0001862842,-0.004673607,0.00848454,-0.003101033,0.003215138,-0.0007316934
1.010651,-0.1448869,0.1587501,-6.052743e-05,-0.003590295,0.004627737,-0.001810469,0.0007304676,0.0002565023
1.010951,-0.1438049,0.1580174,0.0002538373,-0.002483181,0.003841009,0.0005256792,-0.0004834402,0.0009883613
1.011339,-0.1424967,0.1546795,0.000654511,-0.001150093,0.0004480513,0.001947403,-0.002232433,0.002445108
1.010924,-0.1414424,0.1529394,0.000252265,-7.11147e-05,-0.00134808,0.001129289,-0.001203339,0.005730754
1.008819,-0.1414301,0.1564266,-0.001841422,-3.441472e-05,0.002082546,0.002076504,0.002373802,0.005643249
1.008282,-0.142778,0.1569892,-0.002367296,-0.001358159,0.002587995,0.003500334,0.00255957,0.005241286
1.00865,-0.1418782,0.1554167,-0.001988984,-0.0004344515,0.0009579738,0.00418106,-0.001518884,0.007021389
1.012116,-0.1385177,0.1481649,0.001487487,0.002949578,-0.006351703,0.002993504,-0.006477269,0.004479096
1.015055,-0.1371016,0.1405979,0.004435539,0.004388834,-0.01397635,0.001341407,-0.00131218,0.001544018
1.012871,-0.1392311,0.1471294,0.002261105,0.002281912,-0.007501945,0.002238498,0.005895947,0.002550845
1.011542,-0.1420794,0.1540298,0.0009406245,-0.0005446116,-0.0006573294,0.003257891,0.003477637,0.002264358
1.010828,-0.1410109,0.1537684,0.0002338127,0.000544782,-0.0009729656,0.002588459,0.0006723183,0.001550123
1.009184,-0.1395128,0.1572416,-0.001403411,0.002062948,0.00244764,-0.0006445544,-0.003743212,0.002684385
1.008481,-0.1404068,0.1569396,-0.002099703,0.001188109,0.002094765,-0.004366052,-0.00794512,0.002456913
1.008387,-0.1394128,0.150932,-0.002187731,0.002200265,-0.003962111,-0.003151909,-0.003013298,0.00117558
1.008462,-0.13791,0.1528379,-0.002107566,0.00372017,-0.002103899,-0.00096941,0.001517155,0.0004874787
1.009264,-0.1362914,0.1586093,-0.001300797,0.00535473,0.003621572,-0.001408465,0.000617355,0.0002302698
1.011136,-0.134676,0.1600233,0.0005765684,0.006984684,0.004991412,0.001943104,0.000345122,-0.0002604247
1.011332,-0.1379592,0.1604868,0.000777031,0.003714471,0.005412331,0.006782876,0.0008449644,-0.002287062
1.010777,-0.1419333,0.1571648,0.0002261056,-0.0002484407,0.002048958,0.007167947,0.001077984,-0.003820451
1.009823,-0.1404726,0.1522414,-0.0007235957,0.001221649,-0.002914686,0.005902989,0.00143045,-0.005426991
1.006606,-0.1393002,0.1538544,-0.003936654,0.002401676,-0.001340671,0.004294001,0.0007789435,-0.006828544
1.005308,-0.1404453,0.1553048,-0.005231196,0.001262603,7.192207e-05,0.003493775,-0.0002036054,-0.0001718966
1.008075,-0.1375637,0.1534231,-0.002459862,0.004148362,-0.001846166,0.003137011,0.0003576157,0.007659061
1.010981,-0.1348259,0.1541581,0.000450648,0.006888695,-0.001146257,0.001434165,0.0003671178,0.004704761
1.010054,-0.1363632,0.1546564,-0.0004716395,0.005351939,-0.0006815888,-0.0008252804,-0.001708983,0.002233699
1.010313,-0.137103,0.1532944,-0.0002079818,0.004610682,-0.002075707,-0.005897279,-0.003069061,0.00515011
1.014765,-0.1393674,0.1526048,0.004248745,0.002342712,-0.002795946,-0.009136029,-0.002166811,0.003552894
1.016021,-0.1427474,0.1511505,0.005510607,-0.0010431,-0.004279099,-0.005726649,-0.0007285864,0.002535616
1.014387,-0.1409832,0.1522602,0.00388156,0.000713316,-0.003196653,-0.003268159,0.0004310266,0.003497164
1.011676,-0.1382687,0.1564914,0.001175261,0.003418079,0.001009347,-0.004283376,0.00342659,-0.0008230104
1.008566,-0.1387511,0.15713,-0.001930397,0.002924183,0.001624486,-0.003996634,0.004554143,-0.004839781
1.00947,-0.1382574,0.1549631,-0.001021908,0.003404486,-0.0005640801,-0.001541959,-0.002000817,-0.00574702
1.010404,-0.1370624,0.1526555,-8.503379e-05,0.004584347,-0.002891638,0.0001508419,-0.006499543,-0.004098552
1.009321,-0.1386885,0.1523442,-0.001164885,0.002941292,-0.003221137,0.0002095629,0.001367031,0.0004007209
1.009708,-0.1402611,0.1546165,-0.0007749847,0.001349843,-0.0009653681,0.0006496073,0.009106192,0.002994063
1.009956,-0.1401856,0.1559928,-0.0005241827,0.001404675,0.0003962462,0.001333635,0.005234745,0.004277952
1.009514,-0.1395064,0.1574512,-0.0009634007,0.002061685,0.001841585,-2.437754e-05,0.0007355387,0.004379634
1.009777,-0.1384243,0.1573184,-0.0006976869,0.003119897,0.001697353,-0.003133337,-0.0006906272,0.005433411
1.00999,-0.1388786,0.156071,-0.0004826152,0.002640173,0.0004398573,-0.002350314,-0.00417356,0.009148013
1.010295,-0.1393341,0.1563498,-0.0001748578,0.002157797,0.0007099356,0.0005379085,-0.0015285,0.008447843
1.010589,-0.139153,0.1541634,0.0001213056,0.00231063,-0.001484095,-0.0002878733,0.002925332,0.006629295
1.009552,-0.1392659,0.1525937,-0.0009131104,0.002168016,-0.003060207,-0.0003793684,0.002098731,0.005741179
1.009325,-0.1381346,0.1532095,-0.001137705,0.0032683,-0.002449682,-0.0006037146,0.00435939,0.001859116
1.010151,-0.1367295,0.1533364,-0.0003100869,0.004641134,-0.002326767,-0.002415761,0.003961488,3.15952e-05
1.009566,-0.1344951,0.1546248,-0.0008923569,0.006841975,-0.001041012,-0.001142648,-0.0007936167,-0.0008784638
1.00924,-0.1336044,0.1538067,-0.001216087,0.007697688,-0.001860607,0.0001720703,-0.001204515,-0.0009775834
1.008191,-0.1359763,0.1511993,-0.002262444,0.00528924,-0.004468094,0.001315965,-0.0001601722,0.004093008
1.006358,-0.1368716,0.1502972,-0.004092327,0.004355658,-0.005368988,0.002480756,0.001011556,0.006850589
1.007889,-0.1393313,0.1502872,-0.002558985,0.001856103,-0.005376254,0.001611157,0.0008260016,0.004814195
1.009969,-0.1426957,0.1500255,-0.0004752776,-0.001549828,-0.005633522,0.003242006,-0.0001141863,0.005318195
1.00994,-0.1408138,0.1476206,-0.0005004686,0.0002890561,-0.008032192,0.005371766,-0.000428592,0.006545642
1.01093,-0.1387612,0.1459326,0.0004944024,0.00229749,-0.009711891,0.004347656,-0.002120285,0.00598636
1.013211,-0.1372302,0.146663,0.002780553,0.003783302,-0.008970858,0.002459663,-0.001592821,0.00829123
1.014489,-0.1366068,0.1476735,0.004063673,0.004360531,-0.007947205,0.0007584261,-0.002723638,0.01073262
1.013768,-0.1388218,0.1506205,0.003347836,0.002098338,-0.004984276,0.0001169869,-0.004934982,0.009292356
1.012653,-0.1393369,0.1564925,0.002238336,0.001535086,0.0009065048,-0.001637885,-0.005010613,0.007877411
1.012292,-0.1421992,0.161805,0.001882008,-0.001376141,0.006240458,-0.004195926,-0.008047133,0.005957175
1.011851,-0.144571,0.1602169,0.001445895,-0.003797594,0.004676085,-0.003406506,-0.004575206,0.001250002
1.012312,-0.1425618,0.1569894,0.001911091,-0.001838327,0.001474109,-0.001614684,0.004102187,-0.0009993773
1.012452,-0.1448831,0.1582169,0.002054561,-0.004209551,0.002728605,0.0001634982,0.005689132,0.002047123
1.009412,-0.1459578,0.1566362,-0.0009820152,-0.005334003,0.001175989,0.00381684,0.00326456,0.005356704
1.006135,-0.1409719,0.1561974,-0.004256159,-0.000397236,0.0007661702,0.004299043,-0.001356439,0.007089519
1.00593,-0.1382855,0.1573094,-0.004458988,0.002240841,0.001907854,0.001724796,-0.00326805,0.008214253
1.008914,-0.1419504,0.1526494,-0.001473587,-0.00147143,-0.002721921,0.002384525,-0.003362152,0.007523446
1.012433,-0.1463864,0.1503681,0.002047542,-0.005953877,-0.004972547,0.003089008,-0.005832094,0.007186232
1.011749,-0.1435044,0.1510801,0.001366146,-0.003117188,-0.004229512,0.002851727,-0.004289713,0.006409525
1.010944,-0.1416363,0.149744,0.0005629342,-0.00129297,-0.005533902,0.003344382,-0.001985375,0.003194867
1.013405,-0.1442833,0.1482152,0.003025342,-0.003982159,-0.007030278,0.001842474,0.0004482619,0.00157189
1.012701,-0.1431154,0.1487282,0.002322513,-0.002854808,-0.006483898,0.002593263,0.002359024,0.003053348
1.011727,-0.1417292,0.1529175,0.001349884,-0.001507271,-0.00226022,0.004849896,0.0005979197,0.008739585
1.012845,-0.1401399,0.1550297,0.002467859,4.524413e-05,-0.000112512,0.004027084,0.001923879,0.01319991
1.010447,-0.1395878,0.1535093,7.073209e-05,0.000562509,-0.00159649,0.004069522,0.001720339,0.004700306
1.008984,-0.1432402,0.1504332,-0.001393035,-0.003122712,-0.004635147,0.005429012,9.904235e-05,-0.004693233
1.009958,-0.1442446,0.1473559,-0.0004199366,-0.004158052,-0.007674061,0.005321606,0.0004460629,0.0009016859
1.009697,-0.1430396,0.1485567,-0.0006823154,-0.00298193,-0.006433875,0.00404578,-0.003989771,0.005025441
1.009757,-0.1377358,0.1493578,-0.0006235014,0.00229506,-0.005592151,0.003622295,-0.007130268,0.0006231933
1.010021,-0.1305678,0.1493983,-0.0003611385,0.009438261,-0.005509776,0.001363995,-0.005802815,0.001392184
1.011513,-0.13319,0.1522448,0.001128874,0.006793012,-0.002619943,-0.00274195,-0.00349274,0.0006105228
1.013142,-0.1371801,0.1536158,0.002755739,0.002781124,-0.001204294,-0.002416438,-0.001991352,-0.002505462
1.012542,-0.1372676,0.1541415,0.002152884,0.002672823,-0.0006327178,-0.003455693,-0.003243222,0.002335411
1.01154,-0.1408443,0.1568691,0.001148105,-0.0009238476,0.002141891,-0.007596773,-0.003289902,0.004312233
1.008862,-0.1442854,0.1589197,-0.001533134,-0.004384136,0.004240324,-0.009770596,-0.003394772,7.968886e-05
1.005197,-0.1461305,0.1548967,-0.005202124,-0.006247527,0.0002656326,-0.01333628,-0.003449962,-0.001790785
1.005637,-0.1447275,0.1481565,-0.004765967,-0.004861639,-0.006426036,-0.0119893,-0.00190218,-0.0001059352
1.008165,-0.1397856,0.1461323,-0.002241765,6.446684e-05,-0.008401363,-0.006612326,-0.001450497,0.001584054
1.007807,-0.1383786,0.1471634,-0.002602788,0.001457104,-0.007320923,-0.006959054,-0.0009729557,-0.002079244
1.007998,-0.1375477,0.147356,-0.002415014,0.002274947,-0.007078248,-0.005449218,-0.001589982,-0.004165885
1.009445,-0.1385119,0.1452004,-0.000970525,0.00129899,-0.009182989,-0.001328193,-0.001191706,-5.549948e-05
1.009614,-0.1415514,0.1444247,-0.0008042184,-0.001751257,-0.009906699,-0.001056449,0.000405297,0.002789483
1.011631,-0.1377521,0.1482106,0.001211855,0.002038231,-0.006067497,-0.002330474,-0.000288443,0.0029956
1.011943,-0.1345681,0.1511726,0.001522545,0.005213497,-0.003050672,-0.004358529,-0.0005630708,0.002888556
1.011224,-0.1352702,0.1504856,0.0008032723,0.004503199,-0.003681408,-0.004327785,-0.002353612,0.003507064
1.014053,-0.136485,0.1503275,0.003632358,0.003280848,-0.003781767,-0.002068937,-0.005572296,0.0001931151
1.013235,-0.1414077,0.1528935,0.00281441,-0.001649205,-0.001156759,-0.0002753166,-0.005714252,-0.006652187
1.010765,-0.1434921,0.1530398,0.000343985,-0.003740779,-0.0009502064,0.003810814,-0.003340531,-0.00818624
1.011374,-0.1427151,0.1503578,0.0009530715,-0.002970542,-0.003570882,0.007570087,-0.0005505233,-0.006920739
1.011859,-0.1417042,0.1497902,0.001438408,-0.001965954,-0.004076335,0.007365441,0.001616272,-0.006926985
1.013063,-0.1378492,0.1503488,0.002642115,0.001883351,-0.003454711,0.007084266,0.003186989,-0.006743106
1.013003,-0.1369355,0.152804,0.002581223,0.002791918,-0.0009356573,0.007723153,0.001754832,-0.006126805
1.011079,-0.1391968,0.1551584,0.0006565547,0.0005258939,0.001483235,0.007971179,-0.002232217,-0.005033445
1.009374,-0.1403408,0.1539355,-0.001049726,-0.000622448,0.0003253337,0.009265909,-0.005229986,-0.004770001
1.009204,-0.1417446,0.1529808,-0.001221181,-0.002030208,-0.0005643025,0.01084621,-0.003869147,-0.00437622
1.011837,-0.144491,0.1527096,0.001409268,-0.004780249,-0.0007703162,0.01241274,-8.578008e-05,-0.002587987
1.013972,-0.1434685,0.152633,0.003542705,-0.003760774,-0.0007818196,0.01429545,-0.002579021,-0.0004687207
1.015756,-0.1393811,0.1531393,0.005324346,0.0003242401,-0.0002107529,0.01492295,-0.006272366,-2.647001e-05
1.015996,-0.1384172,0.1535528,0.005561036,0.001286504,0.0002670792,0.01339666,-0.00619133,-0.0005611348
1.013998,-0.1350782,0.1537638,0.003558571,0.004624505,0.0005419222,0.004006207,-0.004073294,7.293491e-05
1.013873,-0.1321103,0.150721,0.003428946,0.007591921,-0.002437769,-0.007783046,0.002191475,-0.0009931414
1.012243,-0.1323027,0.1476138,0.001792889,0.007399053,-0.005482573,-0.005878857,0.003864716,-0.002149823
1.011453,-0.129518,0.1504997,0.0009960553,0.01018305,-0.002534899,-0.002684147,0.003572883,-0.0009470846
1.012628,-0.1303377,0.1547038,0.00216335,0.009362023,0.001730187,-0.008370841,0.005541626,0.0002727948
1.010541,-0.1318091,0.1555246,6.698793e-05,0.007888061,0.002611371,-0.008646451,0.0008348346,0.001904698
1.01169,-0.1319731,0.1562539,0.001205675,0.007720017,0.003400071,-0.0119864,-0.002406321,0.001402213
1.013605,-0.1370636,0.1562827,0.003109307,0.00262379,0.003487077,-0.01935276,-0.002477073,-0.0004307254
1.011859,-0.1381681,0.1532781,0.001352005,0.001511726,0.000539295,-0.01299503,-0.00260509,-0.000123887
1.012082,-0.1352536,0.153096,0.001561942,0.004416681,0.0004125134,-0.008221106,0.0004442177,-0.001220065
1.010053,-0.1339084,0.1583779,-0.0004816701,0.005750496,0.005747983,-0.01249849,-0.0007082483,-0.004824875
1.007143,-0.1330369,0.162821,-0.00340557,0.006608747,0.01024276,-0.01209309,-0.00148504,-0.00598061
1.008708,-0.1337099,0.1612936,-0.001856364,0.005920342,0.008764806,-0.01237245,0.0005191011,-0.002293788
1.010545,-0.1359824,0.1570195,-3.559897e-05,0.003630178,0.004537374,-0.01450829,-0.0006893464,-0.001568521
1.011377,-0.1415475,0.1530892,0.0007807418,-0.001954649,0.0006509187,-0.01334959,0.001944517,-0.004073051
1.011494,-0.1451809,0.1483655,0.0008815917,-0.00560991,-0.00403194,-0.01212017,0.007378296,-0.002955264
1.011926,-0.1404436,0.1494041,0.001297035,-0.0008961378,-0.002955268,-0.01185209,0.009739558,-0.001922136
1.013571,-0.1352686,0.1537072,0.002924562,0.004254016,0.00138333,-0.01009062,0.007975437,0.001537924
1.013443,-0.1371952,0.1539282,0.00277951,0.002301282,0.001637245,-0.003974177,0.005068613,0.005674807
1.012027,-0.1389531,0.1580528,0.001345948,0.0005159231,0.005792471,0.001924858,0.00626554,0.00381897
1.012328,-0.1364296,0.1602025,0.001629296,0.00301089,0.007970182,0.004134198,0.004064661,0.001273707
1.012885,-0.136657,0.1525055,0.002167464,0.002753865,0.0002984945,0.007083835,-0.0005310157,-0.0006496541
1.012078,-0.1337981,0.1462381,0.001342511,0.005582098,-0.00594642,0.008105383,0.0008381266,0.002301923
1.011596,-0.1283945,0.14655,0.0008413228,0.01095379,-0.005614516,0.004822543,0.0009521768,0.007220979
1.010851,-0.1317264,0.1503389,7.591031e-05,0.007588552,-0.001807792,0.003317272,-0.00157725,0.005041058
1.009883,-0.1341107,0.1524541,-0.0009114165,0.005169339,0.0003234745,0.004058762,-0.002366948,0.005261463
1.010517,-0.1332653,0.1546143,-0.0002975664,0.005978059,0.002497882,0.004016993,-0.002092684,0.007643592
1.013073,-0.1363927,0.1595833,0.002238169,0.002812109,0.007479387,0.003835364,0.0002505609,0.005884314
1.015901,-0.1378633,0.1613171,0.005046051,0.001301145,0.009223806,0.002960165,0.002635376,0.006070368
1.013189,-0.1355519,0.1577396,0.002312978,0.003570605,0.005654832,0.002264496,0.002432688,0.007759104
1.009544,-0.1319972,0.1492993,-0.001352917,0.007081619,-0.002779339,0.002256304,0.001741371,0.00777725
1.013379,-0.1317998,0.1452095,0.002460968,0.007233782,-0.00686537,-2.497392e-06,0.003680413,0.006237799
1.01607,-0.1351075,0.1501454,0.005130251,0.003879049,-0.001927495,-0.002045018,0.006073024,0.005684312
1.014517,-0.136729,0.1536061,0.003555485,0.002208767,0.001533445,0.0007081109,0.005458299,0.006899179
1.013315,-0.1362517,0.1538065,0.002330955,0.002635652,0.001732621,0.002936049,0.002706195,0.005907807
1.010189,-0.1347149,0.1498957,-0.0008176066,0.004120491,-0.002180767,-0.003028389,-0.000739755,0.006152454
1.009144,-0.1345809,0.1460335,-0.001886036,0.004201086,-0.006046882,-0.01164666,-0.0006990508,0.009463255
1.012307,-0.1349127,0.1507216,0.001253233,0.003814377,-0.001363683,-0.01369665,-0.0003143217,0.01152428
1.014844,-0.1346376,0.1543668,0.003766625,0.004033268,0.002275886,-0.009653514,-0.003526661,0.01404731
1.015662,-0.1363953,0.1508182,0.004560646,0.002218052,-0.001278986,-0.00380608,-0.0009927091,0.01406188
1.014185,-0.1389631,0.1484928,0.003059156,-0.0004084831,-0.003611236,-0.001134565,0.00276187,0.009049854
1.01242,-0.1411065,0.149592,0.001268677,-0.00261161,-0.002519367,-0.00335697,0.001074414,0.007735436
1.012419,-0.140455,0.149702,0.001241751,-0.002020632,-0.002416974,-0.004633735,0.002274596,0.00997585
1.012481,-0.1385911,0.1532711,0.001277497,-0.0002175441,0.001144466,-0.0007963983,0.002094751,0.009430343
1.012365,-0.139146,0.1592598,0.001135831,-0.000833448,0.007125465,0.00268603,-0.001297639,0.00961789
1.011441,-0.1376946,0.1573392,0.0001846226,0.0005570092,0.005196893,0.002766093,-0.0008725521,0.01126367
1.010048,-0.1333659,0.1547693,-0.001235055,0.004825028,0.002618643,0.006292784,-0.0006494519,0.01041456
1.010151,-0.1292951,0.1544458,-0.001160269,0.008835375,0.002286192,0.01022708,-0.001418674,0.009228708
1.01053,-0.129712,0.1499292,-0.0008082377,0.008357969,-0.002240034,0.007388077,-0.0002807669,0.008726025
1.009668,-0.1328975,0.1499544,-0.001697523,0.005111843,-0.002225009,0.004532035,3.533223e-05,0.008532835
1.009307,-0.1320061,0.1526396,-0.00208586,0.005942148,0.0004495632,0.002084374,0.0008327172,0.00905122
1.010043,-0.1340678,0.1509346,-0.001376695,0.003818904,-0.001266407,-0.002999343,0.002612092,0.006669644
1.009732,-0.139804,0.1517598,-0.001713846,-0.001979206,-0.000452431,-0.001910137,0.001447692,0.003250491
1.009827,-0.1415647,0.1541577,-0.001643804,-0.003802264,0.001934158,0.003017345,0.001454911,0.002732174
1.01179,-0.1411993,0.1545022,0.0002946872,-0.003499208,0.002267175,0.003716189,0.002936691,0.00160403
1.012903,-0.1382412,0.1540705,0.001383427,-0.0006031986,0.001823701,0.004937586,0.001416164,0.0003642376
1.012845,-0.1355861,0.1521889,0.001302258,0.001990492,-6.98311e-05,0.005506648,0.002038081,0.003963848
1.013155,-0.1349791,0.1492162,0.001589671,0.002536599,-0.003054798,0.002133678,0.002509441,0.008122143
1.014165,-0.1360532,0.1464095,0.002576891,0.001402348,-0.005873749,-0.001634343,0.001203486,0.006426652
1.01403,-0.1405843,0.1484753,0.002421016,-0.00318818,-0.003820076,-0.004388883,0.001910982,0.005753003
1.012185,-0.1409449,0.1522141,0.0005542659,-0.003607257,-9.309476e-05,-0.002108834,-0.0003127565,0.01038226
1.010658,-0.1393568,0.1523449,-0.0009932677,-0.002076632,2.644606e-05,0.002137273,-0.004190035,0.0136914
1.009361,-0.1397679,0.1554402,-0.002310547,-0.002543845,0.003110997,0.002417615,-0.007776878,0.01402739
1.010294,-0.1372581,0.1562121,-0.001396453,-8.860063e-05,0.003872548,0.001309295,-0.007069218,0.01139214
1.012015,-0.1362121,0.1504896,0.0003052398,0.0009044327,-0.001860122,-0.001463999,0.001107704,0.00850297
1.010808,-0.1363803,0.1471001,-0.0009203707,0.0006848121,-0.005259453,-0.003161234,0.004455852,0.00911282
1.010719,-0.1371545,0.1448196,-0.001026599,-0.0001391245,-0.007549306,-0.003370656,0.002170418,0.009297469
1.010285,-0.1408683,0.1445835,-0.001477405,-0.003900996,-0.007794097,-0.002959674,0.0006636046,0.009042466
1.007297,-0.1423688,0.1485396,-0.004482177,-0.005447816,-0.003845633,0.001381347,-0.000477368,0.009515963
1.006816,-0.1412076,0.15179,-0.004977715,-0.004330903,-0.0006015447,0.002588717,4.382512e-05,0.008686445
1.008769,-0.138694,0.152181,-0.003039113,-0.00185949,-0.0002154317,0.001371993,-9.881807e-06,0.00687531
1.0104,-0.1367395,0.1515865,-0.001420824,5.518628e-05,-0.0008136652,0.002145246,-0.0007404702,0.005513167
1.009728,-0.1377715,0.1557209,-0.002104565,-0.001014437,0.003318298,-0.0001018959,-0.001580178,0.008690659
1.008284,-0.1395734,0.1594812,-0.003557936,-0.002851559,0.007077198,-0.002159149,-0.001770207,0.01297915
1.008814,-0.1412691,0.1572868,-0.003036885,-0.00458023,0.00488223,-0.002370506,0.0002325394,0.0120818
1.009967,-0.1430606,0.1569622,-0.001890573,-0.006402273,0.004557403,-0.001486359,-0.0002330926,0.01185495
1.011808,-0.144981,0.1575001,-5.477343e-05,-0.008350544,0.005095136,3.615227e-06,-0.003358016,0.01320395
1.012264,-0.1449569,0.1564022,0.0003968875,-0.008351346,0.003997069,-0.0007790496,-0.005156345,0.0108793
1.011358,-0.1437724,0.1570893,-0.0005109278,-0.007188756,0.004683547,-0.0001419036,-0.003333303,0.008968333
1.01223,-0.1447133,0.1571463,0.0003596842,-0.008148091,0.00473937,0.001223966,0.0009705004,0.009389932
1.01253,-0.1444476,0.156825,0.0006601904,-0.007897197,0.004416164,0.001625834,0.002345698,0.008764819
1.012361,-0.1431588,0.1580207,0.0004923873,-0.006619559,0.005609062,0.003055964,0.0006456865,0.008875496
1.011753,-0.1431172,0.1568234,-0.000113393,-0.006585114,0.004407839,0.003561911,-0.000659591,0.009384059
1.010538,-0.1428222,0.1493769,-0.001325215,-0.006293286,-0.003043859,0.002857986,-0.0001306049,0.006431567
1.011263,-0.1428213,0.1420176,-0.0005959308,-0.006291448,-0.01040945,0.001034755,-0.0004241363,0.005699159
1.01126,-0.1413702,0.145534,-0.0005940218,-0.004835425,-0.006900017,0.0002547593,-0.003283876,0.0112814
1.010487,-0.1396669,0.1516686,-0.001362186,-0.00312315,-0.0007727211,0.001039603,-0.002746252,0.01297859
1.009929,-0.141901,0.1496985,-0.001912978,-0.00534434,-0.002750236,0.0005251043,0.001654946,0.008038304
1.009248,-0.1460087,0.148851,-0.002586319,-0.009435334,-0.003604953,0.001024216,0.002057505,0.004331724
1.010569,-0.1488701,0.1483068,-0.001257149,-0.01227596,-0.004156119,0.001505131,-0.002177744,0.003621681
1.01017,-0.1481143,0.1444127,-0.001647214,-0.01149534,-0.008056638,0.0007111975,-0.004094409,0.004415307
1.008841,-0.1454858,0.1466279,-0.002966318,-0.008837636,-0.005847101,0.00120081,-0.002740868,0.005295495
1.010206,-0.1448945,0.1490002,-0.001591132,-0.008212697,-0.003479402,0.001538623,-0.002330587,0.006869226
1.010013,-0.142567,0.1485134,-0.001772267,-0.005847144,-0.003969501,0.002373425,-0.002173945,0.006337895
1.010158,-0.1391475,0.1503404,-0.001615083,-0.00238509,-0.00214452,0.003081929,-0.001991976,0.002049523
1.01165,-0.1411821,0.1495546,-0.000109312,-0.004372948,-0.002930815,0.0010952,-0.002343573,0.001906335
1.010127,-0.1445964,0.1509057,-0.001618164,-0.007736498,-0.001578757,0.001056482,-0.002251694,0.006080318
1.009512,-0.1447582,0.1524813,-0.002218268,-0.007843748,-7.523774e-07,0.004017327,-0.003145294,0.009693624
1.011764,-0.145294,0.1476297,4.920807e-05,-0.008321076,-0.004848588,0.004890844,-0.004044047,0.00931431
1.013025,-0.1460028,0.1465296,0.001326787,-0.008967688,-0.005943333,0.005136572,-0.003694783,0.007083718
1.01265,-0.1449001,0.1487949,0.0009694177,-0.007798974,-0.003671229,0.008325327,-0.003537061,0.008998075
1.012149,-0.1441062,0.1496709,0.0004858087,-0.006935292,-0.002786658,0.01102018,-0.004186594,0.007062452
1.012656,-0.1443892,0.1514549,0.001010113,-0.007144872,-0.0009924695,0.007499593,-0.006081141,0.003366833
1.012622,-0.1444491,0.1511508,0.0009944938,-0.00712773,-0.001284725,0.002164275,-0.00793751,0.004156697
1.012234,-0.1434719,0.1494908,0.0006239596,-0.006070004,-0.002931209,0.002967093,-0.007377043,0.003569296
1.012549,-0.1428858,0.149133,0.0009570979,-0.005400116,-0.003274082,0.002441398,-0.004932083,0.006799752
1.011536,-0.1443494,0.152631,-3.794009e-05,-0.00677663,0.0002404395,-0.005690049,-0.002718924,0.008558766
1.010566,-0.146952,0.1564602,-0.0009898888,-0.009289205,0.004087563,-0.01390592,-0.00128172,0.002016484
1.010299,-0.1495767,0.1504641,-0.001239134,-0.01182082,-0.001889439,-0.0170328,-0.001024401,-0.002720996
1.009477,-0.1507677,0.1443627,-0.002043652,-0.01291572,-0.007970699,-0.01430705,-0.0001342897,-0.004924029
1.009609,-0.1507846,0.1478887,-0.001893485,-0.01283335,-0.004423387,-0.01103142,0.002482427,-0.005511118
1.010261,-0.1518523,0.1500474,-0.001224278,-0.0137984,-0.002242052,-0.009053882,0.002801494,-0.004659094
1.01142,-0.1527342,0.1491883,-4.771694e-05,-0.01457413,-0.003077327,-0.004284591,0.00111065,-0.002524671
1.01268,-0.1512403,0.1487644,0.001229593,-0.01297029,-0.003476049,-0.002279379,-0.001123682,0.00319735
1.010969,-0.1495752,0.1465233,-0.000464241,-0.01119152,-0.005690605,-0.002312452,-0.002872154,0.005965833
1.009097,-0.1513769,0.1463668,-0.002319131,-0.01287566,-0.005819246,0.001104434,-0.00231396,0.005534455
1.011485,-0.1533911,0.1463,8.603445e-05,-0.01476832,-0.005856651,0.00410674,-0.003159187,0.006061411
1.01322,-0.1518461,0.1446317,0.001837634,-0.01309788,-0.007494,0.003786003,-0.002834484,0.003303594
1.01029,-0.1496779,0.1504305,-0.001075232,-0.01080017,-0.001662515,0.001835297,-0.0007011379,-0.0008132106
1.00816,-0.1464644,0.1569362,-0.003188933,-0.007453174,0.00487756,0.002741543,-0.00213378,0.0001322669
1.008965,-0.1440919,0.1542076,-0.002367557,-0.004943271,0.002184718,0.003925573,-0.002741915,0.001554368
1.009528,-0.1445436,0.1529187,-0.00178827,-0.005254068,0.0009327129,0.004782428,-0.002050642,-0.0006184962
1.010157,-0.1420012,0.1554926,-0.001142685,-0.002567669,0.003544419,0.007564784,-0.001808614,-0.0004147415
1.012175,-0.1415682,0.1557765,0.0008919313,-0.001987998,0.003866577,0.005219657,-0.0006923121,0.0003827516
1.013324,-0.1453743,0.1569092,0.002056761,-0.005645165,0.005037697,0.001674074,-0.0004123068,-0.001134231
1.011806,-0.1459334,0.1560787,0.000554806,-0.006053407,0.004245435,0.0001496117,0.0007337674,-0.00065662
1.010477,-0.1484073,0.150985,-0.0007574849,-0.008374772,-0.0008104104,-0.002134848,0.0005868966,-6.300976e-05
1.009302,-0.1510318,0.1489924,-0.001916546,-0.01084524,-0.002765744,-0.0008257166,-0.0006163033,0.0005417123
1.007347,-0.1479391,0.1501042,-0.003856323,-0.007597205,-0.001617181,-8.142105e-05,0.001435935,0.0006029223
1.007613,-0.1463564,0.1494976,-0.003575209,-0.005857731,-0.002187701,-0.0001227516,0.002253459,-0.002579537
1.010289,-0.1473754,0.1463563,-0.0008834027,-0.006718768,-0.005293361,-0.0004996456,0.001160089,-0.003295012
1.013606,-0.1476317,0.1435899,0.002449682,-0.006816136,-0.008024498,-0.004558328,0.0004969416,8.868513e-05
1.013411,-0.1486451,0.1459517,0.002270719,-0.007669716,-0.005627513,-0.006265062,0.0007827179,0.001607535
1.012151,-0.1524147,0.1485738,0.001026078,-0.01127886,-0.002970056,-0.007723605,0.00286261,-0.003602561
1.014638,-0.1552175,0.1469007,0.003528481,-0.01392034,-0.004607564,-0.008409633,0.001563835,-0.009228663
1.012962,-0.152383,0.1480877,0.001867445,-0.01092367,-0.003384666,-0.005908835,-0.001591889,-0.005693279
1.009472,-0.1502051,0.1539903,-0.001608188,-0.008582684,0.002554294,-0.006196623,-0.001213474,-0.001705251
