accx,accy,accz,body_accx,body_accy,body_accz,body_gyrox,body_gyroy,body_gyroz
0.9885424,0.02456399,0.2339501,-0.05777011,0.02104126,0.1250447,-0.01789026,0.1829584,-0.1605229
0.9900083,0.02880656,0.2389557,-0.0551723,0.0239555,0.1270215,0.001985351,0.1872923,-0.1332052
0.9877458,0.02677405,0.2340663,-0.05627524,0.02064443,0.1190577,0.004123778,0.1574356,-0.149045
0.9978473,0.03589975,0.2191046,-0.04498891,0.02854003,0.1009816,0.00063432,0.1703313,-0.116001
0.9961708,0.03916003,0.221698,-0.04545782,0.03061723,0.1004261,-0.03616664,0.1618957,-0.07327904
0.9921324,0.02164172,0.2202819,-0.04826849,0.01196131,0.09583262,-0.06063704,0.1425512,-0.09143452
0.9901403,0.0002285588,0.2162158,-0.04901487,-0.0105451,0.08856642,-0.04094045,0.1272162,-0.1133454
0.9881325,0.00936307,0.2199367,-0.04976141,-0.002459926,0.08907,-0.06985122,0.08575264,-0.1411944
0.9946928,0.04449568,0.2349742,-0.04192633,0.03166692,0.1008783,-0.08519312,0.09353035,-0.1204663
0.992546,0.06116168,0.2547369,-0.04278685,0.04736952,0.1174047,-0.06570862,0.07387831,-0.07994357
0.9963497,0.03577103,0.2401157,-0.03768771,0.02105573,0.09954404,-0.08538725,0.02373377,-0.1094197
1.012597,-0.007009778,0.21822,-0.02013814,-0.02260972,0.07440946,-0.05662274,0.09330092,-0.1189374
1.026826,-0.01053419,0.2188214,-0.00460174,-0.02698077,0.0717768,0.03986526,0.2797589,-0.1258027
1.029359,0.004810046,0.2151796,-0.0007610068,-0.01244468,0.06491034,0.1200022,0.4852848,-0.1593594
0.9892239,0.006936938,0.2298511,-0.03958994,-0.01108706,0.07637112,0.08222427,0.457173,-0.1371883
0.9521821,0.02285737,0.2581995,-0.0753297,0.00410286,0.1015267,-0.01933199,0.2318011,-0.1211469
0.9739686,0.02277685,0.2536558,-0.0522461,0.003329969,0.09381112,-0.003964631,0.1619664,-0.1317989
0.9990078,0.01063881,0.2456282,-0.0259148,-0.009463193,0.08263481,0.01691336,0.1836739,-0.121732
0.9982676,0.01646932,0.2528989,-0.02536909,-0.004251325,0.08678235,0.005812092,0.2005912,-0.1231753
1.000494,0.01107972,0.2498562,-0.02186447,-0.01022375,0.08064421,0.04154943,0.2230038,-0.1225646
1.000601,0.01110348,0.2507978,-0.02048838,-0.0107476,0.07852042,0.0202234,0.1922498,-0.1121552
0.9934537,0.01752604,0.2570637,-0.02637856,-0.004838019,0.08175304,0.007615911,0.1984675,-0.1181519
0.9927904,0.01675968,0.2539755,-0.02579679,-0.006083416,0.07566542,0.01582544,0.1877857,-0.1187859
0.9937044,0.02600067,0.2512837,-0.0236514,0.002711567,0.07000982,-0.009472531,0.1713075,-0.1112363
0.9961103,0.02657348,0.2470805,-0.02002896,0.002870302,0.06288027,0.006200766,0.2016843,-0.1084694
1.00048,0.02621741,0.2446005,-0.01445829,0.002130842,0.05751327,-0.001735275,0.1816501,-0.1031788
0.9961816,0.03068899,0.2455382,-0.01757375,0.006248359,0.05560507,-0.0243569,0.1936408,-0.1033597
0.994067,0.02534132,0.243032,-0.01852323,0.0005746245,0.05029611,-0.02470034,0.1945416,-0.1046218
0.9930733,0.02630257,0.2449486,-0.01837114,0.001236508,0.04945482,-0.03920149,0.1628633,-0.09888734
0.988547,0.02559708,0.2450917,-0.02177166,0.0002571544,0.04688661,-0.03109837,0.1821503,-0.09320577
0.9903903,0.02310163,0.2431921,-0.01882319,-0.002487768,0.04232385,-0.03280069,0.1631846,-0.08432702
0.9911383,0.02676706,0.2464402,-0.01699119,0.0009515062,0.04295841,-0.03767983,0.1563206,-0.08289037
0.9916164,0.02354357,0.2484609,-0.01545074,-0.002475845,0.04241661,-0.02987709,0.1606084,-0.08917818
0.9940476,0.02034031,0.2522864,-0.01197943,-0.00586165,0.04373161,-0.03926349,0.1371846,-0.09234041
0.9943083,0.01492345,0.2517936,-0.01070122,-0.01144055,0.04078126,-0.03111478,0.1445953,-0.101928
0.9963339,0.006815701,0.2480358,-0.007681306,-0.01969041,0.03461959,-0.01594302,0.1301183,-0.1080901
0.9978342,0.006662302,0.2518413,-0.005210585,-0.01996628,0.03607568,0.009182964,0.1152457,-0.1067602
0.9972644,0.007454953,0.2514525,-0.004834278,-0.01927658,0.03339248,0.04277197,0.1122478,-0.1059882
0.9954967,0.01112317,0.2472765,-0.005680833,-0.01569194,0.02697775,0.05325529,0.1099016,-0.09224618
0.9939522,0.01738978,0.2445184,-0.006329494,-0.009489857,0.02203699,0.06455362,0.129645,-0.07117082
0.9926765,0.02149601,0.2414582,-0.00673505,-0.005429648,0.0168508,0.07184036,0.1240055,-0.0626591
0.9925118,0.02876012,0.2439405,-0.00605551,0.001806093,0.01726471,0.06880818,0.1294521,-0.0678434
0.9938579,0.03781924,0.2463439,-0.003891035,0.01085336,0.01765758,0.04431129,0.1438297,-0.07224498
0.9926113,0.04420149,0.2473336,-0.004345398,0.01723879,0.01669525,0.001084315,0.1287001,-0.06985644
0.9932877,0.040555,0.24908,-0.002902915,0.01360876,0.01654815,-0.003221561,0.1329527,-0.07566576
0.9955604,0.02965654,0.2482429,0.0001098513,0.002738356,0.01387634,0.009334913,0.1455101,-0.08723117
0.9966402,0.02373036,0.2497194,0.001903367,-0.003149516,0.01357679,0.006820994,0.1518512,-0.09569793
0.9981378,0.02595419,0.2505896,0.004088417,-0.00087803,0.01272945,0.006434073,0.1510812,-0.1011241
0.9966556,0.03820031,0.2491126,0.003267274,0.01142427,0.009593288,-0.01483992,0.1393129,-0.09352377
0.9951895,0.04852835,0.2485866,0.002435629,0.0218159,0.007466243,-0.04982262,0.1390341,-0.08139057
0.9916953,0.04625373,0.2458207,-0.0004504415,0.01961082,0.003157066,-0.05898051,0.1339673,-0.07643956
0.9873641,0.04133548,0.2433231,-0.004199723,0.01476646,-0.0008262276,-0.06300048,0.1298389,-0.07703112
0.9919181,0.0357679,0.2418279,0.0009103603,0.00927573,-0.003749627,-0.0819769,0.1327715,-0.084317
0.9966275,0.03046926,0.2433596,0.006150341,0.004055874,-0.003589006,-0.08463401,0.1196559,-0.08640113
0.9954956,0.03401547,0.2481998,0.005523861,0.007682024,-6.280902e-05,-0.07739851,0.1106798,-0.07790356
0.9939348,0.04034624,0.2485774,0.004443465,0.01409322,-0.0009427886,-0.08158899,0.1071536,-0.06741189
0.9925658,0.03912852,0.2497114,0.003530165,0.01295562,-0.001010405,-0.08029476,0.09441572,-0.0613357
0.9930076,0.03681688,0.2513996,0.004403146,0.01072295,-0.0004685341,-0.08362861,0.08593048,-0.06238595
0.9943697,0.03453751,0.2481965,0.006172374,0.00852069,-0.00476365,-0.09894204,0.08598559,-0.06707821
0.9943158,0.0284212,0.2465444,0.006501961,0.002479048,-0.007454124,-0.1111635,0.08695762,-0.0746081
0.9936109,0.02831786,0.243323,0.006157133,0.002447627,-0.01166107,-0.1105625,0.08267002,-0.07545892
0.9927626,0.02530742,0.2395243,0.005645985,-0.0004937937,-0.01639311,-0.09066045,0.08498009,-0.07177668
0.9928865,0.01713564,0.239265,0.006084438,-0.008599429,-0.01753409,-0.07844501,0.08924037,-0.07792678
0.9931741,0.02635927,0.2379401,0.006664628,0.0006876558,-0.01968942,-0.08863075,0.07874642,-0.07940778
0.9920129,0.03961097,0.2392078,0.005774429,0.01400021,-0.01920141,-0.1061636,0.06924855,-0.07090178
0.9913312,0.03960647,0.2393221,0.005342663,0.01405366,-0.01981667,-0.123448,0.06214396,-0.06198851
0.9917435,0.03771157,0.2369385,0.005984347,0.01221324,-0.02288034,-0.1300818,0.0546569,-0.0563362
0.9917045,0.03711865,0.2380522,0.006154816,0.01167074,-0.02239773,-0.1270804,0.05441139,-0.05884383
0.9928772,0.03528543,0.2372114,0.007517545,0.009883456,-0.02382137,-0.1205459,0.0509153,-0.05919659
0.9979374,0.02717022,0.2372504,0.01274894,0.001809352,-0.02431773,-0.117374,0.04446859,-0.05678334
1.002387,0.01807455,0.2381813,0.01735161,-0.007250035,-0.02387546,-0.1266311,0.04295533,-0.05514218
0.9977071,0.0243434,0.2362178,0.01280552,-0.0009494331,-0.02628147,-0.1373896,0.04927334,-0.04754685
0.9919341,0.03317482,0.2352689,0.007148833,0.00790954,-0.02762784,-0.1388667,0.05906299,-0.0428706
0.9968041,0.03117429,0.2325361,0.01211738,0.005932485,-0.0307137,-0.1437274,0.0644958,-0.04111767
1.000885,0.03278311,0.2322317,0.01627948,0.007560598,-0.03132761,-0.1650115,0.07397834,-0.03942511
0.9993949,0.03416334,0.2327662,0.01485413,0.008955839,-0.03105978,-0.1887089,0.08723565,-0.04737946
1.000365,0.02688932,0.2297388,0.01587265,0.001692444,-0.03431168,-0.1974104,0.08862893,-0.05310315
1.000074,0.0185166,0.2331147,0.01561314,-0.006673964,-0.03111895,-0.1896926,0.07902463,-0.03659753
0.9991923,0.007539805,0.2365929,0.01474661,-0.01764831,-0.02778345,-0.1780756,0.07486154,-0.01984345
0.9982326,0.003992192,0.2350812,0.0137868,-0.02119646,-0.02939835,-0.170851,0.07841954,-0.03566707
0.9936213,0.008009616,0.2361915,0.009160207,-0.01718144,-0.02835292,-0.1597811,0.08002056,-0.05635988
0.9924325,0.003608534,0.2374459,0.00794134,-0.02158565,-0.02712607,-0.1461809,0.0798112,-0.05553149
0.9962466,0.002370152,0.2400017,0.01171129,-0.0228268,-0.02456181,-0.1229435,0.08192734,-0.05304149
1.001783,0.002552464,0.2438304,0.01719047,-0.02264579,-0.02068999,-0.1047058,0.08924959,-0.04874645
1.00542,0.0004580227,0.2429074,0.02075691,-0.02473899,-0.02153652,-0.1099033,0.09311824,-0.03597483
1.001132,0.006400566,0.2420438,0.01638493,-0.01879167,-0.02229193,-0.09878124,0.08436801,-0.02175673
0.9951907,0.00617428,0.2439515,0.01034766,-0.01900879,-0.02024578,-0.08741526,0.07794758,-0.01741122
0.9935752,0.004298113,0.2433385,0.008624072,-0.02087074,-0.02069151,-0.1053704,0.08228183,-0.02971449
0.9932866,0.005504206,0.2447698,0.008215813,-0.01964474,-0.01906557,-0.1174927,0.0868245,-0.03618009
0.9955002,-0.004005455,0.2499842,0.01029908,-0.0291282,-0.01363083,-0.1211587,0.09048172,-0.03254738
0.9984127,-0.01461955,0.2515129,0.01307116,-0.03970898,-0.01185771,-0.1101838,0.09518771,-0.0342534
0.997369,-0.02048044,0.2518325,0.01187734,-0.04552831,-0.01127116,-0.07969259,0.0954683,-0.03569484
0.9968629,-0.023036,0.253325,0.0112121,-0.04803261,-0.009491124,-0.05064483,0.1000937,-0.03513364
1.00062,-0.02650088,0.2532767,0.01480099,-0.05143498,-0.009233028,-0.02276451,0.1132252,-0.0315985
1.005828,-0.02889291,0.2493783,0.01983324,-0.05375169,-0.01280776,-0.007485176,0.1142978,-0.0201271
1.009182,-0.02532627,0.2436316,0.02300361,-0.05009537,-0.01821515,0.0003105726,0.1079306,-0.003090204
1.005382,-0.03195059,0.2456294,0.01901084,-0.05661424,-0.01586358,0.0192829,0.1094846,0.00807439
1.000367,-0.03784747,0.2492697,0.01379633,-0.06238851,-0.01185646,0.03973085,0.1095427,0.01311323
1.003277,-0.03174932,0.24742,0.01649853,-0.05614919,-0.01332734,0.05629193,0.1105361,0.02904162
1.004668,-0.02682068,0.2463378,0.01767476,-0.05105956,-0.01402,0.06908796,0.1130451,0.04999803
1.002935,-0.02017236,0.2438025,0.01571964,-0.04422956,-0.01615612,0.08538641,0.110831,0.07548149
1.003082,-0.02190931,0.2449161,0.01563693,-0.04576363,-0.01463476,0.1032348,0.1143401,0.1054366
1.001252,-0.03188507,0.2529151,0.01357103,-0.05551497,-0.006220455,0.112119,0.1204575,0.1115084
1.00345,-0.03718577,0.2570209,0.01552793,-0.06056926,-0.001693028,0.1217003,0.1203405,0.1014022
1.005444,-0.04277477,0.2560893,0.01727354,-0.06588915,-0.002197926,0.1365108,0.1193817,0.09983835
0.995182,-0.04264334,0.2537037,0.006758735,-0.06546508,-0.004153182,0.1522036,0.1153127,0.1113071
0.9858359,-0.04394782,0.2539322,-0.002845442,-0.06645255,-0.003491991,0.157857,0.1093712,0.1387598
0.9893944,-0.05757768,0.2559328,0.0004507711,-0.07974014,-0.001057504,0.1733116,0.1136021,0.167687
0.9979664,-0.07411793,0.2587855,0.008757413,-0.0959118,0.002229103,0.2351417,0.1216789,0.1803368
1.005383,-0.08694227,0.2645047,0.01590663,-0.1083396,0.008380852,0.3096567,0.1294634,0.1867782
1.010917,-0.08809319,0.2626044,0.02116988,-0.109064,0.006910603,0.3652639,0.1489469,0.2044055
1.01169,-0.08480763,0.2570907,0.02167161,-0.1053197,0.001823118,0.4085129,0.1645734,0.2270128
1.012035,-0.08006013,0.2571478,0.02174215,-0.1000794,0.002301271,0.4345722,0.1757285,0.255571
1.015054,-0.06291517,0.2572018,0.02448405,-0.08240624,0.002770509,0.4368068,0.2091566,0.2906183
1.012332,-0.05456481,0.2617851,0.02148203,-0.07349154,0.007762135,0.409419,0.2325509,0.3107551
1.0056,-0.06670142,0.2675473,0.01446696,-0.08502764,0.01392499,0.3883605,0.2318424,0.3242679
0.9954836,-0.07758941,0.2703968,0.004065529,-0.09527903,0.01716633,0.4008632,0.2504766,0.3377886
0.983208,-0.078922,0.2785361,-0.008497919,-0.09593869,0.02568728,0.4249916,0.2618677,0.3447463
0.9820024,-0.07581798,0.287546,-0.00999257,-0.09212504,0.03506736,0.4648313,0.2348874,0.3481105
0.9803668,-0.06868162,0.2928182,-0.01191715,-0.08424218,0.04069653,0.5009698,0.2068974,0.3362385
0.971738,-0.04892307,0.2958246,-0.02083363,-0.06370053,0.04404465,0.5022387,0.1930116,0.3255899
0.9675061,-0.01933981,0.3027814,-0.02535015,-0.03329868,0.051326,0.5098264,0.1879366,0.326339
0.9533281,-0.001907152,0.3142053,-0.03980802,-0.01501428,0.06305506,0.5267011,0.1739794,0.3111642
0.9341997,0.001336514,0.3194088,-0.05920928,-0.01088902,0.06854191,0.4942636,0.1360033,0.2768071
0.9343645,0.004533308,0.3290169,-0.05930776,-0.006784602,0.07840909,0.432744,0.09969617,0.2353194
0.9408052,0.005160694,0.3441346,-0.05311771,-0.005227469,0.09375874,0.3701942,0.06784148,0.2034206
0.9402344,0.00217368,0.3424376,-0.05392397,-0.007266413,0.09226355,0.2889264,0.04076405,0.1840223
0.9393981,-0.001603927,0.3391003,-0.05497802,-0.0100812,0.08909485,0.2306303,0.03415692,0.1643221
0.9407751,-0.01425625,0.3540085,-0.05379916,-0.02175916,0.1041355,0.2162776,0.02034232,0.1432088
0.9519913,-0.02916643,0.3680543,-0.04275948,-0.03568604,0.1182751,0.215797,-0.01055868,0.1159723
0.972718,-0.03648043,0.3712104,-0.02218646,-0.0420097,0.1214828,0.2195895,-0.02737426,0.09396232
0.9780587,-0.04051184,0.3714179,-0.0169761,-0.04504501,0.1216968,0.2192355,-0.01617147,0.09154923
0.954591,-0.03850071,0.3730213,-0.04055094,-0.04203298,0.1232586,0.2139337,-0.009100356,0.08491378
0.923528,-0.03725036,0.375672,-0.07169739,-0.03977782,0.1258167,0.1945242,-0.04767197,0.0490262
0.9141902,-0.04641138,0.3743819,-0.08109381,-0.04793095,0.1243807,0.1751481,-0.1141275,-0.003558628
0.9296019,-0.0560715,0.3715419,-0.06571377,-0.05658076,0.1213392,0.1902649,-0.1714321,-0.02873601
0.9502514,-0.06178957,0.3680242,-0.04506726,-0.06128638,0.1175628,0.2328455,-0.1856459,-0.01615888
0.960716,-0.06779125,0.3608918,-0.03457627,-0.06627336,0.1101133,0.2838202,-0.1468625,-0.01040016
0.9549499,-0.07504864,0.3537398,-0.04028643,-0.07251345,0.1025848,0.3113442,-0.113321,-0.01652995
0.9434147,-0.07941221,0.3473415,-0.05173642,-0.07585651,0.09575066,0.332973,-0.1160815,-0.02009225
0.9399965,-0.0771403,0.3458888,-0.05504021,-0.07256016,0.093803,0.3904422,-0.1425999,-0.04090616
0.9355194,-0.06632075,0.3443821,-0.05937345,-0.06071158,0.09174308,0.4203825,-0.1748722,-0.06309037
0.9285135,-0.04180253,0.3356381,-0.06620541,-0.03515961,0.08238845,0.3920079,-0.18515,-0.07663939
0.9282182,-0.01726847,0.329828,-0.06629629,-0.009587851,0.07591179,0.3438485,-0.1992115,-0.1016181
0.9378825,-0.01148181,0.3244724,-0.05639648,-0.002761412,0.06983547,0.25855,-0.2246999,-0.127159
0.9658406,-0.01538909,0.3181678,-0.02817176,-0.005629315,0.06275818,0.1722684,-0.2177149,-0.1514052
0.9957036,-0.01475984,0.3123942,0.001988103,-0.003963657,0.05616223,0.1429307,-0.2005497,-0.1764816
1.008036,-0.01100157,0.3008687,0.01464579,0.000825613,0.04376773,0.1192338,-0.1839404,-0.2037195
1.008037,-0.01216663,0.2972346,0.01499566,0.0006838285,0.03922104,0.07759294,-0.1382314,-0.2251504
1.002923,-0.01412322,0.3005069,0.01025271,-0.0002594758,0.04154061,0.02704649,-0.1006468,-0.2201397
1.003555,-0.01732173,0.2980864,0.01127449,-0.002456715,0.0381307,-0.037041,-0.08941569,-0.2269828
0.9955776,-0.03753108,0.2973206,0.003701383,-0.02167851,0.0363421,-0.07189576,-0.08587106,-0.2502783
0.9800975,-0.05867655,0.2931548,-0.0113615,-0.0418511,0.03112348,-0.08689718,-0.09694694,-0.2582347
0.9833246,-0.05297771,0.2812797,-0.007706345,-0.03519416,0.01816893,-0.1065718,-0.1047418,-0.2708465
0.9860364,-0.02725726,0.2736967,-0.004557301,-0.008530295,0.009483432,-0.1132158,-0.1073655,-0.2632425
0.9909889,0.003721668,0.2742423,0.0008401339,0.02337684,0.008907457,-0.1335746,-0.1004254,-0.2072914
1.00623,0.01912734,0.2759659,0.01653178,0.03969375,0.0094942,-0.1670534,-0.07263324,-0.1352658
1.002784,0.00293612,0.2746001,0.01354034,0.02439421,0.006980202,-0.1821373,-0.07332073,-0.1021439
0.997958,-0.01716313,0.2730127,0.009171259,0.005164645,0.004236763,-0.1694564,-0.09667402,-0.130138
1.003162,-0.03625023,0.2653214,0.01483081,-0.0130763,-0.004615005,-0.1291428,-0.1016593,-0.141287
0.9914685,-0.07383393,0.2516663,0.003591672,-0.04983766,-0.01943134,-0.07945414,-0.07881417,-0.1255852
0.9604697,-0.07874989,0.2486244,-0.02695666,-0.05395409,-0.02363146,-0.02652296,-0.05760988,-0.1383007
0.9368433,-0.04718631,0.251903,-0.05013633,-0.02161209,-0.0215041,0.005014858,-0.1287258,-0.1363848
0.9601396,-0.03903367,0.2440576,-0.02639645,-0.01270086,-0.03048991,0.003287851,-0.2335451,-0.1245054
1.007096,-0.03035861,0.2263512,0.02100144,-0.003286668,-0.04932199,-0.007288307,-0.2439395,-0.1215737
1.021071,-0.0207521,0.2125769,0.03541365,0.007039324,-0.06420332,-0.02902453,-0.207372,-0.09546175
1.018421,-0.02564175,0.2123557,0.03319605,0.002848955,-0.06550826,-0.03605268,-0.197202,-0.07749052
1.0045,-0.01350799,0.2159458,0.0196996,0.01566108,-0.06297415,-0.02652852,-0.2220078,-0.05562526
0.9848206,-0.009321379,0.2116601,0.0004347418,0.02050426,-0.0682839,-0.02917244,-0.258963,-0.008030218
1.009659,-0.01306098,0.2061057,0.02567729,0.01739838,-0.07482642,-0.02637303,-0.2735868,0.02312688
1.034531,-0.007472796,0.1984813,0.05094018,0.02359638,-0.0833992,-0.03754608,-0.2534069,0.03676497
1.018883,-0.01171047,0.1834144,0.03567035,0.01994364,-0.09937096,-0.06750395,-0.228384,0.02361076
1.014422,-0.01141812,0.1704232,0.03157066,0.02079514,-0.1132194,-0.0987841,-0.2413618,-0.008318193
1.014039,-0.009239534,0.1679778,0.03153116,0.02350634,-0.11647,-0.1462173,-0.2528939,-0.01211381
1.005257,-0.006250374,0.1691528,0.02307419,0.02700091,-0.1160441,-0.1763141,-0.2486124,-0.007362862
1.014621,0.004663092,0.1600762,0.03274235,0.03839179,-0.1258096,-0.1809487,-0.2574221,-0.009209489
1.027579,0.01064064,0.1500919,0.04598488,0.04481778,-0.1364187,-0.2017788,-0.2400547,0.0004702399
1.027004,0.02665537,0.1442583,0.04567136,0.0612507,-0.1428093,-0.2478223,-0.2258582,0.02309481
1.011065,0.0488341,0.1340549,0.02996995,0.08381554,-0.153498,-0.3212975,-0.2600357,0.06971243
0.9904349,0.05550394,0.135129,0.009553692,0.09083703,-0.1528339,-0.4013258,-0.288202,0.1175525
0.9911447,0.04920049,0.1374406,0.01045308,0.08484796,-0.1508533,-0.4493305,-0.2966768,0.127213
1.00068,0.04000354,0.1343327,0.02015393,0.07592556,-0.1542105,-0.4609068,-0.3245934,0.1134452
1.002402,0.02751464,0.1414432,0.02201884,0.0636694,-0.1472647,-0.4481903,-0.3705071,0.08656441
1.010953,0.01702838,0.1362945,0.03069006,0.05337287,-0.1524916,-0.4646895,-0.3964745,0.02498546
1.008716,0.04036065,0.122699,0.02854987,0.07685123,-0.1660769,-0.5817231,-0.4172992,-0.0606053
1.000791,0.06138912,0.1073781,0.0206978,0.09798134,-0.1812974,-0.6807652,-0.4611216,-0.1074312
1.030846,0.02229765,0.07236001,0.05080388,0.0589459,-0.2161225,-0.5599538,-0.4558848,-0.08530868
1.079155,-0.01896909,0.03578746,0.09914002,0.0176891,-0.2524065,-0.3380014,-0.31417,-0.03672458
1.10504,-0.02818192,0.02079272,0.1250266,0.008441264,-0.2670129,-0.1878075,-0.0863768,0.01104113
1.094044,-0.05830833,0.03570118,0.1140016,-0.02176248,-0.2516114,-0.001071857,0.04709236,0.02635284
1.063422,-0.08328115,0.05510795,0.08331871,-0.04685123,-0.2316027,0.1766672,0.07685656,-0.02652545
1.032765,-0.03903072,0.07684039,0.05256561,-0.002750918,-0.2091567,0.2322985,0.1290761,-0.06937326
0.9979885,0.02829294,0.1117334,0.01765597,0.06439202,-0.1734372,0.2551778,0.1221541,-0.04940252
1.003866,0.06689429,0.1022817,0.02336522,0.1027832,-0.1819499,0.1793276,0.05601835,-0.04295049
1.034412,0.08567643,0.06847485,0.05371081,0.1213244,-0.2147063,0.01815441,0.05461086,-0.05760202
1.034643,0.07182198,0.05860595,0.05370751,0.1071958,-0.2234142,-0.074688,0.07202711,-0.06318105
1.053778,0.03877542,0.04892411,0.07257647,0.07383938,-0.2318243,-0.1302087,0.114787,-0.1053107
1.071545,0.007953162,0.05652715,0.09004487,0.04267045,-0.2228388,-0.1186879,0.1683008,-0.1783315
1.06023,-0.01866678,0.06834864,0.07839736,0.01566761,-0.2095244,-0.06300868,0.1726852,-0.233281
1.061237,-0.01724012,0.07144967,0.07903856,0.01667711,-0.2048209,-0.01916439,0.2173899,-0.263232
1.034043,-0.01476222,0.09325992,0.05144285,0.01870619,-0.1813004,0.0580731,0.2697521,-0.2740814
0.9973687,-0.02343684,0.1069609,0.01433357,0.00955378,-0.1657838,0.08897764,0.2392193,-0.2725933
1.006713,-0.01947677,0.1121712,0.02321021,0.01300976,-0.1586562,0.1177418,0.1980619,-0.2544895
1.020298,-0.02569649,0.1098263,0.03629754,0.006262339,-0.1589864,0.19414,0.2012474,-0.2255818
1.021071,-0.0289025,0.09961766,0.03654446,0.002507725,-0.1670871,0.2379386,0.2140069,-0.2106851
1.019629,-0.02263092,0.1145733,0.03454947,0.008212523,-0.1499344,0.2991916,0.2204424,-0.2114195
1.016536,-0.02514732,0.1261244,0.03087923,0.005113731,-0.1361018,0.3393633,0.2439376,-0.2206411
1.015861,-0.01830758,0.1287982,0.02960404,0.01135788,-0.1310669,0.3197123,0.2556154,-0.2465009
1.011846,-0.001744186,0.1436821,0.02496828,0.0273145,-0.1137476,0.3026174,0.2503456,-0.2754319
1.003474,0.03794818,0.1647752,0.01595474,0.06639018,-0.09015072,0.266863,0.2515886,-0.2415771
0.9978783,0.08124019,0.1922955,0.009700945,0.1090554,-0.06006487,0.2385887,0.2366332,-0.1313386
1.003051,0.0739147,0.1901256,0.01420028,0.1010913,-0.05961505,0.2330104,0.2165577,-0.02721239
1.01326,0.0537657,0.1734969,0.02372334,0.08028936,-0.07357742,0.2007073,0.1895377,0.006347567
1.019696,0.04757925,0.1762863,0.02946283,0.07343386,-0.06808245,0.1383855,0.1816725,-0.02366839
1.017911,0.02365026,0.1711696,0.02697116,0.04881874,-0.07046104,0.07577644,0.2146675,-0.05290391
1.001121,0.002979408,0.1813594,0.009466384,0.02744473,-0.05750692,0.05992317,0.2202112,-0.07371979
0.9804543,0.005820336,0.2068427,-0.01192176,0.02956652,-0.02923936,0.07382193,0.1885683,-0.09533409
0.9747241,0.005058312,0.2103652,-0.01837721,0.02807088,-0.02291961,0.07249368,0.118739,-0.07261383
0.9876748,-0.0006797482,0.2064888,-0.006153092,0.02158637,-0.02399271,0.08580842,0.03739172,-0.05342996
1.015161,-0.002646605,0.1920903,0.02060807,0.01886193,-0.0355886,0.1373463,0.03555407,-0.04371427
1.042014,-0.008625619,0.1728049,0.04673877,0.01211603,-0.05207829,0.198489,0.09331529,-0.01135386
1.038764,-0.00584384,0.1773186,0.04276917,0.01412357,-0.04478061,0.2355436,0.1253835,0.002155016
1.029251,0.007820675,0.1951057,0.03253922,0.02700835,-0.02422574,0.2608643,0.0958794,0.04414217
1.057057,0.01608375,0.2055098,0.05963023,0.03448763,-0.01107483,0.3128968,0.07765598,0.09420041
1.061932,0.01554724,0.2036031,0.06379186,0.0331642,-0.01026064,0.3573201,0.1403936,0.1134748
0.9973928,0.0129742,0.2054111,-0.001459077,0.02980183,-0.00576263,0.3553664,0.1809455,0.1620156
0.9330598,0.01962709,0.2188717,-0.06650273,0.03566364,0.01035224,0.344915,0.1205122,0.1853947
0.9334225,0.03086767,0.2198045,-0.06684596,0.0461119,0.01389896,0.3073263,0.04085511,0.143535
0.9627328,0.05259049,0.2031748,-0.03823242,0.06704123,-0.0001619415,0.1950259,0.008294743,0.09514054
0.9594309,0.08568663,0.1893599,-0.042218,0.09934189,-0.0114572,0.06869326,-0.0104859,0.09199093
0.9707697,0.08440764,0.1877594,-0.03154655,0.09726361,-0.01059033,0.02243667,-0.02659776,0.1027182
1.01581,0.05179409,0.1929386,0.01284459,0.06384477,-0.002998449,0.0564911,0.009638957,0.08671765
1.031001,0.03476244,0.1985943,0.02740636,0.04600043,0.005012739,0.08787034,0.07450182,0.100014
1.019199,0.03257779,0.2123266,0.01499359,0.04299541,0.02104111,0.1057211,0.08979313,0.1118606
0.9902096,0.03536587,0.2244774,-0.01458768,0.04495581,0.03542572,0.1217329,0.04675131,0.1037871
0.9691691,0.03607222,0.2142587,-0.03620141,0.04482771,0.02737582,0.0932117,-0.001179061,0.1040587
0.9768546,0.03237666,0.2038332,-0.02906897,0.04029139,0.01905128,0.05570785,-0.01221689,0.0707911
0.9887191,0.03284911,0.2044841,-0.01773589,0.03991737,0.02173335,0.01262646,-0.002380125,0.05014743
1.00872,0.02416644,0.1999844,0.001756172,0.0303832,0.01919334,-0.02336169,0.01169059,0.0495579
1.01323,0.01248721,0.2010437,0.005779917,0.0178484,0.02213964,0.01205324,0.03903026,0.04424405
1.009825,0.01185497,0.2060064,0.001911587,0.01635786,0.02891568,0.02261012,0.05244673,0.06168284
1.019254,0.01215396,0.2059258,0.01089894,0.01579741,0.03057377,-0.01069127,0.03608066,0.06950628
1.012237,0.01411848,0.2079175,0.003461518,0.01690294,0.03422868,-0.03121318,0.02765786,0.07775075
1.004523,0.0138112,0.2068847,-0.004652131,0.01573861,0.0347829,-0.07208246,0.02783906,0.08298476
0.9993479,0.01135914,0.2062071,-0.01020696,0.01243281,0.03561552,-0.0721018,-9.853707e-05,0.08218577
1.003003,0.0097596,0.206847,-0.006911294,0.009984235,0.03768847,-0.03201262,-0.02786792,0.1146593
1.025714,0.00118692,0.2000148,0.01546016,0.0005686615,0.03221197,-0.00542988,-0.009499383,0.1472755
1.026143,-0.002550252,0.1924621,0.01556753,-0.004003657,0.02593774,0.03168337,0.007701601,0.185414
0.9912746,0.007970274,0.1891212,-0.01960286,0.005691159,0.02379876,0.0575333,-0.0219946,0.2033835
0.9539517,0.02731754,0.1906694,-0.05721016,0.02422354,0.02647326,0.04037328,-0.05073153,0.1522993
0.9621867,0.05336239,0.1961205,-0.0492404,0.04946488,0.03297589,-0.06544319,-0.05726982,0.124815
0.9814451,0.07345557,0.2060617,-0.03022623,0.06876542,0.04389507,-0.1643707,-0.06866801,0.1585889
0.9805676,0.04389075,0.2168776,-0.03132582,0.03841751,0.05561596,-0.07414086,-0.07004597,0.174971
1.01186,-0.01788223,0.2143816,-0.0002324926,-0.02412981,0.05395221,0.04145842,-0.03658112,0.1308089
1.01888,-0.0153838,0.2128003,0.006610321,-0.02239604,0.05313075,-0.004251244,-0.0004527082,0.07522862
0.9799482,0.031846,0.2240915,-0.03247722,0.02408065,0.0651097,-0.07815586,-0.03610651,0.07675843
0.9741613,0.04699646,0.2266714,-0.03839848,0.03849066,0.06830548,-0.1310428,-0.1220752,0.1179656
0.9912124,0.02055562,0.2157357,-0.0214604,0.01132198,0.05791415,-0.15463,-0.1575505,0.1549711
1.028453,-0.02917795,0.2013912,0.01568824,-0.03912659,0.044043,-0.06390323,-0.1161124,0.146478
1.058138,-0.03319692,0.1965011,0.045302,-0.04384613,0.03955637,0.01153304,-0.003617288,0.09369132
1.032228,-0.001416281,0.2040207,0.01933915,-0.01274914,0.04741122,0.002542037,0.08521157,0.06567166
1.004641,0.01313839,0.209157,-0.008286804,0.001140781,0.05281641,0.01537585,0.02717506,0.08102429
0.9957166,0.02897213,0.2131303,-0.01723525,0.01632952,0.05699371,0.02630717,-0.06220843,0.09819995
0.9949172,0.02523437,0.2108242,-0.01804548,0.0119665,0.05482796,0.01128918,-0.05374604,0.08169918
1.007808,0.019341,0.1978489,-0.005152361,0.005467313,0.04193103,-0.01997015,-0.01091325,0.06057038
1.012605,0.02427054,0.1926557,-0.0003399388,0.009810211,0.03675585,-0.05402275,0.02605918,0.05457749
1.005838,0.008133305,0.1933357,-0.007079389,-0.006894599,0.03739577,-0.06278899,0.04069843,0.03108623
0.9981036,0.004063371,0.1930776,-0.01477499,-0.0115129,0.03704196,-0.07140719,0.01814663,0.01937025
1.000407,-0.002197959,0.1929885,-0.01242132,-0.01830286,0.03680389,-0.05931289,0.01252462,0.01815259
1.010073,-0.01878158,0.191553,-0.002695286,-0.03539452,0.03516848,-0.01860791,0.009845273,0.001678796
1.019933,-0.01499638,0.195958,0.007235486,-0.03209554,0.03932499,0.02720953,-0.003264453,-0.01310457
1.026811,-0.009172952,0.2045751,0.01419415,-0.02673518,0.04764728,0.05579218,0.01054308,-0.03577234
1.010107,0.0003591047,0.2093481,-0.002422577,-0.01764196,0.05208106,0.0407809,0.004483234,-0.03727191
0.9867181,0.008365647,0.2068077,-0.02571697,-0.01004947,0.04915866,0.02938392,-0.0125996,-0.02108858
0.9848007,0.006524917,0.2011916,-0.02753306,-0.01227933,0.04311945,0.02768241,-0.0174221,-0.02040893
0.9968889,0.006836646,0.1921679,-0.0153364,-0.01233193,0.03363327,0.02534309,-0.02437473,-0.01450046
1.013728,0.00774212,0.1757888,0.001618915,-0.01176617,0.01675458,0.03742009,0.01770819,-0.01245468
1.020171,0.005328324,0.1736626,0.008184294,-0.01449529,0.01409445,0.03170339,0.06838056,-0.007398895
1.015168,-0.01294666,0.184334,0.00330953,-0.03306131,0.02420035,0.02282097,0.07930664,-0.00858836
1.014067,-0.0336839,0.1871454,0.002342454,-0.05406491,0.02641774,0.0115452,0.07349285,-0.03928513
1.015932,-0.03382354,0.1910636,0.004344637,-0.05444519,0.0297157,-0.02245069,0.04280896,-0.07144867
1.01549,-0.0274606,0.1911626,0.004042802,-0.04829573,0.02917047,-0.04253119,0.003759249,-0.09678942
1.014683,-0.02925345,0.1855669,0.003378424,-0.05027363,0.02290864,-0.04367923,-0.0166798,-0.09936115
1.0148,-0.0277676,0.1873282,0.003640066,-0.04894339,0.02398391,-0.04009799,0.001996519,-0.09442285
1.010847,-0.02020316,0.1883438,-0.0001681104,-0.04150434,0.02429558,-0.03057992,0.01617273,-0.1000374
1.005489,-0.01884918,0.1869322,-0.005380363,-0.04024502,0.02216434,-0.01367669,-0.004040359,-0.08791301
1.002952,-0.002875743,0.1881477,-0.007771016,-0.02433546,0.02264615,-0.004688584,0.001161112,-0.08027746
0.999064,0.02513406,0.1902965,-0.01151363,0.003640697,0.02404935,-0.02893323,0.01662093,-0.07136907
0.9988681,0.02876523,0.1927532,-0.01156369,0.007266972,0.02575,-0.05690177,0.02209641,-0.05494981
1.002381,0.01825217,0.1937292,-0.007904617,-0.003224361,0.02596119,-0.0654027,0.01584887,-0.05959159
1.004921,0.01145573,0.1944963,-0.005218694,-0.009974468,0.025956,-0.07565006,-0.005666768,-0.05667686
1.009566,0.007068748,0.195753,-0.0004270949,-0.01429212,0.02643437,-0.09043938,-0.001816966,-0.04791494
1.008789,-0.001238364,0.1993273,-0.001057022,-0.02250815,0.02922543,-0.1123678,-0.006107723,-0.04536548
1.00212,-0.01726462,0.2063068,-0.00758001,-0.03842235,0.03541783,-0.1253976,-0.02832816,-0.03904348
1.000714,-0.02675632,0.2069906,-0.008840415,-0.04778129,0.03531147,-0.09801872,-0.04173906,-0.04189097
1.00387,-0.0222537,0.1965061,-0.005538515,-0.04312497,0.0240344,-0.05739203,-0.05733634,-0.04183903
1.013857,-0.01778618,0.1864673,0.004592282,-0.0384825,0.01320145,-0.03880769,-0.03510001,-0.03723108
1.02502,-0.01971826,0.186415,0.01589923,-0.04021826,0.01235486,-0.03513516,0.004897453,-0.03276793
1.021522,-0.01394808,0.1903798,0.01254397,-0.03423044,0.01552643,-0.04674814,0.01980438,-0.02438398
1.015966,-0.008314045,0.1913007,0.007127309,-0.02835774,0.01565669,-0.06601393,0.02783319,-0.02776308
1.01701,-0.009818544,0.1938472,0.00830743,-0.02960305,0.01741624,-0.06588102,0.01045547,-0.03103721
1.012115,0.001167245,0.2016764,0.003544406,-0.01833829,0.02446329,-0.05158037,-0.01341012,-0.02319696
1.007622,0.01540435,0.2055129,-0.0008205845,-0.003803503,0.02752294,-0.04035368,-0.01083436,-0.005313568
1.007919,0.01887445,0.1988008,-0.0003992811,-1.855585e-05,0.02003996,-0.03905078,-0.001652438,0.03187714
1.00775,0.01806665,0.1897144,-0.0004487697,-0.0004962641,0.01018915,-0.04360585,0.005731409,0.06316254
1.010113,0.01244064,0.1854908,0.002028657,-0.005778873,0.0052084,-0.03933645,0.0009523958,0.07340269
1.014002,-0.001370639,0.1848529,0.006028381,-0.0192351,0.003821671,-0.03836232,-0.008157689,0.08060549
1.019464,-0.01209292,0.1882985,0.01159673,-0.02959183,0.006527957,-0.05110475,-0.008250751,0.07908647
1.018958,-0.008167219,0.1939211,0.0111915,-0.02529068,0.01142186,-0.07586962,-0.01816912,0.06884767
1.005378,-0.008008013,0.194696,-0.00229349,-0.02474654,0.01147937,-0.1097929,-0.0409594,0.05896515
0.9967328,-0.01717194,0.1935004,-0.01084845,-0.03351641,0.009578268,-0.1157863,-0.06301479,0.03897249
1.001545,-0.02343724,0.1928723,-0.005951233,-0.03937873,0.008257152,-0.0885107,-0.06441665,0.02659093
1.007696,-0.02654442,0.1880418,0.0002801165,-0.0420739,0.00274671,-0.06823875,-0.05244189,0.03819288
1.011438,-0.02080205,0.1813433,0.004098323,-0.03591028,-0.004618175,-0.06025526,-0.04870938,0.05168158
1.019907,-0.01639456,0.1723831,0.01263914,-0.03107213,-0.01423011,-0.04638147,-0.0331062,0.06815011
1.029178,-0.01884073,0.1629144,0.02197627,-0.03307833,-0.02433472,-0.02675944,-0.01106082,0.08118303
1.028024,-0.01686867,0.1600924,0.02088449,-0.03065719,-0.02777521,-0.01846257,0.01208333,0.06202396
1.02513,-0.01341027,0.1616566,0.01804606,-0.0267409,-0.0268105,-0.01547123,0.04639654,0.03579886
1.020765,-0.007477794,0.168548,0.01372954,-0.02034214,-0.02049789,-0.004790168,0.05003986,0.02561807
1.007448,0.001661358,0.1819127,0.000453411,-0.01072903,-0.007690005,-0.0007401314,0.02844284,0.008446501
0.997979,0.01617739,0.1960796,-0.008981499,0.004267529,0.005942476,-0.004833831,0.0129592,-0.004522434
0.9951458,0.03238101,0.2026528,-0.01178714,0.02095658,0.01200373,-0.01651024,-0.001460521,0.004504687
0.9937758,0.03396386,0.1976185,-0.01313536,0.02302749,0.006479376,-0.03998713,-0.01045213,0.01343844
0.9919895,0.02946194,0.1951857,-0.0149046,0.01901375,0.003577678,-0.05413162,-0.03525031,0.01897888
0.9913503,0.02571749,0.1932836,-0.01553042,0.0157552,0.001227418,-0.05260125,-0.06386064,0.02914668
0.9979699,0.01761376,0.1806092,-0.008900228,0.008133052,-0.01187487,-0.05952299,-0.06493925,0.0397801
1.008365,0.01362014,0.1723411,0.001503537,0.00461507,-0.02055048,-0.0724254,-0.0541428,0.04973028
1.017273,0.009090945,0.1665758,0.01041871,0.0005543504,-0.02670254,-0.06446471,-0.03606878,0.05130425
1.016878,-0.006546129,0.1577505,0.01002837,-0.01462223,-0.03589301,-0.0469578,-0.02376073,0.04554302
1.013159,-0.02419655,0.158332,0.006312557,-0.03182037,-0.03565415,-0.03349541,-0.01538038,0.03285043
1.017533,-0.0285695,0.1615907,0.01068722,-0.03574878,-0.03271448,-0.02123818,-0.004366882,0.01508856
1.018114,-0.02480643,0.1655823,0.01126506,-0.03154795,-0.0290174,-0.0297351,-0.01247844,0.01268852
1.016371,-0.02804288,0.1760241,0.009517186,-0.0343524,-0.01884491,-0.04013557,-0.02653126,0.01009775
1.01455,-0.02776091,0.1819247,0.007687667,-0.03364322,-0.01318855,-0.0322465,-0.03604889,-0.01556492
1.008037,-0.02015164,0.1773086,0.001161936,-0.02561068,-0.0180238,-0.03192481,-0.0383019,-0.03915828
1.009407,-0.01748942,0.170618,0.002515749,-0.02252849,-0.02490886,-0.03373291,-0.02566144,-0.04382812
1.012928,-0.01274053,0.1688376,0.00601849,-0.01736257,-0.02685929,-0.04056364,-0.01710685,-0.04264529
1.011969,-0.005172421,0.1691619,0.005036659,-0.009380317,-0.02668046,-0.05705579,-0.01880009,-0.04095175
1.013079,-0.0002513061,0.1715502,0.00612107,-0.004048161,-0.02441329,-0.05456247,-0.01783549,-0.03188082
1.012308,0.0003694221,0.1762841,0.005321349,-0.003020012,-0.01977615,-0.0497173,-0.0111865,-0.02325278
1.01221,-0.004231513,0.180642,0.005191104,-0.007217754,-0.01549112,-0.05595572,-0.01101639,-0.02162409
1.013052,-0.002817756,0.1841598,0.005998659,-0.00540557,-0.01202289,-0.05475407,-0.01620329,-0.01701815
1.011997,-0.001562101,0.1850558,0.004905562,-0.003756711,-0.01115394,-0.05554026,-0.01580306,-0.01247402
1.012382,-0.004327642,0.1874422,0.005248916,-0.006134704,-0.008773144,-0.05991505,-0.01218585,-0.01184819
1.010249,-0.001755455,0.1880314,0.0030722,-0.003181029,-0.008168932,-0.0594031,-0.005498128,-0.0162066
1.006212,-0.003022978,0.1831996,-0.001011718,-0.004073498,-0.01296637,-0.0577835,-0.006507308,-0.02369544
1.004859,-0.004442377,0.1796628,-0.002414344,-0.005124622,-0.01645021,-0.05620118,-0.01515316,-0.02392502
1.005408,-0.003312758,0.1745986,-0.001917236,-0.003633802,-0.0214438,-0.05887457,-0.01956634,-0.02484475
1.00694,-0.005206039,0.1709377,-0.000438485,-0.005173202,-0.02501667,-0.06178752,-0.02360446,-0.02098158
1.010079,-0.003584793,0.1674817,0.002645464,-0.003205609,-0.02836781,-0.05678326,-0.01533214,-0.002691348
1.015571,-0.004018934,0.1591418,0.00808064,-0.00330113,-0.03658587,-0.04688186,0.002397515,0.009564969
1.016165,-0.008091402,0.1581239,0.008617417,-0.007042867,-0.03746498,-0.03340461,0.01477948,0.01219765
1.011401,-0.01955089,0.16259,0.003794017,-0.01817951,-0.03284295,-0.01997139,0.02772709,0.01330306
1.010597,-0.0356023,0.1674412,0.002930032,-0.03391553,-0.02781854,-0.01710291,0.02417143,0.01378582
1.011759,-0.03330156,0.1743875,0.004030717,-0.03130594,-0.02068191,-0.03781232,0.003727205,0.008764465
1.013716,-0.0330462,0.1735766,0.005924603,-0.03074707,-0.02128584,-0.08025241,-0.01058309,-0.01343013
1.016326,-0.05370484,0.1701608,0.008469412,-0.0511062,-0.02447872,-0.1106193,-0.02631735,-0.04195388
1.015309,-0.06338688,0.1730907,0.00738657,-0.0604911,-0.02131056,-0.1070412,-0.03228796,-0.05847902
1.014104,-0.05379073,0.1729415,0.006114406,-0.05059815,-0.02120656,-0.07975127,-0.02176411,-0.05896776
1.012075,-0.03830472,0.17194,0.004016972,-0.03481374,-0.02194088,-0.0407052,-0.01687596,-0.04239552
1.008504,-0.02185005,0.1739124,0.0003751105,-0.01805787,-0.01968777,-0.0100705,-0.006565503,-0.0116258
1.008715,-0.01211854,0.168883,0.000514909,-0.008021965,-0.02442361,0.002214344,0.003483522,0.01695427
1.007967,-0.001890596,0.1633485,-0.0003062691,0.002513216,-0.02965225,0.01310107,-0.004560819,0.03070014
1.005157,0.006556407,0.1635855,-0.003190135,0.01126939,-0.02909756,0.02055041,-0.007010154,0.04059548
1.009555,0.0002166807,0.1640546,0.001134305,0.005239542,-0.02829903,0.01397246,-0.0007483582,0.04011281
1.014955,0.000132956,0.1710328,0.00646048,0.005465126,-0.02098017,0.004473701,-0.0003223624,0.02479749
1.012502,0.004554162,0.1788401,0.003932436,0.01019392,-0.01282132,-0.008282738,-0.005973558,0.02146301
1.012521,-0.007046148,0.1727758,0.003877471,-0.001101563,-0.01852402,-0.02847983,-0.01038526,0.02063471
1.016097,-0.01267008,0.1623332,0.007378071,-0.006424244,-0.02859581,-0.04156625,0.000949543,0.008314967
1.014875,-0.01005294,0.1586886,0.00608169,-0.003509873,-0.03186087,-0.04824144,0.02246804,0.001820017
1.013016,-0.01234316,0.1580561,0.004146618,-0.005507194,-0.03210532,-0.05688984,0.03662846,-0.002373809
1.011287,-0.01293625,0.1660617,0.002341551,-0.005811929,-0.02370314,-0.05771277,0.03481775,-0.009332366
1.009393,-0.01465996,0.1811797,0.0003717468,-0.00725201,-0.008180526,-0.05107557,0.01938118,-0.01130366
1.010284,-0.01516381,0.1828205,0.001186925,-0.007477057,-0.006127822,-0.04789878,0.006183076,-0.005244006
1.011427,-0.01349613,0.1776512,0.002253481,-0.005535437,-0.01087909,-0.04908711,0.006580702,0.001446161
1.012908,-0.01225273,0.1775583,0.003658661,-0.004023059,-0.01054893,-0.05017111,0.0156189,-0.002277128
1.01301,-0.01163174,0.1722122,0.0036846,-0.00313815,-0.01546802,-0.04721864,0.02125658,-0.004886365
1.012144,-0.0135696,0.1668941,0.002742277,-0.004817312,-0.0203559,-0.04374705,0.0235435,-0.002427155
1.015183,-0.0120367,0.1666962,0.005705802,-0.003031068,-0.02012082,-0.03705425,0.02889011,-0.008150249
1.018621,-0.0119485,0.1659583,0.009068562,-0.002694984,-0.02042338,-0.02105355,0.04099775,-0.01683868
1.01935,-0.01271009,0.1683155,0.009721829,-0.003214279,-0.01762876,-0.01136306,0.05945174,-0.02365846
1.015669,-0.01076461,0.1739224,0.005965509,-0.00103221,-0.01158288,-0.01610751,0.06422203,-0.02812888
1.009462,-0.01323574,0.1770715,-0.0003183257,-0.003272551,-0.007993748,-0.02099161,0.05011144,-0.02761766
1.008846,-0.013188,0.1795998,-0.001010971,-0.002999936,-0.005025154,-0.02869495,0.03668024,-0.02949108
1.010519,-0.01364185,0.18298,0.0005854068,-0.003234843,-0.00120525,-0.05086723,0.0236179,-0.03390467
1.010408,-0.01751023,0.1804708,0.0003981616,-0.006890207,-0.003276246,-0.06852464,0.008453821,-0.03594448
1.011361,-0.01667667,0.1741047,0.001275548,-0.005849445,-0.0092066,-0.06378209,0.00473472,-0.03791547
1.011131,-0.01644726,0.1695828,0.0009700196,-0.005418496,-0.01329599,-0.05100739,0.01965709,-0.03779417
1.00992,-0.01599221,0.170219,-0.0003165203,-0.004767422,-0.01223075,-0.03405836,0.03943594,-0.03433293
1.009627,-0.01200196,0.1777669,-0.0006835902,-0.0005865576,-0.004257774,-0.01236824,0.04484048,-0.03059568
1.009057,-0.007128284,0.1828657,-0.001327794,0.00447231,0.001261647,-0.001313256,0.04003603,-0.02239299
1.007184,-0.001678471,0.1866212,-0.003272542,0.01010166,0.005432728,0.004570657,0.02881621,-0.0113569
1.004891,0.003294654,0.1892389,-0.005637079,0.01524822,0.00845994,0.01255115,0.01358902,-0.01050764
1.006398,0.003916232,0.1855158,-0.004199361,0.01603646,0.005139363,0.01418741,0.0127485,-0.01606754
1.009753,-0.001179598,0.1831822,-0.0009121198,0.01109983,0.003200323,0.01160211,0.01570266,-0.01543219
1.010155,-0.002329373,0.1797857,-0.0005753742,0.0101012,0.0001897171,0.005680613,0.01049177,-0.009755454
1.010342,-0.000235589,0.1790909,-0.0004510812,0.01233766,-0.0001284034,-0.003167759,0.01649406,-0.0002988548
1.010205,-0.000170807,0.1833242,-0.0006494037,0.01253627,0.004471952,-0.01097995,0.02140024,0.009084726
1.007467,0.001300531,0.1840773,-0.003445829,0.01413225,0.005582132,-0.02043549,0.0103264,0.01255585
1.005317,-0.002920532,0.1871553,-0.005652024,0.01002629,0.009006653,-0.03021893,0.003406708,0.01561261
1.005331,-0.009024986,0.1819468,-0.005692159,0.004027203,0.004133632,-0.03848554,0.002553173,0.01873484
1.006457,-0.009312353,0.1727288,-0.004616963,0.003835507,-0.004760404,-0.04228498,0.0003840472,0.01487985
1.00911,-0.01254109,0.1805084,-0.002011454,0.0006929631,0.003331714,-0.03948504,-0.0009858925,0.005043381
1.012096,-0.01621245,0.1855547,0.0009294029,-0.002901332,0.008678836,-0.0314901,-0.0002099454,-0.003969453
1.011674,-0.01502445,0.1803842,0.0004659281,-0.001644895,0.00379735,-0.01584723,0.004082897,-0.007815844
1.010018,-0.01309379,0.1773536,-0.001228795,0.0003460656,0.001043755,-0.001497947,0.006258144,-0.006270666
1.010447,-0.01218886,0.1740639,-0.0008359094,0.001303646,-0.001981073,0.009323221,0.006576936,-0.003196485
1.008439,-0.01198215,0.1762028,-0.002876929,0.001555726,0.0004109183,0.01898787,0.008977128,-0.002606267
1.005956,-0.01036052,0.1830702,-0.005389499,0.003215773,0.007519526,0.01484715,0.0115464,-0.001971715
1.00739,-0.006522059,0.1854546,-0.003983367,0.007085949,0.01013338,0.008562,0.01017647,-0.003318013
1.008599,-0.003996551,0.1855162,-0.002798569,0.0096366,0.01041249,0.007587328,0.0007840982,-0.006277801
1.008473,-0.003291981,0.1844086,-0.002946406,0.01035974,0.009510113,-0.006740639,-0.004939061,-0.001655986
1.007254,0.000915688,0.1804802,-0.004184363,0.0145793,0.005774703,-0.02337181,-0.001002289,0.003745859
1.006636,0.003912611,0.1776652,-0.004818054,0.01758124,0.003140214,-0.02407095,5.202491e-06,0.005336434
1.008168,-0.001994236,0.1790782,-0.003298121,0.01167224,0.004721591,-0.02167067,-0.001852299,0.008059556
1.008115,-0.009312015,0.1789081,-0.003360344,0.004344993,0.004707776,-0.02906778,-0.002097877,0.007345557
1.006595,-0.01259371,0.1758128,-0.004886801,0.001046634,0.001756998,-0.034935,-0.005431099,0.0046624
1.005191,-0.01309845,0.1762535,-0.006294015,0.0005184148,0.002330662,-0.03007645,-0.009851286,0.0007647179
1.006775,-0.01123238,0.176821,-0.004710583,0.002354692,0.003020021,-0.02544752,-0.009768647,-0.003734238
1.011479,-0.008040323,0.1758969,-3.408363e-06,0.005511064,0.002206935,-0.02226841,-0.006514174,-0.0004593563
1.013277,-0.004578737,0.1765633,0.001800589,0.0089314,0.002973822,-0.01592793,-0.004527198,0.007633724
1.011789,-0.00585876,0.1754041,0.0003205986,0.007604728,0.001905005,-0.01500871,-0.008690768,0.01204122
1.007678,-0.009114471,0.1750908,-0.003778171,0.00429711,0.001672411,-0.0215458,-0.01570805,0.007671482
1.004725,-0.006929437,0.177901,-0.006718345,0.006425171,0.004553941,-0.02713358,-0.01699761,0.001498983
1.008413,-0.004510159,0.1791516,-0.003013629,0.00878262,0.005866699,-0.02895698,-0.01605858,0.005975229
1.013129,-0.00426737,0.1760061,0.001721368,0.008958869,0.002774643,-0.03498847,-0.01912146,0.01027858
1.014484,-0.004784452,0.1718533,0.003096718,0.008370618,-0.001333238,-0.04165433,-0.02408832,0.006654075
1.016336,-0.007882845,0.1734403,0.004971502,0.005196534,0.0002906459,-0.03442222,-0.02518183,0.004511183
1.018761,-0.01082996,0.1747136,0.00742043,0.00216941,0.001593136,-0.02349703,-0.01764498,0.003228823
1.016396,-0.01406662,0.1726624,0.005081281,-0.001151241,-0.0004359709,-0.02017074,-0.01031723,0.003010631
1.012983,-0.01775201,0.1739084,0.001693369,-0.0049241,0.0008254244,-0.01868927,-0.01775089,0.001884589
1.014028,-0.01977266,0.1739132,0.002764857,-0.007035056,0.0008392876,-0.01976016,-0.02628827,-0.003778555
1.014111,-0.02039501,0.1728601,0.002874171,-0.007749812,-0.0002106573,-0.01846498,-0.01900788,-0.00457255
1.013541,-0.01855492,0.1732181,0.002330451,-0.006003463,0.0001450342,-0.01396211,-0.0153001,-0.000826189
1.014207,-0.0179935,0.1710116,0.00302166,-0.005536409,-0.002068847,-0.01591434,-0.01915465,0.004503363
1.013518,-0.01683592,0.1677502,0.00235787,-0.004473235,-0.005342265,-0.02203425,-0.01535673,0.01131951
1.01303,-0.01414565,0.1624856,0.001894188,-0.001876882,-0.01062292,-0.02971235,-0.01217784,0.01482494
1.012329,-0.01740235,0.1595318,0.001217408,-0.005226617,-0.01359607,-0.03689111,-0.01150756,0.0181966
1.012217,-0.01917492,0.1634819,0.001128135,-0.00709092,-0.009667735,-0.03979737,-0.01637257,0.01599858
1.012884,-0.01684509,0.1661612,0.001816616,-0.004851086,-0.007011761,-0.03943398,-0.030256,0.01113558
1.012283,-0.0156564,0.1699474,0.001236091,-0.003750254,-0.003250066,-0.03898435,-0.03668728,0.01970651
1.012484,-0.01302509,0.1773965,0.001456993,-0.001204352,0.004174002,-0.04126799,-0.03613966,0.02768262
1.012496,-0.01327792,0.1778102,0.001487416,-0.001539945,0.004562081,-0.04150497,-0.03111689,0.02370299
1.011398,-0.01385118,0.1739175,0.000406851,-0.002193204,0.0006432111,-0.04065445,-0.02587882,0.02029465
1.011518,-0.01162738,0.1714383,0.0005429574,-4.654055e-05,-0.001862685,-0.03915726,-0.04377042,0.01916323
1.013647,-0.0123549,0.1668659,0.002686924,-0.0008482659,-0.006462251,-0.03461425,-0.07333452,0.02024388
1.015534,-0.01183743,0.1670422,0.004587455,-0.000402047,-0.006313318,-0.03126258,-0.08044115,0.02516176
1.012028,-0.009343553,0.1715954,0.001093897,0.002023519,-0.001787174,-0.02619976,-0.06305325,0.02672046
1.007865,-0.008669625,0.1698041,-0.003058162,0.002632013,-0.003604978,-0.03223166,-0.0465043,0.02436985
1.009777,-0.008690902,0.1658587,-0.001136638,0.002548044,-0.007576237,-0.04813311,-0.04513759,0.02110392
1.010039,-0.01196908,0.1616312,-0.0008652522,-0.000790219,-0.01182848,-0.04711511,-0.04081418,0.01353319
1.006273,-0.01886854,0.157375,-0.004623948,-0.007747189,-0.01610784,-0.03161004,-0.02803871,0.0009672306
1.006942,-0.02304605,0.1571851,-0.003948661,-0.01197943,-0.01631877,0.004318577,-0.02389703,-0.006931041
1.016007,-0.02279858,0.1559652,0.005122885,-0.01178351,-0.01755674,0.04453501,-0.02236964,0.0008829501
1.027608,-0.02418652,0.1551757,0.0167293,-0.01321929,-0.01836068,0.03892952,-0.008768856,0.008760334
1.028331,-0.02633826,0.1552627,0.0174561,-0.01541467,-0.01828379,0.0101389,0.009311117,-0.000950632
1.021968,-0.02638697,0.1574161,0.01109592,-0.01550225,-0.01613559,-0.01964763,0.008857613,-0.008213837
1.020923,-0.03077436,0.1635274,0.01005028,-0.01992318,-0.01002391,-0.06795364,-0.01029854,-0.009874562
1.019195,-0.03757527,0.1616651,0.008319505,-0.02675164,-0.01188019,-0.09122001,-0.01784346,-0.02842023
1.018312,-0.04481871,0.1602479,0.007430005,-0.03401577,-0.01328529,-0.07214741,-0.005152346,-0.05258553
1.020751,-0.0568721,0.1636571,0.009860104,-0.04608184,-0.009857949,-0.04623645,0.009953256,-0.06379338
1.018868,-0.05933575,0.1583738,0.00796442,-0.04854865,-0.01511691,-0.0006258638,0.01698928,-0.06468219
1.018046,-0.04610851,0.1553443,0.007125126,-0.03531347,-0.01811568,0.04516347,0.02110676,-0.05818853
1.01477,-0.02913099,0.1580021,0.003828996,-0.01831569,-0.01542047,0.05537199,0.02107351,-0.04258522
1.007722,-0.01051017,0.1599702,-0.003242223,0.0003380937,-0.01340806,0.06326343,0.00870412,-0.02432662
1.009258,-0.004804238,0.1639199,-0.001733953,0.006089231,-0.009407005,0.07497895,-0.00272278,-0.01866719
1.012018,-0.01256795,0.1655029,0.0009956981,-0.001618043,-0.007765751,0.07822491,-0.007961106,-0.01387232
1.014195,-0.009861063,0.1650844,0.003139923,0.001155439,-0.008119124,0.07514421,-0.003702196,-0.002034538
1.019944,-0.007873043,0.1644311,0.00885368,0.003219249,-0.008700863,0.05791962,0.008800528,-0.01063952
1.018901,-0.01186423,0.1629598,0.007772697,-0.0006879017,-0.01009437,0.04261002,0.004596527,-0.02750166
1.016457,-0.01009766,0.1610916,0.005288127,0.001170062,-0.01187853,0.03146388,0.005887073,-0.02866751
1.018406,-0.01396169,0.156995,0.007194814,-0.002596025,-0.01588519,0.0141463,0.01812311,-0.02481178
1.015337,-0.01764933,0.1523519,0.004079989,-0.006179836,-0.02043218,-0.009589638,0.01045242,-0.01406692
1.011453,-0.01801507,0.1485215,0.0001471122,-0.006436371,-0.0241602,-0.03368647,0.003822556,-0.002654488
1.012784,-0.02644961,0.147449,0.001427765,-0.01475666,-0.02512364,-0.03476109,-0.001028915,0.0106896
1.013984,-0.03306723,0.1477836,0.002575389,-0.02125508,-0.02467282,-0.02694221,-0.004635163,0.02793847
1.015306,-0.03496529,0.1467506,0.003842593,-0.02302879,-0.02558199,-0.02680585,0.004236678,0.02296337
1.015762,-0.03616623,0.1482123,0.0042418,-0.02409983,-0.02398847,-0.02555496,0.001388016,0.01805294
1.01321,-0.035941,0.1498589,0.001631094,-0.02373871,-0.02220176,-0.02780884,-0.0009008711,0.02657382
1.013753,-0.03563797,0.1513475,0.002114,-0.02329339,-0.0205645,-0.02404103,0.003078469,0.02375516
1.016402,-0.03277031,0.1562463,0.004701761,-0.02027669,-0.01550844,-0.01639441,-0.0007197531,0.02483229
1.01684,-0.03048705,0.1574912,0.005076903,-0.01783742,-0.01409786,-0.009892749,0.003480465,0.02546901
1.016641,-0.03005069,0.1554255,0.004813924,-0.01723802,-0.01598969,-6.703119e-05,0.01124365,0.01703681
1.015643,-0.02717293,0.1563512,0.003749626,-0.01419025,-0.0148822,0.0009028171,0.01607544,0.01649171
1.014944,-0.02453612,0.1576491,0.002984861,-0.01137663,-0.01339486,-0.004265519,0.0190523,0.01406075
1.015005,-0.02222486,0.1610528,0.002977253,-0.008882085,-0.009794447,-0.01116393,0.0191626,0.008198819
1.013523,-0.01549933,0.164993,0.001426561,-0.001967255,-0.005650831,-0.01223497,0.0230926,0.006433142
1.012272,-0.01061723,0.1605409,0.0001058817,0.003109464,-0.009893338,-0.0105422,0.01917269,0.01229009
1.01445,-0.01377073,0.155098,0.002213307,0.0001550132,-0.015121,-0.02308058,0.01075664,0.024154
1.018193,-0.01752046,0.1570861,0.005885546,-0.003392136,-0.01291246,-0.0290123,0.01195187,0.02453567
1.019342,-0.02019119,0.1571212,0.006963308,-0.005857473,-0.01265197,-0.02226159,0.01211417,0.02292312
1.017804,-0.02108525,0.1534902,0.005353645,-0.006543886,-0.01605305,-0.01902875,0.01292736,0.02398681
1.014353,-0.01793241,0.1521874,0.00183002,-0.003181584,-0.01712134,-0.01997377,0.02290151,0.01395135
1.011534,-0.01527116,0.1515968,-0.001062122,-0.0003095427,-0.01747331,-0.02214903,0.03788031,0.009936395
1.014072,-0.007603279,0.1526705,0.001402261,0.00756985,-0.01615662,-0.01963553,0.05401167,0.01851483
1.016309,-0.0004244019,0.159569,0.003565771,0.01496011,-0.009011174,-0.02162302,0.07117903,0.02212861
1.012385,-0.00693682,0.1726739,-0.0004316644,0.008657886,0.004344397,-0.02632877,0.07699818,0.009315603
1.008028,-0.01231818,0.18044,-0.004862707,0.003484514,0.01236403,-0.02353384,0.04180647,-0.01070873
1.006544,-0.005816003,0.1746369,-0.006419749,0.01019167,0.006815976,-0.01410365,-0.01031178,-0.01390974
1.009074,0.002639372,0.1685619,-0.003962283,0.01884822,0.0009965303,0.0006438397,-0.01780436,-0.005899523
1.014525,0.006082099,0.1662185,0.001417777,0.02248733,-0.001091949,-0.004778863,0.006791455,0.002820184
1.015546,-0.0001453157,0.1643441,0.002369154,0.01645033,-0.002712739,-0.03030555,0.01993966,0.01304746
1.011184,-0.01232795,0.1659813,-0.002061506,0.00445116,-0.0008235531,-0.0440508,0.01747404,0.008561255
1.006662,-0.01686487,0.1643496,-0.006649883,9.019916e-05,-0.002205615,-0.03438302,0.005111864,-0.008425913
1.006777,-0.01644331,0.1628044,-0.006600138,0.0006800833,-0.003503793,-0.008149896,-0.007581935,-0.02232499
1.0139,-0.01804554,0.1653725,0.0004606251,-0.000761413,-0.0006917287,0.007402276,-0.009335916,-0.03001344
1.026855,-0.01377609,0.1671819,0.013355,0.003661291,0.001358278,0.01405225,0.001292817,-0.02925182
1.037537,-0.009035273,0.1741186,0.02397803,0.008547862,0.008531693,0.02711016,0.03029653,-0.02872855
1.031363,-0.01340812,0.1781655,0.01774622,0.004313177,0.01281089,0.03929987,0.0554204,-0.03208861
1.014183,-0.02250421,0.1721762,0.0005092771,-0.004652431,0.00704856,0.05337494,0.02588118,-0.03468941
1.006135,-0.02945268,0.1696451,-0.007596571,-0.01147785,0.004738511,0.05889878,-0.01368943,-0.04062766
1.011147,-0.02378949,0.1727864,-0.002641951,-0.005698536,0.008094285,0.0580366,0.005792539,-0.04483643
1.018804,-0.01549108,0.1743288,0.004958563,0.00270961,0.009844242,0.05474145,0.0285439,-0.04897648
1.014364,-0.01861196,0.1716522,0.0004616633,-0.0003076321,0.007367644,0.04090114,0.03663746,-0.05667397
1.006422,-0.01494017,0.1697834,-0.007536439,0.003461844,0.005691081,0.04312135,0.05415381,-0.05284379
1.006025,-0.005955221,0.17268,-0.007987624,0.01253851,0.008771595,0.0463042,0.03223967,-0.04614113
1.004646,-0.00832937,0.1780342,-0.009420653,0.01024992,0.01430118,0.02949422,0.005974301,-0.04711338
1.009018,-0.004430895,0.1840653,-0.005100343,0.01422747,0.02049868,0.01705317,0.02308185,-0.04220191
1.013483,0.004953295,0.1832301,-0.0006852867,0.02368379,0.01982019,0.007198245,0.03155056,-0.03806797
1.011093,-0.00127285,0.1781726,-0.003122471,0.01752221,0.01490897,0.01343909,0.03075038,-0.04135691
1.011775,-0.009355484,0.177737,-0.00248565,0.009496021,0.01460881,0.02660372,0.03554358,-0.04655213
1.009153,-0.009480093,0.1776038,-0.005150255,0.00941942,0.0145997,0.01725486,0.03224389,-0.05091393
1.011053,-0.008674808,0.1786477,-0.003289119,0.01026422,0.01575623,0.01657445,0.0367929,-0.03972836
1.016523,-0.006949941,0.1796211,0.00214337,0.01202009,0.01683032,0.02036735,0.04591458,-0.01793329
1.013632,-0.01222813,0.1768073,-0.0007819191,0.006764391,0.01410513,0.01436313,0.05030797,-0.01224408
1.011274,-0.01984933,0.1765608,-0.003171603,-0.0008426928,0.01393502,0.01815251,0.05124966,-0.02556948
1.007425,-0.0183152,0.1790426,-0.007050025,0.0006975468,0.016481,0.01305998,0.04007848,-0.04236189
1.009071,-0.01654104,0.1808415,-0.005431016,0.002470321,0.01833164,-0.003367144,0.03269106,-0.04899175
1.014584,-0.01509121,0.1784263,5.821298e-05,0.003911729,0.01595569,-0.01654309,0.038136,-0.04566434
1.011611,-0.01027226,0.1745871,-0.002935137,0.008715578,0.0121432,-0.02160188,0.04011608,-0.04191963
1.012381,-0.007578709,0.1769938,-0.002183204,0.01138754,0.01456414,-0.01100518,0.03837441,-0.03522925
1.013251,-0.005885771,0.179272,-0.001328741,0.01305243,0.01684424,-0.008798321,0.03664256,-0.02641865
1.011216,-0.008027346,0.1806002,-0.003375659,0.0108763,0.01816217,-0.01908218,0.03489843,-0.0278012
1.01108,-0.01301116,0.1830697,-0.003521188,0.005851416,0.02060909,-0.02208709,0.03132336,-0.03039724
1.006897,-0.0105427,0.1807868,-0.007711003,0.008272415,0.01829142,-0.02089975,0.02216257,-0.02331216
1.005184,-0.00783139,0.1797814,-0.009429076,0.01093004,0.01723905,-0.01759485,0.007371001,-0.01918906
1.006416,-0.009874853,0.1811516,-0.008197861,0.008826819,0.01854998,-0.01827916,-0.01397205,-0.01227115
1.008216,-0.007673552,0.1800954,-0.006395597,0.01096238,0.01742262,-0.01850657,-0.02411337,0.003722198
1.012628,-0.005784871,0.1793289,-0.001978318,0.01277941,0.01657293,-0.01289427,-0.009167068,0.006807696
1.013603,-0.006018515,0.1772426,-0.0009945784,0.01246824,0.01439186,-0.009421891,0.006721581,-0.003373735
1.013804,-0.004542661,0.1750028,-0.000780623,0.01386069,0.0120459,-0.0008029483,0.00645841,-0.0103541
1.015915,-0.005099958,0.1735303,0.001344524,0.01321408,0.0104563,0.008990688,0.005323076,-0.01093552
1.014877,-0.00412527,0.1698133,0.0003242506,0.01409352,0.006611848,0.02233415,0.01414358,-0.009341813
1.011196,-0.003389307,0.1683621,-0.003336562,0.01472828,0.005023434,0.03599782,0.02435074,-0.009699638
1.008842,-0.005056849,0.1713631,-0.005667365,0.01295358,0.007878257,0.01969997,0.02665054,-0.007815502
1.009438,-0.005848536,0.1767385,-0.005047035,0.01204878,0.01309921,-0.007929499,0.01530858,-0.007362251
1.010257,-0.01548199,0.1821553,-0.004200952,0.002296409,0.01835367,-0.03177674,-0.006512703,-0.01204907
1.009535,-0.02855121,0.180113,-0.004893629,-0.01089706,0.01614154,-0.05914012,-0.02582118,-0.01510799
1.00953,-0.02960075,0.1735928,-0.004866614,-0.0120753,0.009444017,-0.05801205,-0.03098728,-0.01616492
1.01039,-0.02624893,0.1723728,-0.003972612,-0.008855463,0.008039752,-0.04364727,-0.02094149,-0.01203013
1.01133,-0.02514094,0.1703723,-0.002996603,-0.007881624,0.005848405,-0.04116244,-0.01429145,-0.002246834
1.012997,-0.01875539,0.1669529,-0.001291343,-0.00163144,0.002232419,-0.02032465,-0.01568575,0.005060969
1.012568,-0.007021876,0.1698209,-0.001679803,0.009966119,0.004898653,-0.002656268,-0.01406696,0.004284357
1.009528,-0.0004118027,0.1719704,-0.004677856,0.01643985,0.006841916,-0.01034131,-0.01341408,0.002179654
1.00719,0.001043114,0.1719851,-0.006972535,0.01775782,0.006646587,-0.01123101,-0.01137104,0.01091996
1.00606,0.004158963,0.1788357,-0.008056188,0.02073568,0.01328389,-0.01078501,-0.009580373,0.02007186
1.007161,0.005255632,0.1896917,-0.006907179,0.02169278,0.02392344,-0.01833152,-0.018475,0.02160503
1.008188,0.003463166,0.192427,-0.005831133,0.0197586,0.02643907,-0.02535628,-0.0352374,0.01776786
1.009422,0.004096383,0.1871204,-0.004544882,0.02024743,0.02090929,-0.04177453,-0.05116486,0.008428141
1.012404,0.00469837,0.1848943,-0.001508882,0.0207019,0.01845603,-0.05368929,-0.05517709,0.006522309
1.010241,0.003482677,0.1811978,-0.00361623,0.01933515,0.01452839,-0.04789021,-0.04988712,0.01012814
1.008418,0.003439919,0.1728218,-0.005381698,0.01913744,0.005917378,-0.04329366,-0.04186137,0.0199394
1.011084,0.002709758,0.1699497,-0.002656044,0.01824813,0.002806774,-0.04164221,-0.03198867,0.03560353
1.01153,0.002269886,0.1684126,-0.002148684,0.0176447,0.001028233,-0.03503677,-0.02772652,0.02986761
1.014554,0.002098488,0.1622858,0.000936992,0.01730517,-0.005342076,-0.03159335,-0.01540628,0.0230938
1.016292,-0.003909601,0.1599514,0.002738912,0.01112431,-0.007921096,-0.03526579,0.005646306,0.03719837
1.012676,-0.01041841,0.1651528,-0.0008124756,0.004438192,-0.002964544,-0.04440529,0.003329698,0.04406568
1.012108,-0.01379379,0.168037,-0.001315756,0.000881371,-0.0003242982,-0.05771846,-0.01012129,0.04428058
1.01291,-0.02398094,0.1644447,-0.0004480083,-0.00949067,-0.00415899,-0.07570357,-0.01351176,0.04113869
1.014466,-0.03749796,0.1629757,0.00117367,-0.02319498,-0.005868105,-0.09482011,-0.02123093,0.02609504
1.017236,-0.03853168,0.1638256,0.004009715,-0.02441692,-0.005255443,-0.09656948,-0.02574753,0.007541236
1.018642,-0.03351167,0.1622092,0.0054807,-0.01958439,-0.007105278,-0.08161381,-0.02159162,-0.01115432
1.019239,-0.03478856,0.1607863,0.006142637,-0.02104639,-0.008757327,-0.05834513,-0.01152134,-0.01827864
1.015447,-0.03229426,0.1630348,0.00241434,-0.01873345,-0.00673279,-0.01716963,0.006063842,-0.01416428
1.009774,-0.02588138,0.1671104,-0.003196614,-0.01249698,-0.002875536,0.01475013,0.006874146,-0.0150526
1.008927,-0.01671591,0.1692538,-0.003982616,-0.003502067,-0.0009442681,0.01859122,0.003830235,-0.01313032
1.01102,-0.000934329,0.1715061,-0.001829818,0.01211519,0.001102247,0.02516336,0.01366074,-0.003822862
1.011758,0.003057002,0.1730995,-0.001033119,0.01594824,0.002496311,0.02951926,0.008881053,0.00496443
1.011711,0.0003598783,0.1721263,-0.001023852,0.01309827,0.001330285,0.0173617,0.0009560539,0.006638451
1.012831,0.00143639,0.1729586,0.0001517266,0.01402667,0.001976145,0.006069966,-0.003549578,-0.001465713
1.012352,-0.006621407,0.1746965,-0.0002723675,0.005824874,0.003534048,-0.003480295,-0.01176755,-0.007900721
1.010336,-0.01013224,0.1761919,-0.002235953,0.002173781,0.004855736,-0.01079225,-0.01339909,-0.009199465
1.009619,-0.006991952,0.1779344,-0.002900427,0.005177382,0.006430537,-0.008902693,-0.02461052,-0.01441307
1.010341,-0.01012398,0.1746447,-0.00212818,0.001912155,0.002978983,-0.00368093,-0.03110681,-0.02005737
1.011703,-0.009338024,0.167681,-0.000716956,0.002568355,-0.004140807,0.006152889,-0.01509069,-0.01015966
1.011351,-0.006624406,0.1652404,-0.001020937,0.005155601,-0.006731915,0.02091918,-0.001871146,0.0127935
1.011576,-0.005358882,0.1669323,-0.0007491333,0.00629804,-0.005184616,0.02807251,0.0003532494,0.02428857
1.013179,-0.005127127,0.1670444,0.0009003345,0.006409813,-0.005210846,0.02631284,-0.0080015,0.02414334
1.012445,-0.00928405,0.1653997,0.0002101044,0.002135824,-0.006987539,0.02385279,-0.01410685,0.02891198
1.013263,-0.01017869,0.1623077,0.001071825,0.001126927,-0.01020488,0.0162225,-0.009910532,0.03805859
1.01821,-0.01122463,0.1593616,0.006061113,-3.045617e-05,-0.01326937,-0.001011487,-0.009643204,0.05025371
1.021549,-0.01976341,0.163485,0.00944077,-0.008677735,-0.009257004,-0.02279648,-0.01144666,0.0612262
1.017035,-0.03314581,0.1691724,0.004965254,-0.02216531,-0.003673114,-0.03330767,-0.02331741,0.0527156
1.008572,-0.03957555,0.1666941,-0.003461741,-0.02869609,-0.006247089,-0.01937499,-0.05034102,0.02672253
1.007193,-0.03044019,0.1660542,-0.004806953,-0.01965646,-0.006974979,-0.005191836,-0.06399433,0.00641291
1.009887,-0.02188773,0.1717816,-0.002080207,-0.01119341,-0.001327878,-0.004346336,-0.05036377,-0.005878883
1.009877,-0.01719272,0.1754571,-0.002060009,-0.006580866,0.002274909,-0.002012992,-0.04079391,-0.01251142
1.009394,-0.008841017,0.1803807,-0.002514202,0.001695478,0.007132902,-0.002430767,-0.05575554,-0.01658026
1.007835,-3.991682e-05,0.1880249,-0.004045463,0.01042813,0.01471811,-0.00308949,-0.06423482,-0.02711627
1.006568,0.01196499,0.1907496,-0.005286445,0.02237084,0.01738945,-0.008356619,-0.05927456,-0.03157162
1.008682,0.01385016,0.1839901,-0.003146791,0.02419898,0.01058141,-0.03311477,-0.05687355,-0.03052171
1.013252,0.005210631,0.1747283,0.001448067,0.01550631,0.001274765,-0.06682942,-0.04445629,-0.03626361
1.016365,0.00490323,0.1754534,0.004583933,0.0151485,0.001958445,-0.1064741,-0.0302952,-0.05459852
1.013703,0.003452351,0.1778493,0.001945056,0.01364905,0.004315938,-0.1607887,-0.03276048,-0.09330959
1.010774,0.002667794,0.173812,-0.0009619488,0.01281701,0.000243069,-0.2301145,-0.04111856,-0.1358558
1.011051,0.01154174,0.1685633,-0.0006637457,0.02164387,-0.005038651,-0.3015165,-0.04133703,-0.1706156
1.009561,0.01738658,0.1618098,-0.002133849,0.0274412,-0.01182248,-0.3872588,-0.0311153,-0.1824275
1.008998,0.01489952,0.1622992,-0.002678105,0.02490516,-0.01136037,-0.4958698,-0.01607369,-0.153271
1.011114,0.001685754,0.166854,-0.0005442539,0.01163995,-0.006829582,-0.5621925,-0.009093628,-0.1282225
1.013142,-0.01029625,0.1653598,0.001501131,-0.0003965113,-0.00834415,-0.5914809,-0.01308353,-0.1404019
1.01659,-0.006268111,0.1684717,0.004966097,0.003574124,-0.005248857,-0.644132,-0.004618453,-0.1428698
1.018849,-0.00308921,0.1700465,0.007240391,0.006692667,-0.003686661,-0.6841512,0.02039736,-0.1012176
1.019118,-0.006963701,0.1679438,0.007524824,0.002755126,-0.005798042,-0.6878149,0.03015622,-0.04617675
1.020203,-0.007558413,0.1722901,0.008622153,0.00209482,-0.001456505,-0.6740882,0.006318956,-0.01839521
1.018662,-0.01379072,0.1695813,0.007093033,-0.004205375,-0.004166135,-0.663093,-0.02300651,-0.02675703
1.016304,-0.02484876,0.1604137,0.004744452,-0.01533311,-0.01333087,-0.6606077,-0.0195094,-0.01976512
1.015228,-0.02365075,0.1542952,0.003674696,-0.01420583,-0.01944256,-0.6459853,-0.01262947,0.03375331
1.014039,-0.01970283,0.1490577,0.00249008,-0.01032876,-0.02466877,-0.636051,-0.01993583,0.06995731
1.014184,-0.02266827,0.147155,0.002637502,-0.01336427,-0.02655489,-0.630211,-0.006705454,0.08168013
1.012037,-0.02063537,0.1461676,0.00049069,-0.01139993,-0.02751957,-0.6244107,0.003811474,0.09365388
1.011569,-0.01939193,0.1469614,2.038621e-05,-0.01022284,-0.02669608,-0.6321184,-0.000246735,0.09139483
1.0134,-0.02037011,0.14405,0.001846787,-0.01126456,-0.02956999,-0.6395737,0.001273499,0.1164726
1.010014,-0.01761442,0.131742,-0.001546548,-0.008569094,-0.04183182,-0.6659486,-0.005387564,0.1714582
1.00976,-0.02464181,0.1203152,-0.001808624,-0.0156529,-0.05320269,-0.6833366,-0.007780423,0.2193781
1.013981,-0.04002634,0.1126471,0.002402118,-0.03108945,-0.06080346,-0.664275,-0.004130299,0.2529192
1.016652,-0.05546496,0.1140766,0.00506244,-0.04657457,-0.05929336,-0.6497986,-0.008540879,0.2609649
1.016837,-0.07424137,0.1166449,0.005233965,-0.06539023,-0.05662943,-0.6136513,-0.009579344,0.2654526
1.013744,-0.09087034,0.1109468,0.002126736,-0.08204872,-0.06221507,-0.5528146,-0.01396528,0.277394
1.013489,-0.09660388,0.1123894,0.001855683,-0.08779895,-0.06064183,-0.5138776,-0.01484522,0.2850029
1.012415,-0.09891556,0.1130568,0.000763308,-0.09011109,-0.05982398,-0.5042294,0.0007069261,0.2767191
1.00989,-0.1069511,0.1097027,-0.001781239,-0.09812739,-0.06300659,-0.499784,0.01413527,0.2557407
1.013235,-0.1064963,0.1142694,0.00154362,-0.09763038,-0.0582462,-0.4626081,0.01201173,0.2545008
1.019181,-0.1060485,0.1165918,0.007467466,-0.09711414,-0.05570698,-0.4227734,0.01296156,0.249344
1.026069,-0.1214343,0.1141452,0.01433286,-0.1124023,-0.05791289,-0.3991576,0.04046436,0.2181629
1.026495,-0.1268528,0.1155547,0.01473379,-0.1176907,-0.05623829,-0.3512502,0.06102381,0.1749666
1.02174,-0.1223842,0.1298701,0.009951365,-0.1130567,-0.04163317,-0.2863665,0.04637568,0.1192705
1.018782,-0.1173534,0.1447869,0.006963419,-0.1078222,-0.02640191,-0.2343234,0.0204056,0.08704056
1.012618,-0.1065275,0.1396644,0.0007672748,-0.09675188,-0.03118628,-0.1990505,0.001255191,0.08762742
1.016059,-0.1069274,0.1298214,0.00417351,-0.0968651,-0.04066822,-0.1482075,0.009640529,0.08690664
1.025704,-0.1102074,0.1275898,0.01378035,-0.09981489,-0.04251679,-0.08986264,0.03227562,0.07302218
1.025319,-0.1062513,0.131492,0.01335571,-0.09548409,-0.03821019,-0.06246766,0.03807393,0.04215543
1.027635,-0.1037071,0.1383096,0.01562812,-0.09251996,-0.03096732,-0.02785492,0.04380881,0.004200201
1.026488,-0.09608058,0.1387528,0.01443348,-0.08442786,-0.03007904,0.02503558,0.04303855,-0.03282951
1.016319,-0.0879734,0.1425912,0.004214058,-0.07580948,-0.02577673,0.06998049,0.02086518,-0.05684522
1.014346,-0.08328069,0.1479841,0.002185898,-0.07056053,-0.01990226,0.1138274,0.003381682,-0.06092171
1.017634,-0.08294814,0.1354052,0.005415523,-0.06962769,-0.03198328,0.1516014,0.004747592,-0.06637744
1.021488,-0.09075498,0.1211251,0.009208008,-0.07679131,-0.04575025,0.1920632,0.01368699,-0.07316972
1.023495,-0.09598582,0.125816,0.01114933,-0.08133707,-0.04053171,0.2418091,0.0121895,-0.08620115
1.020799,-0.09844386,0.1351534,0.008384916,-0.08306904,-0.03065246,0.2989755,0.001691964,-0.1181217
1.018782,-0.1015172,0.1385851,0.006295631,-0.08537607,-0.02666541,0.3774457,-0.01045259,-0.146869
1.016184,-0.0977949,0.1382216,0.003621313,-0.0808479,-0.02646101,0.4484224,-0.02018215,-0.1567375
1.017584,-0.0921181,0.1349013,0.004942651,-0.07432656,-0.02920189,0.4955708,-0.00883939,-0.1519899
1.021099,-0.09441707,0.1360436,0.008375018,-0.07574336,-0.02746972,0.5486249,0.01169143,-0.1519157
1.016788,-0.09833331,0.1403023,0.00397958,-0.07874103,-0.0226116,0.5855363,0.02516806,-0.1633934
1.011039,-0.09929712,0.145124,-0.001858145,-0.07875106,-0.01718195,0.6064158,0.03117855,-0.1712094
1.007307,-0.09929822,0.1523923,-0.005679791,-0.07776428,-0.009298597,0.6668191,0.02004197,-0.1805808
1.008065,-0.08328755,0.1512391,-0.005014444,-0.06073289,-0.009830959,0.7338055,0.01848529,-0.1936242
1.011579,-0.05561761,0.1483105,-0.001592857,-0.03201117,-0.01213462,0.7668701,0.03676804,-0.2043032
1.009188,-0.04520636,0.1539349,-0.004077973,-0.02051979,-0.005882552,0.7875882,0.04497569,-0.2027678
1.009218,-0.04649647,0.1545963,-0.004141956,-0.0207049,-0.004592381,0.7931022,0.03431531,-0.1831665
1.01174,-0.04065715,0.150102,-0.001714521,-0.01373945,-0.00845817,0.7952975,0.02294132,-0.1686145
1.010546,-0.03085923,0.1460257,-0.003001647,-0.00279805,-0.01190747,0.8038255,0.04203835,-0.1549161
1.011427,-0.02925169,0.1440375,-0.002212947,-3.364303e-05,-0.01327141,0.8138861,0.05891294,-0.1361624
1.009839,-0.04512884,0.1509513,-0.00389118,-0.01474441,-0.005737049,0.8284529,0.03684767,-0.1319932
1.003432,-0.06846067,0.1567421,-0.01038705,-0.03690371,0.0006697799,0.8321013,0.01565875,-0.138776
0.9987823,-0.07814455,0.1541025,-0.01512414,-0.04541127,-0.0013597,0.853475,0.00944951,-0.1563542
1.001435,-0.07507753,0.15319,-0.01255588,-0.04116568,-0.001668966,0.9111486,0.01838398,-0.179725
1.010198,-0.07427578,0.1552055,-0.003872776,-0.03918432,0.0009417086,0.9679823,0.04279447,-0.1965962
1.014337,-0.06150868,0.1564992,0.0001890405,-0.02523788,0.002821416,1.002925,0.05504684,-0.1949335
1.015731,-0.02253108,0.1599105,0.001510418,0.014917,0.006808616,1.001263,0.05549208,-0.1657698
1.017418,0.01204646,0.1634611,0.003128755,0.0506668,0.01092376,0.9689751,0.06427257,-0.1278274
1.020483,0.03133741,0.1627274,0.006128509,0.07112061,0.01074231,0.9120885,0.09542023,-0.07994197
1.028399,0.05208593,0.1643135,0.01398257,0.09301701,0.01286703,0.8273131,0.1370516,-0.0302711
1.024341,0.0578057,0.1743443,0.009865213,0.09986347,0.02342167,0.7328249,0.1545708,-0.0008817996
1.005001,0.04211057,0.1894837,-0.00953228,0.08526759,0.03906884,0.6439636,0.1235581,0.01752278
0.9848636,0.0281663,0.1989157,-0.02972388,0.07238942,0.04899057,0.5856259,0.0610884,0.02219464
0.9742922,0.02134866,0.1944381,-0.04034672,0.06660011,0.04498262,0.5495333,0.0276501,0.0262329
0.9792598,0.01454817,0.1904482,-0.03542563,0.06078649,0.04144009,0.5139902,0.02194445,0.03245432
0.9840178,-0.0002924008,0.191143,-0.03070775,0.04688838,0.042558,0.5029158,0.01022383,0.01330002
0.9918637,-0.01962652,0.1859234,-0.02289422,0.02845026,0.03773587,0.4957868,0.009005971,-0.01760958
1.011507,-0.0208552,0.1856693,-0.003274444,0.02807003,0.03785218,0.4662907,0.01273923,-0.03447304
1.023285,-0.005752635,0.1850683,0.008487821,0.04397291,0.03759351,0.4400004,0.01593343,-0.0222163
1.030757,0.004994385,0.1750074,0.015953,0.05547151,0.02784611,0.420041,0.0307384,0.01218365
1.034918,0.01059003,0.1737123,0.02011409,0.06176897,0.02683524,0.4076727,0.04297766,0.04731129
1.028076,0.01337768,0.1798596,0.01327804,0.06520737,0.03323736,0.3911862,0.04700536,0.06678927
1.023489,0.01473937,0.187664,0.008700528,0.06716745,0.04126686,0.3409953,0.05583815,0.05654128
1.022232,0.02443763,0.1983713,0.00745673,0.07741041,0.05216936,0.2916628,0.06293618,0.04407667
1.015776,0.04779632,0.2036878,0.001016613,0.1012587,0.05765013,0.2690477,0.04013007,0.03300297
0.9972696,0.06981194,0.2083527,-0.0174718,0.1237067,0.06244765,0.2417159,0.00846929,0.0120662
0.9813701,0.07239191,0.2074317,-0.0333505,0.1266592,0.06162624,0.2018681,0.008094556,0.01467607
0.9889048,0.06810081,0.1991299,-0.02579145,0.1226779,0.05339015,0.1509844,0.02454078,0.01878494
0.9980014,0.06360327,0.2013859,-0.01666587,0.1184245,0.05567733,0.09796871,0.03940023,0.009482484
0.9955683,0.05134664,0.2012393,-0.01906483,0.1063445,0.05552682,0.06188417,0.03898016,0.008828362
0.9984109,0.04132903,0.1937521,-0.0161822,0.09643462,0.04800036,0.01304405,0.01609394,-0.003036848
1.004113,0.02886381,0.1953171,-0.0104342,0.08400766,0.04949083,-0.06631909,-0.01515672,-0.01054363
1.008362,0.01064921,0.1947943,-0.006132943,0.06576221,0.04885838,-0.1280962,-0.04416917,-0.006412939
1.015408,0.004848504,0.191385,0.0009720568,0.05986273,0.04530464,-0.1391366,-0.06189522,-0.01049469
1.015293,0.009811138,0.1863236,0.0009205481,0.06466049,0.04006462,-0.1205564,-0.06544005,-0.005136092
1.01055,0.01396999,0.1744167,-0.003753332,0.06859035,0.02794566,-0.1011668,-0.04540004,0.004272416
1.010732,0.01736892,0.1759945,-0.003497366,0.07169799,0.02927912,-0.07578068,-0.009934827,0.01307854
1.005825,0.02131477,0.1880071,-0.00832682,0.075292,0.04101668,-0.04493794,0.003060986,0.02013699
1.002509,0.02468227,0.1953612,-0.01156077,0.07824866,0.04806591,-0.03296805,-0.001452593,0.01073177
1.00802,0.028643,0.1998061,-0.005963779,0.08174098,0.05217709,-0.03316009,0.002583501,0.0032691
1.010034,0.03271541,0.1969866,-0.003860367,0.08528876,0.04899546,-0.05292556,0.009918672,0.004902792
1.009701,0.03019364,0.1957784,-0.004100091,0.08218739,0.04739702,-0.1028091,0.008264825,0.01606469
1.00882,0.01877703,0.1954733,-0.004884219,0.07013756,0.04667446,-0.134563,-0.007484074,0.03415392
1.008115,0.006130279,0.1878262,-0.005489605,0.05680574,0.03858311,-0.1427002,-0.03102592,0.02962413
1.011188,0.004466324,0.1848545,-0.002314006,0.05440716,0.03514159,-0.1585099,-0.03931889,0.01249085
1.015067,0.009805515,0.1831993,0.001669875,0.05896479,0.03299212,-0.1752242,-0.02723537,0.007249169
1.016907,0.008082069,0.1822262,0.003616512,0.05641549,0.03150166,-0.1832084,-0.01844098,0.01081759
1.010564,0.004713254,0.1851044,-0.002617433,0.05217907,0.0338408,-0.1803765,-0.009248536,0.0182311
1.001361,0.001566166,0.1834178,-0.01171083,0.04812524,0.0315948,-0.1717365,0.001848325,0.01665627
1.001213,-0.004255457,0.1846214,-0.01174828,0.0413605,0.03222005,-0.1530543,-0.003699224,0.01297754
1.0072,-0.005116281,0.1830099,-0.005648866,0.03952307,0.03001246,-0.1251557,-0.008266928,0.01419825
1.011582,-0.006711065,0.1769541,-0.001153237,0.0369212,0.02334436,-0.09448817,-0.01289512,0.008406167
1.010033,-0.008591063,0.1799434,-0.002587735,0.03400663,0.02570639,-0.05903496,-0.0267006,0.01319102
1.008561,-0.005271067,0.1801006,-0.00394421,0.03626753,0.02522299,-0.04603088,-0.02665109,0.03178935
1.010524,-0.005319732,0.1807088,-0.001865878,0.03513811,0.02517862,-0.04994733,-0.02400359,0.043702
1.010204,-0.004420395,0.1854471,-0.002069646,0.03493774,0.02925365,-0.04181448,-0.02924533,0.04414587
1.011933,-0.002509052,0.1820309,-0.0002243366,0.03573298,0.02516486,-0.03509783,-0.02942619,0.03732837
1.015273,-0.003548842,0.1793494,0.00323201,0.03356313,0.0218025,-0.0370396,-0.02979371,0.03755914
1.013159,2.803527e-05,0.1762163,0.001234273,0.0359983,0.01798156,-0.04465928,-0.031743,0.0393051
1.009694,0.002003594,0.1703451,-0.002116694,0.03682266,0.01141692,-0.04798438,-0.03127845,0.04772542
1.008331,0.00121194,0.1685835,-0.003365565,0.03487231,0.008957715,-0.04523731,-0.02982985,0.0649311
1.010926,-0.00127402,0.1720132,-0.0006584528,0.03122205,0.01168744,-0.04044038,-0.0275455,0.04953515
1.016892,-0.008068559,0.1789127,0.005418754,0.02325953,0.01788596,-0.02635867,-0.02330999,0.02461316
1.018713,-0.006293081,0.1749146,0.007349267,0.02386539,0.01318725,-0.0181656,-0.01863836,0.02486371
1.018372,-0.002401459,0.1689306,0.007115193,0.02658778,0.006504159,-0.01605802,-0.01881433,0.02748212
1.018442,-0.001798125,0.1720281,0.007290389,0.02602415,0.008905306,-0.01451939,-0.02071503,0.03413292
1.01382,0.004789373,0.1704634,0.002769725,0.03144862,0.006648284,-0.01517913,-0.01975261,0.03879611
1.009212,0.003900675,0.1710498,-0.001740691,0.02940223,0.006547577,-0.00680514,-0.02110004,0.0356501
1.00967,-0.0007864559,0.1754172,-0.001187877,0.02356405,0.01023421,-0.005434387,-0.02599095,0.03158537
1.011795,0.0006288243,0.1752422,0.001028711,0.0238362,0.009385888,-0.01184794,-0.02805049,0.02173636
1.013595,-0.003015171,0.1711076,0.002915744,0.01905832,0.004586116,-0.0128483,-0.02210277,0.02144216
1.015594,-0.00396854,0.163971,0.004999438,0.01698166,-0.003206486,-0.01443923,-0.01361535,0.02138325
1.018969,-0.001419819,0.165465,0.008454663,0.01841901,-0.002358431,-0.01176426,-0.01363799,0.01262567
1.019818,-0.004481136,0.1671782,0.009379953,0.01425952,-0.001279817,-0.008640121,-0.01362535,0.01486473
1.01542,-0.007173676,0.1616151,0.00505366,0.01048325,-0.007465133,-0.007034989,-0.00646676,0.01404884
1.012608,-0.01059793,0.164197,0.002309563,0.005990982,-0.005492146,-0.001511866,-0.004021511,0.006064731
1.013717,-0.01005843,0.1654679,0.003481084,0.005479526,-0.004815671,0.00555395,-0.00361327,0.003925163
1.013143,-0.002938598,0.1617896,0.002965622,0.01156674,-0.009073274,0.01069664,-0.005727688,0.002824022
1.010108,0.001412327,0.1630777,-1.622329e-05,0.01490441,-0.008348385,0.009677546,-0.01297638,0.006124094
1.009218,0.003368224,0.1643245,-0.0008571413,0.01586713,-0.007647805,0.009913876,-0.01036594,0.01070241
1.011037,-0.0004806847,0.1672109,0.001006531,0.01104564,-0.005290178,0.01019016,-0.005991678,0.01032775
1.012354,-0.005096282,0.1697884,0.002363999,0.005478586,-0.003223376,0.007285956,-0.007225511,0.01218849
1.012714,-0.001240689,0.1683497,0.00276139,0.00840443,-0.005154329,0.007529874,-0.00606086,0.01558525
1.012522,0.002205538,0.1643593,0.002601567,0.01094318,-0.009618364,0.006208177,-0.009261884,0.01633012
1.012167,0.003783704,0.1594478,0.002275078,0.01163652,-0.01498458,0.006201938,-0.01101915,0.01579784
1.011744,0.000716106,0.1627836,0.001877012,0.007706978,-0.01208389,0.007482536,-0.007581311,0.01451611
1.010797,-0.006353197,0.1678453,0.0009516596,-0.0002011226,-0.007437545,0.007128439,-0.00788905,0.01138281
1.011129,-0.004346738,0.1675903,0.001300524,0.0009900706,-0.008087735,0.008927614,-0.007636441,0.008676696
1.011958,-0.001869425,0.1714145,0.002144092,0.00267609,-0.004638674,0.006582599,-0.007746999,0.01297967
1.011145,-0.003701976,0.1779307,0.001342176,7.657494e-05,0.001522395,0.004991344,-0.01111473,0.01857539
1.011258,-0.002404747,0.1803385,0.001462673,0.0006314379,0.003594557,0.007296761,-0.01214725,0.01673705
1.013637,-0.003625849,0.1724097,0.003846662,-0.001307209,-0.004650748,0.006837727,-0.006007771,0.0156289
1.014569,-0.005110653,0.1625059,0.004779411,-0.003484539,-0.01485243,0.007675498,0.003023068,0.0147654
1.012617,-0.004567468,0.1656019,0.00282663,-0.00360867,-0.01203581,0.009396911,0.002027606,0.008816858
1.011834,-0.005487011,0.165461,0.002039453,-0.005170144,-0.01243746,0.0121034,-0.005543488,0.00822993
1.011967,-0.003016039,0.1586787,0.002164749,-0.003315589,-0.01946195,0.01361049,-0.01004742,0.01369116
1.010696,-0.0003631684,0.1642869,0.0008837275,-0.001253591,-0.01407724,0.009185359,-0.01210491,0.0165498
1.0106,-0.002297329,0.170604,0.0007753094,-0.003753172,-0.007964792,0.006817159,-0.01395191,0.0144392
1.009701,-0.00351293,0.1698684,-0.0001381186,-0.005508886,-0.008886489,0.00730533,-0.02337319,0.009381919
1.007664,-0.001857619,0.171128,-0.002191909,-0.004368525,-0.007794774,0.004272385,-0.03563385,0.008007538
1.009475,0.00102047,0.1684209,-0.0004000499,-0.001980413,-0.01065202,-0.007201191,-0.03666241,0.01139614
1.012627,0.003550815,0.1633244,0.002730933,8.461574e-05,-0.01588116,-0.02409584,-0.02736785,0.0148807
1.01457,0.003187569,0.1613654,0.004652015,-0.0007197346,-0.01795563,-0.02825562,-0.01206181,0.01443948
1.015196,0.0004014941,0.1593629,0.005253758,-0.003923201,-0.02005658,-0.02322396,-0.0009056884,0.01225397
1.011736,-0.00278988,0.1583655,0.001768557,-0.007508695,-0.02113524,-0.02649046,-0.000383147,0.01261695
1.008275,-0.007662033,0.1592373,-0.001720302,-0.012752,-0.02032757,-0.02941049,0.002542724,0.008999636
1.009585,-0.00977684,0.1629352,-0.0004390224,-0.01521513,-0.0166767,-0.02731497,0.008032386,0.001287904
1.010497,-0.006463305,0.1649579,0.0004438259,-0.01222712,-0.01468407,-0.02892602,0.005661333,-0.003914062
1.009534,-0.005614192,0.1617611,-0.0005502036,-0.0116808,-0.01789428,-0.0308799,0.00226933,-0.007121162
1.011893,-0.005846348,0.1586316,0.001777164,-0.01219322,-0.02102087,-0.03149369,0.001767806,-0.006377027
1.015167,-0.004807115,0.1558337,0.005018551,-0.01141196,-0.02379966,-0.03191576,0.001555828,0.000537633
1.015642,-0.005302318,0.1555041,0.005460029,-0.01214316,-0.02409411,-0.03122687,0.006564842,0.009470539
1.015119,-0.005213342,0.1573769,0.004902576,-0.01226853,-0.0221702,-0.03341996,0.01131074,0.009632562
1.014196,-0.008159429,0.1606946,0.003944451,-0.01540765,-0.01878547,-0.03530542,0.008751536,0.005300134
1.013167,-0.01127584,0.1684256,0.00287898,-0.01869608,-0.01097184,-0.03459428,0.006837137,0.007368291
1.011911,-0.009350311,0.1691458,0.00158547,-0.01692175,-0.01015401,-0.03573471,0.007218344,0.005312336
1.012311,-0.009347827,0.1629478,0.001946266,-0.01704985,-0.01624014,-0.03679294,0.006593475,0.003049866
1.015217,-0.01023544,0.1619158,0.004813411,-0.01804767,-0.01714668,-0.03707989,0.007343011,0.006410547
1.014584,-0.009046533,0.1625961,0.004139734,-0.01694888,-0.01632779,-0.03900183,0.01077912,0.005309975
1.012491,-0.007648668,0.1635318,0.002005762,-0.01562136,-0.01524084,-0.04361168,0.0158679,0.004813991
1.013551,-0.004699249,0.1643432,0.003023375,-0.01272293,-0.01426613,-0.04873966,0.02147665,0.001912205
1.012519,-0.003280036,0.1635741,0.001947711,-0.01133589,-0.01486034,-0.04910675,0.02789654,-0.002824799
1.011697,-0.004460912,0.1640595,0.001081917,-0.01253075,-0.01418914,-0.04529658,0.02980312,-0.0007243128
1.01328,-0.004699918,0.1629837,0.002620121,-0.01276621,-0.01506859,-0.04179144,0.02764561,-0.001545962
1.011886,-0.005658791,0.1591013,0.001181416,-0.01370464,-0.01874484,-0.04016743,0.03149714,-0.003603079
1.010422,-0.007661025,0.1549299,-0.0003286312,-0.01567011,-0.02270042,-0.03721677,0.03787249,-0.0003255119
1.010804,-0.007350702,0.1555738,7.157238e-06,-0.01530725,-0.0218315,-0.03395434,0.04138818,0.006938402
1.014387,-0.007286685,0.1623574,0.003543456,-0.01517542,-0.01481379,-0.03596077,0.0397414,0.01554355
1.01958,-0.008604381,0.1675348,0.008688948,-0.01641054,-0.00939363,-0.03949306,0.03091246,0.01863082
1.014883,-0.006652391,0.1704597,0.003944831,-0.01436168,-0.006217837,-0.03971719,0.02430319,0.02042412
1.008836,-0.004737418,0.1734882,-0.002150043,-0.0123361,-0.002931346,-0.03273956,0.01514957,0.02088645
1.012696,-0.006802056,0.1755395,0.001661304,-0.01427696,-0.0006157471,-0.02140816,-0.006487456,0.01399822
1.017015,-0.008217337,0.1757083,0.005931984,-0.01555589,-0.0001775875,-0.02069226,-0.02202244,0.007526138
1.020262,-0.007501547,0.1745736,0.009130531,-0.0146917,-0.001038856,-0.02376837,-0.01804969,0.00503938
1.020679,-0.006718562,0.176574,0.00949763,-0.0137488,0.001238025,-0.01837889,-0.01617682,0.004303228
1.016217,-0.006577299,0.1773731,0.004985157,-0.01343662,0.002315635,-0.01056128,-0.03450691,0.00444318
1.010632,-0.006119599,0.1768358,-0.0006504477,-0.01279759,0.002057959,0.006863325,-0.0757855,0.0003713274
1.001588,-0.004307283,0.1838854,-0.009746357,-0.01079409,0.009387265,0.03366118,-0.1493289,-0.008849761
1.003027,-0.004940834,0.1844311,-0.008359761,-0.01122725,0.01021157,0.04568549,-0.2011532,-0.02644575
1.019731,-0.01122514,0.1583013,0.00829182,-0.01730253,-0.01564154,0.03013052,-0.1575455,-0.05218404
1.027799,-0.01916571,0.1259061,0.01630756,-0.02502588,-0.04776227,0.007329125,-0.06669221,-0.06361417
1.020619,-0.02308946,0.1288336,0.009074856,-0.02872433,-0.04456179,0.007116537,0.006558674,-0.05975872
1.008639,-0.02297839,0.1551605,-0.002957614,-0.02837972,-0.01796182,0.01588207,0.02945477,-0.06480862
1.005447,-0.02047803,0.1650859,-0.006202709,-0.0256374,-0.007762671,0.01730404,-0.01827081,-0.06756206
1.013246,-0.01318167,0.1645482,0.001542719,-0.0180906,-0.008025703,0.02224951,-0.05874925,-0.05645569
1.017009,0.0004988443,0.1624428,0.005252047,-0.004151395,-0.009856055,0.02100967,-0.0665966,-0.04252795
1.015489,0.01224016,0.1516147,0.003677863,0.007856093,-0.0204088,0.01245518,-0.06753479,-0.02686304
1.01379,0.003717565,0.1375769,0.00192515,-0.0003940661,-0.03417094,0.004931962,-0.01837616,-0.02771844
1.011876,-0.0137458,0.1347494,-4.25046e-05,-0.01757995,-0.03672183,-0.003847273,0.03218271,-0.04072709
1.009769,-0.009120807,0.1474384,-0.002202697,-0.01267316,-0.02375453,-0.008892881,0.03401941,-0.03483206
1.011278,0.002183053,0.1521223,-0.0007476457,-0.001083684,-0.01878995,-0.01362278,0.02682269,-0.0228216
1.016981,0.007739202,0.1487185,0.004902436,0.004761185,-0.02191041,-0.01928449,0.01367584,-0.00182144
1.015546,0.01675209,0.1513243,0.00341578,0.0140648,-0.01901862,-0.02666196,-0.001432673,0.02997701
1.013966,0.01523873,0.1507878,0.001783684,0.0128428,-0.01926633,-0.03615259,-0.00613003,0.04432199
1.016484,0.01022387,0.1515521,0.004249093,0.008118482,-0.01821048,-0.04767151,0.006371873,0.04843121
1.013585,0.003897572,0.1503848,0.001299476,0.00208066,-0.01908349,-0.06253627,0.02318463,0.04016131
1.013614,-0.007469443,0.1483736,0.001276404,-0.009000805,-0.02079761,-0.06185086,0.03445262,0.02930897
1.014418,-0.002984936,0.1529915,0.002030019,-0.004234137,-0.01587995,-0.0604281,0.05245788,0.03450937
1.013031,-0.0001596068,0.1534473,0.0005928258,-0.001130309,-0.01512178,-0.07004362,0.05364033,0.03200297
1.013277,-0.004726609,0.1588247,0.0007888117,-0.005422775,-0.009439535,-0.06684734,0.05850255,0.03013603
1.010065,0.001601658,0.1666595,-0.002473387,0.001175746,-0.00129805,-0.06796956,0.07010221,0.03193657
1.010129,0.005053257,0.1677543,-0.002458436,0.004892949,0.0001048523,-0.07269915,0.04723737,0.0238869
1.015438,0.004874058,0.1689359,0.002802806,0.004974198,0.001594966,-0.07198532,0.02890655,0.02184281
1.018756,0.001835616,0.1664554,0.006073161,0.002190496,-0.0005775208,-0.08075757,0.03234876,0.02215411
1.015366,-0.003803598,0.1662652,0.002637283,-0.003200117,-0.0004609749,-0.08026986,0.04205618,0.02111698
1.00993,-0.002485534,0.1673716,-0.002845041,-0.001639828,0.0009501071,-0.07376791,0.05365594,0.02084649
1.01279,-0.006664078,0.1642578,-3.029599e-05,-0.005582609,-0.001861708,-0.07360565,0.05426243,0.02040224
1.01368,-0.01397316,0.159254,0.0008157884,-0.01266232,-0.006566807,-0.06946458,0.05145121,0.0223926
1.011119,-0.01125572,0.1521983,-0.001788717,-0.009721647,-0.01332733,-0.06499793,0.04664565,0.02139947
1.01328,-0.008163332,0.1579772,0.0003291759,-0.006411811,-0.007257096,-0.05749687,0.04567957,0.02332383
1.012505,-0.007768562,0.1703813,-0.0004875114,-0.005805123,0.005434583,-0.05173206,0.04586442,0.0271198
1.011598,-0.004847185,0.1718992,-0.00143447,-0.002677222,0.007235689,-0.05335258,0.03667149,0.03008399
1.011403,-0.00597896,0.1721823,-0.001668419,-0.003607812,0.007797133,-0.05235391,0.02786299,0.03371545
1.008673,-0.01028223,0.1767469,-0.004436528,-0.00771519,0.01263422,-0.04852401,0.02056646,0.02768754
1.009845,-0.009860037,0.1823407,-0.003301257,-0.007102266,0.01849381,-0.04405214,0.01805735,0.01660464
1.011197,-0.01043903,0.181874,-0.00198468,-0.007495484,0.01828516,-0.0422297,0.01994356,0.007834338
1.010475,-0.01111378,0.1775894,-0.002739317,-0.007989166,0.01424995,-0.04254889,0.02744607,0.007225277
1.009523,-0.007075805,0.1776412,-0.003723134,-0.00377463,0.0145415,-0.04455033,0.03469568,0.0119763
1.006697,-0.005218936,0.1753531,-0.006578525,-0.001745566,0.01248286,-0.04892095,0.02315027,0.01042571
1.006926,-0.008178096,0.1768026,-0.006377331,-0.004536868,0.01415084,-0.0430431,0.01343835,0.01313338
1.010173,-0.01293656,0.1801778,-0.003155118,-0.009131748,0.01773316,-0.03546849,0.01890012,0.0123363
1.011677,-0.01312822,0.1744637,-0.001672747,-0.009163911,0.01221407,-0.03956617,0.02284736,0.003583725
1.011579,-0.01050756,0.1724318,-0.001791213,-0.006387535,0.01036492,-0.04116296,0.02283871,0.0061516
1.011202,-0.01051175,0.171614,-0.002185125,-0.006239556,0.009717357,-0.03911908,0.02142832,0.006603976
1.011107,-0.00961339,0.1717772,-0.002294819,-0.0051924,0.01003801,-0.03654538,0.01842585,0.002726331
1.009516,-0.01130036,0.1784764,-0.003898367,-0.006733799,0.01688202,-0.02939775,0.01337772,0.004766295
1.00894,-0.01382999,0.1765152,-0.004484963,-0.009120908,0.01505269,-0.02744214,0.007589194,0.006980269
1.011025,-0.01300214,0.1750146,-0.002407085,-0.008153377,0.01367082,-0.02844974,0.001590914,0.01547161
1.012217,-0.01371533,0.1779694,-0.001219866,-0.008729457,0.01673116,-0.02554428,-0.0002851012,0.02019206
1.013798,-0.01244698,0.1755256,0.0003586564,-0.007326327,0.01437963,-0.02613543,0.005105698,0.01573809
1.012117,-0.009955772,0.1774886,-0.00132278,-0.004702485,0.01642139,-0.02694129,0.007978766,0.01374035
1.007842,-0.01063487,0.1794575,-0.00559586,-0.005250965,0.0184557,-0.02500282,0.0002128698,0.007404753
1.009808,-0.01139228,0.1814792,-0.003625511,-0.005879714,0.02052914,-0.02472876,-0.008778127,-0.001535076
1.011228,-0.0117951,0.1861571,-0.00219882,-0.006155757,0.02524496,-0.02285684,-0.00147825,-0.005609049
1.011365,-0.01109473,0.1822241,-0.002052609,-0.005330388,0.02133598,-0.02052769,0.009042893,-0.006852268
1.015232,-0.00972779,0.1792654,0.001824771,-0.003840178,0.018387,-0.01820406,0.006981328,-0.005481965
1.014114,-0.009695388,0.1836927,0.0007201096,-0.00368619,0.0228098,-0.01561564,-0.000206869,-0.0004604549
1.011544,-0.009725379,0.1845014,-0.001836052,-0.003596289,0.02359963,-0.01840572,-0.01140279,0.006436515
1.01129,-0.009658329,0.1774503,-0.002073484,-0.003411061,0.01651531,-0.02053667,-0.01262304,0.008118432
1.009188,-0.009819486,0.1709089,-0.004157708,-0.003455771,0.009926533,-0.01839367,-0.007416628,0.007344451
1.011232,-0.009667728,0.1736358,-0.002094962,-0.003189312,0.0125923,-0.01813924,-0.01310926,0.007616989
1.013838,-0.009694471,0.1765287,0.0005324138,-0.003103117,0.01541073,-0.01813406,-0.01415815,0.006252014
1.012067,-0.009988193,0.1744958,-0.001216614,-0.003285682,0.01329058,-0.01805513,-0.01295304,0.006721048
1.012287,-0.01052649,0.1751156,-0.0009734317,-0.00371461,0.01381072,-0.01848651,-0.015713,0.006374906
1.012725,-0.01142176,0.1768782,-0.0005104275,-0.004502274,0.01546188,-0.01781357,-0.01552202,0.005563909
1.010951,-0.01160658,0.17677,-0.00225902,-0.004581222,0.01523067,-0.01806621,-0.01683653,0.007172793
1.008798,-0.01260808,0.1770467,-0.004385169,-0.005478505,0.01537329,-0.01764884,-0.01514128,0.005414018
1.005945,-0.01462605,0.1784023,-0.00721029,-0.007393808,0.01658415,-0.01542085,-0.01530066,0.002148536
1.005422,-0.01391046,0.179836,-0.007705269,-0.006576949,0.01786268,-0.01426999,-0.0206147,0.0003342704
1.008978,-0.01210582,0.1791461,-0.004118346,-0.004672279,0.01700747,-0.01549801,-0.02484692,0.0009901667
1.013333,-0.0111552,0.1728413,0.0002682555,-0.003622768,0.01052773,-0.01789639,-0.02848803,0.004621082
1.014858,-0.01154312,0.166052,0.001826191,-0.00391288,0.003554209,-0.01847902,-0.02173854,0.005340686
1.013668,-0.01641098,0.1706044,0.0006698788,-0.008683989,0.007913876,-0.01659479,-0.01292631,0.004364624
1.013767,-0.01991943,0.1763253,0.0008042082,-0.01209657,0.01343444,-0.01113736,-0.01380721,0.001849607
1.015507,-0.01678274,0.1694519,0.002580082,-0.008864632,0.006353512,-0.006697744,-0.01355428,-0.002727106
1.017164,-0.01299405,0.1639324,0.004273089,-0.004981007,0.0006200426,-0.01296598,-0.01154439,-0.001376435
1.018653,-0.0104824,0.1640622,0.005798593,-0.002374631,0.0005302953,-0.01884423,-0.009877093,0.002402484
1.017705,-0.01001499,0.1636215,0.004886567,-0.001812734,-0.0001346215,-0.01368749,-0.01175689,0.006904911
1.014708,-0.01120982,0.1671626,0.001925172,-0.002913426,0.00317855,-0.01109948,-0.01472495,0.01260673
1.012511,-0.009246147,0.1689778,-0.000237361,-0.000856081,0.004762789,-0.01284681,-0.00924498,0.00661098
1.011891,-0.009249568,0.1689432,-0.0008232973,-0.0007664281,0.004495049,-0.01093721,-0.006764092,-0.003783806
1.013154,-0.01160516,0.1744941,0.0004729002,-0.003029685,0.009811038,-0.01012969,-0.0139318,-0.007872608
1.014463,-0.01076131,0.1794859,0.001814072,-0.002094351,0.01456652,-0.0120025,-0.01880117,-0.01345131
1.015417,-0.01121119,0.1772385,0.002799286,-0.002453664,0.01208156,-0.0150991,-0.01195472,-0.01228312
1.01582,-0.01139385,0.169227,0.003232466,-0.002546725,0.003831498,-0.01709469,0.002659716,-0.005536431
1.014248,-0.01111707,0.1649359,0.001689058,-0.002181376,-0.0006988359,-0.01313592,0.008702022,-0.008465648
1.012636,-0.01428282,0.1664694,0.0001043741,-0.005259609,0.0005951861,-0.009666238,-0.001007463,-0.01206114
1.01084,-0.01587597,0.1679277,-0.001665583,-0.00676624,0.001814489,-0.0110192,-0.01482913,-0.0135134
1.0112,-0.01512227,0.1702431,-0.00128114,-0.005926926,0.003891893,-0.01114937,-0.01650625,-0.01523238
1.013712,-0.0128697,0.1723256,0.001254643,-0.003589492,0.005737805,-0.01164823,-0.0126334,-0.01053624
1.012107,-0.01006401,0.1703675,-0.000328186,-0.0006996354,0.003544935,-0.01335941,-0.01452667,-0.006946255
1.011031,-0.009727298,0.1664206,-0.001383336,-0.0002795149,-0.0006346894,-0.01301304,-0.01257185,-0.006306013
1.011639,-0.0113028,0.16771,-0.0007550552,-0.001772489,0.0004245229,-0.0143592,-0.01040862,-0.01015413
1.01081,-0.0134084,0.169793,-0.001564698,-0.003796532,0.002280238,-0.01720898,-0.0140766,-0.01839937
1.013383,-0.01242153,0.1688232,0.001025609,-0.002729091,0.001086299,-0.01744039,-0.01512609,-0.01461274
1.015339,-0.0109555,0.1726156,0.00299876,-0.001183501,0.004658164,-0.01516709,-0.01256195,-0.00475885
1.014183,-0.01146693,0.1725132,0.001858459,-0.001616399,0.00433892,-0.01078247,-0.008136936,-0.0003130014
1.01294,-0.01089974,0.1673815,0.0006306361,-0.0009717764,-0.00100582,-0.007817385,-0.006497115,-0.003767442
1.011819,-0.01210993,0.1660904,-0.0004762814,-0.002105691,-0.002505757,-0.01031868,-0.006962096,-0.01460833
1.012944,-0.01301496,0.1645715,0.0006608411,-0.002935637,-0.004229126,-0.014527,-0.005169111,-0.01626161
1.013404,-0.01128903,0.1654651,0.001132113,-0.001135818,-0.003535178,-0.01577129,-0.005062483,-0.01315427
1.012842,-0.008202142,0.16667,0.0005813391,0.002023717,-0.00252468,-0.01645138,-0.005858543,-0.01232648
1.012744,-0.004665766,0.1666379,0.0004929988,0.005631361,-0.002745684,-0.01802649,-0.007005794,-0.008551158
1.012321,-0.007656433,0.1690849,7.816284e-05,0.002710329,-0.0004817897,-0.0172883,-0.0072958,-0.01030085
1.014934,-0.01154424,0.1699146,0.002698751,-0.001109714,0.0001706986,-0.01435482,-0.005986993,-0.009202926
1.017398,-0.008443245,0.1707313,0.00516909,0.002057039,0.0008161977,-0.01019299,-0.008621911,-0.002935204
1.016593,-0.007048894,0.1695135,0.004369508,0.003515054,-0.0005666962,-0.00565207,-0.0102015,-0.002425097
1.014623,-0.007590631,0.1668945,0.002403687,0.003034742,-0.003344802,-0.004565976,-0.009553625,-0.002038011
1.012821,-0.006604373,0.1680519,0.0006037026,0.004080015,-0.002340391,-0.006322864,-0.01614036,-0.001641729
1.012625,-0.008668497,0.1671465,0.0004087828,0.002072336,-0.003392587,-0.009177807,-0.02269508,-0.002231044
1.012356,-0.009982109,0.164247,0.0001403567,0.0008124856,-0.006432409,-0.01353985,-0.01929636,-0.008935398
1.013917,-0.00788698,0.1632296,0.001699162,0.002958642,-0.007583657,-0.01564493,-0.01239669,-0.01879973
1.017251,-0.006402357,0.1635156,0.005030908,0.004491498,-0.007424717,-0.01552514,-0.002918909,-0.014638
1.018283,-0.004189404,0.1648231,0.006059214,0.00674977,-0.00623726,-0.01386628,0.005880856,-0.008936517
1.017402,-0.00429383,0.1653532,0.005172654,0.006687557,-0.005820016,-0.008093281,0.0005490475,-0.01084615
1.015035,-0.009301446,0.1637685,0.002799046,0.001718855,-0.007510296,-0.004379082,-0.008561258,-0.01004082
1.014896,-0.01206568,0.1621299,0.002650648,-0.001009823,-0.009247069,-0.0006435298,-0.008931461,-0.009778734
1.015474,-0.00895273,0.1627636,0.00321894,0.002135386,-0.008703969,0.006170086,-0.009019251,-0.009185756
1.012488,-0.0007832747,0.1632795,0.0002209648,0.01033387,-0.008270945,0.001905227,-0.008428588,-0.006583472
1.009486,0.004327406,0.1656675,-0.002794995,0.01547016,-0.005958035,-0.006111552,-0.008118073,-0.005258417
1.007932,-0.001698698,0.1696279,-0.004364495,0.009465855,-0.00206495,-0.005201989,-0.01079937,-0.004078816
1.010785,-0.008545992,0.1678595,-0.001527756,0.002636199,-0.003893031,-0.005785267,-0.009823411,-0.005324013
1.014665,-0.007352876,0.1651852,0.00233553,0.003842686,-0.006619607,-0.007398448,-0.006385785,-0.009754167
1.01464,-0.005966135,0.1645871,0.00229314,0.005238585,-0.007262648,-0.009086725,-0.001721625,-0.01314135
1.016164,-0.007410577,0.1631578,0.003798449,0.003799151,-0.00872954,-0.01183384,-0.0004675527,-0.01064123
1.015546,-0.005674386,0.164019,0.003161521,0.005536252,-0.007898858,-0.007728714,-0.004599044,-0.005561563
1.012027,-0.003053889,0.164959,-0.0003775594,0.008153589,-0.006982036,-0.003889339,-0.005689616,-0.004411906
1.011149,-0.003210764,0.1669745,-0.001277135,0.007989449,-0.004982724,-0.004346141,-0.008691811,-0.005077256
1.011203,-0.005105222,0.1708642,-0.001243988,0.00608355,-0.001102146,-0.003174033,-0.01196436,-0.00658674
1.014678,-0.007904268,0.1691013,0.002208823,0.003268875,-0.002867601,-0.003548708,-0.008011591,-0.005957229
1.017519,-0.00640854,0.1643371,0.005026961,0.004744869,-0.007628048,-0.006600818,-0.004088663,-0.001955505
1.015444,-0.00482599,0.1613212,0.002929736,0.006303701,-0.01063406,-0.008899793,-0.002243614,-0.0009448429
1.015369,-0.008895852,0.1607486,0.002830415,0.002206238,-0.01119065,-0.00883415,-0.002153168,-0.003003112
1.015057,-0.0102154,0.16306,0.002494638,0.000855364,-0.008857102,-0.008207385,-0.003196044,-0.007454406
1.014189,-0.007818166,0.161551,0.001601486,0.003217783,-0.01033776,-0.006511159,-0.004908564,-0.0103739
1.017208,-0.006640154,0.1595309,0.004594726,0.004357718,-0.01232331,-0.001731551,-0.007863037,-0.007783817
1.017053,-0.008477766,0.162181,0.00441345,0.002478941,-0.00963265,-0.000900298,-0.006023031,-0.004254311
1.013042,-0.01090539,0.1611628,0.000376046,7.248101e-06,-0.01060396,-0.009159839,-0.004463993,-0.0006368403
1.011594,-0.008966564,0.1602589,-0.001100639,0.001899341,-0.01145489,-0.01738436,-0.007496927,-0.0001770176
1.010718,-0.006613404,0.1627967,-0.002005059,0.004203348,-0.008858034,-0.0126597,-0.008037967,-0.00209562
1.009299,-0.005311444,0.1641395,-0.003452542,0.005453892,-0.00745015,-0.006281541,-0.008545229,-0.002311328
1.010588,-0.004845447,0.1673335,-0.002192886,0.005866277,-0.004185236,-0.01286808,-0.007723927,-0.007555908
1.015377,-0.006637007,0.1658341,0.002566832,0.004018944,-0.00560824,-0.01630769,-6.243601e-05,-0.01574855
1.019594,-0.007168711,0.1618536,0.006755031,0.003429367,-0.009507126,-0.01473862,0.005266714,-0.01876503
1.017718,-0.008154182,0.1645588,0.004849959,0.002384035,-0.006715404,-0.01531766,0.0008065875,-0.01542006
1.012476,-0.007340573,0.1639946,-0.0004212441,0.003135947,-0.007188251,-0.0101247,-0.004271442,-0.01010622
1.01029,-0.00414929,0.1612068,-0.002637033,0.006263828,-0.009880188,-0.007011672,-0.001058354,-0.007993587
1.010979,-0.006204288,0.1616688,-0.001978177,0.004143797,-0.009317872,-0.005460259,0.00308173,-0.005637133
1.012432,-0.008922963,0.162898,-0.000554141,0.001358524,-0.007984115,-0.003183521,0.003763462,-0.003655909
1.012787,-0.009750181,0.1672516,-0.000228552,0.0004632885,-0.003521858,-0.008189397,0.005358816,-0.002893919
1.012235,-0.009963629,0.1683429,-0.0008103275,0.0001806316,-0.00231806,-0.01211612,0.004837632,-0.0005664916
1.012849,-0.006400165,0.1651071,-0.0002244872,0.003673923,-0.005437981,-0.01532074,0.004869465,0.000700638
1.013379,-0.004930929,0.1628941,0.0002769323,0.005072179,-0.007532041,-0.01814938,0.008569644,0.002873658
1.014015,-0.0068168,0.1590861,0.0008852918,0.003114579,-0.01121825,-0.01772227,0.01544626,0.002865784
1.014054,-0.008092278,0.1568144,0.0008969284,0.001766682,-0.01336535,-0.02036572,0.02662122,0.000358278
1.012576,-0.008461075,0.156497,-0.0006076958,0.001324888,-0.01355522,-0.01970542,0.02745278,0.0002438752
1.012423,-0.006296054,0.1562944,-0.0007860121,0.003416475,-0.01362735,-0.01727358,0.01790094,-0.004815757
1.012594,-0.06447432,0.1091106,0.003355833,0.09145916,0.08126062,-0.0829121,0.01138042,-0.1189713
1.016661,-0.08004738,0.09502604,0.006109103,0.07088261,0.06730928,-0.04194339,0.003483447,-0.1350797
1.034881,-0.08069293,0.07575509,0.0230562,0.06533,0.04809473,0.001050523,0.04671733,-0.1371047
1.04425,-0.07600506,0.06877009,0.03119276,0.06521003,0.04109169,0.0006388654,0.1135473,-0.1258809
1.029477,-0.07736456,0.0819549,0.01522666,0.05914449,0.05418694,-0.01082844,0.1392268,-0.1392769
1.015225,-0.07526835,0.09740306,-0.0001788845,0.05663878,0.06947689,-0.001389616,0.1007925,-0.1736044
1.02262,-0.07028716,0.1003676,0.006100649,0.05712415,0.07221679,0.01150744,0.06771261,-0.1930879
1.036866,-0.06507817,0.09881627,0.01926992,0.05794508,0.07037643,0.02955819,0.08714849,-0.1780554
1.039407,-0.05463516,0.1010839,0.02077348,0.06410899,0.07229234,0.04829437,0.08382071,-0.1334819
1.030723,-0.05461618,0.1147804,0.01108887,0.05995849,0.08557614,0.05736952,0.03645849,-0.1229523
1.012632,-0.06223588,0.1268533,-0.007966389,0.04827932,0.09717679,0.09205446,-0.0114319,-0.1410645
1.008064,-0.06466739,0.1116606,-0.0134621,0.04189868,0.08145341,0.1500107,-0.03709839,-0.1464938
1.017459,-0.06468129,0.09013073,-0.004957104,0.03804641,0.05933569,0.1966266,-0.004912141,-0.1483351
1.018404,-0.05381855,0.0836092,-0.004865436,0.04518187,0.05217127,0.2220239,0.03356557,-0.1378634
1.025015,-0.03580289,0.07238511,0.0009289955,0.05958122,0.04025204,0.209316,0.03726176,-0.1178486
1.025093,-0.02329575,0.061687,0.000227227,0.06858212,0.02880988,0.1756476,0.0623957,-0.06967652
1.013751,-0.02118187,0.06795104,-0.01185827,0.06729825,0.03428465,0.1287087,0.09422602,0.000849781
1.014746,-0.0346619,0.07060825,-0.0115702,0.05052703,0.03611109,0.03468128,0.1064898,0.04188454
1.016856,-0.06309787,0.06696348,-0.01013245,0.01890487,0.03159761,-0.07264925,0.0893734,0.04850967
1.019792,-0.1026267,0.07408563,-0.007832782,-0.02370566,0.03781645,-0.1365227,0.02618834,0.01140206
1.018512,-0.1329212,0.07777979,-0.009713264,-0.05697642,0.04057585,-0.1282348,-0.03974922,-0.03652569
1.012429,-0.1397344,0.07081546,-0.01636281,-0.06665807,0.03264824,-0.05070453,-0.07557237,-0.05654539
1.019619,-0.1343031,0.06518582,-0.009705141,-0.06398439,0.02602966,0.02471775,-0.06135018,-0.0666844
1.022684,-0.1159836,0.06393224,-0.007137535,-0.04830905,0.02376449,0.04694405,-0.0194216,-0.05899209
1.02147,-0.08563636,0.06531513,-0.008816395,-0.02049073,0.02411624,0.03600087,-0.004384804,-0.0456913
1.024151,-0.06568284,0.06436601,-0.006567071,-0.002950536,0.02211945,0.02437111,-0.01041954,-0.02875813
1.026126,-0.06634447,0.06414376,-0.004991514,-0.005910917,0.02083586,0.008009107,-0.02203166,-0.002375183
1.036482,-0.0711391,0.06553652,0.004995426,-0.01289136,0.02115639,-0.01008957,0.002236005,0.002970293
1.041435,-0.07502186,0.0673228,0.00960889,-0.01884869,0.0218622,-0.01936661,0.05272019,-0.001779225
1.0347,-0.088046,0.07932905,0.00256229,-0.03383771,0.03278209,-0.04088989,0.06735006,-0.006594052
1.026131,-0.09587039,0.09173511,-0.006291828,-0.04351847,0.04409784,-0.03385418,0.06205775,-0.02323002
1.015376,-0.09218407,0.09181592,-0.01730493,-0.04158093,0.04308575,0.006956051,0.03342619,-0.04210312
1.010455,-0.09087861,0.09160972,-0.0224605,-0.04191755,0.04178508,0.03142112,-0.002381604,-0.04829029
1.011625,-0.08718318,0.09440299,-0.02149953,-0.0397586,0.0434832,0.05764205,-0.005335125,-0.04858472
1.014537,-0.08015419,0.09091885,-0.01877118,-0.03416188,0.03890411,0.06752716,0.01225973,-0.05530529
1.019885,-0.07676362,0.08712785,-0.0135831,-0.0321011,0.03401925,0.06863927,0.03211714,-0.05618152
1.023043,-0.07419161,0.08727016,-0.01056104,-0.03075847,0.03306981,0.07570846,0.01675055,-0.05600186
1.022422,-0.07336785,0.08380448,-0.01129532,-0.03106598,0.02851558,0.06292224,0.005380661,-0.05044001
1.0217,-0.07467935,0.08240026,-0.01210703,-0.03341303,0.02602718,0.06369654,0.02780054,-0.03332516
1.02258,-0.07674047,0.08289181,-0.01129608,-0.03641642,0.02544015,0.05409357,0.03061683,-0.03903501
1.021495,-0.08214064,0.08240386,-0.01242832,-0.04266794,0.02388042,0.02524551,0.02557022,-0.05720533
1.01838,-0.08608152,0.08463003,-0.0155716,-0.04737148,0.02504279,0.007579143,0.01207025,-0.06215336
1.017015,-0.08607215,0.07511937,-0.01694434,-0.04803814,0.0144774,-0.007525529,-0.001812308,-0.04938403
1.021493,-0.09290338,0.05954171,-0.01245585,-0.05546074,-0.002144562,-0.002078176,0.01741568,-0.02276619
1.028453,-0.1041869,0.05728412,-0.005466726,-0.06725271,-0.005434311,-0.006986702,0.03699316,-0.02036249
1.027005,-0.1091646,0.06458312,-0.006869257,-0.07265751,0.0008466776,-0.01411642,0.03637346,-0.02689508
1.025556,-0.1132133,0.06952113,-0.008255765,-0.0770531,0.004782655,0.003645035,0.0226511,-0.02032623
1.031271,-0.1175426,0.05981604,-0.002463022,-0.08165001,-0.005906954,0.006627704,0.015905,-0.02821477
1.033694,-0.1179797,0.05050893,5.252662e-05,-0.08227644,-0.0161795,0.01061899,0.02850989,-0.03470894
1.033022,-0.117326,0.05462409,-0.0005148293,-0.08173485,-0.01300899,0.009116963,0.05540035,-0.04264185
1.029408,-0.1154214,0.05642474,-0.004012078,-0.07986611,-0.01213041,0.003164141,0.08528832,-0.06860533
1.021551,-0.1142061,0.06123284,-0.01174165,-0.07861165,-0.008220298,0.01719938,0.08417047,-0.08870168
1.016787,-0.1117342,0.07510612,-0.01636852,-0.07602723,0.004780241,0.0275671,0.06120435,-0.103715
1.018107,-0.0982294,0.08081882,-0.01490095,-0.06233814,0.009646092,0.0437488,0.04778359,-0.113974
1.022607,-0.07938421,0.07447956,-0.01024384,-0.04323918,0.002486069,0.05385349,0.04628821,-0.109374
1.023678,-0.06862284,0.07242915,-0.009007971,-0.03215753,-0.0003589365,0.05027124,0.04921379,-0.08987022
1.020028,-0.0649455,0.07932159,-0.0124846,-0.02809709,0.005765223,0.04583499,0.04259856,-0.05555476
1.017414,-0.06430669,0.08323123,-0.01491694,-0.02701634,0.008932898,0.02131692,0.03615748,-0.02948765
1.02016,-0.07108595,0.08443768,-0.0119815,-0.03329882,0.00942349,0.001534909,0.03655686,-0.03269749
1.02396,-0.08249288,0.0876774,-0.007986288,-0.04415783,0.01197305,-0.003228182,0.03495084,-0.04574077
1.021107,-0.08558236,0.08966303,-0.01063694,-0.04665149,0.01329367,-0.007410515,0.03018155,-0.04993715
1.019642,-0.08142527,0.08825231,-0.01189369,-0.04185356,0.01124248,-0.004531666,0.01250441,-0.05422216
1.022366,-0.07770927,0.08646895,-0.00895583,-0.03745447,0.008842538,-0.003715247,-0.003388254,-0.04486907
1.023083,-0.0731798,0.0884202,-0.008019594,-0.03220257,0.01020052,-0.002401392,0.004792598,-0.02662335
1.025347,-0.06976231,0.09045961,-0.005531878,-0.02802632,0.01166938,0.002022015,0.01097088,-0.03200235
1.023628,-0.06604664,0.0911761,-0.007023868,-0.02351875,0.0118374,0.004941247,-0.003055722,-0.03183222
1.018738,-0.06188428,0.08841207,-0.01168268,-0.01853457,0.008546306,0.003097475,-0.008801329,-0.01630963
1.019384,-0.06321808,0.08147682,-0.01080297,-0.01901996,0.001104806,-0.002577518,0.003115321,-0.01111321
1.019452,-0.06109998,0.08126589,-0.01049841,-0.01603012,0.0004080365,0.001478549,0.01042006,-0.008197582
1.018302,-0.05397032,0.08611772,-0.01140881,-0.008008611,0.004794193,0.004975264,0.01064487,-0.00809524
1.018077,-0.05322183,0.09190561,-0.01139337,-0.006351443,0.01013619,0.004507194,0.01748015,-0.004981021
1.018576,-0.0531706,0.09690205,-0.01065056,-0.005378011,0.01470593,0.007675919,0.0367362,0.001100132
1.02288,-0.05186708,0.0885766,-0.006102733,-0.003141961,0.005972196,0.002338556,0.05856374,0.007193551
1.026267,-0.05346434,0.07722388,-0.002469126,-0.003799439,-0.005771043,-0.02093395,0.07045186,0.02637643
1.025358,-0.05766475,0.07947341,-0.003131573,-0.007055706,-0.003894562,-0.07418366,0.07064874,0.04320178
1.024447,-0.08168962,0.08567066,-0.003795412,-0.03013453,0.001947,-0.1317425,0.04851222,0.04674543
1.026135,-0.121305,0.08848373,-0.001860523,-0.06880355,0.004421499,-0.1443549,-0.006355248,0.01707615
1.026988,-0.1341103,0.08660862,-0.0007617822,-0.08066227,0.002224512,-0.118132,-0.06569687,-0.05011095
1.026856,-0.117593,0.07491414,-0.000649254,-0.0631972,-0.009775565,-0.06671284,-0.0685051,-0.095122
1.030994,-0.1015806,0.05496068,0.00373102,-0.04623519,-0.03001836,0.008580191,0.003994468,-0.1067524
1.034637,-0.08648119,0.04322197,0.007614148,-0.03018406,-0.04202954,0.06682567,0.09439475,-0.113893
1.031096,-0.0721157,0.05980633,0.004309449,-0.01486559,-0.02569961,0.07111055,0.1384934,-0.1102564
1.022881,-0.05239312,0.08800502,-0.003672368,0.005809665,0.002263549,0.0431927,0.1285767,-0.09313733
1.016853,-0.02711578,0.09751956,-0.009472419,0.03203697,0.0115614,0.01762026,0.1009869,-0.06396007
1.016949,-0.03936976,0.09919728,-0.009151603,0.02072706,0.01304029,0.007611665,0.0565334,-0.02477639
1.016555,-0.06269958,0.1062762,-0.009326152,-0.001667782,0.01993693,0.008745154,-0.004429658,-0.005610677
1.014117,-0.05620503,0.107167,-0.01154776,0.00575013,0.02066028,-0.003702879,-0.02147853,-0.02123637
1.015546,-0.06266038,0.09523233,-0.009906833,0.0002046335,0.008571669,-0.03533134,-0.002387629,-0.03342774
1.017354,-0.06511714,0.08097498,-0.007889472,-0.001357388,-0.005827474,-0.06585464,-0.0004802027,-0.03152344
1.019988,-0.05412294,0.07740079,-0.005050364,0.01051501,-0.009531881,-0.07295914,0.0002438254,-0.0351997
1.027415,-0.06096376,0.07851724,0.002578648,0.004534419,-0.008534265,-0.05995486,0.01089089,-0.02367334
1.030918,-0.05879792,0.0800187,0.0062798,0.007541149,-0.007140326,-0.05575116,0.01766602,0.001293947
1.027592,-0.06140151,0.08323648,0.003148175,0.005757865,-0.004018886,-0.04728816,0.01627247,0.01267052
1.025233,-0.07172631,0.0835952,0.0009793517,-0.003768216,-0.003745586,-0.03355108,0.01159959,0.01211526
1.024614,-0.0682023,0.09004867,0.0005452046,0.0005322124,0.002633014,-0.03763287,0.009609967,-0.0009809258
1.023105,-0.07105296,0.1012434,-0.0007841934,-0.001564804,0.01376286,-0.03853587,0.0003873979,-0.0123705
1.019052,-0.06680702,0.1024853,-0.004662343,0.003411622,0.01494882,-0.03975708,-0.008981015,-0.003390913
1.015462,-0.06017688,0.09880202,-0.008083097,0.01074867,0.01121746,-0.0441501,-0.004638276,0.004811442
1.019011,-0.06457433,0.09557546,-0.004368687,0.007033989,0.007949622,-0.04180711,0.000600699,0.0008604838
1.025447,-0.06465949,0.08641535,0.002226605,0.00760696,-0.001245825,-0.05084303,0.0008796289,0.0006840623
1.027007,-0.06602677,0.07789472,0.003942056,0.00687275,-0.009796338,-0.05771944,0.003856179,0.00162492
1.024661,-0.06611754,0.07913537,0.001746479,0.007389693,-0.008580195,-0.05812477,0.002924537,-0.00148736
1.022869,-0.06642731,0.07945153,0.000100073,0.007662095,-0.008283081,-0.06082817,-0.0060842,0.00119919
1.024425,-0.0681794,0.0797586,0.001795972,0.006466524,-0.007989495,-0.05250842,-0.009586214,0.003686321
1.025499,-0.06824769,0.08665645,0.003004074,0.006929056,-0.001099556,-0.03655474,-0.006540437,0.002214829
1.021786,-0.0721616,0.08885678,-0.000579305,0.003520362,0.00109826,-0.01510154,-0.005087229,-0.0006323752
1.016165,-0.06967189,0.09351806,-0.006076923,0.006489872,0.005762072,0.002364824,-0.007245445,-0.01099136
1.014035,-0.06536911,0.09913872,-0.008087902,0.01124725,0.01138972,-0.0002684493,-0.01205194,-0.01395847
1.022065,-0.06507526,0.08346814,5.631221e-05,0.01197065,-0.004270046,-0.01114857,-0.008897874,-0.004505918
1.033611,-0.0627834,0.06748257,0.01171074,0.01466707,-0.02024135,-0.01806939,0.007787342,0.00368181
1.032841,-0.06272357,0.07445915,0.01104589,0.01510648,-0.01324685,-0.0317205,0.02611576,0.01146473
1.027225,-0.06329622,0.08279272,0.005528481,0.01488845,-0.004891311,-0.05171154,0.02530975,0.01400829
1.025645,-0.06539798,0.08263344,0.004042581,0.01311646,-0.005024404,-0.0614222,0.01720247,0.01339621
1.022422,-0.06840061,0.08155575,0.000906728,0.01041892,-0.006071771,-0.06575426,0.02334388,0.01576099
1.021871,-0.07094659,0.07841097,0.0004382679,0.008153706,-0.009182154,-0.05818185,0.01788344,0.01577429
1.024522,-0.07626388,0.08017707,0.003166344,0.003093396,-0.007377604,-0.03102448,0.001419243,0.01593388
1.025261,-0.07997082,0.08500857,0.003976326,-0.0003796141,-0.002503613,-0.00691429,-0.006481401,0.01488757
1.025139,-0.08099416,0.08213882,0.00391986,-0.001191125,-0.005326975,0.007611158,-0.01177892,0.01088564
1.023741,-0.07304323,0.07894037,0.00258237,0.006950504,-0.008475287,0.005371132,-0.005238563,0.008395201
1.023373,-0.05958226,0.07585217,0.002268758,0.02058183,-0.01150965,-0.01540165,0.003367481,0.009864084
1.023278,-0.05980917,0.07347358,0.002223455,0.02050528,-0.01383061,-0.0350639,0.01043986,0.01470354
1.020709,-0.0656129,0.07912599,-0.0003004032,0.01483202,-0.008116615,-0.04319404,0.01697296,0.01564685
1.019008,-0.06534585,0.08467863,-0.00196176,0.01520982,-0.002498368,-0.04296725,0.008667147,0.01288206
1.020463,-0.06523353,0.08872332,-0.0004715954,0.01541349,0.00161575,-0.05335176,0.009352216,0.01045732
1.024335,-0.06435508,0.08817675,0.003431344,0.01636425,0.001142036,-0.05971835,0.009028491,0.009947262
1.025825,-0.06428119,0.08197273,0.004947954,0.01649177,-0.004986151,-0.04292958,-0.003686748,0.01254803
1.02457,-0.0687903,0.08088729,0.003715343,0.01201802,-0.005993121,-0.02736563,-0.001919145,0.01162939
1.023924,-0.0728334,0.0771285,0.0030884,0.007992518,-0.00967093,-0.01876142,-0.001668342,0.006508936
1.022276,-0.07210637,0.07180183,0.001454499,0.008720086,-0.01491407,-0.01817844,-0.001281371,0.001488512
1.020958,-0.06937169,0.07374509,0.000147594,0.011439,-0.01288458,-0.01971872,0.008770304,0.001058271
1.020884,-0.06874848,0.07610963,7.95416e-05,0.01203085,-0.01043084,-0.01363993,0.01375476,0.006060717
1.02195,-0.06565843,0.07885529,0.001149387,0.01507456,-0.007592886,-0.01917814,0.01112567,0.007610619
1.024528,-0.05986537,0.08298743,0.003726879,0.02080678,-0.003365386,-0.02946259,-0.0005854185,0.01090838
1.02512,-0.05740458,0.08579887,0.004316618,0.02319253,-0.0004557131,-0.03532859,-0.004082243,0.02104254
1.023235,-0.05700751,0.08329817,0.002425532,0.02350048,-0.002855655,-0.03781974,-0.001453512,0.02641453
1.021492,-0.06131883,0.08011459,0.0006725213,0.01908608,-0.00593627,-0.03272985,-0.005484638,0.02124291
1.022058,-0.06868343,0.08278462,0.001227345,0.01160469,-0.003161329,-0.03607295,-0.005804198,0.01325841
1.022779,-0.0711327,0.08178202,0.001932982,0.009025426,-0.00405729,-0.03882686,-0.005558883,0.01287157
1.022334,-0.07210177,0.07938263,0.00147116,0.007913898,-0.006348482,-0.03415542,-0.002740529,0.009468493
1.024972,-0.07396683,0.07946987,0.004089294,0.005894773,-0.006151662,-0.03157258,-0.001143872,0.0006970421
1.027077,-0.07308916,0.07821216,0.006172022,0.006607661,-0.007298482,-0.02214193,-0.002525216,0.001744038
1.024233,-0.06748589,0.07881801,0.003303676,0.0120363,-0.006580485,-0.02020872,0.0001045586,0.0008557815
1.020913,-0.06152579,0.07827128,-4.299971e-05,0.0178126,-0.007013858,-0.02973078,-0.003889511,-0.002167185
1.020475,-0.06110042,0.08069212,-0.0005098273,0.01804542,-0.004478509,-0.03315061,-0.01020757,0.008706673
1.021968,-0.06304346,0.08390787,0.0009528638,0.01590139,-0.001147228,-0.02835088,-0.01403162,0.01927249
1.02254,-0.06612841,0.07600558,0.001492677,0.0126073,-0.008933142,-0.01691285,-0.007504887,0.01675021
1.02234,-0.06928943,0.07071894,0.001258061,0.009229434,-0.01410262,-0.0135702,0.01097115,0.01064014
1.022892,-0.06796762,0.07927852,0.001774985,0.01032725,-0.005424998,-0.01986696,0.0143388,0.00894054
1.022996,-0.06515832,0.0866248,0.001842077,0.01290601,0.002040259,-0.02276826,0.007179167,0.007892788
1.022116,-0.06336016,0.08194276,0.0009244545,0.01446757,-0.002522092,-0.02031437,0.0003801782,0.007273653
1.021835,-0.06256284,0.07699982,0.000603788,0.01502263,-0.007344933,-0.01169538,-0.005706261,0.009573076
1.022379,-0.06588959,0.07752314,0.001108024,0.01144831,-0.006701227,-0.006877538,0.003054658,0.009168421
1.021313,-0.06968542,0.07597505,1.333493e-06,0.007400021,-0.008128662,-0.01150281,0.01453248,0.005269921
1.020845,-0.06794741,0.08041727,-0.000508613,0.008881192,-0.003565506,-0.024732,0.01305662,-0.005477822
1.02372,-0.06629162,0.09458947,0.002324501,0.01027633,0.01072775,-0.04944746,0.004225253,-0.02464687
1.025302,-0.0614331,0.1093624,0.003863888,0.01487087,0.02562126,-0.0788384,-0.009692134,-0.03404109
1.022171,-0.03506503,0.1166794,0.0006902506,0.04097179,0.03305724,-0.1093272,-0.03639553,-0.02446358
1.016665,-7.902053e-05,0.1156774,-0.004858473,0.07568679,0.03217087,-0.166691,-0.06761668,-0.01513693
1.012023,0.004745041,0.1184643,-0.009544298,0.08023415,0.03506841,-0.2966899,-0.08317562,-0.02181363
1.009768,-0.01374015,0.1178205,-0.01184189,0.06146405,0.03452861,-0.4619054,-0.1168505,-0.04113142
1.021127,-0.02931068,0.09920542,-0.0005246241,0.04559825,0.01600939,-0.5404673,-0.1502307,-0.06018137
1.055747,-0.06355434,0.05935261,0.03405459,0.01104788,-0.02375644,-0.5423398,-0.05443861,-0.06237326
1.08095,-0.1050952,0.01431871,0.0592169,-0.03081081,-0.06871145,-0.5757539,0.1419735,-0.07389035
1.058952,-0.1066769,0.01584894,0.03717646,-0.03271943,-0.06710792,-0.5790773,0.2510706,-0.1082572
1.01883,-0.09517404,0.05272594,-0.002991135,-0.0215497,-0.03016004,-0.4790974,0.2231033,-0.1044171
1.00242,-0.09375204,0.07173408,-0.01945107,-0.02046435,-0.01108106,-0.3640974,0.1665732,-0.07866652
1.001483,-0.08463047,0.08051385,-0.02044134,-0.01168067,-0.00222942,-0.2715065,0.1350421,-0.0737142
1.008455,-0.08516219,0.07726562,-0.01352495,-0.01254965,-0.005404549,-0.1971061,0.07229764,-0.05150824
1.019253,-0.09425905,0.06056762,-0.002784118,-0.02198152,-0.02202814,-0.1319438,0.02770743,-0.03889597
1.020752,-0.08985242,0.0547653,-0.001341453,-0.01790604,-0.02775433,-0.06799777,0.05255009,-0.05134193
1.023689,-0.07410777,0.06913884,0.001538854,-0.002487178,-0.01330216,-0.03425082,0.03164758,-0.04359927
1.028927,-0.05129525,0.09609273,0.006719833,0.02000581,0.01373328,0.03758523,-0.02616808,-0.01447892
1.029522,-0.04145743,0.09710072,0.007257564,0.02953038,0.01482541,0.1189274,-0.04747944,0.04587251
1.029495,-0.04770245,0.08091791,0.007173917,0.02297771,-0.001271572,0.1304102,-0.04394978,0.1027304
1.026386,-0.04306129,0.07060628,0.00400879,0.0273159,-0.01149631,0.1471562,-0.0115143,0.1046574
1.024276,-0.03988049,0.05232852,0.001841337,0.03019757,-0.02968608,0.1517168,0.01609537,0.08258659
1.015803,-0.04376979,0.06652212,-0.006690161,0.02601207,-0.01540282,0.1402829,0.03244172,0.04956137
1.002033,-0.03415016,0.0975215,-0.02051679,0.03533755,0.01568837,0.1338625,0.01099416,0.001750175
1.003382,-0.02885658,0.09474367,-0.01922489,0.04033804,0.01300421,0.06886348,-0.04819299,-0.03568277
1.017164,-0.03177907,0.0908521,-0.005498115,0.03712237,0.009207242,-0.00728543,-0.04831516,-0.0453126
1.030683,-0.0271834,0.08581349,0.00796847,0.04142359,0.004263293,-0.04782477,-0.0282979,-0.03155664
1.030642,-0.02467505,0.07835744,0.007877254,0.04363507,-0.003098634,-0.06547343,-0.01247628,-0.00526954
1.021894,-0.02691688,0.08537206,-0.0009187995,0.04109276,0.004009258,-0.08078296,0.01286611,0.02656187
1.019002,-0.03376337,0.08907554,-0.003856552,0.03394115,0.007804868,-0.09473904,-0.00519612,0.03884285
1.017829,-0.04394027,0.09174683,-0.005074398,0.02345378,0.01056669,-0.0742627,-0.0183919,0.03513553
1.021616,-0.05256176,0.08837089,-0.001329578,0.01451624,0.007279125,-0.05407071,-0.01589474,0.04607687
1.02649,-0.06060911,0.08049714,0.003505208,0.006147525,-0.0005088792,-0.03216963,-0.02277543,0.05431105
1.024288,-0.06320769,0.08323839,0.001265694,0.003222971,0.002315224,0.0004218665,-0.02458268,0.04842447
1.022008,-0.06500021,0.08127585,-0.001050001,0.00110081,0.0004325465,0.02319002,-0.04551279,0.05264006
1.020686,-0.06521359,0.0755679,-0.002405753,0.0005551658,-0.00519855,0.0770196,-0.05950387,0.06979813
1.022126,-0.05503322,0.07302008,-0.0009982978,0.01040162,-0.007672384,0.1260842,-0.05174998,0.08171321
1.024315,-0.04761664,0.06707584,0.001161765,0.01748335,-0.01354518,0.1235345,-0.03946736,0.06882124
1.019908,-0.04855927,0.06323899,-0.003273178,0.01620527,-0.01731257,0.1136753,-0.02260406,0.03644729
1.013661,-0.04456432,0.06713757,-0.009546405,0.01986427,-0.01334584,0.1143762,-0.02644676,0.01095055
1.012043,-0.03428847,0.07963646,-0.01118796,0.02980363,-0.0007794982,0.1002115,-0.04375856,-0.004707015
1.017915,-0.03074057,0.08873711,-0.005337239,0.03301418,0.008388081,0.06417795,-0.0560879,-0.004629589
1.030144,-0.03448292,0.08060133,0.006874082,0.02893309,0.0003185166,0.03313797,-0.04975925,0.01523299
1.039047,-0.03614376,0.06658913,0.01576081,0.02693156,-0.0136284,0.0192098,0.005167155,0.02720824
1.037529,-0.04526805,0.06366013,0.01422964,0.01746432,-0.01649284,0.02649426,0.05419365,0.02198144
1.030386,-0.05917553,0.08137223,0.007073746,0.003211638,0.001283555,0.04849399,0.007585502,0.004028673
1.025013,-0.05641001,0.1118472,0.001688758,0.00563024,0.03182258,0.06317549,-0.07562086,-0.008916911
1.023069,-0.04819519,0.1147618,-0.0002667874,0.0134971,0.0348,0.06414492,-0.08745076,0.007706783
1.022732,-0.04961997,0.08117631,-0.0006144214,0.01172388,0.0012748,0.04294477,-0.05510291,0.02277377
1.019448,-0.05375778,0.05926105,-0.003909826,0.007237593,-0.02058348,0.02420168,-0.03289425,0.01247052
1.015322,-0.06203788,0.06909302,-0.008046145,-0.001390528,-0.01069755,0.02995314,-0.03323068,0.007725482
1.018069,-0.06990421,0.07813753,-0.005308966,-0.009603638,-0.001601411,0.04794613,-0.03709289,0.01769086
1.022376,-0.07193375,0.07039609,-0.001010533,-0.0119776,-0.009293093,0.06746728,0.0002342725,0.01884675
1.025145,-0.07574734,0.07207544,0.001750802,-0.01613195,-0.007565537,0.06333307,0.04076796,0.01120649
1.031955,-0.07767224,0.07780454,0.008553664,-0.01839256,-0.001789437,0.06776015,0.04418094,0.012518
1.036833,-0.07767389,0.06435832,0.01342526,-0.01872346,-0.01518959,0.1204718,0.04095095,0.03614948
1.037611,-0.07855955,0.05241911,0.01419789,-0.01993052,-0.02708315,0.1842035,0.05354005,0.08772823
1.032442,-0.0706456,0.04763274,0.009021855,-0.01232886,-0.03182336,0.2298854,0.07829236,0.1251292
1.017324,-0.05653069,0.05280734,-0.006103738,0.0014838,-0.02660084,0.2494662,0.07492942,0.1209745
1.01142,-0.04537529,0.06739299,-0.01201576,0.01234734,-0.01196438,0.2551774,0.04740315,0.1191718
1.018156,-0.04159103,0.06533859,-0.005288433,0.01584989,-0.01396439,0.2486552,0.0322906,0.1304904
1.021743,-0.04652062,0.06229479,-0.001710512,0.01064815,-0.01694985,0.2241591,0.03250108,0.1296056
1.025646,-0.05063066,0.06465151,0.002183419,0.006274925,-0.01453052,0.2111818,0.04538836,0.118292
1.024791,-0.04639093,0.06868703,0.001319663,0.01026003,-0.01042782,0.1903733,0.03979659,0.1005806
1.020118,-0.03511097,0.08737034,-0.003361517,0.02129346,0.008327241,0.1370151,0.0176375,0.08154563
1.024782,-0.02061616,0.09621528,0.001294139,0.03554904,0.01724801,0.06552358,0.00357347,0.07674227
1.027302,-0.01530958,0.0920863,0.003805699,0.0406224,0.01319793,-0.001516529,0.006296254,0.08699962
1.025407,-0.02703222,0.09231245,0.001902619,0.02867095,0.01350486,-0.02483496,0.03010004,0.09620451
