accx,accy,accz,body_accx,body_accy,body_accz,body_gyrox,body_gyroy,body_gyroz
0.9959741,-0.09150027,-0.2109958,-0.009665151,0.01508264,0.002389134,-0.02725168,0.04210142,-0.007950289
0.9931015,-0.0926529,-0.2090332,-0.01255882,0.01382999,0.004465136,-0.02709666,0.04804851,-0.004227395
0.9965181,-0.09048243,-0.2066382,-0.009165143,0.01589505,0.006968258,-0.02225658,0.04849401,-0.003651372
0.9984497,-0.08950847,-0.2069876,-0.007257557,0.01675809,0.006721439,-0.01247332,0.06275153,-7.035767e-05
0.99904,-0.09145674,-0.2062018,-0.006691648,0.0146933,0.007604112,-0.009583262,0.07544981,0.002876109
0.9999954,-0.09328243,-0.2045217,-0.005760614,0.0127454,0.00937505,-0.005879883,0.06482152,0.002755178
1.000666,-0.09901069,-0.2018645,-0.005113555,0.006889321,0.01211695,0.002004417,0.05137839,0.005739928
0.9997365,-0.1008617,-0.2023048,-0.00606685,0.004905162,0.01175469,0.009143078,0.02749871,0.008056065
1.000908,-0.09701746,-0.2035474,-0.004917788,0.008611199,0.01058326,0.01584524,0.003622068,0.01220785
1.003152,-0.09414378,-0.2001742,-0.002694788,0.0113421,0.01402043,0.01661428,-0.01091868,0.01516404
1.00254,-0.09243191,-0.195467,-0.003325924,0.0129068,0.0187841,0.01471662,-0.02902095,0.01094931
1.003332,-0.08755183,-0.1898903,-0.002552347,0.01763541,0.02440934,0.004814196,-0.04633331,0.01035799
1.007441,-0.08215601,-0.1895135,0.001540588,0.02287536,0.02482604,-0.01157769,-0.06347451,0.01887065
1.020105,-0.08227703,-0.197296,0.01418969,0.02259381,0.01707405,-0.01297115,-0.06793509,0.02879161
1.032245,-0.08342623,-0.2072871,0.02631611,0.02127907,0.007103825,-0.009510701,-0.02971194,0.02941493
1.02604,-0.08866645,-0.2150271,0.02009658,0.01586801,-0.0006249897,-0.01788637,0.02475302,0.0194818
1.020328,-0.09946319,-0.2101485,0.01437039,0.004895095,0.004255566,-0.02949252,0.03599464,0.009567197
1.027829,-0.1011233,-0.2031587,0.02185427,0.003053771,0.01123844,-0.03548207,0.03779835,0.001586668
1.028268,-0.09367258,-0.2081133,0.02227375,0.01031881,0.006268425,-0.03703496,0.07890812,-0.006832912
1.020576,-0.08912469,-0.20693,0.01455902,0.01467697,0.007428192,-0.04530587,0.1091678,-0.0124864
1.015184,-0.08802297,-0.1992433,0.009139818,0.01558512,0.01508325,-0.05671129,0.1060586,-0.01739961
1.011035,-0.08660545,-0.1956201,0.00495952,0.01680529,0.01866692,-0.05657552,0.09735833,-0.02494249
1.009305,-0.08883433,-0.192838,0.003193245,0.01437528,0.0214014,-0.04687649,0.08743327,-0.02711661
1.007041,-0.09446621,-0.1960755,0.0008901295,0.008538551,0.01810784,-0.03575075,0.08525512,-0.01781819
1.005001,-0.09360205,-0.198842,-0.001193783,0.009194373,0.0152768,-0.02977568,0.08676411,-0.009354864
1.009384,-0.09079472,-0.1978861,0.003142025,0.01179017,0.01615946,-0.02528381,0.07638818,-0.00748544
1.011463,-0.09105759,-0.1995709,0.00517093,0.01131286,0.01439274,-0.02148164,0.05591231,-0.002996645
1.00571,-0.08522228,-0.1972654,-0.0006353894,0.016931,0.01660768,-0.02974983,0.02132382,0.006635266
1.000684,-0.07969599,-0.1938166,-0.00571721,0.02223743,0.01995737,-0.03664331,-0.02022658,0.01596354
1.002334,-0.08254149,-0.1909808,-0.004125588,0.01916921,0.0226855,-0.02927607,-0.04460548,0.01602203
1.004598,-0.08659068,-0.189346,-0.001921331,0.01489425,0.02420378,-0.01429707,-0.04794191,0.009186127
1.004106,-0.08881837,-0.1922695,-0.002474851,0.0124377,0.02115487,0.01010953,-0.0424166,0.003755602
1.008764,-0.08820734,-0.19327,0.00212159,0.0128169,0.0200197,0.02917369,-0.03174128,-3.198457e-05
1.011703,-0.08511681,-0.1953722,0.004998694,0.01567279,0.01777361,0.03264339,-0.01942567,-0.001880721
1.010297,-0.08382623,-0.1916809,0.003528719,0.01672603,0.02131192,0.0383289,-0.01802096,-0.00570254
1.015137,-0.08475493,-0.1825095,0.008305053,0.01555732,0.03032118,0.04806985,-0.01381876,-0.007276505
1.017852,-0.08664234,-0.186604,0.01095575,0.01342726,0.02605529,0.0540435,0.003523126,-0.00458031
1.014572,-0.08868392,-0.1915941,0.00761072,0.01114053,0.02088419,0.05283098,0.002370331,-0.006544095
1.013263,-0.08734409,-0.1923389,0.006235675,0.01223289,0.01994896,0.0442417,-0.00622134,-0.00600316
1.015272,-0.0828665,-0.1986509,0.008176903,0.0164609,0.01343697,0.03838008,0.002743679,-0.005045637
1.018217,-0.08130367,-0.2009045,0.01105267,0.01777213,0.01097441,0.03882865,0.009792173,-0.008842888
1.016543,-0.08170307,-0.1973432,0.009307705,0.01711909,0.01431825,0.04260535,0.01829656,-0.008226484
1.01087,-0.08111957,-0.1916263,0.003562647,0.01744685,0.01980978,0.04510865,0.02145935,-0.007136098
1.007383,-0.08049917,-0.1875052,1.323805e-06,0.01780939,0.02369777,0.04176525,0.01674699,-0.005777348
1.00887,-0.0799353,-0.187101,0.001413241,0.01811322,0.02386126,0.03646416,0.02429268,-0.004209812
1.009703,-0.08004263,-0.1866577,0.002168867,0.01774361,0.02405632,0.03219092,0.01444375,-0.00671206
1.00659,-0.07891805,-0.1902954,-0.00102115,0.01860362,0.02016294,0.03177025,-0.001261697,-0.008469636
1.006747,-0.07848549,-0.1948151,-0.0009434821,0.01876928,0.01538003,0.03499004,0.006522356,-0.00990798
1.008494,-0.07898467,-0.1933548,0.0007242787,0.01800081,0.01657007,0.03744298,0.002034242,-0.003696295
1.009293,-0.07707237,-0.1926107,0.001444435,0.01964138,0.01703727,0.04034116,-0.005056959,0.008219244
1.011232,-0.07817614,-0.1966308,0.003303609,0.0182634,0.01273391,0.03768605,0.006027389,0.008634893
1.011211,-0.08123725,-0.1999949,0.003203225,0.01492559,0.009080808,0.0305715,0.01299556,0.004601785
1.010852,-0.08304355,-0.199245,0.002765097,0.01284017,0.009536468,0.02840086,0.01175391,0.004176548
1.010344,-0.08355649,-0.1947048,0.002177889,0.01204591,0.01377793,0.02251193,0.007600018,0.002482112
1.008896,-0.07923799,-0.1896265,0.0006508261,0.01608113,0.01855348,0.01078564,0.003432056,0.00101095
1.007857,-0.07653849,-0.1900264,-0.0004667054,0.01849556,0.0178471,0.001866266,-0.001886409,0.001596946
1.005766,-0.07809735,-0.1905378,-0.002635211,0.01664991,0.0170258,-0.0008488301,-0.004989225,0.004080349
1.005852,-0.07873145,-0.1877567,-0.002626041,0.01572731,0.01949371,0.001563769,-0.002924847,0.006507139
1.008685,-0.07846246,-0.1907908,0.0001308251,0.01570617,0.01614324,0.002063918,-0.001021485,0.007182549
1.012522,-0.07747775,-0.19575,0.003892817,0.01639919,0.01086481,0.004559081,0.004843461,0.006298673
1.017476,-0.07816341,-0.1972559,0.008773017,0.0154204,0.00903703,0.009083687,0.00661712,0.004911211
1.017831,-0.08074832,-0.1954271,0.009056156,0.012541,0.010542,0.008500241,0.003162955,0.004402945
1.015488,-0.08253639,-0.1919708,0.006640948,0.01045729,0.01367295,0.01409619,0.007093149,0.003432405
1.016956,-0.08201245,-0.1965036,0.008037751,0.0106847,0.008813759,0.02558826,0.01421202,0.00180685
1.016627,-0.07935322,-0.2007403,0.007638067,0.01304683,0.004249899,0.0282516,0.02206488,0.0002972675
1.012899,-0.07797414,-0.196426,0.00383862,0.01412848,0.008236976,0.02501693,0.0216938,0.0008247881
1.010366,-0.0780403,-0.1939401,0.001234518,0.01376469,0.01039595,0.02465391,0.01501917,0.002695874
1.00956,-0.08086066,-0.192429,0.0003576696,0.01064667,0.01158111,0.02711754,0.01634525,0.001102318
1.013349,-0.08600505,-0.1906397,0.004075888,0.005204782,0.01304551,0.02954531,0.01401771,-0.0009722141
1.016415,-0.0879937,-0.1912031,0.007071446,0.002919192,0.01215851,0.03434428,0.008606058,-0.00193535
1.012355,-0.0882635,-0.1932892,0.002941163,0.002353553,0.009750175,0.04196598,0.008375742,-0.003337718
1.009803,-0.08859127,-0.1970234,0.0003177015,0.001731612,0.005695517,0.04614395,0.01189827,-0.002246912
1.010948,-0.08868292,-0.1943287,0.001392981,0.001348047,0.008071726,0.04793842,0.01960955,-0.0005310463
1.008093,-0.08886894,-0.1860505,-0.001531842,0.0008729141,0.01603367,0.05127312,0.01802385,0.0008248724
0.9994494,-0.08735778,-0.1809029,-0.01024542,0.002098299,0.02086744,0.05223556,0.01102507,0.003211629
0.9931393,-0.08683792,-0.1791565,-0.01662411,0.002336165,0.02230222,0.05227351,0.004205023,0.007822965
0.9960722,-0.08785785,-0.1813789,-0.01375797,0.001038428,0.01976986,0.05471382,-0.008402118,0.01231828
1.001183,-0.08656826,-0.1829202,-0.00871116,0.002054756,0.01792007,0.05356669,-0.01213173,0.01030767
1.006855,-0.08605544,-0.1832818,-0.003100801,0.002299208,0.01725115,0.05017008,-0.01457619,0.008877979
1.015516,-0.08904013,-0.1870668,0.005502094,-0.0009486951,0.01315987,0.04857953,-0.02072141,0.01149722
1.017088,-0.09042904,-0.1915318,0.007019716,-0.002595308,0.008389722,0.0464848,-0.01172782,0.009614272
1.013581,-0.08612763,-0.195525,0.003460891,0.001454245,0.004092517,0.04528643,0.0003469563,0.004246341
1.013592,-0.07944057,-0.1916407,0.0034219,0.007895531,0.007674459,0.03984386,0.01040895,0.0009121254
1.01048,-0.07695495,-0.1808869,0.0002626689,0.01014148,0.01812787,0.0251529,0.01860701,0.004198546
1.004188,-0.07821739,-0.1724954,-0.006073551,0.00864525,0.02622089,0.01149733,0.001371492,0.009967197
1.000182,-0.07871432,-0.1616002,-0.01012242,0.007920162,0.036819,0.01253944,-0.02819185,0.01389164
1.000294,-0.07997875,-0.159707,-0.01005076,0.006433011,0.03841571,0.02175536,-0.03481471,0.01836394
1.008848,-0.08304298,-0.1760872,-0.001533785,0.003151334,0.02173865,0.02108417,-0.02008412,0.01510563
1.016765,-0.0852776,-0.1882186,0.006349876,0.0007045332,0.00930926,0.01798892,-0.005933634,0.008890781
1.016911,-0.08424628,-0.1849862,0.006464572,0.001528998,0.01224264,0.01495594,-0.0008891937,0.009647641
1.018219,-0.08139927,-0.1830359,0.007744613,0.004174582,0.01389316,0.005435069,0.004671709,0.007778003
1.020651,-0.08176934,-0.1897971,0.01014999,0.003608514,0.006831504,0.002428594,0.01221066,0.006980086
1.019839,-0.0824272,-0.1871375,0.009313278,0.002760063,0.009190479,0.0001078426,0.01262556,0.01099868
1.015604,-0.0821682,-0.1774533,0.005054144,0.002833829,0.01857411,-0.001901634,0.007583303,0.01017185
1.010797,-0.08632758,-0.1743845,0.000224297,-0.001505422,0.02134257,0.004840974,-0.006075023,0.006772654
1.013048,-0.09129594,-0.1734307,0.002452177,-0.006648192,0.02199604,0.008014761,-0.0215399,0.003085385
1.020099,-0.09158136,-0.1824142,0.009481229,-0.007102288,0.01271204,0.01165831,-0.01269001,0.0004416823
1.022401,-0.0859591,-0.1917807,0.01176093,-0.001642655,0.003044788,0.01248615,0.006203727,0.0006768065
1.017338,-0.08032553,-0.1893948,0.006675384,0.00383455,0.005130135,0.006964086,0.008334503,-5.555592e-05
1.011547,-0.08194553,-0.1888195,0.0008614606,0.002064402,0.005405522,0.006164606,0.005727825,0.002290759
1.013856,-0.08463204,-0.1833906,0.003146299,-0.0007661801,0.01053572,0.002609757,0.003448621,0.006228295
1.018295,-0.08470217,-0.1755404,0.00756056,-0.0009743963,0.01808867,0.004813003,0.0004021323,0.004177352
1.017008,-0.08552211,-0.1765002,0.006247304,-0.001926463,0.01683318,0.01378009,7.437488e-05,0.002343312
1.014757,-0.08723894,-0.1750869,0.003969191,-0.003769435,0.01795195,0.01587793,-0.004659881,0.003305383
1.011701,-0.0896338,-0.1699387,0.0008851373,-0.006284394,0.02280679,0.02233955,-0.007627347,0.002415133
1.01131,-0.08925106,-0.1712776,0.0004650114,-0.006015569,0.02117536,0.02651239,-0.006362644,0.002192316
1.014082,-0.08645028,-0.1802198,0.003205967,-0.003322378,0.01194098,0.02540011,-0.007765403,0.003468439
1.011788,-0.08440713,-0.1853476,0.000880745,-0.001380422,0.00652151,0.02971523,-0.008433362,0.003280152
1.012244,-0.08270085,-0.1828305,0.001304438,0.0002309981,0.008747428,0.02898257,-0.01164447,0.000925967
1.016113,-0.08475507,-0.1780624,0.005140481,-0.001911893,0.01322537,0.03000554,-0.01338277,-0.00112117
1.021113,-0.08699206,-0.1764651,0.01010606,-0.004231498,0.01453356,0.03517983,-0.003774485,-0.0009174934
1.028061,-0.08534003,-0.1836937,0.01701866,-0.002656115,0.00701712,0.03000284,0.004746074,-0.0008781756
1.018914,-0.08626475,-0.189473,0.007833943,-0.003651556,0.0009511927,0.02383343,-0.002028583,0.001157522
1.004393,-0.08645144,-0.1840904,-0.006725167,-0.003903109,0.006048967,0.02142901,-0.008752571,0.00412175
1.005286,-0.08442504,-0.1746795,-0.00587373,-0.001935793,0.01517726,0.02152818,0.001676294,0.001805835
1.009883,-0.08503481,-0.1708947,-0.001317985,-0.002598957,0.01868153,0.02745965,0.01119884,-0.001061278
1.013493,-0.08486495,-0.1709361,0.002249094,-0.002476962,0.0183617,0.0299494,0.01043261,-0.004787133
1.015971,-0.08690615,-0.1678792,0.004683472,-0.004560601,0.02114179,0.03013241,0.007856724,-0.009589726
1.01672,-0.09118664,-0.166585,0.005387683,-0.008878193,0.02216045,0.03559893,-0.001036703,-0.008248455
1.018361,-0.09198657,-0.1714634,0.006983175,-0.009709821,0.01700746,0.04011554,-0.01171223,-0.007080476
1.018851,-0.09065643,-0.181725,0.007427615,-0.008405848,0.006471833,0.04061841,-0.01664764,-0.006279939
1.023771,-0.08779968,-0.1906369,0.01229981,-0.005569623,-0.002713345,0.04527571,-0.0106958,-0.00233235
1.030187,-0.08658421,-0.1920834,0.0186671,-0.004369014,-0.004431835,0.05304308,0.001823905,-0.00319209
1.027324,-0.08638207,-0.1915907,0.01575283,-0.004176175,-0.004209074,0.04775342,0.002866736,-0.00639603
1.015475,-0.08577283,-0.1900234,0.003851247,-0.003570823,-0.002908758,0.03669854,-0.001878506,-0.007638414
1.003187,-0.08797807,-0.1867952,-0.008492921,-0.005774719,5.593152e-05,0.03700377,-0.005415434,-0.008146114
1.002544,-0.08771381,-0.1820725,-0.009194207,-0.005504025,0.004519128,0.03784198,-0.007994715,-0.007818252
1.006279,-0.0846503,-0.1770106,-0.005518916,-0.002429095,0.00932598,0.03650404,-0.003618804,-0.007779851
1.00363,-0.08273161,-0.17586,-0.008228286,-0.0004942308,0.01022588,0.0357543,-0.001582642,-0.005472003
1.006148,-0.08141024,-0.1770024,-0.005770817,0.0008477916,0.008837049,0.03045753,-0.0045162,-0.003191424
1.012604,-0.08280879,-0.1812244,0.000624477,-0.00052602,0.004372916,0.02939995,-0.01000306,-0.006049792
1.014966,-0.08367222,-0.1845692,0.002926453,-0.001360965,0.0007901857,0.03268461,-0.01852784,-0.008631536
1.017922,-0.08127343,-0.1825149,0.005822583,0.001069719,0.002610927,0.03419711,-0.02124796,-0.007530178
1.01856,-0.08011013,-0.181185,0.006401875,0.002267986,0.003711927,0.03336529,-0.01959136,-0.007636476
1.017457,-0.08143662,-0.1818458,0.005240609,0.000979148,0.002826914,0.02830563,-0.01446832,-0.01032464
1.016631,-0.0824812,-0.1810623,0.004356009,-2.545551e-05,0.003391074,0.02543613,-0.005741337,-0.01101717
1.010414,-0.08152881,-0.1779881,-0.001919753,0.0009689192,0.006250923,0.02536032,-0.002686721,-0.006869123
1.002068,-0.07991895,-0.1751663,-0.01032472,0.002622468,0.008863207,0.02580482,-0.005060028,-0.002770922
0.9982872,-0.07905089,-0.1706998,-0.01416265,0.003535589,0.01312492,0.0310685,-0.01663064,-0.005354882
1.002001,-0.07992237,-0.1647864,-0.01050478,0.002710165,0.01883785,0.03508492,-0.0331414,-0.01009558
1.006364,-0.08190128,-0.1657633,-0.00619673,0.0007779655,0.01766423,0.02734523,-0.03018572,-0.0107
1.005641,-0.08154407,-0.1690061,-0.006970924,0.001182285,0.01422795,0.01857819,-0.02415061,-0.01056074
1.008237,-0.08086539,-0.1714063,-0.004424572,0.001908229,0.01163691,0.02694703,-0.03530684,-0.009245546
1.014185,-0.08229083,-0.1800365,0.001477694,0.0005300127,0.002818188,0.03258637,-0.03412648,-0.006121416
1.019038,-0.08240683,-0.1879345,0.0062868,0.0004609955,-0.005266025,0.01844567,-0.0220315,-0.006193976
1.020662,-0.08226086,-0.1893237,0.007870334,0.0006535739,-0.006838714,0.007371517,-0.01433863,-0.009609477
1.017637,-0.08291997,-0.1878319,0.00480733,4.057022e-05,-0.005527081,0.00601304,-0.006181218,-0.01286993
1.016599,-0.0818013,-0.1805358,0.003732982,0.001204727,0.00159268,0.006411636,-0.008048284,-0.01040445
1.015627,-0.08148213,-0.1735609,0.002726123,0.001568648,0.008395177,0.009754316,-0.007012986,-0.006179725
1.012691,-0.08204654,-0.1748844,-0.0002432221,0.001048118,0.006903425,0.01274671,-0.0027828,-0.00713425
1.011971,-0.07984239,-0.1715242,-0.0009959189,0.003295147,0.0100991,0.01057374,-0.008583982,-0.006099891
1.010533,-0.07774113,-0.164688,-0.002464689,0.00543811,0.01677444,0.006301811,-0.007774393,-0.004369826
1.009328,-0.07828393,-0.1705022,-0.003698292,0.004935607,0.01080229,0.0075322,-0.01281654,-0.006413246
1.009803,-0.07865123,-0.1773868,-0.003251575,0.004606921,0.003762493,0.009484082,-0.02342858,-0.007139401
1.010877,-0.07765615,-0.1756221,-0.002203653,0.005638711,0.00537439,0.01125686,-0.02180022,-0.008309595
1.012422,-0.07738182,-0.17734,-0.0006820482,0.005947603,0.00350609,0.01487981,-0.01911292,-0.009931318
1.012615,-0.07864783,-0.1785648,-0.0005117861,0.004713784,0.002133461,0.01144895,-0.01489638,-0.009905763
1.012933,-0.08044784,-0.1747841,-0.0002145277,0.002943428,0.005768686,0.00981827,-0.01452129,-0.009704301
1.014393,-0.08233879,-0.1764509,0.001226875,0.0010795,0.003959011,0.01268691,-0.01360539,-0.007798882
1.016636,-0.08094718,-0.1773944,0.003452123,0.002495486,0.002875194,0.01047181,-0.001311155,-0.00494167
1.017371,-0.07593069,-0.1755594,0.004171395,0.007533701,0.00457231,0.007876286,0.003066903,-0.003652625
1.015946,-0.0742484,-0.1792277,0.002732007,0.009234934,0.0007686752,0.004184038,-0.0002560008,-0.004533082
1.015892,-0.07615596,-0.1811635,0.002664155,0.007343291,-0.001299919,0.002656062,-0.002612266,-0.005836476
1.015234,-0.07772617,-0.1799907,0.001992966,0.005785756,-0.0002571185,0.003581229,-0.005215881,-0.006795363
1.014622,-0.07815071,-0.1773816,0.001368789,0.005370495,0.002224967,0.001666155,-0.006652183,-0.009630512
1.014726,-0.07750822,-0.1750251,0.00146096,0.006018782,0.004457342,0.005909645,-0.01065518,-0.01141982
1.012125,-0.07783129,-0.1779616,-0.001151359,0.005697971,0.001399774,0.009393804,-0.01203711,-0.0079837
1.010418,-0.07756459,-0.1775982,-0.002869534,0.00596335,0.001645064,0.003836098,-0.01026649,-0.003987916
1.01047,-0.07574295,-0.173554,-0.0028278,0.007780031,0.00557407,0.002000786,-0.0108155,-0.005487479
1.010956,-0.07468787,-0.1716784,-0.002351462,0.008826437,0.007337404,0.009380997,-0.01276616,-0.00804477
1.011868,-0.07466383,-0.171647,-0.001448966,0.008837961,0.007259107,0.01707062,-0.01444455,-0.007194689
1.011999,-0.07538966,-0.1739988,-0.001326069,0.008095641,0.004800115,0.01528228,-0.0107579,-0.006503595
1.01483,-0.0749429,-0.1749185,0.001498604,0.00852183,0.003775308,0.01363714,-0.004463129,-0.006244837
1.018109,-0.07507727,-0.1794691,0.004771105,0.008362735,-0.0008782015,0.02000301,-0.001657603,-0.006693681
1.018369,-0.07718334,-0.1861929,0.005024759,0.006227731,-0.007702709,0.02260881,-0.002033576,-0.007773311
1.019071,-0.07768914,-0.1853498,0.005721396,0.005688803,-0.006957674,0.0228754,-0.002774827,-0.007712399
1.019588,-0.07588367,-0.1854065,0.006233293,0.007457008,-0.007109608,0.02879259,-0.001075364,-0.009304045
1.018957,-0.07243758,-0.1865006,0.005596798,0.01086173,-0.008295574,0.03433258,0.001084823,-0.00994838
1.01661,-0.07102151,-0.1823342,0.003244178,0.01223228,-0.00421723,0.03001104,0.001928998,-0.008880572
1.013407,-0.07097278,-0.180764,3.400468e-05,0.01223119,-0.002731126,0.02284184,-0.002311468,-0.009812532
1.013128,-0.06911867,-0.1821406,-0.0002519547,0.01403099,-0.004187592,0.02525619,-0.008730117,-0.01151813
1.012351,-0.07088766,-0.1801073,-0.001037052,0.012203,-0.002229975,0.02623131,-0.006705633,-0.01513252
1.009509,-0.07342959,-0.1762548,-0.003888111,0.009597253,0.001551238,0.02442991,-0.003163578,-0.01710769
1.009188,-0.07198638,-0.1725901,-0.004217087,0.01097176,0.005148812,0.02924746,-0.004950223,-0.01407992
1.010318,-0.07117727,-0.1695089,-0.00309618,0.01170726,0.008166776,0.03001424,-0.005491982,-0.01132771
1.010913,-0.06903119,-0.1726512,-0.002510644,0.01377482,0.004964661,0.02549604,-0.006002585,-0.009857496
1.012979,-0.065402,-0.1826004,-0.000452954,0.01732044,-0.005041154,0.02080448,-0.006436811,-0.009251134
1.014777,-0.06655386,-0.189297,0.001336742,0.01607981,-0.01179121,0.01751267,-0.002755148,-0.007892227
1.013951,-0.06960352,-0.1845605,0.0005033958,0.01293595,-0.00710488,0.01827649,0.001148993,-0.004415428
1.014431,-0.07035906,-0.1752742,0.0009763338,0.01208071,0.002134865,0.01744654,0.006279805,-0.005119921
1.015945,-0.07118174,-0.1740241,0.002482497,0.01115282,0.003342104,0.01666281,0.01308304,-0.008850746
1.015719,-0.07068645,-0.1705843,0.002250077,0.01153748,0.006742379,0.01633504,0.01349422,-0.01009488
1.017724,-0.06854742,-0.162059,0.004247468,0.01356056,0.01523119,0.01427827,0.01582897,-0.01295253
1.020173,-0.06700929,-0.1649796,0.0066899,0.01497745,0.01227629,0.01303842,0.02706163,-0.01511834
1.017476,-0.06313345,-0.1685069,0.003985139,0.01872673,0.008716419,0.007106491,0.02732474,-0.01125975
1.013716,-0.05902574,-0.1671497,0.0002172956,0.02270243,0.01004204,0.00144212,0.008494328,-0.007609348
1.013514,-0.06051175,-0.1703922,6.130811e-06,0.02107866,0.00676845,0.003823542,-0.01192842,-0.006688992
1.014481,-0.0674194,-0.1689866,0.0009645075,0.01402725,0.008143125,0.008704124,-0.015534,-0.004968739
1.015954,-0.07286252,-0.1666811,0.002427158,0.008434305,0.01041743,0.01403832,-0.005611251,-0.003326507
1.019003,-0.07022352,-0.1692149,0.005466435,0.01091764,0.007852009,0.01915591,-0.00219724,-0.0005332871
1.020053,-0.06696746,-0.1691855,0.006505394,0.01401248,0.0078488,0.02093729,-0.002644017,0.00362897
1.017585,-0.06844001,-0.1685708,0.004025268,0.01237338,0.008429788,0.02157889,-0.003307561,0.0001898041
1.014061,-0.06877447,-0.1672031,0.0004884669,0.01186723,0.009762416,0.02379223,-0.01112557,-0.006011439
1.01189,-0.07028856,-0.1663713,-0.001696941,0.01017653,0.01055735,0.02296959,-0.01259979,-0.003071725
1.013945,-0.07324101,-0.1674671,0.0003437213,0.007042836,0.009422841,0.02230387,-0.007538027,-0.003415385
1.016537,-0.0711687,-0.1666992,0.002919204,0.008929633,0.01014968,0.02441979,-0.005110525,-0.006768828
1.01513,-0.06766586,-0.1691634,0.001495932,0.01224307,0.00764208,0.02168367,-0.002633684,7.781097e-05
1.014374,-0.06599274,-0.1722959,0.0007222102,0.01372313,0.00446349,0.01976911,-0.005179536,0.004123138
1.014087,-0.06374519,-0.1703387,0.0004171242,0.0157741,0.006372018,0.01706589,-0.01179205,0.0007004227
1.011694,-0.06397929,-0.1688804,-0.001994581,0.01533995,0.007779094,0.01122489,-0.01447288,-0.0005201342
1.012167,-0.06700907,-0.1660642,-0.001540502,0.01210669,0.01054135,0.01287728,-0.008819593,0.001180273
1.013069,-0.06864731,-0.1623778,-0.000658048,0.01026165,0.01417103,0.0131095,-0.004201882,0.004285518
1.011258,-0.06819614,-0.1641361,-0.002489067,0.01050288,0.01235304,0.01108059,-0.008838918,0.006203803
1.012166,-0.06615547,-0.1664449,-0.001600456,0.01233073,0.009981146,0.01264124,-0.01162819,0.006023563
1.014727,-0.06382205,-0.1664685,0.0009402352,0.01444865,0.009891026,0.01116361,-0.01325981,0.003670616
1.016107,-0.06221268,-0.1658886,0.002300529,0.01583992,0.01040081,0.01260964,-0.01220657,0.001759065
1.017258,-0.06465082,-0.1635964,0.00343203,0.01318112,0.01261931,0.01827515,-0.004307383,-0.0007997105
1.018517,-0.07109021,-0.1616148,0.004671781,0.006518599,0.01452328,0.02264782,0.003510878,-0.006127017
1.020135,-0.07290434,-0.1596642,0.00627063,0.004479161,0.01639234,0.0233124,0.01276868,-0.006081446
1.020141,-0.06907758,-0.1545532,0.006255974,0.008078852,0.02141742,0.02418264,0.01147941,-0.004065293
1.018581,-0.06516954,-0.1497925,0.004675309,0.01175844,0.02608746,0.03049445,0.003112818,-0.002695194
1.01575,-0.06413484,-0.151149,0.001823518,0.01256355,0.02463498,0.02741519,0.001774796,0.003514334
1.012623,-0.06409756,-0.1551191,-0.001326132,0.01237021,0.02056301,0.01726445,-0.01369748,0.004841775
1.012728,-0.06180943,-0.1552259,-0.00124374,0.01442674,0.02034782,0.01549297,-0.03040254,0.00248534
1.012899,-0.06258235,-0.1553746,-0.00109594,0.01342125,0.02008404,0.01864703,-0.01960082,0.005126527
1.012352,-0.06618415,-0.1601598,-0.001666803,0.009585956,0.0151768,0.0252336,-0.006757232,0.005792513
1.014491,-0.067632,-0.1658687,0.000448615,0.007903796,0.009338895,0.02609596,-0.008063826,0.004288691
1.016298,-0.06766931,-0.1690882,0.002230813,0.007631584,0.005983666,0.02247975,-0.007948588,0.003247323
1.017027,-0.0652649,-0.1717413,0.002936275,0.009800759,0.003188477,0.02478419,-0.005681525,-0.001668899
1.018379,-0.06457869,-0.1754147,0.004263541,0.01025162,-0.0006326251,0.02346105,-0.00830787,-0.004763113
1.018424,-0.06594349,-0.1723666,0.004284213,0.008651519,0.002262747,0.02289525,-0.01440738,0.001253306
1.017649,-0.06493648,-0.1649537,0.003483717,0.00942342,0.009518532,0.02512715,-0.02134089,0.007424862
1.017434,-0.06508067,-0.1662674,0.003243349,0.009044466,0.00804391,0.02378589,-0.02068544,0.005146069
1.014678,-0.06447498,-0.1666105,0.0004616909,0.00941589,0.00753637,0.02398733,-0.01458448,0.003333723
1.011131,-0.06237203,-0.160572,-0.003112214,0.01128518,0.01340719,0.01912642,-0.01666224,0.005989631
1.012955,-0.06275539,-0.1618165,-0.001315763,0.01066884,0.01199186,0.01392469,-0.01885208,0.006056216
1.016923,-0.06427311,-0.1679235,0.002625132,0.00891886,0.005711027,0.01624719,-0.01864993,0.007886722
1.018575,-0.06640427,-0.1680065,0.004249904,0.006556247,0.005451495,0.0165228,-0.02349256,0.01107735
1.018344,-0.06820726,-0.163311,0.003991166,0.004522799,0.009967972,0.01640703,-0.02579035,0.009592042
1.01665,-0.06953172,-0.1635183,0.002269906,0.002969124,0.009579481,0.01801936,-0.02581678,0.01072147
1.016605,-0.06925168,-0.1657952,0.002196913,0.003021542,0.007119392,0.01790622,-0.02316439,0.01223516
1.018011,-0.0671126,-0.1644285,0.003574293,0.004934917,0.008301136,0.01682178,-0.01788164,0.01068213
1.018797,-0.06769395,-0.1649037,0.004330955,0.004130063,0.007639482,0.01612359,-0.01616107,0.01200896
1.019067,-0.06670321,-0.1636879,0.004571186,0.004899715,0.008667414,0.01497188,-0.01509502,0.01214627
1.017712,-0.06318181,-0.1631115,0.003185906,0.00820262,0.009054795,0.01233417,-0.01829887,0.01085629
1.017848,-0.06426397,-0.1658848,0.003291625,0.006904634,0.006091605,0.01252854,-0.02132625,0.009937424
1.019527,-0.06785383,-0.1675955,0.004938691,0.003101689,0.004190166,0.01648192,-0.01411528,0.007119503
1.019188,-0.07299231,-0.1722853,0.004567362,-0.002247002,-0.0006907973,0.02275035,-0.008663224,0.005978739
1.018653,-0.07635834,-0.1718872,0.003999032,-0.005820012,-0.0004837942,0.02780507,-0.01286444,0.006245621
1.017838,-0.07216938,-0.1689888,0.003149158,-0.001834335,0.002223897,0.03032526,-0.01485468,0.006775423
1.017005,-0.06904738,-0.1720523,0.002281297,0.001088541,-0.001029264,0.03182639,-0.006582145,0.009119611
1.014968,-0.06984391,-0.170881,0.0002081518,9.731748e-05,-4.614479e-05,0.02209991,-0.002474518,0.01189267
1.01113,-0.06683768,-0.1710376,-0.003667357,0.002913495,-0.000389159,0.01214976,-0.0143044,0.0129673
1.012386,-0.06458575,-0.1727334,-0.002449388,0.004980072,-0.00226919,0.02128175,-0.02545223,0.01157189
1.015931,-0.06915912,-0.1680291,0.001057911,0.0002260783,0.002253533,0.02941584,-0.02093598,0.009798156
1.017764,-0.07338468,-0.1656268,0.002852556,-0.004175333,0.004477218,0.02519123,-0.009853462,0.00906954
1.020178,-0.07237622,-0.1661755,0.005228559,-0.003337735,0.003752815,0.02289623,-0.004237183,0.009356234
1.017808,-0.07167384,-0.1647666,0.002819565,-0.002800974,0.004989181,0.02198324,-0.00395428,0.009920726
1.014277,-0.07224301,-0.1606118,-0.0007500544,-0.003530274,0.008974538,0.02063607,-0.006279692,0.01003348
1.015526,-0.06984239,-0.1583156,0.0004595978,-0.001284091,0.01110416,0.02544116,-0.00734173,0.0100392
1.015254,-0.06605914,-0.1604949,0.0001492365,0.002350499,0.008761135,0.02975422,-0.008181453,0.008781339
1.01387,-0.06534386,-0.1619856,-0.001274761,0.002922885,0.007109055,0.0267349,-0.01301676,0.007839031
1.013064,-0.07006902,-0.1671983,-0.002118889,-0.001939528,0.001737436,0.02317275,-0.01640913,0.008584647
1.0119,-0.07544496,-0.1727542,-0.0033222,-0.007447084,-0.003975071,0.02151141,-0.01882096,0.008431289
1.012826,-0.07398137,-0.1680607,-0.002434392,-0.00610933,0.0005646037,0.02253296,-0.01897018,0.008094013
1.013785,-0.07085413,-0.1631354,-0.001512807,-0.003101919,0.00533889,0.0263852,-0.01409937,0.008341837
1.014902,-0.07232452,-0.1665565,-0.0004321596,-0.00468599,0.001769819,0.02712757,-0.01070378,0.008488276
1.016806,-0.07315096,-0.1720744,0.001436951,-0.005619866,-0.003892896,0.02613245,-0.008212198,0.009803451
1.016568,-0.07344681,-0.1737122,0.001163943,-0.00601681,-0.005672264,0.02557402,-0.00942289,0.01089603
1.015712,-0.07576208,-0.1684017,0.00027395,-0.008426709,-0.0004997891,0.02367715,-0.01067921,0.01045746
1.015449,-0.07516076,-0.1619527,-2.142036e-05,-0.00791339,0.005815101,0.0211011,-0.008516503,0.01089349
1.016826,-0.07340274,-0.1635291,0.00132423,-0.006236593,0.004108479,0.0189183,-0.01086221,0.01248084
1.019119,-0.07362056,-0.1663356,0.003585865,-0.006528759,0.001175404,0.02005792,-0.01168143,0.01407302
1.019346,-0.07258468,-0.1653116,0.003783374,-0.005560307,0.002076496,0.02277712,-0.01531211,0.01532701
1.021027,-0.07258761,-0.1657236,0.005434841,-0.005623754,0.001545195,0.02344399,-0.02063382,0.01336486
1.022933,-0.07594017,-0.1624063,0.007311974,-0.009029936,0.00474686,0.02329555,-0.01293033,0.008211563
1.019944,-0.0784488,-0.1579226,0.004294221,-0.01158526,0.009118213,0.02238003,-0.006097494,0.005049691
1.016695,-0.07646173,-0.1604782,0.001016157,-0.009637829,0.006453504,0.02271541,-0.008032318,0.006101161
1.016718,-0.07379324,-0.1635599,0.001009943,-0.007001817,0.003265675,0.02506932,-0.009003869,0.008701515
1.018447,-0.07603632,-0.163565,0.002710715,-0.009270182,0.003157036,0.02593449,-0.0093109,0.008556607
1.019963,-0.07734741,-0.1594984,0.004197712,-0.01059938,0.007122683,0.02315562,-0.01319856,0.007563389
1.018325,-0.0755346,-0.1554298,0.002529714,-0.008797476,0.01109277,0.01770511,-0.01602595,0.009749138
1.01553,-0.07568426,-0.1590436,-0.0002946826,-0.008950838,0.007382487,0.01573814,-0.01018632,0.01068925
1.014959,-0.07474688,-0.1629136,-0.0008952433,-0.008010025,0.003417646,0.01602795,-0.0047885,0.009611165
1.015239,-0.07344419,-0.1625792,-0.0006448594,-0.006696843,0.003658888,0.01294089,-0.004559998,0.01019316
1.015044,-0.07265096,-0.1622858,-0.0008699784,-0.005886242,0.00386067,0.009133846,-0.00259355,0.0111024
1.013489,-0.06975413,-0.1610683,-0.002454012,-0.002965384,0.004987873,0.004716953,-0.004067116,0.0117087
1.011832,-0.06896166,-0.1581488,-0.004140731,-0.002142545,0.007818503,0.00265784,-0.01517853,0.01137681
1.012785,-0.07031887,-0.156404,-0.003216067,-0.003463439,0.009475537,0.006524326,-0.02791748,0.01056184
1.014639,-0.07314706,-0.1591241,-0.001390368,-0.006249733,0.006668621,0.009743465,-0.03037437,0.01002771
1.015573,-0.07707971,-0.1638465,-0.0004839872,-0.01013516,0.001860044,0.009581304,-0.03086229,0.009709993
1.016064,-0.07696119,-0.166882,-1.896484e-05,-0.009964175,-0.001260929,0.007823961,-0.03638691,0.0126999
1.017649,-0.07591392,-0.1698001,0.00154131,-0.008859268,-0.004263702,0.005861452,-0.03144073,0.01554701
1.019621,-0.07752707,-0.1713225,0.003488567,-0.01040963,-0.005869599,0.003758208,-0.02130435,0.0137105
1.016173,-0.07817351,-0.1681911,1.726235e-05,-0.01098819,-0.002820282,-0.001582842,-0.02078095,0.01130568
1.011048,-0.07781654,-0.1626471,-0.005130449,-0.01055823,0.002643528,-0.007982982,-0.02163857,0.01082108
1.012259,-0.0786259,-0.1598112,-0.003941231,-0.01128952,0.00540104,-0.009038422,-0.02145856,0.01059609
1.0137,-0.07935886,-0.1611593,-0.002520926,-0.01193935,0.003976404,-0.006097738,-0.02205602,0.009302191
1.013624,-0.0779541,-0.1628544,-0.002616871,-0.0104464,0.002206443,-0.004519715,-0.02094324,0.01001154
1.016014,-0.07588235,-0.1632528,-0.0002447655,-0.008281452,0.001734717,-0.001009786,-0.02006951,0.01177877
1.0157,-0.07680175,-0.1636704,-0.000575546,-0.009102774,0.001245368,0.003981939,-0.01580457,0.009139791
1.015023,-0.08098722,-0.1614564,-0.001268125,-0.01318541,0.003389133,0.00447127,-0.01139331,0.00673056
1.018477,-0.08357986,-0.1588167,0.002171569,-0.01567049,0.005960205,0.00414653,-0.01295867,0.006153928
1.020037,-0.08346301,-0.1614657,0.003719033,-0.01544131,0.003243826,0.004532759,-0.0122774,0.006432495
1.017863,-0.08484772,-0.1636938,0.001532518,-0.01670874,0.0009496466,0.006028527,-0.008057776,0.01001324
1.01397,-0.08544528,-0.1621585,-0.002371668,-0.01718394,0.002420013,0.009799559,-0.007301058,0.00921193
1.011346,-0.08406354,-0.1622562,-0.005005417,-0.0156746,0.002258675,0.01173293,-0.008039826,0.005785549
1.012457,-0.08396328,-0.1632218,-0.003904271,-0.01544139,0.00123047,0.01468845,-0.005113974,0.005792268
1.013011,-0.08058453,-0.1640752,-0.003357343,-0.01192429,0.000315693,0.01725516,-0.002537934,0.002495203
1.012141,-0.07611894,-0.1663667,-0.004234286,-0.007315068,-0.002035914,0.0134346,-0.004262075,-0.001125256
1.012537,-0.07863434,-0.1682852,-0.003844081,-0.009681771,-0.00401322,0.009842881,-0.006712847,-0.00129223
1.013197,-0.08169798,-0.1690063,-0.003187553,-0.01259195,-0.004791549,0.01090134,-0.01019264,-0.0006364627
1.015544,-0.08164174,-0.1664647,-0.00084312,-0.01237769,-0.002305401,0.01020685,-0.01086696,0.002601465
1.020233,-0.08208927,-0.1626201,0.003845385,-0.01266278,0.001485775,0.007028988,-0.009455511,0.005640801
1.022018,-0.08028095,-0.165266,0.005631806,-0.01068771,-0.001211535,0.007215663,-0.012955,0.004370927
1.020074,-0.0787452,-0.1684383,0.003689343,-0.008981115,-0.004433273,0.004487884,-0.01316229,-0.0009195795
1.018097,-0.07898674,-0.1670826,0.001714922,-0.009047944,-0.003124707,-0.005845376,-0.01392335,-0.004927826
1.01435,-0.07534075,-0.1716807,-0.002028436,-0.005223674,-0.007767695,-0.01372365,-0.01878426,-0.002032739
1.010926,-0.07230746,-0.1768475,-0.005448952,-0.002008941,-0.01297676,-0.01780766,-0.01302503,0.001598313
1.012165,-0.07313376,-0.1710957,-0.004205187,-0.002651154,-0.007264171,-0.025284,-0.006299108,-2.962393e-05
1.011479,-0.07133389,-0.1625634,-0.004885999,-0.0006651182,0.001232321,-0.037037,-0.007664387,0.0009999625
1.008675,-0.06907635,-0.1587567,-0.007683216,0.001780082,0.005006478,-0.04527123,-0.007498839,0.00542415
1.010961,-0.07269719,-0.1608089,-0.005389657,-0.001652234,0.002924838,-0.04618614,-0.007041185,0.00541673
1.013811,-0.07683577,-0.1684858,-0.002531152,-0.005601956,-0.004778597,-0.0475429,-0.008427136,0.007385096
1.013945,-0.07504546,-0.1744232,-0.002386135,-0.003622845,-0.01073978,-0.05027791,-0.0139116,0.01225985
1.014119,-0.07400599,-0.1729648,-0.002199783,-0.002394951,-0.009302235,-0.05480321,-0.01917866,0.01343848
1.013891,-0.07587165,-0.1709148,-0.002414332,-0.004072858,-0.007269752,-0.06553357,-0.01004985,0.01479706
1.015073,-0.07386283,-0.1743065,-0.001217872,-0.001877271,-0.01067534,-0.07456085,0.006290307,0.01193738
1.017586,-0.07019918,-0.1769644,0.001311818,0.001971848,-0.01334343,-0.07840391,0.01097508,0.005741785
1.017737,-0.06763097,-0.176925,0.001480688,0.004723803,-0.01330997,-0.08133157,0.003604281,0.007971585
1.01461,-0.06900234,-0.1741244,-0.001627648,0.00353393,-0.01051081,-0.0807965,-0.005983096,0.01211061
1.011686,-0.07403125,-0.1687915,-0.004532515,-0.001316209,-0.005174473,-0.08019168,-0.01277332,0.01276545
1.014999,-0.07518791,-0.1708242,-0.00119844,-0.002297197,-0.007198981,-0.08215318,-0.01449253,0.01537506
1.019377,-0.07725698,-0.175333,0.003201459,-0.004193866,-0.01169466,-0.08374072,-0.01322621,0.01700806
1.017265,-0.07929807,-0.1754508,0.001112077,-0.006065887,-0.01179435,-0.08664421,-0.01492023,0.01802219
1.013983,-0.07653159,-0.1772456,-0.002147286,-0.003133651,-0.01356589,-0.08421763,-0.01717366,0.02217436
1.01196,-0.07717775,-0.1759182,-0.004147066,-0.003617371,-0.01220989,-0.07974024,-0.01637062,0.02785211
1.011747,-0.07782046,-0.1727229,-0.004335281,-0.004100946,-0.008980418,-0.08425012,-0.01891387,0.03413668
1.013375,-0.07832037,-0.1714597,-0.002682959,-0.004445031,-0.007677572,-0.08703969,-0.02753099,0.03481459
1.012606,-0.08218967,-0.1696738,-0.003426659,-0.008161758,-0.005846476,-0.0829622,-0.03416884,0.03004401
1.014784,-0.08209956,-0.1713295,-0.001222583,-0.007922196,-0.007451664,-0.07224355,-0.03225073,0.02545957
1.0213,-0.08211383,-0.1703318,0.005320886,-0.007789917,-0.006398251,-0.05739831,-0.02475156,0.01748894
1.025093,-0.08407233,-0.1654829,0.00914165,-0.009604542,-0.001488704,-0.0487207,-0.01917079,0.01502439
1.025243,-0.08534067,-0.1647751,0.009319014,-0.01073143,-0.0007156669,-0.03327623,-0.01700779,0.01791982
1.02176,-0.08800958,-0.1704821,0.005863231,-0.013261,-0.006353063,-0.01297402,-0.01297731,0.01220661
1.018889,-0.08896759,-0.1798484,0.003017415,-0.01408137,-0.01564591,-0.008148637,-0.00628636,0.007274315
1.017969,-0.08836755,-0.1791977,0.002122843,-0.01334498,-0.01491762,-0.003945378,-0.00184198,0.004956011
1.011814,-0.08668749,-0.1747927,-0.004008745,-0.01152944,-0.01043092,0.003022683,0.000408303,0.002522165
1.003523,-0.08475545,-0.1756208,-0.01227688,-0.009462464,-0.01117285,0.00261392,0.0008565533,0.004274209
1.002625,-0.08193594,-0.1705146,-0.01315308,-0.006508361,-0.005976174,0.008891306,-0.00326855,0.001690442
1.006702,-0.07717327,-0.1694792,-0.009054792,-0.00161139,-0.004846087,0.01608367,-0.01038626,0.0005055599
1.00937,-0.07789515,-0.1754848,-0.006364417,-0.002199378,-0.01075299,0.01883217,-0.01727768,0.001405081
1.017445,-0.08109891,-0.178821,0.001732844,-0.005269837,-0.01398668,0.02638045,-0.01452811,-0.003058044
1.027671,-0.08216973,-0.1838817,0.01198229,-0.006208066,-0.01894081,0.03107449,0.001662978,-0.004159753
1.024593,-0.08248125,-0.1887904,0.0089278,-0.006387759,-0.02373883,0.03690765,0.0221052,-0.00512137
1.016248,-0.08014132,-0.1924121,0.0006068682,-0.00391675,-0.027245,0.03586221,0.03574741,-0.005956439
1.010782,-0.07951965,-0.186611,-0.004837151,-0.003164806,-0.02132322,0.02164852,0.019284,-0.003591091
1.006458,-0.07962845,-0.170099,-0.009138409,-0.003144239,-0.004684683,0.02043646,-0.01570824,-0.00155349
1.006458,-0.08031888,-0.1581894,-0.009116372,-0.003706305,0.007356894,0.0267135,-0.04199764,0.003606293
1.003876,-0.08316662,-0.1533609,-0.01167676,-0.006426786,0.01232231,0.03106495,-0.0786962,0.005692929
1.002695,-0.08220842,-0.1663798,-0.01283437,-0.005342451,-0.0005560167,0.03459334,-0.09531367,0.006854917
1.012209,-0.08314049,-0.1866001,-0.003296498,-0.006149474,-0.02063274,0.02942522,-0.06086566,0.008124245
1.020487,-0.08597082,-0.1856339,0.005006324,-0.008855788,-0.0195202,0.0287753,-0.02819288,0.0002951456
1.02134,-0.08411759,-0.1787512,0.005886227,-0.006879477,-0.01248812,0.02941438,-0.01043084,-0.003871283
1.022126,-0.08299088,-0.1771117,0.006699765,-0.005630501,-0.01069599,0.02622565,0.004538551,-0.00208063
1.024905,-0.08320061,-0.1757179,0.009506118,-0.00571871,-0.009146283,0.02418788,0.01027061,-0.005135089
1.020813,-0.08304377,-0.1727232,0.005441716,-0.005441098,-0.005992698,0.01251373,0.01445458,-0.009589299
1.013488,-0.08209723,-0.1658998,-0.00185658,-0.004374511,0.0009924841,0.002191901,0.01306294,-0.01198975
1.016491,-0.08111913,-0.1695519,0.001172321,-0.00327713,-0.002495629,0.002256672,0.01317442,-0.01273631
1.016593,-0.08281932,-0.1772215,0.001299817,-0.004858851,-0.009999489,0.003005421,0.02213866,-0.0152351
1.00851,-0.08331448,-0.1759302,-0.006758637,-0.005236403,-0.008540799,0.002298001,0.02679585,-0.01545079
1.00579,-0.08206094,-0.1746719,-0.009454108,-0.003866133,-0.007113825,0.003919179,0.02416813,-0.01202462
1.004977,-0.08048199,-0.1700582,-0.01024328,-0.002171372,-0.002330292,0.009183959,0.01839826,-0.01135212
1.005605,-0.07956949,-0.1670094,-0.009591868,-0.001144064,0.0008892623,0.00993661,0.01403927,-0.005193744
1.007177,-0.08129138,-0.1719322,-0.007994928,-0.002752291,-0.003862327,0.009212578,0.002321105,0.002059969
1.006959,-0.08064545,-0.1721908,-0.008188091,-0.001993961,-0.003949726,0.01131348,-0.01505307,-0.001940703
1.010143,-0.07985607,-0.1713734,-0.004976884,-0.001093563,-0.002961353,0.01482419,-0.01699104,-0.004763249
1.011835,-0.08132066,-0.1746743,-0.003257357,-0.002448612,-0.006091817,0.02079727,-0.01079585,-0.001079017
1.011038,-0.08016566,-0.1745788,-0.004024708,-0.001185672,-0.00582665,0.02064933,-0.005394639,-0.0002707556
1.011477,-0.08043423,-0.1753646,-0.003554445,-0.001347983,-0.006443528,0.02016417,0.005465504,-0.001274949
1.01267,-0.08103951,-0.1782844,-0.00232978,-0.001848774,-0.00919536,0.02280828,0.008509146,0.001111984
1.014941,-0.08017502,-0.1736597,-2.452545e-05,-0.0008816626,-0.004403559,0.02068721,-0.00587807,0.004331158
1.014993,-0.08253333,-0.1703645,6.163555e-05,-0.003139261,-0.0009423803,0.0243375,-0.02106673,0.004494537
1.01628,-0.08609441,-0.1809322,0.001384684,-0.006601569,-0.01134518,0.03584728,-0.02280084,0.001227109
1.019563,-0.09024853,-0.190181,0.004704455,-0.0106587,-0.02043015,0.04732675,-0.01328606,-0.004772208
1.020453,-0.09106904,-0.1867392,0.00563209,-0.01138373,-0.01682533,0.05748959,0.002440615,-0.01127684
1.021089,-0.08762086,-0.1837165,0.006305915,-0.0078412,-0.01363981,0.06707459,0.01916953,-0.01825646
1.019932,-0.08682441,-0.1869278,0.005186502,-0.006951218,-0.01668824,0.07425132,0.03292078,-0.02247862
1.018838,-0.08577191,-0.1896424,0.004128267,-0.005805816,-0.01923949,0.07324594,0.04578723,-0.02261481
1.019753,-0.08448133,-0.1889838,0.005079505,-0.004422843,-0.01841656,0.07332037,0.05702809,-0.02618669
1.019373,-0.08649152,-0.1793057,0.004733812,-0.006341069,-0.008572845,0.07646518,0.05960823,-0.02954589
1.019395,-0.08818528,-0.1640883,0.004788858,-0.007943235,0.006811553,0.07245981,0.06035411,-0.0288384
1.018477,-0.08771291,-0.1610664,0.003901717,-0.007379499,0.01000128,0.07124369,0.06605061,-0.03012122
1.01396,-0.08697586,-0.1653681,-0.0005852,-0.006551166,0.005867473,0.07359095,0.05987911,-0.03020072
1.010311,-0.08742562,-0.1649694,-0.004207215,-0.006909612,0.006433261,0.06912102,0.0503893,-0.02704331
1.013948,-0.08584106,-0.1686288,-0.0005436716,-0.005233616,0.002939359,0.05492938,0.05534597,-0.02587166
1.019049,-0.08343015,-0.1743799,0.004581432,-0.002731114,-0.002648229,0.03794896,0.05676626,-0.02720209
1.016499,-0.08275427,-0.1742999,0.002053251,-0.001963529,-0.002407108,0.04089902,0.0552671,-0.03144971
1.015515,-0.07984173,-0.1789124,0.001090477,0.00104069,-0.00686112,0.05281806,0.06136413,-0.03919166
1.01787,-0.07794866,-0.1879667,0.00346518,0.003025171,-0.01575935,0.05963428,0.07907646,-0.04309425
1.016134,-0.07865572,-0.1861929,0.001745979,0.002408944,-0.01383167,0.07670021,0.1182804,-0.04328901
1.016453,-0.07764278,-0.1839116,0.00208075,0.003511799,-0.01139833,0.07661562,0.1504113,-0.04836462
1.016053,-0.07721419,-0.1879007,0.001694343,0.004029042,-0.01523666,0.0494251,0.1494615,-0.04985477
1.008348,-0.07726301,-0.1774187,-0.005999133,0.004067281,-0.004605004,0.02673896,0.1242379,-0.04493219
0.9982355,-0.07654009,-0.1620877,-0.01610108,0.004875328,0.01087462,0.01105976,0.08620096,-0.04703324
0.9945369,-0.07883605,-0.1606929,-0.01979028,0.002662259,0.01241668,0.008160579,0.07598824,-0.05412233
1.005238,-0.08142415,-0.1602993,-0.009079343,0.0001545609,0.0129553,0.00674916,0.1156836,-0.05777914
1.018563,-0.07601063,-0.1499713,0.004254791,0.005645852,0.02342515,-0.004899065,0.1471799,-0.05235353
1.023212,-0.06011841,-0.1318898,0.008915001,0.02161292,0.04164407,-0.009136355,0.1336927,-0.03514349
1.02439,-0.04079968,-0.1194487,0.01010359,0.04100277,0.05421649,-0.02652203,0.1100644,-0.01224255
1.016695,-0.0349132,-0.1127817,0.002418995,0.04695518,0.06100627,-0.06480668,0.05654852,0.01217208
1.004517,-0.04693516,-0.1035838,-0.009748633,0.0349921,0.07031589,-0.09362125,-0.05353537,0.03226127
1.005245,-0.06237477,-0.1124058,-0.009010232,0.01960267,0.06159173,-0.09462603,-0.1053544,0.04220788
1.014474,-0.07721889,-0.1390024,0.0002293451,0.004799145,0.03507654,-0.08476222,-0.06475946,0.04499625
1.020641,-0.08476441,-0.1550844,0.006406001,-0.00271545,0.01905813,-0.09133395,-0.04445375,0.04599143
1.023125,-0.08060918,-0.1561465,0.008901095,0.001461452,0.01804136,-0.07740497,-0.03039775,0.04118498
1.02637,-0.08074163,-0.1490507,0.01215597,0.001342037,0.02516435,-0.04067081,0.004149836,0.02164525
1.029174,-0.07799257,-0.1421927,0.01496877,0.004096019,0.03203139,-0.02491952,0.02700335,0.003674684
1.021798,-0.06763878,-0.1382904,0.007600155,0.01444699,0.03592453,-0.02408464,0.05050295,0.006096839
1.012777,-0.06718731,-0.1325216,-0.001415106,0.01488799,0.04166543,-0.04423379,0.03112227,0.01610129
1.016734,-0.06992546,-0.1283894,0.002545922,0.01213164,0.04575053,-0.07144671,-0.006523001,0.02440005
1.019754,-0.07118272,-0.1287468,0.005567526,0.01084839,0.04532614,-0.08221875,-0.01821166,0.03241858
1.017855,-0.07322653,-0.1342418,0.003668139,0.008770822,0.03974351,-0.075777,-0.05395341,0.03634439
1.022813,-0.07235083,-0.1384534,0.008624347,0.009605133,0.03542337,-0.05287303,-0.05070966,0.03853401
1.026831,-0.07505639,-0.1395347,0.0126373,0.006850753,0.03421227,-0.04309857,-0.01846763,0.03932785
1.027604,-0.0783526,-0.142797,0.01340243,0.003498578,0.03079915,-0.02890527,-0.02706001,0.03452546
1.025711,-0.07819574,-0.1338333,0.0114992,0.003592697,0.03959109,-0.009534378,-0.004264604,0.03278319
1.017037,-0.07851615,-0.1208656,0.002811713,0.003203245,0.05236636,-0.01550048,0.008018274,0.03724928
1.012146,-0.07925917,-0.1234541,-0.002097202,0.00238535,0.04956419,-0.01905013,-0.0171954,0.0375378
1.012379,-0.07997766,-0.1236795,-0.001884921,0.001586652,0.0491038,-0.02291259,-0.02299505,0.03946475
1.013537,-0.08086137,-0.1209684,-0.0007499231,0.0006178892,0.05155787,-0.02059053,-0.04961874,0.04206796
1.019308,-0.08452802,-0.1273952,0.00499491,-0.003138098,0.04485203,-0.005106377,-0.0539462,0.03408104
1.025138,-0.0865218,-0.1331224,0.010796,-0.005224885,0.0388235,0.002900797,-0.0217729,0.02599026
1.026036,-0.08460383,-0.1348958,0.01166245,-0.003402873,0.03672689,0.02142154,-0.01317593,0.01965316
1.02405,-0.08368783,-0.1328058,0.009642965,-0.002585116,0.03847218,0.03438025,-0.001853326,0.01421016
1.022031,-0.08146157,-0.1292395,0.007587199,-0.0004587873,0.04167285,0.03407422,-0.007816728,0.01517425
1.016837,-0.07889062,-0.1321626,0.002352714,0.002010999,0.03836363,0.03551737,-0.02448975,0.01606273
1.012225,-0.07731818,-0.1349985,-0.002303267,0.003481383,0.03512166,0.02879433,-0.02299936,0.01956652
1.017852,-0.0771684,-0.1338556,0.003278191,0.003528424,0.03583923,0.02241162,-0.04258399,0.0222442
1.024521,-0.07858272,-0.1395556,0.009898636,0.002010864,0.0296953,0.01237672,-0.05328557,0.02043955
1.027706,-0.07743801,-0.1465281,0.01303194,0.003051982,0.02226128,0.005904466,-0.03614303,0.02252164
1.032666,-0.07771275,-0.1448179,0.01793745,0.002673492,0.0234935,0.009753357,-0.01794124,0.02269351
1.030211,-0.07977471,-0.1432472,0.01542545,0.0005077689,0.02457103,0.008622969,-0.008484158,0.02180477
1.01814,-0.08211702,-0.1442919,0.003293548,-0.001938082,0.02301915,0.01746201,-0.01999619,0.02452041
1.007251,-0.08773303,-0.1449873,-0.007660184,-0.007657088,0.02180385,0.03088434,-0.02839349,0.02312826
1.006282,-0.09154611,-0.150863,-0.008696729,-0.01157213,0.01539664,0.0362683,-0.02735224,0.01391829
1.016612,-0.09375592,-0.1580986,0.001563525,-0.01388216,0.00761933,0.04597502,-0.01956151,0.001200653
1.026011,-0.09523011,-0.1554104,0.01089072,-0.01545409,0.009757297,0.05643323,0.003684377,-0.008712216
1.024068,-0.09229507,-0.1486621,0.008873765,-0.01261345,0.01594825,0.06163749,0.01316342,-0.01350627
1.014032,-0.08816052,-0.148563,-0.001238103,-0.008569275,0.01548442,0.06275596,0.00665816,-0.006091718
1.005034,-0.08607436,-0.1515735,-0.01031414,-0.006568958,0.01190666,0.06299505,3.705613e-05,0.007363727
1.005851,-0.09082281,-0.1543247,-0.009574986,-0.01139837,0.008584822,0.06170255,-0.008313043,0.007452036
1.011447,-0.09700472,-0.1534957,-0.004058202,-0.01765596,0.008841241,0.0618118,-0.01199304,-0.0001701366
1.01407,-0.09292528,-0.1488183,-0.001514246,-0.01364642,0.01294532,0.06332662,-0.002442726,-0.005796076
1.017714,-0.08740435,-0.1466184,0.002051908,-0.008189089,0.01457222,0.05288571,0.008167697,-0.008532872
1.017988,-0.08575593,-0.1443301,0.002248385,-0.006597689,0.01628851,0.03485363,-0.004130028,-0.004889771
1.016104,-0.08378485,-0.1448411,0.0002876306,-0.004676959,0.0152075,0.0144047,-0.01613325,0.002033996
1.020024,-0.08588433,-0.1564965,0.004131463,-0.006820152,0.002984469,-0.002274632,-0.006883214,0.007182282
1.019609,-0.08956934,-0.1664158,0.003641563,-0.01054225,-0.007498882,-0.00397995,0.009013857,0.003476576
1.015676,-0.09510799,-0.156466,-0.0003660598,-0.01611131,0.001891693,-0.004033324,0.0226953,-0.002364442
1.015335,-0.1022606,-0.1440915,-0.000780211,-0.02328727,0.01371283,-0.004276208,0.003334798,0.00374311
1.015146,-0.09824894,-0.1510726,-0.001041185,-0.01929152,0.006185168,-0.0004974919,-0.03770769,0.01013864
1.018378,-0.09285014,-0.1554193,0.00211997,-0.01390056,0.001299232,-0.0009387307,-0.04723491,0.01172548
1.021219,-0.09669779,-0.1518823,0.004891516,-0.01774767,0.004305008,0.0009108827,-0.03879266,0.01329216
1.022614,-0.09557661,-0.154903,0.006217442,-0.01661735,0.0007619053,0.01091768,-0.03877644,0.008291986
1.026212,-0.09294065,-0.1524061,0.009748441,-0.01396343,0.002745695,0.02693142,-0.04024297,0.005224359
1.025359,-0.09508797,-0.1510425,0.008828073,-0.01608386,0.00360628,0.04120177,-0.0363121,0.007997527
1.022562,-0.09314805,-0.1523877,0.005964575,-0.01410806,0.001768594,0.04574448,-0.02769601,0.008026018
1.017516,-0.09056375,-0.1454437,0.0008522543,-0.01147891,0.008231059,0.0471098,-0.02553196,0.007599864
1.010283,-0.09017079,-0.1449994,-0.006446393,-0.01103221,0.008204934,0.04692581,-0.03343995,0.007350578
1.013711,-0.08970381,-0.1472582,-0.003083406,-0.0105028,0.005487092,0.03850144,-0.04356629,0.007928475
1.020931,-0.08999678,-0.1478763,0.004071753,-0.01072492,0.004421279,0.02877254,-0.04710139,0.008824744
1.021218,-0.0895651,-0.1530942,0.004295052,-0.01021419,-0.001232724,0.02869379,-0.04581733,0.008106144
1.022332,-0.09111457,-0.1546558,0.005345567,-0.0116767,-0.003218594,0.0337686,-0.04702337,0.007190852
1.023079,-0.09282026,-0.1547831,0.006030646,-0.01328775,-0.00375796,0.03539218,-0.04210692,0.002837793
1.020195,-0.09202811,-0.1525675,0.003084816,-0.01239345,-0.001941853,0.03496753,-0.03553513,-0.002239287
1.015647,-0.09312825,-0.1494342,-0.001524218,-0.01338412,0.000804866,0.0337944,-0.03875291,-0.003309307
1.004514,-0.09209106,-0.1511047,-0.01271829,-0.01223029,-0.001239058,0.02904427,-0.0422885,0.0009537077
0.9981307,-0.08773449,-0.1513249,-0.01916077,-0.007750131,-0.001819549,0.01744875,-0.04647249,0.01183056
1.005015,-0.08516434,-0.1530949,-0.01233367,-0.005049784,-0.003936434,-0.002466032,-0.05558896,0.02609268
1.007684,-0.08404627,-0.1548099,-0.009719618,-0.003795394,-0.005984993,-0.01688503,-0.06499262,0.04098434
1.007247,-0.08568333,-0.1569233,-0.01020868,-0.005290564,-0.008418228,-0.01869416,-0.0724039,0.04999685
1.014031,-0.09046167,-0.1633983,-0.003472565,-0.009921965,-0.01519915,-0.02770729,-0.07462773,0.05120374
1.019937,-0.09794355,-0.161707,0.002389059,-0.01725221,-0.01379952,-0.03855199,-0.07442962,0.04548221
1.021224,-0.1052186,-0.1583073,0.00363535,-0.02437096,-0.01067662,-0.03158352,-0.07325803,0.03379396
1.021586,-0.1059065,-0.1608188,0.003960107,-0.02489761,-0.01344982,-0.02675974,-0.06377213,0.03318822
1.022569,-0.1019534,-0.1599123,0.004909142,-0.02077799,-0.0127896,-0.02918479,-0.05084021,0.03703694
1.021857,-0.09764733,-0.1628703,0.004166496,-0.01629969,-0.0159783,-0.01910503,-0.04825235,0.03023301
1.018797,-0.09866771,-0.1701552,0.001077773,-0.01714214,-0.02347798,-0.007170156,-0.05240558,0.02972796
1.015578,-0.1069617,-0.1725292,-0.00216756,-0.02525243,-0.02605046,-0.002140592,-0.05379522,0.03020209
1.013432,-0.1122237,-0.1719889,-0.004337973,-0.03032475,-0.02569164,0.003179385,-0.0521822,0.01971229
1.014622,-0.1145689,-0.1709768,-0.003170436,-0.03247381,-0.02484351,0.01273801,-0.04471995,0.007490559
1.017685,-0.1176467,-0.1729189,-0.0001274035,-0.03534851,-0.02693157,0.0296918,-0.03038255,-0.003027446
1.020027,-0.1142836,-0.1756488,0.002196667,-0.03177453,-0.02978896,0.0358834,-0.01829461,-0.006146854
1.019262,-0.1079403,-0.1758218,0.001416116,-0.02521218,-0.03007048,0.0265605,-0.01882294,-0.008340401
1.017366,-0.1060338,-0.1744305,-0.0004939464,-0.02307816,-0.02876835,0.0255465,-0.02360711,-0.01422502
1.020968,-0.1067429,-0.1709366,0.003096513,-0.02355125,-0.02534397,0.02824447,-0.02287703,-0.01510975
1.02326,-0.1070792,-0.1720605,0.005377827,-0.02364297,-0.02651749,0.02740522,-0.02646896,-0.01369698
1.019781,-0.1050041,-0.1760095,0.001889619,-0.02131496,-0.03049612,0.03011264,-0.02867068,-0.01122698
1.017194,-0.1030169,-0.1781374,-0.0007047012,-0.01906651,-0.03263366,0.02920224,-0.02610887,-0.01199233
1.014245,-0.1025519,-0.1822376,-0.003661167,-0.01833234,-0.03672314,0.02583618,-0.02816099,-0.01413115
1.011515,-0.1008367,-0.1817663,-0.006397112,-0.01634022,-0.03622072,0.0242818,-0.02264712,-0.01217588
1.011849,-0.1000575,-0.1799307,-0.006068042,-0.01527702,-0.03433312,0.02101005,-0.01009983,-0.01204426
1.010565,-0.1001123,-0.1804433,-0.007354561,-0.01504099,-0.03477268,0.01541899,-0.003896823,-0.007628596
1.005433,-0.09891623,-0.1743838,-0.01248881,-0.01354785,-0.02861923,0.005795336,-0.009005728,-0.00219991
1.002601,-0.09935262,-0.1695889,-0.01531948,-0.01368147,-0.02370956,-0.001048327,-0.01778339,-0.001762354
1.005258,-0.100333,-0.1706072,-0.01265956,-0.01435392,-0.02459258,-0.002480536,-0.01199258,0.002933363
1.008511,-0.1001967,-0.1715145,-0.00940044,-0.01390502,-0.02534486,-0.005250675,-0.008420452,0.006168862
1.012026,-0.1008207,-0.1727387,-0.005874894,-0.01421218,-0.02639478,-0.00518705,-0.01380276,0.003105491
1.014732,-0.1021849,-0.1746518,-0.003155862,-0.01525572,-0.02811492,-0.004433351,-0.009795433,0.0001236397
1.016273,-0.1044222,-0.1785868,-0.001597213,-0.01716895,-0.03183867,-0.01024535,-0.007028884,-0.001893124
1.020664,-0.1068379,-0.1813643,0.002814055,-0.0192576,-0.03438693,-0.01670913,-0.0005612997,-0.007524806
1.020215,-0.1067179,-0.1796956,0.002388646,-0.01880757,-0.03247149,-0.01891721,0.01038518,-0.01432993
1.016034,-0.1045392,-0.1764257,-0.001767015,-0.01629601,-0.02893734,-0.01699892,0.01023195,-0.01393642
1.016928,-0.103723,-0.1747968,-0.000844777,-0.01514457,-0.02702726,-0.01405432,0.01422586,-0.01171839
1.016884,-0.1037235,-0.1750121,-0.0008579165,-0.01480746,-0.02694502,-0.01267498,0.02412963,-0.01057699
1.016766,-0.1037842,-0.1740484,-0.0009434381,-0.01452857,-0.02566785,-0.008822371,0.02776413,-0.008121579
1.016814,-0.1050991,-0.1740997,-0.0008613521,-0.01550235,-0.02539052,-0.003836911,0.02354302,-0.009351671
1.012571,-0.1058157,-0.1745173,-0.005068462,-0.01587642,-0.02546505,-0.001171089,0.01873419,-0.01091198
1.011822,-0.1062279,-0.1732325,-0.005779315,-0.01594493,-0.02382325,0.00280029,0.0271283,-0.01254179
1.01396,-0.103256,-0.1737461,-0.003602658,-0.01262843,-0.0239668,0.008042136,0.03542697,-0.01861926
1.013243,-0.09800344,-0.1746302,-0.004278684,-0.007030634,-0.02446848,0.008708273,0.03130514,-0.0227664
1.010437,-0.1007759,-0.1751878,-0.007042701,-0.009457746,-0.024632,0.004862578,0.02240394,-0.02092642
1.007618,-0.1043283,-0.1750085,-0.009816899,-0.01266514,-0.02404755,0.004341555,0.01395605,-0.01731023
1.010618,-0.1037655,-0.1723475,-0.00677175,-0.01175792,-0.02097099,0.008002208,0.01836535,-0.01658748
1.014283,-0.1067104,-0.1664492,-0.003058417,-0.01435947,-0.01464764,0.01116757,0.03011571,-0.01702122
1.012187,-0.1078296,-0.1603092,-0.005104463,-0.01513634,-0.008073896,0.01289067,0.0335687,-0.01887798
1.011912,-0.1079091,-0.1630089,-0.005328457,-0.01487493,-0.01033251,0.01527326,0.03504624,-0.02359399
1.01318,-0.1092769,-0.1678898,-0.004006096,-0.01590301,-0.01476602,0.02185086,0.03530912,-0.02683174
1.012709,-0.1071863,-0.1671339,-0.004421296,-0.01347412,-0.01355751,0.02559169,0.03162157,-0.03026304
1.015287,-0.1055973,-0.1682753,-0.001786742,-0.01154826,-0.01424202,0.02357939,0.02478454,-0.02786316
1.018484,-0.1035345,-0.1684485,0.001469414,-0.009150201,-0.01395491,0.0261138,0.01609339,-0.01937522
1.017482,-0.1014247,-0.1663617,0.0005278949,-0.006707115,-0.01140517,0.02995875,0.01769847,-0.01839171
1.016001,-0.1018632,-0.1669007,-0.0008918025,-0.006814475,-0.01147936,0.02960912,0.02399463,-0.01883101
1.016528,-0.1008406,-0.1667245,-0.0003021738,-0.005463441,-0.01083731,0.03250428,0.02612112,-0.02062074
1.015697,-0.1014092,-0.1677564,-0.001069977,-0.005706663,-0.01140303,0.040025,0.03468107,-0.02378678
1.012971,-0.101922,-0.170497,-0.003732572,-0.005897474,-0.01367804,0.04448541,0.04142262,-0.02253892
1.012436,-0.1006818,-0.1693127,-0.004204244,-0.00433897,-0.01202906,0.04799175,0.03631605,-0.02900947
1.015289,-0.1016764,-0.1621018,-0.001287456,-0.005019391,-0.004355196,0.0514032,0.02721378,-0.03217611
1.017632,-0.1004751,-0.1539745,0.001120241,-0.003508323,0.004232614,0.04062657,0.01566052,-0.02421782
1.016854,-0.09918256,-0.1567388,0.0004068252,-0.001910716,0.001925511,0.0259078,0.006539792,-0.01805353
1.015531,-0.09952305,-0.1637909,-0.0008510758,-0.00195121,-0.004673945,0.02630985,0.009246898,-0.01381336
1.014346,-0.09812289,-0.1638552,-0.001972542,-0.0002564713,-0.004291052,0.02753314,0.014567,-0.01602933
1.01175,-0.09855996,-0.1640673,-0.004503785,-0.0004047446,-0.004061814,0.02176315,0.01107853,-0.01715788
1.012199,-0.0989088,-0.163124,-0.003991199,-0.0004709038,-0.002683826,0.01452872,0.007527987,-0.01209383
1.015786,-0.09830379,-0.1616806,-0.0003411752,0.0004103591,-0.0008128045,0.006192364,0.005426402,-0.01089094
1.018041,-0.0988213,-0.1641399,0.001976957,0.0001623873,-0.002852181,0.004820564,0.004124858,-0.01102926
1.020278,-0.0988754,-0.1635497,0.004276482,0.0003708389,-0.001850266,0.008275773,0.009162681,-0.01422431
1.019745,-0.1003895,-0.1617863,0.003804257,-0.0008879311,0.0003163561,0.01091605,0.01112871,-0.01708916
1.017758,-0.1016576,-0.1602053,0.001878749,-0.001907974,0.002291542,0.01656277,0.01361994,-0.01699493
1.019323,-0.09916347,-0.1599866,0.003502861,0.0008266764,0.002894855,0.01208117,0.0165837,-0.01842647
1.0196,-0.0950878,-0.1639092,0.003836798,0.00513532,-0.0006531246,-0.001129659,0.01383837,-0.01375559
1.019279,-0.09299585,-0.1642031,0.00357171,0.007452423,-0.0005827068,-0.006135244,0.01713707,-0.007697169
1.019039,-0.09197467,-0.1624745,0.003386093,0.008690595,0.001499617,-0.01694847,0.01468963,-0.006273727
1.0155,-0.08985106,-0.1612488,-0.0001014577,0.01102261,0.003068201,-0.02825473,0.007811545,-0.003809088
1.013223,-0.09112882,-0.1584864,-0.002328694,0.009944221,0.006162397,-0.02449555,0.0120566,-0.002131116
1.014895,-0.09572848,-0.1568717,-0.0006089553,0.005534513,0.008097525,-0.02535498,0.01627729,-0.002568838
1.018819,-0.09823471,-0.1550509,0.003359638,0.003208607,0.0102268,-0.03009262,0.01971696,-0.003461808
1.020313,-0.09909527,-0.1551018,0.004897361,0.002518669,0.01047212,-0.03153857,0.01463058,-0.005256758
1.019095,-0.0983381,-0.1561888,0.003719927,0.003436856,0.009668666,-0.03656323,0.004773682,-0.007744671
1.019509,-0.09625738,-0.1557467,0.004172751,0.005669047,0.01038108,-0.039323,0.008999261,-0.007574005
1.019467,-0.09470697,-0.1587732,0.004166782,0.007361439,0.007611586,-0.04182294,0.01106985,-0.004858739
1.018115,-0.09390567,-0.163763,0.002847099,0.008295198,0.002865223,-0.04564136,0.0107861,-0.002075612
1.013351,-0.09457905,-0.1658944,-0.001885624,0.007744689,0.0009638268,-0.04644641,0.01468769,0.002069393
1.007597,-0.09487976,-0.163113,-0.007611679,0.007557227,0.003961841,-0.04325534,0.007614483,0.004822241
1.009881,-0.09550206,-0.1577268,-0.005303151,0.007038536,0.009551503,-0.03760712,0.001278659,0.003474768
1.014666,-0.09901924,-0.1562885,-0.0004939777,0.003615376,0.0111802,-0.03861242,0.004895428,-0.0004760175
1.015591,-0.1009299,-0.1593998,0.0004530362,0.001789373,0.008246302,-0.04172487,0.003112536,-0.002801535
1.015596,-0.1000982,-0.1632433,0.0004782949,0.002696539,0.00456704,-0.03951875,-0.007710432,-0.001348141
1.015928,-0.1008015,-0.1646824,0.0008289835,0.002059972,0.003279187,-0.03727147,-0.01442148,1.164864e-06
1.019617,-0.1027208,-0.1627372,0.00453483,0.0001989492,0.00536295,-0.03447326,-0.002323172,0.0007368869
1.023922,-0.1026751,-0.1582514,0.008855643,0.000294825,0.009975022,-0.03063419,0.01619063,0.000429082
1.021605,-0.0993029,-0.1555774,0.006552105,0.003709648,0.012763,-0.02669225,0.01758474,-0.001011118
1.016378,-0.09511659,-0.1620302,0.001336064,0.007931193,0.006411969,-0.02325693,0.01418435,-0.001950114
1.012836,-0.0938249,-0.1690852,-0.002196051,0.009250938,-0.0005531864,-0.02129835,0.01697242,-0.003758406
1.011357,-0.09651091,-0.1618755,-0.003667973,0.006585837,0.006734757,-0.016551,0.01238201,-0.004283996
1.013289,-0.09965406,-0.1527904,-0.001731347,0.003456528,0.01588678,-0.01063734,0.003185695,-0.002643617
1.014682,-0.1013147,-0.1554704,-0.000334609,0.001802842,0.01326257,-0.007328243,-0.004606876,-0.00157605
1.015104,-0.1029051,-0.161731,8.985239e-05,0.0002129244,0.007046672,-0.008194055,-0.0086367,-0.00311071
1.016017,-0.1004087,-0.1658801,0.001003991,0.002703737,0.00293132,-0.01256461,-0.005047511,-0.006917779
1.014778,-0.09595077,-0.1612672,-0.0002351545,0.007150199,0.007567385,-0.01153892,-0.004141156,-0.009140552
1.014819,-0.09614225,-0.1533181,-0.0001950658,0.00694172,0.01552938,-0.009864986,-0.003819584,-0.009063252
1.014043,-0.09599148,-0.1566321,-0.0009737683,0.007070043,0.01221832,-0.01465579,-0.001342087,-0.007952887
1.011338,-0.09434499,-0.156071,-0.003681786,0.008688713,0.01277221,-0.01920508,-0.004394327,-0.006153967
1.013169,-0.09455231,-0.1495048,-0.001855409,0.008448274,0.01932126,-0.02647169,-0.005282893,-0.00432214
1.016,-0.09486636,-0.1515846,0.0009712782,0.008095837,0.01721436,-0.03351214,-0.006105302,-0.003872734
1.018355,-0.09707562,-0.153129,0.0033209,0.005843008,0.01563275,-0.03723935,-0.007590961,-0.004422744
1.019253,-0.09874405,-0.15552,0.004212704,0.00412597,0.01319441,-0.04486499,-0.004202124,-0.00339395
1.016853,-0.09423102,-0.1588668,0.001806788,0.008585545,0.009790264,-0.04981181,-0.005862018,-0.002468601
1.017422,-0.09070141,-0.1573745,0.002368201,0.01205699,0.01121558,-0.05197013,-0.009911732,-0.0008490518
1.018131,-0.0966433,-0.1603387,0.003069437,0.006052277,0.008174895,-0.05350816,-0.01173902,0.001237404
1.01794,-0.104572,-0.1597199,0.002870157,-0.001943811,0.008708296,-0.0511449,-0.009198704,-3.721966e-05
1.019084,-0.1049252,-0.15547,0.004004278,-0.00236855,0.01286429,-0.04974629,-0.002431598,-6.198527e-05
1.017369,-0.1021036,-0.1577234,0.00227831,0.0003778203,0.01050874,-0.04630444,-0.003620187,0.0004535138
1.017802,-0.09947398,-0.1569085,0.002699662,0.002929123,0.01121346,-0.04451469,-0.003586379,-0.002029221
1.018233,-0.09506715,-0.1563443,0.003117631,0.007254828,0.01165991,-0.04853016,-0.00173654,-0.002161645
1.013253,-0.09373606,-0.1578224,-0.0018758,0.008502166,0.0100567,-0.05017117,-0.009981724,0.002260716
1.009988,-0.09727326,-0.1556776,-0.005156336,0.00487867,0.01206939,-0.05024814,-0.01566516,0.00793334
1.009527,-0.1015205,-0.1545634,-0.005632518,0.0005426449,0.01304467,-0.04643611,-0.01509597,0.008111614
1.012576,-0.1036466,-0.1521443,-0.002599319,-0.00167429,0.01531843,-0.03621828,-0.009265061,0.005507886
1.016427,-0.1018261,-0.1530161,0.001235399,5.344562e-05,0.01429486,-0.02298543,-0.002294089,0.005685031
1.01585,-0.09964321,-0.1595189,0.0006422047,0.002142326,0.007634054,-0.01005255,-0.004898579,0.00107331
1.015529,-0.1000078,-0.1629263,0.0003051051,0.001682627,0.004062813,-0.003423999,-0.006033276,-0.005244296
1.01359,-0.1000992,-0.1633979,-0.001650018,0.001495231,0.003422054,0.002907355,-0.002723024,-0.006942794
1.011334,-0.09985895,-0.1618897,-0.003922288,0.001639015,0.004756411,0.01166895,1.965742e-05,-0.009959249
1.012707,-0.09994315,-0.1606404,-0.002565507,0.001457952,0.005827727,0.01502406,0.004495932,-0.0122693
1.011767,-0.09905542,-0.1552773,-0.003519913,0.00224868,0.01100924,0.01509556,0.002465944,-0.01069878
1.01105,-0.09777299,-0.1476558,-0.004251896,0.003434143,0.01844575,0.0143408,-0.00140303,-0.008641514
1.013945,-0.0959053,-0.1538144,-0.001370547,0.005205004,0.01209898,0.01284349,0.001108856,-0.007112457
1.016165,-0.09375208,-0.16043,0.0008364707,0.007261554,0.005291886,0.01227831,0.001494191,-0.006721376
1.015541,-0.0940631,-0.1566708,0.0002006938,0.006853981,0.008856688,0.01265056,7.892761e-05,-0.008229107
1.014796,-0.0955758,-0.1599037,-0.0005558766,0.005244753,0.005426791,0.01261943,-0.002059801,-0.01149452
1.016566,-0.09687878,-0.1654993,0.001204135,0.003845231,-0.0003680953,0.01076119,-0.006133121,-0.01434388
1.016827,-0.09926855,-0.1629827,0.00145605,0.001358941,0.001947698,0.00939737,-0.005489129,-0.01391634
1.015508,-0.09927,-0.1608222,0.0001281055,0.001261104,0.003906185,0.006190904,-0.004211107,-0.01200193
1.015025,-0.09718979,-0.1592449,-0.0003633803,0.003245227,0.005280984,-4.384136e-05,-0.004448616,-0.009896571
1.014148,-0.09593746,-0.1551455,-0.00124815,0.004401884,0.009177574,-0.003232705,-0.00256925,-0.006037355
1.013856,-0.09209725,-0.1554901,-0.001546745,0.008146858,0.008630173,-0.0075393,-0.004911637,-0.004812576
1.013758,-0.09041394,-0.1590991,-0.001650911,0.009735275,0.004818435,-0.01515625,-0.009634633,-0.005660397
1.013901,-0.09363269,-0.1622511,-0.001513394,0.006421781,0.001464123,-0.01747469,-0.01183105,-0.0028893
1.014069,-0.09416429,-0.1701212,-0.001350187,0.005795456,-0.006607565,-0.01918281,-0.009672086,-0.001813582
1.013813,-0.09432514,-0.1736095,-0.001610085,0.005539802,-0.01029613,-0.0247203,-0.003815362,-0.002318893
1.014952,-0.09497123,-0.1642827,-0.0004734552,0.004798808,-0.001167519,-0.02372898,-0.003310501,-0.003625966
1.015732,-0.09391067,-0.1585737,0.0003034383,0.005764352,0.004346153,-0.02228693,-0.004561953,-0.009539395
1.015942,-0.09468029,-0.1631118,0.0005119828,0.004899614,-0.0003841717,-0.02810047,-0.005524443,-0.008705248
1.015525,-0.09457064,-0.1654365,9.478822e-05,0.004914037,-0.002897836,-0.03245871,-0.007704908,-0.002196693
1.012355,-0.09408563,-0.1645853,-0.003075782,0.005303709,-0.002231894,-0.03880086,-0.004070457,-0.002858634
1.010977,-0.09483104,-0.1697687,-0.004452985,0.00446287,-0.007596356,-0.04216121,-0.001180489,-0.004650686
1.01569,-0.09437884,-0.1752788,0.0002613808,0.004819565,-0.01328307,-0.03717579,0.001944966,-0.004515592
1.02119,-0.09554359,-0.1693203,0.005764044,0.003559264,-0.007495967,-0.03506563,0.007986903,-0.009547914
1.0217,-0.09698144,-0.1625545,0.006276526,0.002025875,-0.0008958729,-0.02610569,0.0126498,-0.01599413
1.021777,-0.09645725,-0.1635773,0.006356978,0.002454645,-0.002078313,-0.01319902,0.02002089,-0.01686908
1.022704,-0.09515379,-0.1613359,0.007286672,0.003662929,9.560805e-06,-0.007808825,0.01761955,-0.01796042
1.018927,-0.09228045,-0.1567201,0.00351215,0.006441396,0.004477939,0.001448591,0.008981712,-0.01985619
1.013353,-0.08851284,-0.1550585,-0.002059809,0.01011441,0.005998168,0.003441664,0.004737854,-0.01625488
1.011248,-0.08683255,-0.1553497,-0.004164155,0.01170018,0.005571313,-0.002230774,-0.009366654,-0.01234755
1.017492,-0.09026826,-0.1638688,0.002080956,0.008169786,-0.003078146,0.003509956,-0.0193949,-0.007903598
1.025872,-0.09312544,-0.1720218,0.01046157,0.005217538,-0.01135609,0.008948749,-0.01352496,-0.004396234
1.023562,-0.09131101,-0.1646712,0.008151118,0.006936424,-0.004124801,0.01037052,-0.009967731,-0.007623822
1.02275,-0.09132894,-0.1577371,0.007337701,0.006822425,0.002695716,0.01221062,-0.01486478,-0.009241736
1.026365,-0.09213466,-0.1639507,0.01094998,0.005920096,-0.003625604,0.009527851,-0.02094013,-0.01009911
1.020503,-0.09190703,-0.168758,0.005082762,0.006050531,-0.00853475,0.01035343,-0.02379821,-0.01102377
1.015848,-0.09441709,-0.1725158,0.0004212546,0.003442716,-0.0123886,0.01162113,-0.02368924,-0.006079419
1.016878,-0.09637097,-0.1802335,0.001442948,0.001390592,-0.02019593,0.01089216,-0.008796993,-0.005252043
1.015484,-0.09388852,-0.1787102,3.793241e-05,0.003774453,-0.01875527,0.01171307,0.01095689,-0.01210444
1.012482,-0.09019863,-0.1725022,-0.002976342,0.007365544,-0.01262243,-0.0007794753,0.008645324,-0.01797971
1.009554,-0.08977403,-0.1690454,-0.005918427,0.007691138,-0.009232699,-0.01440128,0.000949378,-0.01659613
1.015201,-0.09061359,-0.1619559,-0.0002863152,0.006752289,-0.002202081,-0.01133769,0.00107123,-0.01231917
1.021916,-0.08962071,-0.1623564,0.006412408,0.007645529,-0.002653422,-0.01775017,0.0006261223,-0.01138482
1.01483,-0.08741319,-0.167907,-0.0006902485,0.009752944,-0.008247127,-0.04150693,0.003566987,-0.007385209
1.010017,-0.08447074,-0.1646091,-0.005521404,0.01259468,-0.004984587,-0.05907442,0.006048251,-0.007164174
1.015116,-0.08384893,-0.1649833,-0.0004406393,0.01311493,-0.005386694,-0.07007189,0.006427254,-0.01091533
1.01603,-0.08427143,-0.1689052,0.0004540365,0.0125897,-0.009329137,-0.08031366,0.009677179,-0.005872833
1.012866,-0.08216925,-0.1675092,-0.002729169,0.0145877,-0.007946449,-0.08352226,0.008686911,-0.003543941
1.012345,-0.08243824,-0.1663692,-0.003269492,0.01421275,-0.006812671,-0.08659454,0.003525782,-0.004655014
1.014507,-0.08529123,-0.1647243,-0.001127019,0.01125173,-0.005166933,-0.08902081,0.0005724166,-0.005420667
1.016881,-0.08691637,-0.1657602,0.001227069,0.009516288,-0.006195081,-0.08407362,0.0006723096,-0.01303427
1.016515,-0.08877252,-0.1714361,0.0008427597,0.007547495,-0.01185669,-0.08271632,0.01557221,-0.01893476
1.013649,-0.08960805,-0.1774298,-0.002042841,0.006597012,-0.0178294,-0.08405119,0.03956215,-0.02272106
1.011953,-0.08857304,-0.1808926,-0.003757251,0.007514849,-0.02126434,-0.08522413,0.04915686,-0.02423695
1.013184,-0.08609076,-0.175852,-0.002544049,0.00987784,-0.01618872,-0.08774786,0.06031372,-0.02161828
1.013707,-0.08224264,-0.1684389,-0.002039076,0.01360457,-0.008733093,-0.0843092,0.0765234,-0.02266846
1.009366,-0.08348109,-0.1648049,-0.006397269,0.01224252,-0.005049142,-0.07551543,0.05870103,-0.02065384
1.005922,-0.09029251,-0.1647501,-0.009856326,0.005305213,-0.00493705,-0.06413325,0.02119459,-0.01243205
1.010374,-0.09461777,-0.1699515,-0.005419047,0.0008518313,-0.01007448,-0.06151391,0.006352521,-0.003035173
1.014482,-0.09399659,-0.1718413,-0.001324333,0.001342984,-0.01189367,-0.06899852,-7.222278e-05,0.002443207
1.012649,-0.08791627,-0.1695898,-0.003168193,0.007291725,-0.009565129,-0.06887278,-0.01611527,0.003888231
1.01352,-0.08241737,-0.1661824,-0.002306166,0.01265772,-0.006074364,-0.06281859,-0.03750609,0.01006944
1.016561,-0.08492374,-0.1605026,0.0007272972,0.01001712,-0.0003053515,-0.05378129,-0.05531358,0.009078962
1.015085,-0.08764189,-0.160587,-0.0007543856,0.007163351,-0.0002950832,-0.04126618,-0.05268078,0.002048174
1.013724,-0.08721223,-0.1639154,-0.002119874,0.007455999,-0.003523907,-0.03107032,-0.04726258,0.006074139
1.014605,-0.08767538,-0.1647824,-0.001240583,0.006854536,-0.004286872,-0.02049744,-0.05122735,0.009089528
1.016757,-0.08653118,-0.1650501,0.0009099058,0.007859228,-0.004446658,-0.009597917,-0.04365906,0.01168195
1.024407,-0.08560671,-0.1652315,0.008560695,0.008643071,-0.004516612,0.0002766471,-0.02719808,0.01559884
1.029363,-0.08652468,-0.1703134,0.01351818,0.007583397,-0.00948374,0.004362612,0.001727423,0.007384135
1.022483,-0.08715001,-0.1768427,0.006640549,0.006815356,-0.01589521,-0.00194086,0.0307584,-0.00277871
1.016618,-0.08860407,-0.1768386,0.0007777335,0.005217678,-0.01577005,-0.007081272,0.03879438,-0.01643354
1.018766,-0.08846721,-0.1728246,0.00292753,0.005210143,-0.01163158,-0.007441348,0.05333668,-0.03452501
1.016164,-0.08370037,-0.1668431,0.000326718,0.009831962,-0.005522091,-0.01512086,0.06781447,-0.03461662
1.010057,-0.07803497,-0.1619952,-0.005778663,0.01535173,-0.0005429548,-0.02969452,0.06917194,-0.02598402
1.011697,-0.07725629,-0.1629783,-0.004137767,0.01598399,-0.001391913,-0.03953972,0.07359932,-0.02453377
1.011323,-0.07882611,-0.163427,-0.004511378,0.01426666,-0.00170405,-0.04853992,0.06387185,-0.02066957
1.006816,-0.07595793,-0.1610943,-0.009016982,0.01698592,0.0007670895,-0.05759113,0.04828296,-0.0179657
1.011008,-0.07364699,-0.1669378,-0.004823055,0.01914621,-0.004936498,-0.05634313,0.042211,-0.02087858
1.013538,-0.07552281,-0.1737299,-0.002290197,0.01711765,-0.01158747,-0.05731499,0.03948881,-0.01898862
1.00724,-0.07521238,-0.1697773,-0.008585283,0.0172729,-0.00749281,-0.06098828,0.04065316,-0.01359694
1.00534,-0.07450188,-0.1680903,-0.01048054,0.01782548,-0.00566275,-0.05513268,0.02242014,-0.005392588
1.011705,-0.07665938,-0.1731702,-0.004108821,0.01550705,-0.01059859,-0.05131654,0.008505826,0.004834233
1.017668,-0.08109936,-0.1798372,0.001862723,0.01090297,-0.01712054,-0.04702689,0.02611673,0.006375861
1.014819,-0.0861838,-0.1854241,-0.0009764501,0.005651272,-0.02256123,-0.04280864,0.02888915,0.008277214
1.012093,-0.08390803,-0.1756934,-0.003691313,0.007756842,-0.0126827,-0.037828,0.004815971,0.01393807
1.016103,-0.07971548,-0.1570719,0.0003314391,0.01177654,0.006088503,-0.01438591,-0.02761805,0.01336373
1.016328,-0.08294044,-0.149548,0.0005709923,0.008376243,0.01376358,0.01044405,-0.05982013,0.01753987
1.014448,-0.08478207,-0.1466032,-0.001293375,0.006357,0.01686013,0.03203154,-0.09403397,0.02687648
1.011344,-0.08594519,-0.1467168,-0.004380094,0.005014234,0.01689761,0.04914826,-0.119532,0.0312279
1.006405,-0.08884852,-0.1517267,-0.00930151,0.001929583,0.01203702,0.04129588,-0.1129528,0.03380569
1.011012,-0.08609885,-0.1528997,-0.004674753,0.004496668,0.01101055,0.03829407,-0.1098592,0.03000208
1.02108,-0.08397647,-0.1614789,0.005414313,0.006435592,0.002574239,0.04472113,-0.1040324,0.01294554
1.027004,-0.08291253,-0.1728523,0.01136133,0.007315502,-0.008660282,0.04076696,-0.07249297,-0.008118471
1.026368,-0.07800788,-0.1702109,0.01074852,0.01203572,-0.005884056,0.05047178,-0.05535585,-0.01513036
1.023057,-0.07610605,-0.1740962,0.007460798,0.01375274,-0.009638345,0.06217461,-0.03426849,-0.007784461
1.025625,-0.07705858,-0.1875478,0.01005119,0.01261494,-0.02296215,0.05738499,-0.01470673,-0.006225673
1.025298,-0.08022841,-0.1872567,0.009747004,0.00925926,-0.022546,0.0525773,-0.007304553,-0.01188752
1.020898,-0.08508564,-0.175818,0.005367509,0.004215613,-0.01098397,0.05279821,0.02503572,-0.01564406
1.020892,-0.08452474,-0.1676143,0.005379877,0.004589724,-0.002658186,0.05542832,0.03342931,-0.02029117
1.019245,-0.07941345,-0.169816,0.003749877,0.009514079,-0.004738755,0.05292389,0.03067155,-0.01703328
1.01742,-0.07469415,-0.1731368,0.001940387,0.01404645,-0.007939368,0.04918899,0.0517555,-0.009649132
1.013846,-0.07406114,-0.16962,-0.001620973,0.01449245,-0.004303278,0.04806017,0.03480156,-0.01421808
1.009104,-0.07589169,-0.1716835,-0.006351499,0.01247463,-0.006248467,0.04544204,0.0210504,-0.01707076
1.01225,-0.07560239,-0.1783758,-0.003196258,0.01257627,-0.01282333,0.05082196,0.04308712,-0.01910189
1.013211,-0.07511448,-0.1802155,-0.002227467,0.01287598,-0.01454601,0.05426097,0.04753779,-0.02554858
1.009925,-0.07289175,-0.1749568,-0.005506482,0.01490986,-0.009170712,0.04876185,0.03798568,-0.01382058
1.009872,-0.06791301,-0.1614555,-0.005554135,0.01969892,0.004447257,0.04624094,0.01527582,0.00518256
1.011251,-0.06467612,-0.1531817,-0.004170017,0.02274499,0.01283757,0.04096859,-0.01264379,0.0140516
1.013022,-0.06377018,-0.1516019,-0.002393962,0.02345851,0.01453282,0.02724613,-0.02968412,0.0241348
1.01085,-0.06669295,-0.1484728,-0.004560979,0.02034118,0.01777559,0.01330905,-0.05403479,0.03257491
1.008529,-0.07141625,-0.1508113,-0.006876264,0.0154208,0.01554798,0.01270763,-0.07847953,0.03606128
1.011532,-0.07222488,-0.1551705,-0.003868612,0.01441236,0.01129593,0.01516368,-0.07933115,0.03554476
1.017379,-0.07312237,-0.1639484,0.001984631,0.01331225,0.002620687,0.01156597,-0.05595253,0.02622509
1.02452,-0.07789687,-0.177283,0.009132321,0.008332427,-0.01061581,0.01907348,-0.02606552,0.01924996
1.025026,-0.08194929,-0.1769122,0.009645028,0.004072175,-0.01015142,0.0226767,0.0004363499,0.01624432
1.021197,-0.08125027,-0.1687919,0.005822567,0.004561254,-0.00194148,0.01816489,0.009855047,0.002760031
1.022355,-0.07960246,-0.1652018,0.006986295,0.005997493,0.001734622,0.02197118,0.00926153,-0.008747622
1.022658,-0.08187328,-0.166168,0.007293497,0.003513915,0.0008507859,0.02013497,0.03128539,-0.004519252
1.021236,-0.08209124,-0.1686651,0.005874988,0.003082433,-0.001567388,0.01833992,0.04988781,-0.001588208
1.020364,-0.0786034,-0.1668027,0.005005551,0.006356424,0.0003702991,0.02008631,0.04464157,-0.004556356
1.016113,-0.07787009,-0.1660315,0.0007544935,0.006875928,0.001213434,0.01869005,0.04189345,-0.001265047
1.013664,-0.08048522,-0.1662724,-0.001695764,0.004047304,0.00104097,0.0231496,0.04385201,0.0002781633
1.013966,-0.08524216,-0.165968,-0.001396678,-0.0009224951,0.001410484,0.02503868,0.04131061,-0.002687532
1.012049,-0.08748119,-0.1726174,-0.003318083,-0.003373308,-0.005177204,0.02784043,0.03956051,-0.0005537282
1.01167,-0.08645115,-0.1769626,-0.003702491,-0.00255339,-0.009463846,0.03211929,0.05207031,-0.0009437705
1.010792,-0.08417008,-0.1679825,-0.004586645,-0.0004801948,-0.0004280899,0.02416005,0.05909633,-0.00188173
1.006202,-0.07875736,-0.1584308,-0.009184176,0.004727337,0.009176759,0.01860583,0.03528938,0.003186914
1.005175,-0.07834352,-0.1613146,-0.01021814,0.004938958,0.006343327,0.02191426,0.005553331,0.006152175
1.009463,-0.08248731,-0.1610621,-0.005936659,0.0005960577,0.006643285,0.02407701,-0.001968993,0.009441967
1.012405,-0.08370988,-0.1521677,-0.003000854,-0.0008223194,0.01558177,0.02456855,-0.002627297,0.01215763
1.011239,-0.08559538,-0.1534465,-0.004171582,-0.002900043,0.01434325,0.02715351,-0.02336785,0.01264009
1.010603,-0.08585883,-0.1576381,-0.004811648,-0.003351772,0.01018772,0.02949213,-0.03641628,0.01395069
1.012458,-0.08564833,-0.1616471,-0.00295905,-0.003325229,0.006210071,0.02531873,-0.02520294,0.01317764
1.012793,-0.08670306,-0.1723101,-0.002625009,-0.004559224,-0.004426296,0.01849665,-0.02255261,0.01535682
1.013349,-0.08473406,-0.1738127,-0.002069464,-0.002764458,-0.005906983,0.0111765,-0.02162669,0.01494132
1.018002,-0.08441625,-0.1735227,0.002585496,-0.002615572,-0.005599178,0.004413941,-0.01194895,0.007418155
1.022581,-0.08539404,-0.1786647,0.007167619,-0.003756714,-0.0107269,-0.005588639,-0.0004032926,0.003494298
1.022354,-0.08655276,-0.1800405,0.006943686,-0.005073027,-0.01209131,-0.02017611,0.01836106,0.003896978
1.020973,-0.08991239,-0.1854059,0.005567639,-0.008584214,-0.01744741,-0.02031552,0.03075513,0.005146934
1.020866,-0.09020181,-0.1816169,0.005464686,-0.009018835,-0.01365045,-0.01373661,0.03038602,0.003051786
1.017603,-0.0892481,-0.1662533,0.002205651,-0.008203618,0.001720477,-0.01591207,0.03282881,0.001351456
1.013902,-0.09096893,-0.1638454,-0.001491232,-0.01005587,0.004135653,-0.01559446,0.03714032,0.002094119
1.011504,-0.09331235,-0.1677382,-0.003884784,-0.01252332,0.0002498053,-0.01471057,0.03230757,0.001064441
1.006247,-0.0946354,-0.1703982,-0.009138692,-0.01396262,-0.002403468,-0.01093841,0.01523318,0.007019313
1.003597,-0.09294689,-0.1720375,-0.01178467,-0.01238215,-0.004036375,-0.002576967,-0.008025541,0.01436557
1.005129,-0.09036466,-0.1682625,-0.0102484,-0.00989943,-0.0002551098,-0.001030808,-0.01703099,0.01678273
1.008473,-0.08976834,-0.1631308,-0.00689876,-0.009393836,0.004882691,0.002107652,-0.02984172,0.02017994
1.012396,-0.08874954,-0.1569162,-0.002968753,-0.008456853,0.01110326,0.007026429,-0.06827692,0.02055006
1.009677,-0.08753344,-0.1607271,-0.005679308,-0.007313636,0.007297783,0.007009965,-0.07739711,0.02409034
1.007206,-0.08855039,-0.1703432,-0.008139915,-0.008394566,-0.002313965,0.009292558,-0.05821905,0.02964603
1.01163,-0.08915566,-0.1678522,-0.003704472,-0.009054975,0.0001805161,0.008982581,-0.05572074,0.02675846
1.013541,-0.08821061,-0.1677729,-0.001778854,-0.008156253,0.0002621771,0.004616181,-0.04421243,0.02327046
1.012325,-0.08635527,-0.1719301,-0.002978504,-0.006338528,-0.003893545,0.002757437,-0.0274316,0.02265542
1.012244,-0.08377839,-0.1720027,-0.003041971,-0.00379072,-0.003965362,-0.0006053166,-0.02084701,0.0222163
1.013585,-0.08477089,-0.1730716,-0.001680338,-0.004804008,-0.005033925,-0.006393684,-0.01574815,0.02183788
1.017017,-0.08727108,-0.171489,0.001773749,-0.007316997,-0.003451328,-0.01318541,-0.02053473,0.02131142
1.020056,-0.08750603,-0.1713009,0.00483575,-0.007556982,-0.003263097,-0.01941256,-0.02533976,0.02437813
1.017159,-0.08780474,-0.1733179,0.00196376,-0.007853141,-0.005279879,-0.02327539,-0.0284224,0.02698829
1.011542,-0.08769071,-0.1772176,-0.003628003,-0.007729153,-0.00917898,-0.0290839,-0.02706243,0.0212101
1.01208,-0.08913085,-0.1848284,-0.003063359,-0.009152074,-0.01678834,-0.03315703,-0.01398944,0.01345475
1.01418,-0.09118142,-0.1842166,-0.0009353547,-0.0111783,-0.01617379,-0.03330913,-0.005349672,0.01064575
1.01631,-0.0901612,-0.1817261,0.001222943,-0.01012667,-0.01367839,-0.03836543,0.003341104,0.008280381
1.020749,-0.08999611,-0.1832531,0.00569076,-0.009923169,-0.01519784,-0.04298232,0.007701193,0.007735398
1.018099,-0.08986485,-0.1799547,0.003070636,-0.009746602,-0.01188875,-0.04029868,-0.002888782,0.01054989
1.013488,-0.08654236,-0.1772363,-0.001511776,-0.006372035,-0.009156059,-0.03770733,-0.008949513,0.01157763
1.013923,-0.08401787,-0.1763527,-0.00104642,-0.003788931,-0.008254232,-0.03415346,-0.004547323,0.01350021
1.012177,-0.08683092,-0.1769543,-0.00276338,-0.006537167,-0.008833567,-0.02808569,0.003092494,0.01551956
1.011792,-0.09347548,-0.1805914,-0.003119268,-0.01311102,-0.01244433,-0.0213773,0.006652365,0.01517396
1.013363,-0.09934392,-0.1809368,-0.001518662,-0.01890295,-0.01275909,-0.0008151037,0.003587372,0.01640043
1.012071,-0.1032055,-0.1803096,-0.002781552,-0.02268203,-0.01209677,0.02536216,0.001070574,0.0151193
1.012219,-0.103677,-0.1796763,-0.002603551,-0.02306471,-0.01142361,0.03013856,0.0008186123,0.01200137
1.012019,-0.1033435,-0.1760686,-0.002774496,-0.02263553,-0.007771143,0.03258758,-0.0005649989,0.009769342
1.010239,-0.1036615,-0.1755694,-0.004524767,-0.02285061,-0.007222275,0.04723714,-0.005079764,0.003564942
1.010156,-0.09935052,-0.1788184,-0.004577275,-0.0184292,-0.01041677,0.04973375,-0.007062421,-0.001251177
1.008792,-0.09597812,-0.1773863,-0.005910124,-0.01493858,-0.00892539,0.0508275,-0.01092505,-0.001985864
1.007824,-0.09583849,-0.1740059,-0.006847665,-0.01467298,-0.00548096,0.05832448,-0.01757728,0.0006479011
1.009538,-0.09335281,-0.1752499,-0.005101575,-0.0120537,-0.006656403,0.05577748,-0.01375506,0.006171803
1.010039,-0.09225411,-0.1729142,-0.004568239,-0.01081401,-0.004247665,0.05565729,-0.01352805,0.004604081
1.010163,-0.09086283,-0.1706477,-0.004409735,-0.009274685,-0.001904093,0.05603481,-0.02451232,0.002942139
1.012385,-0.08941621,-0.1764835,-0.002152938,-0.007673359,-0.00765884,0.05303153,-0.02811499,0.00600086
1.014531,-0.09208903,-0.180732,2.863106e-05,-0.01018526,-0.01182275,0.05695128,-0.01703764,0.001614994
1.013185,-0.09377666,-0.1843219,-0.001279612,-0.01170617,-0.01532454,0.0570889,-0.005394156,-0.001305279
1.010645,-0.09468123,-0.1846195,-0.003781921,-0.01243853,-0.01553011,0.05831776,-0.01583284,0.002829472
1.011074,-0.09491571,-0.1806258,-0.003314686,-0.01249559,-0.01144037,0.06061041,-0.02318124,0.004772177
1.010996,-0.09436764,-0.1833636,-0.003353023,-0.01176509,-0.01407804,0.0567631,0.0005490643,0.004438498
1.009022,-0.09742975,-0.1817665,-0.005287395,-0.01464,-0.01237645,0.05566935,0.01517145,0.0009379888
1.008201,-0.09899514,-0.1744543,-0.006067148,-0.01601358,-0.004955581,0.05025332,8.453162e-06,-0.003254273
1.008933,-0.09572025,-0.1724761,-0.005293194,-0.01254239,-0.002864544,0.04555397,-0.01310295,-0.004934779
1.010506,-0.09230349,-0.1774224,-0.003676312,-0.008924977,-0.007694205,0.04174191,-0.009101223,-0.005504001
1.010702,-0.09165688,-0.1862113,-0.003436054,-0.008073666,-0.01636286,0.02791417,-0.005022165,-0.003087731
1.010544,-0.09204214,-0.1840528,-0.003548777,-0.008250579,-0.01408073,0.01843954,-0.005564361,-0.001375496
1.009885,-0.09162695,-0.1810385,-0.00416155,-0.007623788,-0.01093905,0.01333399,-0.000657776,-0.001651998
1.007944,-0.09352016,-0.1843999,-0.006055084,-0.009302553,-0.01416937,0.005209397,-0.001377273,0.000628195
1.010766,-0.09527269,-0.1779837,-0.003183848,-0.01083813,-0.007618358,-0.003239091,-0.005182789,0.002091349
1.014621,-0.09424001,-0.173792,0.0007202265,-0.009586274,-0.003288301,-0.003202674,-0.00379981,0.001241746
1.014875,-0.09397783,-0.1762549,0.00102588,-0.009102933,-0.00560961,0.005062714,-0.009736367,0.001480143
1.017044,-0.09280608,-0.1771626,0.00324602,-0.007708306,-0.006372713,0.002908229,-0.01381749,0.001338307
1.018049,-0.09102273,-0.1805963,0.004302988,-0.005700679,-0.009659243,0.001037627,-0.008239024,-0.0001379287
1.018442,-0.0915192,-0.1833987,0.004747835,-0.005971818,-0.01231194,0.001054468,0.0007692889,-0.003867711
1.021612,-0.09201954,-0.184189,0.0079691,-0.006246176,-0.01295021,-0.007136032,0.010958,-0.009596051
1.01856,-0.09152128,-0.1825886,0.004968745,-0.005521613,-0.01119529,-0.007399188,0.01350894,-0.009985158
1.011024,-0.09155201,-0.1811128,-0.002518062,-0.00532608,-0.009562499,-0.0084421,0.01057862,-0.00613927
1.008575,-0.0918821,-0.1808856,-0.004918279,-0.005430261,-0.009175866,-0.01044557,0.007736331,-0.0043956
1.009506,-0.09152897,-0.1796045,-0.003940129,-0.004851914,-0.007733152,-0.006783697,0.002237494,-0.002978628
1.010271,-0.09199985,-0.1815436,-0.003127812,-0.005098561,-0.009508469,-0.009294807,-0.002807185,-0.003612653
1.010136,-0.09360911,-0.1828424,-0.00321778,-0.00648483,-0.01064154,-0.007446105,-0.002551199,-0.005703309
1.012047,-0.09479805,-0.1852639,-0.001261628,-0.007452263,-0.01289536,-0.004040513,-0.001328242,-0.005312508
1.015372,-0.09460959,-0.1895508,0.002107274,-0.007043917,-0.01701265,-0.003753961,-0.002607725,-0.005858394
1.014835,-0.09294224,-0.1886578,0.001613588,-0.005158427,-0.01594802,-0.0004390742,-0.0007719304,-0.006826889
1.014841,-0.09217856,-0.1887529,0.001662555,-0.004178514,-0.01586919,-0.00185933,0.0006051593,-0.006277212
1.015683,-0.0925914,-0.1884745,0.002545325,-0.004377242,-0.01541444,-0.002645449,0.004088745,-0.005899117
1.013009,-0.09395262,-0.1873536,-8.836451e-05,-0.005526643,-0.01411454,-0.001617751,0.0144857,-0.005705058
1.01196,-0.09502796,-0.1882416,-0.00109847,-0.006392638,-0.01482084,-0.0006536412,0.01589924,-0.007163634
1.012267,-0.09307124,-0.1843186,-0.0007535772,-0.004229127,-0.0107134,0.002566793,0.009070534,-0.009190191
1.010708,-0.09116984,-0.1813623,-0.002276345,-0.002123643,-0.00757007,0.0025071,0.006310574,-0.009544435
1.008728,-0.08902358,-0.1828668,-0.004220574,0.0002238193,-0.008885071,0.004776502,0.00482466,-0.007691642
1.006676,-0.08694241,-0.1842143,-0.006239221,0.002502993,-0.01004078,0.007640783,-0.003423273,-0.00295349
1.005976,-0.09049152,-0.1861887,-0.006905566,-0.0008516298,-0.01182148,0.007028425,-0.01437228,9.398948e-05
1.008976,-0.09481546,-0.187936,-0.003872473,-0.004984897,-0.0133731,0.008395019,-0.007992472,-0.0008038192
1.014571,-0.09468101,-0.1880629,0.001755511,-0.004663707,-0.01330243,0.007811913,0.004682674,-0.001959262
1.015871,-0.09328321,-0.1863836,0.003087585,-0.003083101,-0.01142378,0.007317164,0.004974013,-0.003609422
1.01445,-0.09259824,-0.1848553,0.001698727,-0.002219286,-0.009694228,0.009513867,0.007300816,-0.006642855
1.015138,-0.09219801,-0.183514,0.002417895,-0.001644227,-0.008150069,0.01036885,0.008201865,-0.007687304
1.011688,-0.091119,-0.1850969,-0.001001713,-0.0003944978,-0.009528645,0.0101721,0.005166474,-0.006671532
1.00889,-0.08970051,-0.1885998,-0.003770016,0.001190484,-0.01282589,0.008546161,0.008546181,-0.007230608
1.013478,-0.0883989,-0.183239,0.0008470021,0.00265419,-0.007258223,0.008063005,0.008714265,-0.007515197
1.016046,-0.08785789,-0.1754858,0.003443108,0.003352672,0.0007027875,0.008900385,0.009210702,-0.007872745
1.011824,-0.0884986,-0.1724049,-0.0007514286,0.002864581,0.003991952,0.008826364,0.01209621,-0.01152451
1.007857,-0.08894857,-0.1696092,-0.004691447,0.002562145,0.006995763,0.009330733,0.009781296,-0.01128741
1.009773,-0.08886364,-0.171063,-0.002749746,0.002789356,0.005749101,0.009064348,0.009857896,-0.004554742
1.010867,-0.08758349,-0.1739513,-0.001630521,0.004206383,0.003066142,0.008239032,0.008638964,-0.002274746
1.009847,-0.08532364,-0.1761168,-0.002625986,0.006597509,0.001103566,0.006086357,0.003324391,-0.00403302
1.012655,-0.08460861,-0.1792861,0.0002063485,0.007438003,-0.001865765,0.002194527,3.654104e-05,-0.001164288
1.013456,-0.08639041,-0.1790408,0.001031653,0.005775598,-0.001423735,0.001650972,2.540777e-05,-0.001834548
1.013643,-0.08887502,-0.1806644,0.001241641,0.003404091,-0.002854002,0.002807645,0.00327179,-0.007014386
1.015535,-0.09027369,-0.1842048,0.003156207,0.00211216,-0.006204824,0.00239682,0.002623809,-0.006380235
1.011773,-0.09194654,-0.1833081,-0.0005839447,0.0005396943,-0.005122149,0.003358664,0.001693071,-0.007332111
1.00848,-0.0924309,-0.1830119,-0.003855352,0.0001494798,-0.004643618,0.005213435,0.004190181,-0.008724659
1.011697,-0.09093638,-0.1837051,-0.00061747,0.001732056,-0.005158154,0.005993839,0.006236799,-0.006031403
1.014772,-0.09178149,-0.1837907,0.002477899,0.0009690851,-0.005068593,0.007744599,0.01202316,-0.006667858
1.014819,-0.09174614,-0.186989,0.002544,0.001080786,-0.008095298,0.01092185,0.0140285,-0.005433532
1.015206,-0.08910158,-0.1902246,0.002949898,0.00379606,-0.01116258,0.01342731,0.01285163,-0.004760877
1.015732,-0.08784523,-0.1897109,0.003493364,0.005117552,-0.01048379,0.01375326,0.01546148,-0.007079181
1.014543,-0.08698696,-0.1880696,0.002321341,0.006035408,-0.008680212,0.01294,0.01310838,-0.006436062
1.013184,-0.08788145,-0.1865017,0.0009780176,0.005194919,-0.006952502,0.0153655,0.01228738,-0.008749267
1.010775,-0.08969598,-0.1827753,-0.001417015,0.003428786,-0.003068836,0.01911613,0.01821243,-0.009566293
1.010389,-0.08959973,-0.1796658,-0.001789934,0.00356787,0.0001955753,0.0186353,0.0249885,-0.008545038
1.013519,-0.08704899,-0.1819636,0.001352481,0.006155957,-0.001949901,0.01555619,0.03084831,-0.01274257
1.012858,-0.08215868,-0.1841232,0.0007029367,0.01107816,-0.003959984,0.01358715,0.02516878,-0.0126751
1.011841,-0.08166484,-0.1801503,-0.0003033221,0.01159829,0.0001597175,0.01671553,0.01512481,-0.006883982
1.013992,-0.08356928,-0.1761681,0.00185691,0.009714355,0.00428574,0.02080414,0.01522658,-0.001458403
1.014216,-0.08468152,-0.1769979,0.002089137,0.008616642,0.003596515,0.01869594,0.01413131,0.002412505
1.014297,-0.0888395,-0.178263,0.002177775,0.004467164,0.002468514,0.01770535,0.01221058,0.001632185
1.014263,-0.08828009,-0.1776198,0.002149895,0.005029098,0.003244883,0.01917029,0.014901,-0.003446648
1.013333,-0.086028,-0.1761844,0.001224895,0.00727788,0.004809489,0.01787279,0.01540238,-0.006356554
1.013914,-0.08846639,-0.1740366,0.001810678,0.004830497,0.007082089,0.01752893,0.01936723,-0.004484686
1.013369,-0.087071,-0.174036,0.001268506,0.006211327,0.007202713,0.01546517,0.02252899,-0.002720955
1.012232,-0.08548642,-0.1770015,0.0001334331,0.007775909,0.004352417,0.009939295,0.01750764,-0.0006262816
1.011986,-0.08672384,-0.1774492,-0.0001124985,0.00651317,0.004014543,0.007264434,0.01088078,0.003199942
1.010614,-0.08747778,-0.1767075,-0.001484692,0.005728698,0.004860665,0.007673455,0.002138226,0.005240492
1.010654,-0.08968337,-0.1796893,-0.001445879,0.00348749,0.001977856,0.007141648,0.001966004,0.003089722
1.010834,-0.09145577,-0.1793408,-0.001267387,0.00167465,0.002419735,0.004699488,0.009496809,-0.002128921
1.009005,-0.09351422,-0.1739048,-0.003099415,-0.0004287524,0.007943525,0.004053902,0.005611055,-0.001383855
1.009653,-0.09243205,-0.1735706,-0.002454279,0.0006043622,0.008359861,0.004005707,0.002368314,0.003718452
1.010771,-0.0873773,-0.1784301,-0.001339105,0.005606322,0.003576633,0.001684299,0.004844147,0.002380781
1.01188,-0.08574884,-0.18124,-0.0002342572,0.007178519,0.0008371438,0.0009047987,0.005980356,-2.992957e-05
1.014969,-0.08324332,-0.1772778,0.002851626,0.009624401,0.004863828,-0.0004226425,0.01194463,0.001954937
1.014442,-0.08171575,-0.1710275,0.002320997,0.01108893,0.01117288,-0.001352002,0.01083342,0.003260844
1.013888,-0.08707247,-0.1690725,0.001763183,0.005665693,0.01318067,0.00103795,0.002446578,0.00337416
1.016178,-0.09211294,-0.166888,0.00404879,0.0005552798,0.01541163,-0.0003000524,-0.0009635889,0.002438785
1.015282,-0.09262442,-0.1688617,0.003147164,-2.931688e-05,0.01347773,-0.003478214,-0.0006429144,-0.0002858871
1.014603,-0.09040968,-0.1747573,0.002463015,0.002109502,0.00761505,-0.004526785,0.007514654,0.001134193
1.014713,-0.08894948,-0.1714962,0.002567359,0.003491325,0.0109019,-0.002920388,0.01237849,0.003405385
1.012472,-0.0872752,-0.1672454,0.0003192138,0.005085005,0.0151712,0.0001911034,0.01038741,0.0008529351
1.01262,-0.08738723,-0.1669832,0.0004600979,0.00489035,0.01544452,-0.004825527,0.01475512,0.0009624255
1.015489,-0.09298107,-0.1656097,0.003320467,-0.0007880014,0.01682145,-0.01002679,0.01332719,0.00179677
1.016826,-0.09519098,-0.1676364,0.004648324,-0.003084017,0.01479022,-0.005848153,0.005066164,0.001314552
1.014307,-0.09267864,-0.1689261,0.002119865,-0.0006589837,0.01348788,-0.002103548,0.00178477,0.003975658
1.010935,-0.09057743,-0.1707067,-0.001262462,0.001354124,0.0116864,-0.002573192,0.001817125,0.005402372
1.011527,-0.08930614,-0.1763093,-0.0006825356,0.002536783,0.006054675,-0.00767294,0.003078054,0.005399691
1.011642,-0.08741566,-0.1794387,-0.0005798622,0.004338298,0.002888214,-0.009777907,-0.001492853,0.003699901
1.010493,-0.08200445,-0.1810881,-0.001741623,0.009660282,0.001194074,-0.00635929,-0.006273343,0.0004315315
1.012406,-0.07993521,-0.1779456,0.0001581456,0.01163992,0.00428487,-0.01049926,-0.00355455,0.001884436
1.012748,-0.08366228,-0.1738038,0.0004866991,0.007822661,0.008368394,-0.01312377,-0.0006803313,0.007215988
1.011232,-0.08746533,-0.1761072,-0.001042931,0.003928662,0.006000524,-0.009666889,0.002065149,0.01017461
1.011281,-0.0885136,-0.1753801,-0.001007737,0.002788664,0.006657162,-0.01094994,0.001225959,0.00584534
1.011774,-0.08675311,-0.1717421,-0.000529366,0.004456746,0.01021899,-0.0113296,-0.001641716,0.001039794
1.012946,-0.08759936,-0.1705439,0.0006279436,0.003517522,0.01133554,-0.01287023,8.706916e-06,0.004059581
1.013384,-0.08794806,-0.1725578,0.001052021,0.003075381,0.009234602,-0.01640519,-0.001174821,0.006875061
1.015604,-0.08682786,-0.1767259,0.003258306,0.004101786,0.004974299,-0.01801942,-0.0030263,0.006493546
1.019545,-0.08805409,-0.1768748,0.007184898,0.002781504,0.004728089,-0.02258392,-0.001493067,0.008514501
1.018528,-0.08728335,-0.176965,0.006152947,0.003458044,0.004535919,-0.02262339,0.0001774983,0.00983129
1.017983,-0.08716276,-0.1783581,0.005592455,0.00348439,0.003036647,-0.02332365,0.004849855,0.007787934
1.020406,-0.08702076,-0.1766897,0.007999552,0.003532166,0.004594875,-0.02979883,0.009658038,0.003012573
1.01891,-0.08536972,-0.1731494,0.00648606,0.005089083,0.008021656,-0.02842138,0.01161795,-0.002595291
1.016243,-0.08633858,-0.1687962,0.003800761,0.004026242,0.0122579,-0.03002203,0.01229253,-0.001832453
1.014264,-0.08604766,-0.1689097,0.00180194,0.004223325,0.01202425,-0.03811187,0.008692163,0.002622207
1.011154,-0.08496839,-0.1694993,-0.001329201,0.005208933,0.01131124,-0.0395462,-0.0003923605,0.005447979
1.009892,-0.08559609,-0.1654789,-0.002613106,0.004487756,0.01520492,-0.04113262,-0.01078756,0.01146136
1.012804,-0.08888523,-0.1668694,0.000275214,0.001105339,0.01368434,-0.04133779,-0.01358272,0.01363241
1.016838,-0.09317076,-0.1723333,0.004284543,-0.003273146,0.008086776,-0.03747578,-0.005904642,0.008255586
1.01541,-0.09083323,-0.1742733,0.002832267,-0.001027992,0.006009752,-0.03885057,0.00137873,0.00691517
1.012207,-0.08706623,-0.1742838,-0.0003968897,0.002647465,0.005858936,-0.04180789,0.004842551,0.007551547
1.012814,-0.08778101,-0.1739677,0.0001837041,0.001842149,0.006031929,-0.04363225,0.01073423,0.006242798
1.012295,-0.08871023,-0.1752412,-0.0003631991,0.0008234968,0.004612558,-0.04480344,0.01273089,0.006438368
1.012265,-0.09082154,-0.1754203,-0.000421224,-0.00137604,0.004285452,-0.04161884,0.008590693,0.005563727
1.012728,-0.09221906,-0.1735463,1.394628e-05,-0.002860411,0.006009368,-0.03903799,0.006281504,0.003114752
1.010493,-0.08964784,-0.1745634,-0.002249184,-0.0003744481,0.004840612,-0.0382391,-0.0005218369,0.003067243
1.011573,-0.08848014,-0.1753631,-0.001198389,0.0007097672,0.003887776,-0.0375003,-0.008316707,0.007957625
1.014786,-0.090784,-0.175336,0.001986757,-0.001675682,0.003760701,-0.04098972,-0.005115753,0.01116417
1.015996,-0.09241625,-0.1769835,0.003167632,-0.003387484,0.001958185,-0.044453,-0.001123214,0.007681273
1.01555,-0.09118679,-0.1753267,0.002693022,-0.002235379,0.003459453,-0.04417886,-0.0003867673,0.003938243
1.01556,-0.08838648,-0.1712637,0.002674721,0.0004899569,0.007366829,-0.04392431,-0.001804407,0.001373268
1.017841,-0.08610127,-0.1713327,0.004927728,0.002702645,0.007142163,-0.04386641,-0.005987712,0.001431714
1.018444,-0.08568044,-0.174407,0.005501625,0.003053339,0.003912162,-0.04161311,-0.001354976,0.002915769
1.019454,-0.08730697,-0.1746582,0.006482899,0.001358977,0.003505645,-0.03765652,0.005977578,0.001686802
1.01977,-0.08812074,-0.1744634,0.006769186,0.0004795715,0.003545398,-0.03680131,0.006750128,0.004134058
1.015561,-0.08828352,-0.1749163,0.002529432,0.0002533366,0.002938122,-0.03988124,0.006594553,0.007612327
1.013136,-0.09015831,-0.1731079,7.34025e-05,-0.001682745,0.004593012,-0.04208763,0.004973448,0.00693506
1.012658,-0.09052417,-0.1752781,-0.0004374685,-0.00210767,0.002270326,-0.04094309,0.004927338,0.004377533
1.013244,-0.08896139,-0.1776852,0.0001156522,-0.0006016535,-0.0002881111,-0.03878231,0.004664488,-6.238936e-05
1.013901,-0.08779477,-0.1757795,0.0007402374,0.000510543,0.001467698,-0.03621173,0.0007511121,-0.0005900624
1.013239,-0.0867643,-0.1766295,4.386461e-05,0.001488928,0.0004694609,-0.02845672,-0.0001952944,0.00149037
1.01451,-0.08615386,-0.1773225,0.001280735,0.002049536,-0.0003696749,-0.02115948,-0.002354865,0.0007673493
1.013675,-0.08609722,-0.177012,0.0004121546,0.002058486,-0.0002031768,-0.02259794,-0.010294,0.002203641
1.012637,-0.08781702,-0.1770868,-0.0006607533,0.0002930197,-0.0004195672,-0.02380902,-0.01541771,0.0044231
1.013673,-0.08952427,-0.1755121,0.000340907,-0.00145794,0.001016284,-0.01924326,-0.005705802,0.003681542
1.012647,-0.09027137,-0.1741119,-0.000719461,-0.002246786,0.002280433,-0.01613868,0.009273816,0.003775651
1.012625,-0.09277452,-0.1728735,-0.0007752111,-0.004789659,0.003385746,-0.01528568,0.006485447,0.004559766
1.012042,-0.09384594,-0.173714,-0.001392784,-0.005898621,0.002414989,-0.01285655,-0.003025424,0.003116303
1.010829,-0.09308562,-0.1740976,-0.002638597,-0.005173474,0.001904142,-0.009995674,-0.005555604,0.001143401
1.011832,-0.08970473,-0.1736722,-0.001669334,-0.001825194,0.002205218,-0.007244745,-0.006194779,-0.0004088639
1.014134,-0.0831055,-0.1776094,0.0006012766,0.004744026,-0.001853282,-0.005490615,-0.001047243,-0.002844917
1.016648,-0.08365079,-0.1802303,0.00308336,0.004171167,-0.004592268,-0.004452006,0.001342023,-0.006525111
1.015042,-0.08626732,-0.1796443,0.00144634,0.001529243,-0.004121087,-0.002536227,-0.004384841,-0.007994271
1.014384,-0.08282297,-0.1816321,0.0007589557,0.004950109,-0.00622013,-0.004769041,-0.007354645,-0.002497971
1.015361,-0.08300958,-0.1878993,0.001706547,0.004741675,-0.01259445,-0.006572725,-0.006458526,0.002825807
1.012969,-0.0841544,-0.1924388,-0.0007146322,0.003576399,-0.01723665,-0.0035448,-0.001984022,0.0007867293
1.013853,-0.08356676,-0.1901283,0.0001409737,0.004144693,-0.01502361,-0.004996794,0.00110282,-0.00041381
1.014336,-0.08453875,-0.1901063,0.000596966,0.003154238,-0.01509322,-0.005413654,-0.004797215,0.0009636894
1.012269,-0.08027735,-0.1955891,-0.001497261,0.007397833,-0.02066115,-0.001677988,-0.02555388,-0.002727265
1.013248,-0.0763258,-0.2012312,-0.0005443992,0.01133192,-0.02638113,0.0008381283,-0.05564791,-0.006539852
1.014958,-0.07953926,-0.2069374,0.001140062,0.008100958,-0.03215705,0.01372599,-0.07598036,-0.003591111
1.016775,-0.08179925,-0.2128833,0.002933008,0.005822978,-0.03816343,0.04565898,-0.1063034,0.002219008
1.013682,-0.08035203,-0.2200679,-0.0001846128,0.007251449,-0.04539792,0.08661448,-0.1529535,0.00606991
1.008636,-0.08004985,-0.2246147,-0.005253914,0.007533848,-0.04998256,0.1126755,-0.161645,0.001707461
1.009544,-0.08111015,-0.2328234,-0.004368307,0.006452504,-0.05821528,0.140918,-0.1329169,-0.007536591
1.009324,-0.08375256,-0.2506264,-0.004609261,0.003787607,-0.07602658,0.209869,-0.1123474,-0.01315361
1.011013,-0.09785043,-0.259257,-0.002941002,-0.01033422,-0.08464747,0.2831548,-0.08862895,-0.03122916
1.016687,-0.1152251,-0.2631376,0.002714798,-0.02773382,-0.08849752,0.3487925,-0.03504253,-0.06769315
1.014602,-0.1139562,-0.2668244,0.0006119656,-0.02648999,-0.09213012,0.4443474,0.02450902,-0.0951383
1.007536,-0.1093943,-0.2549786,-0.006470182,-0.02195173,-0.08020381,0.535808,0.04692217,-0.1003838
1.0019,-0.1144603,-0.2501761,-0.01212059,-0.02703876,-0.07529221,0.5976995,0.04587325,-0.09403447
0.9963806,-0.1073979,-0.2524123,-0.01765317,-0.01999378,-0.07738898,0.6615978,0.04743211,-0.08445118
1.014557,-0.05128729,-0.2161537,0.03831842,-0.00513382,0.07327421,0.001418491,0.04880705,0.01548232
1.009233,-0.05633216,-0.2166512,0.03188055,-0.01133561,0.07016081,0.0005719095,0.02057717,0.01478591
1.007102,-0.06114143,-0.2150896,0.02864405,-0.01725673,0.06912019,-0.002129235,-0.02155006,0.01338317
1.008688,-0.06311124,-0.2144109,0.02913596,-0.02029286,0.06721307,-0.001208608,-0.03836282,0.01420781
1.014431,-0.06759221,-0.2226168,0.03379641,-0.02579402,0.05644014,0.002957484,-0.0146102,0.0176214
1.020954,-0.07215437,-0.2307177,0.03924829,-0.03132959,0.04579357,-0.001210087,0.006972194,0.01480214
1.012791,-0.06658137,-0.2280116,0.0300263,-0.02668256,0.04597796,-0.01217248,0.02526742,0.01172451
1.002259,-0.06016264,-0.2151141,0.01844783,-0.02114184,0.05638045,-0.02294121,0.03359016,0.00920642
1.006688,-0.06364737,-0.2063359,0.02184316,-0.02545639,0.06269253,-0.02454162,0.03673431,0.006689232
1.013361,-0.06779389,-0.2087011,0.02749647,-0.03038452,0.05789175,-0.01862271,0.05526063,0.006044434
1.015086,-0.06970274,-0.2105098,0.02821543,-0.03302668,0.05367943,-0.02077099,0.05909644,-0.00118521
1.012967,-0.06958618,-0.2066729,0.02510516,-0.03359503,0.0551461,-0.01991747,0.04498147,-0.009437628
1.006779,-0.06728542,-0.2072854,0.01794134,-0.03193073,0.05219796,-0.01416884,0.0403479,-0.01664297
1.005714,-0.07080721,-0.213286,0.01591634,-0.03604059,0.0438974,-0.01151168,0.03879254,-0.01923523
1.005045,-0.07385952,-0.2163766,0.01430273,-0.03963269,0.03854381,-0.002390987,0.03958144,-0.01304638
1.003083,-0.07158105,-0.2191721,0.01141343,-0.03784586,0.03352369,0.0002303821,0.04985156,-0.01396242
1.006956,-0.07160155,-0.2197074,0.01437595,-0.03831001,0.0308035,-0.001967407,0.06122551,-0.01570633
1.004934,-0.06990701,-0.2179637,0.011461,-0.03701143,0.03040354,0.002019295,0.06515918,-0.01486077
1.003863,-0.06776308,-0.2187072,0.009515424,-0.03521621,0.02755883,0.002597005,0.05843959,-0.01871815
1.012744,-0.07245628,-0.2158803,0.01754123,-0.04021146,0.0283282,0.01072486,0.05455784,-0.01814345
1.016679,-0.07651145,-0.2158414,0.02064054,-0.0445226,0.0263542,0.02418267,0.05615051,-0.02041437
1.014457,-0.07290409,-0.218099,0.01760163,-0.04112562,0.02212928,0.03168853,0.05036442,-0.02050249
1.009527,-0.06756706,-0.215955,0.0118726,-0.03595397,0.02235223,0.03854478,0.0438683,-0.01541058
1.006038,-0.06613561,-0.2192471,0.007604863,-0.03464373,0.01718627,0.04031756,0.03758263,-0.01991222
1.005229,-0.06576474,-0.2231463,0.006036203,-0.03435092,0.01146108,0.04388906,0.0348713,-0.02270064
1.002515,-0.06656295,-0.2218478,0.002581692,-0.03518514,0.01098215,0.05308298,0.04053407,-0.02400342
1.001619,-0.06674422,-0.2135587,0.0009659375,-0.03536155,0.01754303,0.06043376,0.03982064,-0.02211458
1.000974,-0.06242345,-0.199872,-0.0003793145,-0.03099624,0.02955124,0.06991047,0.03166423,-0.01104901
1.003159,-0.06013198,-0.1982944,0.001126917,-0.02862185,0.02949972,0.07405233,0.02103966,-0.008183269
1.006029,-0.06144336,-0.2040831,0.003338155,-0.02981339,0.02213084,0.07208786,0.00962303,-0.009585323
1.004952,-0.06455463,-0.2107611,0.001625245,-0.03276934,0.01392101,0.07320849,-0.004769231,-0.01455537
1.00813,-0.07163785,-0.2214975,0.004187666,-0.03966313,0.001700963,0.07027646,-0.01865373,-0.02366959
1.008957,-0.07709054,-0.2200604,0.004420625,-0.04489337,0.001702653,0.07115548,-0.01701007,-0.0250337
1.006574,-0.07322167,-0.2147211,0.001464857,-0.04076995,0.005655144,0.07914893,-0.01173048,-0.02331296
1.002833,-0.06099198,-0.2202633,-0.002827805,-0.02825452,-0.001225259,0.07822714,-0.007965424,-0.01781193
0.9931033,-0.05295267,-0.2214573,-0.01308846,-0.0198996,-0.003708707,0.07426512,-0.005110548,-0.01680338
0.9903757,-0.05718717,-0.2221857,-0.01632514,-0.02379027,-0.005677739,0.06750647,-0.02039573,-0.01850737
0.9941666,-0.06350548,-0.2251079,-0.0130213,-0.02973834,-0.009791764,0.05965551,-0.03529082,-0.009578395
1.000289,-0.06481992,-0.2181624,-0.007363794,-0.03065766,-0.003989118,0.06439648,-0.03221877,-0.007505446
1.008425,-0.06825119,-0.2130568,0.000330494,-0.03367031,2.255857e-05,0.06557934,-0.02149337,-0.0119901
1.006547,-0.07023975,-0.212454,-0.001967113,-0.03521793,-0.0004201677,0.05756891,-0.01396252,-0.01347749
1.004725,-0.06587149,-0.2127746,-0.004187216,-0.03038749,-0.001738577,0.05169804,-0.02036786,-0.0141271
1.012947,-0.06634467,-0.2171523,0.003659258,-0.0303784,-0.007066808,0.04563055,-0.02558073,-0.01125849
1.01702,-0.0659499,-0.2173389,0.007376504,-0.02948245,-0.008157384,0.03561248,-0.01812148,-0.01122492
1.013346,-0.06241825,-0.2194707,0.003368257,-0.02543193,-0.01114719,0.01866105,-0.01363522,-0.01006907
1.011298,-0.06510389,-0.2250228,0.00100516,-0.02758229,-0.01751167,0.008934703,-0.01619979,-0.008246351
1.011148,-0.06434242,-0.2241213,0.0005583385,-0.02627038,-0.01737736,0.007632289,-0.02252388,-0.009920993
1.004857,-0.06679537,-0.2189653,-0.006010793,-0.02815898,-0.01294364,-0.0007797351,-0.03518662,-0.008291092
0.9972791,-0.072856,-0.213355,-0.01384956,-0.03364242,-0.008011317,-0.002495335,-0.04486353,-0.008491756
1.00061,-0.06957678,-0.2182986,-0.01076176,-0.02977417,-0.01358933,-0.0006833635,-0.03524766,-0.007922754
1.007452,-0.06703621,-0.2303261,-0.004144556,-0.02663359,-0.02620836,-0.01106591,-0.01769049,-0.005572621
1.010808,-0.06475314,-0.2346258,-0.0009967291,-0.0237405,-0.03105725,-0.01759662,-0.01020457,-0.005324483
1.016722,-0.06487732,-0.2316719,0.004727146,-0.02324576,-0.02861045,-0.01884086,-0.007960225,-0.002070324
1.018666,-0.07050221,-0.2274346,0.006495843,-0.02824388,-0.02483826,-0.02636671,-0.00691437,-0.00164303
1.017627,-0.07179207,-0.2317875,0.005296785,-0.02890009,-0.02961465,-0.03457611,-0.002715014,-0.006313786
1.019988,-0.07180847,-0.2352051,0.007511761,-0.02827675,-0.03341448,-0.0396907,0.005964893,-0.01169474
1.014034,-0.0694347,-0.2289581,0.001425983,-0.02525789,-0.02750897,-0.04308084,0.0123188,-0.0127067
1.00441,-0.06734842,-0.2263355,-0.008318802,-0.02252195,-0.02518743,-0.04536263,0.01860315,-0.009390211
0.9977673,-0.06789271,-0.224379,-0.01506917,-0.02241288,-0.02349248,-0.05070259,0.02627746,-0.01023981
0.9891615,-0.06573942,-0.2220447,-0.02377095,-0.01960342,-0.02138095,-0.06029913,0.028719,-0.01118019
0.9879004,-0.06675261,-0.221563,-0.02511554,-0.01995855,-0.0210843,-0.0606511,0.02520479,-0.01151703
0.9923286,-0.0673944,-0.2183649,-0.020758,-0.01994129,-0.01803485,-0.05199446,0.02599117,-0.01260406
0.9941204,-0.06680612,-0.2191091,-0.01902342,-0.01869383,-0.01889226,-0.05143073,0.02574559,-0.009464342
0.9958156,-0.06891371,-0.220295,-0.01737192,-0.02014289,-0.02015747,-0.05033638,0.01235422,-0.008467645
1.000563,-0.06793933,-0.2193125,-0.01265454,-0.01851143,-0.01922142,-0.04032556,-0.0009931735,-0.01189837
1.009686,-0.06859768,-0.2238045,-0.003548173,-0.01851482,-0.02372835,-0.02796076,-0.004677801,-0.016413
1.014922,-0.07335432,-0.2316573,0.001684156,-0.02261929,-0.0315656,-0.01952417,-0.002560202,-0.02045619
1.013743,-0.07777493,-0.2368129,0.0005137561,-0.026391,-0.03667597,-0.01674147,-0.004293391,-0.02295563
1.01187,-0.07904122,-0.2337602,-0.001339789,-0.02701196,-0.03354894,-0.002290136,-0.008766824,-0.02370114
1.009403,-0.07659934,-0.2285058,-0.003776635,-0.02392851,-0.02819181,0.01515166,0.001073069,-0.01936988
1.005793,-0.07595117,-0.2269351,-0.00734728,-0.0226427,-0.02649052,0.01718618,0.01114129,-0.01615224
1.001407,-0.07470033,-0.2230308,-0.01168435,-0.02075839,-0.02242895,0.02037229,0.009254373,-0.01842781
1.00184,-0.07214705,-0.2212256,-0.01119317,-0.01757614,-0.0204408,0.02599274,0.008613828,-0.02064408
1.00459,-0.07176582,-0.2236354,-0.008377198,-0.01657085,-0.0226431,0.0279346,0.009594914,-0.02257633
1.003852,-0.07122177,-0.2227808,-0.009040897,-0.0154081,-0.02155787,0.03419389,0.01121448,-0.02196113
1.006394,-0.07348882,-0.2178367,-0.006416124,-0.01706228,-0.01636111,0.04344577,0.01260724,-0.02009379
1.009213,-0.07552034,-0.2118454,-0.003506798,-0.01848714,-0.01009638,0.05031113,0.01643878,-0.02376479
1.009399,-0.074475,-0.2126694,-0.003224262,-0.01684169,-0.01062796,0.05602398,0.02126073,-0.02999654
1.010404,-0.07536952,-0.2208488,-0.002115571,-0.0171429,-0.01849729,0.06024343,0.0192226,-0.03105974
1.0084,-0.07483585,-0.2254144,-0.004010589,-0.01602297,-0.02273667,0.0604901,0.01917631,-0.02801524
1.007563,-0.07373278,-0.2232179,-0.004733056,-0.01434094,-0.02019876,0.0638964,0.02078254,-0.02842371
1.008271,-0.07367006,-0.2190178,-0.003905547,-0.01370683,-0.01564307,0.06554201,0.02023468,-0.02863567
1.006905,-0.07204293,-0.2195414,-0.005148247,-0.01151617,-0.01579796,0.06186435,0.02443663,-0.0249748
1.00759,-0.07048618,-0.2222557,-0.004336285,-0.009404083,-0.01813158,0.06380006,0.02849255,-0.02269943
1.006271,-0.06605043,-0.2190865,-0.005523512,-0.004421602,-0.01457087,0.06358156,0.02642855,-0.02083653
1.004465,-0.06261174,-0.2162475,-0.007195459,-0.0004452981,-0.01133032,0.06177534,0.01977233,-0.02123342
1.006679,-0.06569468,-0.2171192,-0.00484493,-0.003000384,-0.01179176,0.06227715,0.01408461,-0.0236344
1.008227,-0.06762834,-0.2160919,-0.003156899,-0.004416567,-0.01034665,0.05633768,0.0147914,-0.02267089
1.009491,-0.06559534,-0.2144954,-0.001751204,-0.001876972,-0.008325822,0.05203543,0.01824685,-0.01990269
1.006876,-0.06511864,-0.2128754,-0.004222756,-0.0009049976,-0.006276191,0.0514806,0.01868277,-0.0167944
1.002873,-0.06826689,-0.2122234,-0.008080836,-0.003569728,-0.005190469,0.04686938,0.02096543,-0.01918301
1.007904,-0.0702121,-0.215714,-0.002903958,-0.005043519,-0.008244329,0.03779835,0.0291268,-0.02417844
1.012547,-0.06852434,-0.2184067,0.001886451,-0.002896655,-0.01049838,0.03057352,0.03777402,-0.02195148
1.010001,-0.06748072,-0.2176349,-0.000511719,-0.001406426,-0.009286915,0.0298102,0.04504261,-0.02234621
1.009039,-0.06864882,-0.2171721,-0.001325397,-0.002140595,-0.008384204,0.02784227,0.04372091,-0.02844814
1.010054,-0.07099922,-0.2152153,-0.0001620366,-0.004069901,-0.005987972,0.02648944,0.0380508,-0.0307235
1.008834,-0.0719092,-0.2105499,-0.001235014,-0.004571671,-0.0008844004,0.02810425,0.04305115,-0.02918416
1.004763,-0.06774151,-0.2088978,-0.005160131,-8.673936e-06,0.001203447,0.0264722,0.04328063,-0.02726288
0.9997394,-0.0616875,-0.2104473,-0.01003815,0.006427682,8.658677e-05,0.02332034,0.03554768,-0.02587998
0.9988887,-0.06147055,-0.2096472,-0.01074446,0.007013755,0.001315006,0.01503609,0.03242097,-0.02033044
1.000971,-0.06398872,-0.2091914,-0.00851867,0.004851164,0.00219393,0.00502363,0.02810476,-0.01130727
1.000853,-0.06381914,-0.2100436,-0.008493443,0.005362466,0.001758927,0.003072192,0.02688396,-0.00586356
1.001743,-0.0661228,-0.2075578,-0.0074611,0.003386479,0.004655101,0.001999486,0.02331786,-0.006151352
1.005221,-0.06913352,-0.2063007,-0.003841674,0.000689308,0.006314887,0.0002221018,0.01346487,-0.009343188
1.008584,-0.071054,-0.2071862,-0.0003380138,-0.0009316841,0.005823546,0.0018332,0.01163788,-0.00976496
1.010903,-0.07358384,-0.2068265,0.002121411,-0.003175901,0.006568316,-0.0002393132,0.01306601,-0.01402194
1.009382,-0.07195747,-0.2070862,0.0007394882,-0.001277473,0.006683649,-0.005447495,0.01303831,-0.0226691
1.007186,-0.07156476,-0.2064787,-0.001318188,-0.0006259088,0.007655689,-0.006482681,0.01266414,-0.02313567
1.00767,-0.07314403,-0.2045931,-0.0006983359,-0.001959233,0.009894551,-0.000764175,0.01398557,-0.02579809
1.0102,-0.0715962,-0.2002453,0.001965221,-0.000178026,0.01458385,0.01035577,0.02296183,-0.03517697
1.017493,-0.07231954,-0.1938573,0.009390323,-0.0006802459,0.02130073,0.01732976,0.0361626,-0.03753886
1.021145,-0.07114709,-0.1900713,0.01317104,0.0007013931,0.02540224,0.02106164,0.04879825,-0.03769751
1.0157,-0.06435064,-0.1886203,0.007851579,0.007695327,0.02715417,0.02453115,0.04859922,-0.03460798
1.011308,-0.05868291,-0.1889753,0.0035806,0.01354891,0.02708445,0.01569059,0.02986337,-0.02228778
1.012161,-0.05980619,-0.191325,0.004550726,0.01259968,0.02500339,0.006965956,0.0123203,-0.01693906
1.019165,-0.06608684,-0.200197,0.01166772,0.006481073,0.01638251,0.01305964,0.01515549,-0.02052565
1.025849,-0.06854375,-0.2101145,0.01845867,0.004174146,0.006698332,0.01486471,0.02706963,-0.02282839
1.020868,-0.06943246,-0.2040354,0.01357945,0.003423506,0.01299273,0.006259385,0.02468117,-0.02552298
1.013307,-0.06949301,-0.1948673,0.006112939,0.003489384,0.02235825,0.002817814,0.0131598,-0.0206087
1.012931,-0.06617619,-0.1977284,0.005826285,0.006921288,0.01967667,0.01167181,0.003721477,-0.009083275
1.011422,-0.06568497,-0.1988538,0.004398246,0.007516493,0.01871272,0.02348058,0.006407108,-0.007015315
1.007319,-0.06366783,-0.1976473,0.000370798,0.00962667,0.02006222,0.02673792,0.01524042,-0.01443823
1.006036,-0.06261344,-0.1982442,-0.0008442684,0.01076325,0.01959008,0.02796515,0.006345548,-0.0221625
1.004364,-0.06510752,-0.1944013,-0.002453654,0.008340554,0.02353924,0.03165199,0.002389575,-0.02099736
1.002561,-0.06240199,-0.1917717,-0.004200219,0.01110678,0.02625667,0.03074018,0.008188864,-0.01760155
1.002868,-0.06170469,-0.1912132,-0.003842362,0.01185415,0.02688429,0.03162304,0.002270267,-0.0227646
1.002688,-0.06184754,-0.1880924,-0.003976761,0.01175082,0.03005527,0.03906208,0.0008745033,-0.023257
1.002779,-0.0574871,-0.1853961,-0.003845085,0.01614025,0.03278276,0.04268981,-0.001284683,-0.01893784
1.003247,-0.05639926,-0.1839393,-0.003339413,0.01724652,0.03425132,0.04124938,-0.003994997,-0.01864255
1.005284,-0.05753893,-0.1858716,-0.001269239,0.01611459,0.03231093,0.03768381,-0.00133269,-0.01501186
1.010718,-0.0607284,-0.1879186,0.004194102,0.0129221,0.03023595,0.03458586,-0.007173854,-0.01427531
1.014363,-0.06370553,-0.1883532,0.007865649,0.009931246,0.02975325,0.03823784,-0.008024199,-0.01853048
1.014562,-0.06286037,-0.1944452,0.00808674,0.01075217,0.02359308,0.04267033,-0.008835207,-0.01874978
1.016326,-0.06392016,-0.2008756,0.00986979,0.009657927,0.01707488,0.04321971,-0.01503168,-0.02041647
1.019427,-0.06599088,-0.200465,0.01298577,0.007542856,0.01737848,0.04396259,-0.01227609,-0.02061747
1.019561,-0.06467752,-0.1954765,0.01313036,0.008802347,0.02224165,0.04434207,-0.01072603,-0.0173002
1.018349,-0.06009374,-0.189545,0.01192492,0.01332312,0.02802995,0.04320022,-0.01117993,-0.01792518
1.017977,-0.05627475,-0.1869283,0.01155297,0.01707021,0.03048611,0.04079094,-0.01301566,-0.0164363
1.01777,-0.05638338,-0.1907817,0.01134244,0.01688088,0.02645502,0.03884291,-0.01900696,-0.01372887
1.017802,-0.05759858,-0.1972374,0.01136474,0.01557619,0.01980487,0.03507964,-0.02211741,-0.0128759
1.013931,-0.05860747,-0.1970944,0.007477849,0.01446908,0.01973709,0.02959671,-0.02525048,-0.01117545
1.005495,-0.06179783,-0.1955028,-0.0009789239,0.0111719,0.0211023,0.02777915,-0.02212108,-0.01270573
0.9997298,-0.0650498,-0.195872,-0.006770479,0.007804788,0.02049183,0.02612215,-0.0139238,-0.01223595
1.000991,-0.06194595,-0.1913802,-0.005540304,0.01078557,0.02472809,0.02473917,-0.01570357,-0.0108298
1.004647,-0.05777455,-0.1882518,-0.001918771,0.01482634,0.02758736,0.02515998,-0.01896773,-0.01212822
1.005206,-0.05841329,-0.1877708,-0.001398768,0.01404969,0.02778587,0.0218742,-0.02160415,-0.008006926
1.006947,-0.05847492,-0.187186,0.0003010363,0.01384306,0.02807517,0.01574179,-0.03694396,-0.003584348
1.010231,-0.05913168,-0.1885491,0.0035408,0.0130344,0.026404,0.008989807,-0.04915448,-0.00170714
1.013938,-0.06008047,-0.1909467,0.007202332,0.01192704,0.02368609,0.005308881,-0.0402382,-0.0008568686
1.020389,-0.05860324,-0.1960546,0.01360405,0.0132393,0.01824604,0.006887693,-0.03036675,-0.003713943
1.021915,-0.05863859,-0.1997678,0.01507913,0.01303282,0.0141896,0.006094071,-0.03260085,-0.007262179
1.01915,-0.06111996,-0.2016424,0.0122596,0.01037443,0.01196168,-9.401957e-06,-0.03090223,-0.01208386
1.018038,-0.06433717,-0.2023903,0.01109006,0.00697465,0.01085121,-0.004833663,-0.02705165,-0.0102448
1.015743,-0.06450394,-0.1999482,0.008733303,0.006620201,0.01292256,-0.003595378,-0.02926416,-0.005395335
1.013371,-0.06247332,-0.2027311,0.006296966,0.008458514,0.009761817,-0.001361769,-0.02823225,-0.01272636
1.010877,-0.06065099,-0.2064661,0.003734389,0.01008439,0.005642872,-0.001826295,-0.02777576,-0.0164524
1.00878,-0.05731287,-0.2045045,0.001565635,0.01322225,0.00721547,0.001933827,-0.03118423,-0.01168396
1.008756,-0.05777939,-0.2009597,0.001467101,0.01255191,0.01036726,0.01030747,-0.03499351,-0.01127748
1.008164,-0.06038776,-0.1962994,0.0007970761,0.009736344,0.01463151,0.01719939,-0.042003,-0.01073459
1.007071,-0.05937877,-0.1963756,-0.0003758352,0.01053498,0.01415673,0.02117914,-0.04483423,-0.006620783
1.005504,-0.05969835,-0.1983551,-0.002024234,0.01000217,0.01177685,0.02286137,-0.04599396,0.001114367
1.003441,-0.06026215,-0.1960757,-0.004171481,0.009222538,0.01365462,0.02496737,-0.04724824,0.005059949
1.003336,-0.060321,-0.1945168,-0.004360156,0.008945531,0.01481097,0.0259639,-0.04219168,0.00194281
1.008192,-0.06260614,-0.1928196,0.0004099446,0.006440215,0.01610535,0.02433645,-0.04176127,0.001731313
1.014202,-0.06265109,-0.1933503,0.006334645,0.006173425,0.01517186,0.02505643,-0.04264601,-1.467412e-05
1.015111,-0.06094737,-0.1974156,0.007158487,0.007654015,0.01070399,0.02606723,-0.03844896,-0.004292487
1.018394,-0.05926074,-0.2003177,0.01035618,0.009116571,0.007400142,0.02562695,-0.03405898,-0.002867456
1.024199,-0.05755715,-0.2037893,0.01607492,0.01059538,0.003528073,0.02634472,-0.02484183,-0.001429127
1.020799,-0.05907849,-0.2037581,0.01258787,0.008848732,0.00316076,0.02594015,-0.01832329,-0.003174341
1.016379,-0.06227104,-0.2013982,0.008079688,0.005430547,0.005124967,0.02683757,-0.01961422,-0.003779337
1.017604,-0.06443655,-0.2025166,0.009215147,0.00303933,0.003614355,0.02728955,-0.01770627,-0.003493932
1.012424,-0.06324292,-0.1986198,0.003944389,0.004007575,0.007122892,0.02040309,-0.01261676,-0.002140441
1.004698,-0.05962386,-0.1938351,-0.003874094,0.007401941,0.01152375,0.01441263,-0.01416898,-0.000581435
1.004585,-0.05882263,-0.1969382,-0.004080776,0.007979436,0.008041638,0.01768989,-0.01804055,-0.001434333
1.004565,-0.05769254,-0.1984027,-0.00419575,0.008886925,0.006203142,0.02009693,-0.01565207,-0.0004095882
1.00022,-0.05628626,-0.1975301,-0.008634891,0.01007181,0.00670699,0.011051,-0.01969407,0.002983734
0.9977856,-0.05874157,-0.1989532,-0.01116301,0.007396365,0.004920729,-0.001639829,-0.02955397,0.005178778
1.001557,-0.05963239,-0.1987147,-0.007484393,0.00628676,0.004801864,-0.007212892,-0.03012074,0.008509703
1.006502,-0.06022161,-0.1973469,-0.002629851,0.005480228,0.005818404,-0.00607887,-0.02274334,0.009849769
1.007963,-0.06357643,-0.1974528,-0.001257356,0.001909769,0.005367709,-0.004943007,-0.01523517,0.006663022
1.010712,-0.06305088,-0.19935,0.001404728,0.002221637,0.003132231,-0.007616036,-0.0208081,0.00420837
1.013863,-0.06147304,-0.2030719,0.004472109,0.003588045,-0.0009210608,-0.007246341,-0.02663913,0.005685103
1.013039,-0.06309402,-0.2071291,0.003566551,0.001758158,-0.005302488,-0.005331849,-0.01616516,0.009456695
1.008597,-0.06239796,-0.209189,-0.0009545081,0.002248099,-0.007678829,-0.006771722,-0.01147832,0.01177333
1.003422,-0.06110693,-0.2076611,-0.006206145,0.00333605,-0.006459043,-0.007009484,-0.01469867,0.01143119
1.003138,-0.06225859,-0.2033593,-0.006565144,0.001984528,-0.002456543,-0.009295255,-0.01369481,0.008825651
1.003624,-0.06520185,-0.199518,-0.006150953,-0.001155151,0.001094768,-0.01029378,-0.01328484,0.007428888
1.002105,-0.06920193,-0.1974501,-0.007737838,-0.005347938,0.002882154,-0.008457733,-0.0154915,0.007712441
1.004878,-0.06664906,-0.1954661,-0.005030189,-0.00298366,0.004595117,-0.01041206,-0.02171538,0.006395423
1.007101,-0.06150789,-0.1954605,-0.002868933,0.001973394,0.004338931,-0.01054402,-0.02590724,0.006229127
1.007672,-0.06367899,-0.1982597,-0.002354955,-0.0003771022,0.001287084,-0.01036378,-0.0244842,0.007615484
1.011055,-0.06812801,-0.1991299,0.0009739744,-0.005000628,0.000173359,-0.009444661,-0.02390372,0.009116335
1.01193,-0.07163174,-0.1985784,0.001798214,-0.008673705,0.0004902747,-0.007072325,-0.02560917,0.00880261
1.01218,-0.06983287,-0.2002679,0.002001465,-0.007038628,-0.001424829,-0.0136182,-0.02862482,0.006119402
1.013304,-0.06415038,-0.2038466,0.003082453,-0.001513974,-0.00522014,-0.01966313,-0.03065278,0.00532747
1.011979,-0.06553212,-0.2061817,0.001717349,-0.003047366,-0.007762736,-0.01692166,-0.02935336,0.005059832
1.012103,-0.06772778,-0.2031742,0.001803417,-0.005388344,-0.004953363,-0.01507907,-0.0270728,0.004905386
1.011146,-0.06777484,-0.1999179,0.0008121806,-0.005574256,-0.001885809,-0.01549701,-0.02780491,0.004294757
