accx,accy,accz,body_accx,body_accy,body_accz,body_gyrox,body_gyroy,body_gyroz
1.020284,-0.1963598,0.04680608,0.008227651,-0.02014994,-0.04437456,-0.02382769,-0.04439989,0.01510686
1.028609,-0.2104821,0.04100524,0.01656153,-0.03392296,-0.04994277,0.02156386,-0.04343713,0.03000973
1.035882,-0.2123215,0.05349498,0.02384214,-0.0354349,-0.03721274,0.064477,-0.03179649,0.03335881
1.038188,-0.2147865,0.06429548,0.02615255,-0.03759195,-0.02616337,0.08972509,-0.01411386,0.02818537
1.030934,-0.2213073,0.07688006,0.01889935,-0.04382176,-0.013321,0.1062341,0.006390716,0.02939748
1.019127,-0.2265748,0.08897616,0.007087851,-0.0488126,-0.0009585306,0.1334585,0.02421196,0.0342163
1.010728,-0.2351547,0.08782585,-0.001319565,-0.05712766,-0.001834802,0.1656861,0.03767512,0.03922674
1.005726,-0.2376165,0.0926598,-0.006335229,-0.05933344,0.003279686,0.20185,0.04513341,0.05340342
1.005477,-0.2338341,0.1003921,-0.006602008,-0.05530107,0.0112977,0.2523523,0.05425163,0.06665571
1.013155,-0.2217744,0.09525513,0.001054363,-0.04299482,0.006450086,0.3018354,0.07583308,0.06750271
1.019884,-0.1943274,0.09241343,0.007758401,-0.01530269,0.003899998,0.3143619,0.09742167,0.06871295
1.020992,-0.1655651,0.09432099,0.008839122,0.01370409,0.006100143,0.2976841,0.09076365,0.06667547
1.021292,-0.1472455,0.087313,0.009108323,0.03226706,-0.0006154024,0.2650415,0.079461,0.05050675
1.022651,-0.1337685,0.07719131,0.01043327,0.04598471,-0.01044565,0.2013613,0.0866061,0.02712263
1.023081,-0.1269798,0.07343013,0.01082528,0.05300875,-0.01391683,0.1285865,0.08422996,-0.0006998032
1.023025,-0.1269905,0.0727229,0.01072742,0.05322545,-0.01433564,0.0647269,0.08237559,-0.02902416
1.025614,-0.1214111,0.07487222,0.01327205,0.05902163,-0.01189946,-0.0108144,0.09218358,-0.05158501
1.026087,-0.1234298,0.08519945,0.01369604,0.05720619,-0.001286989,-0.07646591,0.09913663,-0.06710886
1.025085,-0.1325024,0.09791791,0.01264044,0.04832098,0.01171469,-0.11123,0.1103523,-0.07277738
1.021441,-0.1291596,0.1043955,0.008938293,0.0518331,0.01847264,-0.1542201,0.1093337,-0.07991449
1.010171,-0.135105,0.1110709,-0.002394054,0.04603735,0.02542418,-0.2021542,0.09734703,-0.09993278
1.00644,-0.1481091,0.1170917,-0.006192549,0.0331616,0.03171532,-0.2190589,0.09557336,-0.1140695
1.012632,-0.1546268,0.1134473,-7.084389e-05,0.02675033,0.02833382,-0.2201625,0.09072201,-0.1156459
1.014936,-0.166854,0.1128964,0.002160722,0.01460722,0.02803658,-0.2159439,0.08616903,-0.1190119
1.012029,-0.1724204,0.118359,-0.0008222519,0.009102951,0.03374223,-0.2032431,0.07900418,-0.1151315
1.008817,-0.1769997,0.11727,-0.004113127,0.004564594,0.032884,-0.1972485,0.06847876,-0.1033794
1.009854,-0.1824018,0.1145404,-0.003155445,-0.0008166913,0.03037149,-0.1942393,0.07311881,-0.09896969
1.009555,-0.1785678,0.1126725,-0.003535912,0.003019298,0.02870591,-0.1808639,0.07206496,-0.09584529
1.006438,-0.1840832,0.1157725,-0.006733795,-0.002511649,0.03199234,-0.1633407,0.05518662,-0.09055637
1.005296,-0.1840105,0.1215066,-0.007958149,-0.00247078,0.03789605,-0.1505283,0.03626247,-0.08629004
1.004939,-0.1765491,0.1147551,-0.008396345,0.004943884,0.03129634,-0.1379051,0.01844147,-0.0794499
1.006132,-0.1813756,0.1099011,-0.007283378,5.685066e-05,0.02657534,-0.1171453,0.005495786,-0.07077692
1.006107,-0.1795733,0.1144482,-0.007387565,0.001786091,0.03123633,-0.09922174,-0.002150951,-0.05895394
1.007677,-0.1782236,0.114483,-0.005894231,0.003050963,0.03136527,-0.08767079,-0.004777594,-0.04511879
1.010896,-0.1828363,0.114223,-0.002749406,-0.001657129,0.03117926,-0.0665004,-0.01516931,-0.03768027
1.007428,-0.1785997,0.1148237,-0.006288499,0.002474389,0.03183353,-0.04840705,-0.03130178,-0.02819466
1.004024,-0.1748462,0.1136424,-0.009761043,0.006113999,0.03068512,-0.04104382,-0.03971009,-0.005010527
1.003886,-0.1678108,0.1151214,-0.009964777,0.01302756,0.03217605,-0.02378145,-0.05188201,0.01220533
1.002898,-0.162022,0.1215276,-0.01101414,0.01868684,0.03857301,0.0001459777,-0.06228473,0.01710607
1.001747,-0.1659282,0.1294231,-0.01222173,0.01464367,0.04643786,0.0120047,-0.06823806,0.02427849
0.9999261,-0.1630661,0.1307512,-0.01409535,0.01736146,0.0477133,0.01253641,-0.08088268,0.02462979
1.000511,-0.1595991,0.1292499,-0.01355727,0.02067668,0.04613682,0.02186615,-0.09462608,0.02672896
1.004669,-0.1637995,0.1280137,-0.009441024,0.01631727,0.04480229,0.03805126,-0.1070495,0.03575937
1.010915,-0.1664555,0.1222517,-0.003231491,0.01349499,0.03891845,0.05094146,-0.1135872,0.03280917
1.014469,-0.1676155,0.1171413,0.0002929728,0.01216162,0.03366263,0.06869311,-0.1205453,0.03276571
1.012096,-0.1692938,0.1131935,-0.002104573,0.01030318,0.02954597,0.07682598,-0.133352,0.03927136
1.012221,-0.1716531,0.1076839,-0.001998216,0.007757425,0.0238447,0.07744484,-0.1421986,0.04205156
1.015076,-0.1722588,0.1065246,0.0008432401,0.006959414,0.02247161,0.08489941,-0.1474479,0.04708357
1.015752,-0.1717229,0.1048509,0.001509716,0.007297724,0.02056309,0.08867687,-0.1445713,0.04675555
1.017798,-0.17217,0.09886002,0.003550983,0.00664832,0.01431741,0.09375404,-0.1364182,0.04459101
1.021151,-0.1694502,0.09717208,0.006903361,0.009161531,0.0123559,0.09256468,-0.1231332,0.04354023
1.023134,-0.1666029,0.096921,0.008889292,0.01179847,0.01181388,0.08365953,-0.1057385,0.03677413
1.022412,-0.1658147,0.09819662,0.008172749,0.01237289,0.01278262,0.08025675,-0.1045188,0.03079541
1.021185,-0.1615019,0.1040876,0.006952969,0.0164687,0.01835212,0.06661339,-0.09967182,0.02670002
1.019855,-0.1544634,0.1029193,0.005632645,0.02328701,0.0168488,0.04399161,-0.08115941,0.02865578
1.013338,-0.1484584,0.1000654,-0.0008743409,0.02906842,0.01364758,0.01747514,-0.07919398,0.03473072
1.008024,-0.1471048,0.1024433,-0.006176766,0.03019448,0.01566665,-0.00707659,-0.0800124,0.0362001
1.009663,-0.1538389,0.1002991,-0.004525676,0.02322849,0.01315338,-0.01368581,-0.07014798,0.04028494
1.010191,-0.1614774,0.09968641,-0.003984204,0.0153534,0.01216225,-0.01863594,-0.06772939,0.04097234
1.008371,-0.162293,0.1009626,-0.00578976,0.0142963,0.01305176,-0.01938559,-0.06684214,0.03567075
1.00956,-0.1646448,0.0959546,-0.004584462,0.01169843,0.00764988,-0.009959563,-0.05490934,0.03699439
1.015898,-0.1712166,0.08731283,0.001770469,0.004876326,-0.001391872,-0.0116876,-0.03209956,0.03712479
1.024145,-0.1754564,0.07515518,0.01003602,0.0003826294,-0.01395417,-0.01709544,-0.009528389,0.03325547
1.027174,-0.1851455,0.06809052,0.01308512,-0.009563209,-0.02142632,-0.02160824,-0.0009876517,0.02639824
1.02742,-0.1957392,0.06512782,0.01335037,-0.02041523,-0.02479717,-0.03202787,0.009717685,0.009729287
1.028266,-0.1923487,0.05889826,0.01421582,-0.01728314,-0.03143319,-0.05244824,0.04362442,-0.005581613
1.024962,-0.1847915,0.06203099,0.01093001,-0.009982992,-0.02870283,-0.07792794,0.07599685,-0.01253998
1.019568,-0.1772359,0.06883721,0.005552321,-0.002681582,-0.0222926,-0.08095474,0.06319776,-0.01241033
1.014409,-0.16846,0.07355438,0.0004064935,0.005843621,-0.01796314,-0.08595306,0.03323552,-0.01196506
1.0106,-0.164862,0.08181883,-0.003390637,0.009194851,-0.01007661,-0.1072729,0.03676725,-0.01954907
1.012633,-0.1586831,0.08402078,-0.001347394,0.01513094,-0.008241739,-0.1034099,0.03796576,-0.02145661
1.013438,-0.1579829,0.08727014,-0.0005342842,0.01559202,-0.005347878,-0.09797265,0.02588393,-0.02184708
1.010965,-0.1674117,0.0929583,-0.003000584,0.005927549,-3.195804e-06,-0.1003042,0.02481319,-0.02923505
1.010298,-0.1664311,0.09170166,-0.003662593,0.006675723,-0.001591048,-0.085787,0.01766723,-0.02831076
1.007997,-0.1633322,0.0885237,-0.005959887,0.009545497,-0.005087849,-0.0887208,0.01526582,-0.02493332
1.009479,-0.1674508,0.08237795,-0.004475453,0.005200982,-0.01153987,-0.1018236,0.0112135,-0.02015462
1.013726,-0.1722539,0.08173488,-0.0002262453,0.0001751626,-0.01247632,-0.09789715,-0.005888732,-0.007740019
1.012323,-0.1786367,0.08379033,-0.001626801,-0.006426685,-0.01070093,-0.08866596,-0.01538935,-0.004427454
1.012483,-0.1776426,0.07968779,-0.001465068,-0.00564762,-0.01506978,-0.064123,-0.02010579,-0.008102505
1.015006,-0.176232,0.08026688,0.001059373,-0.004447578,-0.01474284,-0.03367554,-0.0181159,-0.005855852
1.016275,-0.1806769,0.07670264,0.002329618,-0.009097805,-0.01854465,-0.01983259,-0.01984166,-0.005133108
1.017184,-0.1772112,0.07318903,0.003239652,-0.005831918,-0.02228078,-0.01067244,-0.02051565,-0.01275737
1.015138,-0.1741101,0.0807348,0.001193993,-0.002924418,-0.01494196,0.005540037,-0.01483844,-0.02188933
1.013023,-0.1762727,0.08501763,-0.000920517,-0.005274117,-0.01085019,0.02052427,-0.02333261,-0.02321678
1.012629,-0.1750008,0.08682614,-0.001314641,-0.004182675,-0.009216751,0.02513102,-0.02272662,-0.01887965
1.013902,-0.1721417,0.08503295,-4.298317e-05,-0.001497139,-0.01116917,0.0242954,-0.02012606,-0.01639246
1.016483,-0.1698673,0.07981283,0.002537122,0.0006108908,-0.01653281,0.01262823,-0.02322501,-0.01576144
1.016028,-0.170782,0.07989182,0.002080522,-0.0004632344,-0.01658168,-0.005250457,-0.01540027,-0.01374116
1.015445,-0.1726536,0.08028427,0.001495888,-0.002487212,-0.0163014,-0.007593221,-0.01574215,-0.01161895
1.015694,-0.1731773,0.08119729,0.001742639,-0.003156341,-0.01548485,-0.003940501,-0.0167098,-0.01158403
1.014172,-0.1758853,0.08064765,0.0002181863,-0.006002697,-0.01611531,-0.001269829,-0.02441677,-0.01207
1.012821,-0.1770975,0.07707358,-0.001136421,-0.00734623,-0.01975461,0.006081916,-0.03498837,-0.01047548
1.010514,-0.1764655,0.074391,-0.003446704,-0.00683814,-0.02248684,0.01329531,-0.02824468,-0.006067979
1.009803,-0.1787255,0.07285906,-0.004161517,-0.0092147,-0.0240528,0.02262689,-0.03173224,-0.0001742097
1.009451,-0.1824439,0.07444399,-0.004517566,-0.01304184,-0.0224861,0.02959689,-0.03616193,0.003920299
1.006378,-0.1839645,0.07334927,-0.00759466,-0.01466328,-0.02358318,0.03011939,-0.03375928,0.003806388
1.01014,-0.1809586,0.07193352,-0.003836088,-0.01174976,-0.02498533,0.03189648,-0.03899411,0.004368498
1.015732,-0.1768528,0.07270779,0.001753541,-0.007727695,-0.02418147,0.03358288,-0.03839563,0.006935164
1.013689,-0.1758147,0.06865179,-0.0002912803,-0.006764605,-0.02819185,0.03234094,-0.03721823,0.005143843
1.013316,-0.1768576,0.06472592,-0.0006663797,-0.007873724,-0.03205599,0.03145401,-0.03756598,0.0009219493
1.014541,-0.179359,0.06299032,0.0005584801,-0.01043268,-0.03371352,0.02980618,-0.03143533,-0.002510494
1.013673,-0.180716,0.06969231,-0.0003092694,-0.01183851,-0.02691691,0.02816878,-0.0199793,-0.003440149
1.014865,-0.1780672,0.08004373,0.0008832737,-0.009229829,-0.01645428,0.02720787,-0.01028432,-0.001211025
1.015858,-0.1751976,0.07660453,0.00187727,-0.006391612,-0.01976602,0.0209965,-0.01347441,0.001927582
1.016072,-0.1763547,0.07397702,0.002092132,-0.007571524,-0.02225033,0.01780739,-0.01649547,0.01120157
1.016372,-0.1782534,0.07518061,0.002394296,-0.009484521,-0.02088828,0.02196342,-0.01336923,0.01720044
1.014103,-0.1783965,0.06896305,0.000126688,-0.009633605,-0.02693251,0.01988843,-0.01453622,0.008589129
1.011878,-0.1791858,0.06553379,-0.002096994,-0.01042075,-0.03017387,0.01495114,-0.01285364,0.002734437
1.014007,-0.1776912,0.06370548,3.40875e-05,-0.008915898,-0.03179985,0.01290895,-0.009713839,0.006281552
1.016693,-0.1756005,0.06262444,0.002722056,-0.006806911,-0.03266413,0.0122616,-0.01271943,0.009655869
1.015994,-0.1784037,0.06433234,0.002025288,-0.009584119,-0.03072505,0.01386985,-0.01730533,0.01073748
1.01714,-0.179704,0.06009174,0.003172983,-0.01085075,-0.03472008,0.01343988,-0.02173958,0.0100923
1.021127,-0.1771215,0.05664813,0.007162459,-0.008227259,-0.03790371,0.01764726,-0.02102531,0.01086774
1.023506,-0.1755756,0.05946089,0.009542234,-0.006633051,-0.0348165,0.02214146,-0.01457688,0.01026482
1.023473,-0.1752022,0.06217753,0.009509192,-0.006204339,-0.0318109,0.01207937,-0.007976297,0.004406158
1.02119,-0.1739049,0.06516062,0.007226054,-0.004845035,-0.02852447,0.002781042,0.0009242492,-0.003638328
1.019736,-0.1699195,0.06772997,0.005768773,-0.000791384,-0.02563772,0.002632935,0.003057324,-0.009409443
1.017899,-0.1637322,0.07084666,0.003927101,0.00546988,-0.02219005,-0.003064065,-0.001310908,-0.009131508
1.015492,-0.1575909,0.07465771,0.001514635,0.01169007,-0.01803512,-0.0181446,0.0009027825,-0.008237862
1.018038,-0.1573419,0.07375611,0.004051725,0.01202208,-0.01858075,-0.0367423,0.002218466,-0.01051188
1.019777,-0.1623257,0.07239457,0.005780282,0.007124226,-0.0195751,-0.0510321,0.006856687,-0.0132479
1.019013,-0.1659284,0.07158078,0.005004694,0.003609465,-0.02001133,-0.05624905,0.01561371,-0.0161023
1.019202,-0.1705699,0.06832612,0.005178781,-0.0009427262,-0.0228788,-0.05596514,0.01286143,-0.01575588
1.015464,-0.1733474,0.06903039,0.001424641,-0.003629955,-0.02177837,-0.0538389,0.01180356,-0.01636545
1.011779,-0.1735842,0.07040871,-0.00227958,-0.003775712,-0.01999554,-0.04660854,0.01579522,-0.02161181
1.012535,-0.1771982,0.06876277,-0.001543611,-0.00729817,-0.02122925,-0.03703359,0.01389261,-0.02142627
1.014592,-0.1784665,0.06920189,0.0004913408,-0.00847424,-0.02037077,-0.03123876,0.01451817,-0.01379633
1.015892,-0.1784882,0.06779715,0.00176755,-0.00840307,-0.02134965,-0.02282983,0.01667482,-0.007750961
1.015194,-0.1797208,0.06477594,0.00104466,-0.009541872,-0.02393902,-0.01432479,0.0156877,-0.009526857
1.014924,-0.1788394,0.06583474,0.0007487695,-0.008565793,-0.02244286,-0.01511376,0.01093153,-0.01253711
1.014585,-0.1794809,0.06906967,0.0003824286,-0.009111435,-0.01876551,-0.01475306,0.002998464,-0.009107934
1.013472,-0.1801378,0.07180168,-0.0007583567,-0.009671271,-0.01558652,-0.007985908,0.0005647217,-0.005944088
1.01387,-0.180546,0.07113236,-0.0003897334,-0.009981139,-0.01580497,-0.00442067,0.0004688453,-0.001351695
1.014767,-0.1822988,0.06783023,0.0004778224,-0.01163405,-0.01865299,-0.001894693,-0.003536963,0.006502504
1.01736,-0.1862654,0.06335759,0.003040216,-0.01549905,-0.02266885,0.003358222,-0.006736859,0.008346052
1.020541,-0.1924365,0.05856315,0.006190914,-0.02156651,-0.02700421,0.009179946,-0.007267724,0.005889429
1.019904,-0.1908024,0.06228689,0.005523069,-0.0198263,-0.02281928,0.01654824,-0.006601354,0.000775239
1.018249,-0.1864628,0.06816618,0.00383585,-0.01537752,-0.0164769,0.02391486,-0.004125702,-0.003064449
1.018026,-0.1866828,0.06475472,0.003579568,-0.0154849,-0.0194237,0.02941893,0.001090324,-0.00139943
1.016354,-0.1825811,0.06382061,0.001873567,-0.01126681,-0.01989201,0.03119247,0.005803554,-0.002359902
1.015757,-0.1788928,0.06488549,0.001241619,-0.007458506,-0.01836056,0.03152263,0.007184733,-0.004048307
1.016605,-0.1791807,0.06115224,0.002054391,-0.007622627,-0.02162679,0.03304928,0.007887311,-0.004203773
1.014707,-0.1790463,0.06226854,0.0001200503,-0.007361004,-0.0200433,0.03187523,0.008896053,-0.00476813
1.014866,-0.1803816,0.06350446,0.0002416358,-0.008565851,-0.01834028,0.03190168,0.007430109,-0.002290867
1.016094,-0.1807658,0.06156635,0.001432295,-0.00881644,-0.01981162,0.03345665,0.006215786,-0.001059252
1.014289,-0.1807778,0.06292273,-0.0004104438,-0.008691875,-0.0179891,0.03427759,0.008417812,-0.003128275
1.013654,-0.1821689,0.06261822,-0.001083233,-0.009943633,-0.01782835,0.03865457,0.008878312,-0.0060877
1.012229,-0.1816862,0.06205753,-0.002546425,-0.009318883,-0.01792493,0.04270413,0.008560044,-0.007410775
1.011796,-0.1791395,0.06316504,-0.003017811,-0.006627561,-0.01635473,0.0434303,0.0081312,-0.004693299
1.013363,-0.1761087,0.0630744,-0.001489306,-0.003449787,-0.0159844,0.03903722,0.004310379,-0.001912847
1.012249,-0.1747776,0.06404912,-0.002639979,-0.00196958,-0.01455071,0.03303889,0.001515578,0.0001986716
1.013265,-0.1747829,0.06325483,-0.001661482,-0.001823999,-0.01488837,0.03256795,-0.001993837,0.002489841
1.014641,-0.175611,0.06247038,-0.0003208626,-0.002500081,-0.01521883,0.02800724,-0.004034759,0.002747988
1.013477,-0.1756529,0.06631818,-0.001519539,-0.002389022,-0.01091997,0.01838764,-0.00296413,0.003100454
1.013998,-0.1751367,0.06889312,-0.001033034,-0.001719351,-0.007897295,0.01505669,-0.005316724,0.006729247
1.013965,-0.1806757,0.06631,-0.001099216,-0.007104702,-0.01003644,0.0168246,-0.005903053,0.009086936
1.013899,-0.1852349,0.06316833,-0.001197054,-0.01151024,-0.01273836,0.02159325,-0.009155866,0.007100925
1.014977,-0.1817437,0.06463185,-0.000148899,-0.007865282,-0.01083963,0.02896804,-0.01354145,0.007301809
1.015562,-0.1780355,0.06883417,0.0004067701,-0.004003392,-0.006206944,0.03033475,-0.00851431,0.008066858
1.016553,-0.1754985,0.07176074,0.001369967,-0.001312713,-0.002855251,0.02130844,-0.006733169,0.00634136
1.017617,-0.1741134,0.07138642,0.002406254,0.0002256543,-0.002810224,0.009460789,-0.005948639,0.004978821
1.01811,-0.1742801,0.06914767,0.002873362,0.000211641,-0.004635928,-0.001733205,-0.0005746324,-0.0003920684
1.016325,-0.1734818,0.07015718,0.001064223,0.001161474,-0.003220189,-0.01084315,0.001638121,-0.00552247
1.014395,-0.1739059,0.07058398,-0.0008904509,0.0008875384,-0.002394379,-0.01129046,0.005102272,-0.00444086
1.015206,-0.1770228,0.0683683,-0.000102003,-0.002081004,-0.004218704,-0.005540708,0.0043266,-0.003519746
1.014678,-0.1812808,0.06778216,-0.0006532046,-0.006192543,-0.004421447,6.923931e-05,0.001897255,-0.003121532
1.013495,-0.1829568,0.06614419,-0.001857258,-0.007724206,-0.005684256,0.004360542,0.006022891,0.0003317544
1.015348,-0.1815618,0.06525604,-2.524371e-05,-0.006186814,-0.006205649,0.007753945,0.00543289,0.005666102
1.018452,-0.1803956,0.06606035,0.00305968,-0.004880095,-0.005043063,0.01128932,0.003437475,0.006810916
1.020186,-0.178623,0.06655684,0.004774715,-0.00296886,-0.004196888,0.0111722,0.004224503,0.0008019887
1.019056,-0.175807,0.06880057,0.003626144,-1.607582e-05,-0.001612155,0.00700707,0.005153782,-0.003640693
1.015966,-0.1741806,0.06773941,0.0005190537,0.001745117,-0.002341135,0.005431912,0.009173412,-0.001769553
1.01292,-0.173472,0.06366836,-0.002544582,0.002586109,-0.006088965,0.00214107,0.008737477,0.000293083
1.011691,-0.173603,0.06234769,-0.003790304,0.002584975,-0.007095383,-0.004487988,0.006438709,-0.0009298238
1.012689,-0.1766064,0.06374969,-0.002808777,-0.0002915087,-0.005388001,-0.003456179,0.007388031,-0.003079262
1.012806,-0.181426,0.06638831,-0.002706445,-0.004987165,-0.002452774,-0.0009567851,0.0071495,-0.004972483
1.012466,-0.1846075,0.06477143,-0.003061229,-0.008047765,-0.003781766,-0.003715725,0.01018905,-0.005076786
1.014476,-0.1834427,0.06080395,-0.001065123,-0.006764864,-0.007470027,-0.002427974,0.01313588,-0.003661584
1.015895,-0.1805257,0.0594225,0.0003414978,-0.003732413,-0.008580783,-0.0006919767,0.01163166,-0.004700038
1.014908,-0.1805533,0.05761569,-0.0006564129,-0.003647032,-0.01012513,-0.0007574613,0.01083052,-0.005159744
1.0133,-0.1805454,0.05312325,-0.002274722,-0.003528452,-0.01436297,0.000418581,0.01080466,-0.004489731
1.01205,-0.1803195,0.04746373,-0.003534519,-0.003194295,-0.01977522,-0.001445316,0.01148588,-0.005400488
1.012331,-0.1809844,0.05191173,-0.003261117,-0.003753174,-0.01508659,-0.001060481,0.01233775,-0.004366851
1.013182,-0.1801889,0.06143154,-0.002417163,-0.002853928,-0.005332185,0.002199358,0.01190505,-0.00344335
1.014478,-0.1817168,0.06004558,-0.00112688,-0.004280196,-0.006489201,0.004165577,0.01017891,-0.001947882
1.017572,-0.1861374,0.05998528,0.001963254,-0.008601281,-0.006326078,0.006425113,0.008176245,0.001526036
1.018773,-0.1894087,0.06106556,0.003161452,-0.01177485,-0.005027782,0.004805421,0.008204435,0.001226186
1.016664,-0.1863386,0.05640521,0.001050343,-0.008608578,-0.009475409,0.001854513,0.009075574,-0.0008556989
1.015327,-0.1809774,0.0584632,-0.0002874025,-0.003152408,-0.007209807,0.001566692,0.01086316,-0.002959877
1.015222,-0.1843612,0.05990014,-0.0003930076,-0.006442233,-0.005570191,0.003733537,0.01254672,-0.004654541
1.015161,-0.1859665,0.05993417,-0.0004533298,-0.007954438,-0.005338261,0.00868498,0.0107918,-0.00624864
1.015409,-0.1814377,0.06504039,-0.0002040374,-0.003333399,-3.884835e-05,0.01016685,0.009188269,-0.009773127
1.015254,-0.1809995,0.06431221,-0.0003572437,-0.002803614,-0.0005786003,0.01340776,0.009042621,-0.006535876
1.015188,-0.1803297,0.06299794,-0.0004210779,-0.002042952,-0.001709326,0.02092102,0.007283663,-0.001278163
1.015054,-0.1802078,0.06425597,-0.000551745,-0.001830974,-0.000272707,0.02019256,0.005551412,-0.003321967
1.013394,-0.1812198,0.06175888,-0.002207847,-0.002753683,-0.002596267,0.01414147,0.004037126,0.000483727
1.01215,-0.1796185,0.06074689,-0.003448377,-0.001064111,-0.00343978,0.009277145,0.00211827,0.006426657
1.013238,-0.1789995,0.06234422,-0.002354692,-0.0003578895,-0.001679011,0.007857295,0.002542712,0.001196061
1.014482,-0.1773921,0.06472254,-0.001105106,0.001335663,0.0008577512,0.01057865,0.00474006,-0.004651759
1.013876,-0.177511,0.06593395,-0.001705038,0.001301569,0.002222564,0.01073342,0.006974549,-0.005366107
1.013558,-0.1804245,0.06526323,-0.002015754,-0.001528692,0.001700077,0.01144325,0.009027862,-0.005660086
1.01421,-0.1806032,0.06628696,-0.001355355,-0.001625637,0.002866756,0.01229621,0.008947767,-0.007083643
1.01378,-0.1809191,0.06793012,-0.001776698,-0.001861565,0.004647431,0.009974749,0.007617201,-0.008497497
1.013774,-0.1814282,0.06837769,-0.001772795,-0.002292283,0.00522691,0.01275129,0.006989465,-0.003237246
1.014117,-0.181582,0.06745559,-0.001419546,-0.002369325,0.004430928,0.01631075,0.006066746,0.002707847
1.013684,-0.1801507,0.06504398,-0.001841396,-0.0008628752,0.00213949,0.01487313,0.006888815,-0.002603269
1.014336,-0.1752338,0.06238457,-0.001177571,0.004127397,-0.0004057662,0.01189681,0.009460702,-0.007083475
1.01572,-0.1732433,0.06177443,0.0002201464,0.006189468,-0.0009076873,0.005585624,0.01055416,-0.002449126
1.017075,-0.174377,0.06320381,0.001588494,0.005125344,0.0006241183,-0.001585433,0.0121427,-0.001192219
1.017037,-0.1772369,0.06374516,0.001564645,0.002332466,0.001262237,-0.003142734,0.01256894,-0.003768086
1.01614,-0.1811891,0.06629798,0.0006823738,-0.001555315,0.003906268,-0.0003986087,0.01140163,-0.005905466
1.016721,-0.1801846,0.07131803,0.001278063,-0.0004889366,0.00901194,0.001328842,0.01349568,-0.01045592
1.015551,-0.1780217,0.07307178,0.0001227176,0.001733151,0.01084559,0.004854007,0.01368283,-0.01125934
1.012887,-0.1784982,0.07178861,-0.002525905,0.001313295,0.00963631,0.008104232,0.01168106,-0.007262139
1.012153,-0.1781162,0.06880884,-0.003244414,0.001749242,0.006724161,0.003202175,0.01252363,-0.005537567
1.012716,-0.1791395,0.06555522,-0.002666027,0.0007772941,0.003531759,0.001884029,0.01133705,-0.004397656
1.01454,-0.1814498,0.0646502,-0.0008261563,-0.00148432,0.002681558,0.01138306,0.01060206,-0.002807811
1.015763,-0.1805508,0.06408113,0.0004124773,-0.000539308,0.002161057,0.01812502,0.01229215,-0.002866772
1.015678,-0.1788647,0.05935801,0.0003441597,0.001190379,-0.002519521,0.0139398,0.0104475,-0.003474526
1.016911,-0.1784575,0.05459399,0.001594032,0.001638781,-0.007246674,0.008127925,0.008002925,-0.003649444
1.018437,-0.1773438,0.0612674,0.003135936,0.002791121,-0.0005415846,0.01044517,0.005805444,-0.002174797
1.017487,-0.1776117,0.06994685,0.002202627,0.002559411,0.008164761,0.01091976,0.004112104,0.002527714
1.01587,-0.1782474,0.06754148,0.0006015413,0.001957259,0.005781644,0.008277922,0.007066201,0.006607714
1.016772,-0.1773794,0.06691644,0.001519945,0.002856323,0.005174193,0.007980558,0.008698292,0.002775901
1.016882,-0.1782557,0.06910031,0.001645365,0.002008507,0.007370951,0.002788499,0.008067811,-0.003687795
1.015287,-0.179721,0.06540008,6.475028e-05,0.0005691362,0.003678931,0.00160939,0.008655215,-0.005235702
1.015286,-0.1807997,0.06383938,7.802862e-05,-0.0004862626,0.002121808,0.007962051,0.0065867,-0.00512404
1.01519,-0.1806942,0.0660379,-3.662961e-06,-0.0003597961,0.004319407,0.01073535,0.004794641,-0.002501567
1.015244,-0.1780297,0.07054932,6.324181e-05,0.00232321,0.008825539,0.01045445,0.005674877,-0.002439487
1.015305,-0.1765175,0.07551577,0.0001365087,0.003851814,0.01378232,0.009234195,0.006920705,-0.008909239
1.014117,-0.1761399,0.07214734,-0.001039324,0.004243462,0.01039962,0.008952837,0.007933807,-0.01111059
1.013798,-0.1762668,0.06617582,-0.00134606,0.004128235,0.004409071,0.004868608,0.006933646,-0.007856357
1.013593,-0.176754,0.06532202,-0.001540684,0.003650298,0.003531489,-0.001540233,0.005526509,-0.001574932
1.013054,-0.1760715,0.06744979,-0.002068814,0.004339643,0.005630858,-0.0004663305,0.004828395,0.003255062
1.01235,-0.1768251,0.07076896,-0.002762244,0.003590292,0.008917164,-0.0005436737,0.005726106,0.0005677103
1.012512,-0.1785255,0.07125061,-0.002589976,0.001891614,0.009361548,-0.001845685,0.008691049,-0.001736031
1.014702,-0.1803028,0.07544805,-0.0003904959,0.0001135305,0.01351725,0.002235757,0.01145645,-0.003878132
1.016189,-0.180782,0.08272399,0.001107178,-0.000368786,0.02074679,0.00343815,0.01685279,-0.01024
1.018393,-0.176187,0.0764327,0.003320823,0.00422079,0.01440409,0.001212563,0.02582075,-0.01710306
1.021944,-0.16891,0.06725973,0.006881094,0.01149025,0.005174395,-0.003788443,0.03436911,-0.02355859
1.022103,-0.1630136,0.06590742,0.007050105,0.01737669,0.003760064,-0.01930044,0.03902614,-0.02833916
1.017576,-0.1628095,0.06166827,0.002531724,0.01756778,-0.00054613,-0.04584408,0.04003478,-0.03464639
1.013614,-0.1654362,0.06187909,-0.001423598,0.01492464,-0.0004069046,-0.07258558,0.04055578,-0.04246649
1.015631,-0.1652244,0.06603163,0.0006000092,0.01511592,0.003669985,-0.0977514,0.04073619,-0.04648361
1.018888,-0.1672609,0.06318528,0.003862651,0.01305444,0.0007443536,-0.1226045,0.04187647,-0.04983296
1.019222,-0.1704079,0.06309039,0.004201652,0.00987768,0.0005669503,-0.1256051,0.04080647,-0.05235396
1.017907,-0.1754107,0.06466922,0.002889983,0.004840109,0.002060445,-0.1105547,0.03310156,-0.04961663
1.014561,-0.1859812,0.06401641,-0.0004533607,-0.005769984,0.001319838,-0.09766952,0.02415495,-0.04116079
1.012893,-0.1908574,0.06799848,-0.002120458,-0.01069008,0.005211973,-0.07062571,0.01747473,-0.02886086
1.01302,-0.1901027,0.06931047,-0.001993284,-0.009982926,0.006432104,-0.04172253,0.01383377,-0.02222436
1.013683,-0.1902874,0.06810205,-0.001332176,-0.0102177,0.005130033,-0.02792079,0.01058703,-0.02080172
1.016223,-0.1881706,0.06782067,0.00120648,-0.008152895,0.004753301,-0.004505658,0.002377086,-0.008400209
1.015402,-0.1864545,0.06399724,0.000383729,-0.006489754,0.000832975,0.01829113,-0.005219511,0.007053622
1.013523,-0.1848672,0.06464379,-0.001499068,-0.004956028,0.001381305,0.02432412,-0.00316002,0.00745971
1.014666,-0.1814684,0.06665111,-0.0003596696,-0.001610783,0.003289343,0.02434612,0.003761007,0.004870701
1.015384,-0.1775892,0.0642667,0.000354188,0.002215241,0.000804856,0.02782709,0.00501561,0.009872431
1.016965,-0.1725399,0.06548131,0.001931329,0.007211646,0.001918808,0.04193331,0.005085293,0.01053921
1.016369,-0.1707284,0.06574583,0.001329894,0.008970609,0.002082332,0.05376436,0.007977922,0.002071762
1.01413,-0.17135,0.06455167,-0.0009145919,0.008296474,0.0007870421,0.06161152,0.01022213,-0.003851423
1.015317,-0.1708984,0.0658599,0.0002671184,0.008695193,0.001994219,0.06745349,0.01319951,-0.001224479
1.01376,-0.1735236,0.06506132,-0.001296886,0.006016665,0.001094866,0.06810078,0.01464512,0.001066795
1.01247,-0.1761879,0.06512259,-0.002592819,0.003298286,0.001055812,0.07946221,0.01709784,-0.001001354
1.018136,-0.1741832,0.06565559,0.003066699,0.005248104,0.00148912,0.08777507,0.01903436,-0.0005585974
1.02194,-0.170476,0.06505821,0.00686317,0.008899648,0.0007928484,0.08339717,0.01543285,0.002163284
1.017648,-0.1660602,0.06642585,0.00256394,0.01325878,0.002062549,0.07789026,0.01464645,0.001623345
1.013091,-0.1644251,0.06689915,-0.002000438,0.01483578,0.002438975,0.06869577,0.01647604,-0.000481241
1.015413,-0.168578,0.06662593,0.0003124406,0.01062312,0.002070026,0.06846687,0.01818096,-0.002379959
1.016725,-0.1718821,0.06652336,0.001616132,0.007257143,0.00187295,0.07308042,0.01829215,-0.004031041
1.015589,-0.1726118,0.06600342,0.0004711459,0.006463374,0.001259785,0.07317496,0.01584352,-0.005249329
1.017278,-0.1736752,0.06696554,0.002150541,0.005333589,0.002130038,0.07958316,0.01708266,-0.005883806
1.014844,-0.1721001,0.06872959,-0.0002934058,0.006840066,0.003803639,0.08603341,0.01686939,-0.004065986
1.012207,-0.1707595,0.07062245,-0.002941496,0.008109805,0.005607434,0.09594798,0.01421663,-0.002547982
1.012862,-0.1752964,0.0729411,-0.002296546,0.003499785,0.007838316,0.106942,0.0121497,0.0004442001
1.01039,-0.1788881,0.07525449,-0.004779401,-0.0001670565,0.01006503,0.1043207,0.005880184,0.005023711
1.010669,-0.1734726,0.07542002,-0.004511218,0.005171315,0.01014468,0.1035077,-0.002259368,0.005405377
1.011599,-0.1656901,0.07556173,-0.003591405,0.01287486,0.01020098,0.1046302,-0.007668764,0.006714165
1.009037,-0.1641816,0.08065015,-0.006162881,0.01430264,0.0152041,0.09843408,-0.008229589,0.007719807
1.009791,-0.1653525,0.08463397,-0.005417517,0.01304882,0.01910228,0.1001672,-0.01081139,0.009684089
1.012308,-0.1644162,0.08121669,-0.002908799,0.01389983,0.01559844,0.1030767,-0.01627433,0.0177541
1.014803,-0.1625505,0.07516458,-0.0004202274,0.01567734,0.009458338,0.09918883,-0.0150443,0.02159347
1.017105,-0.1613721,0.07227467,0.001876542,0.01676458,0.00647868,0.09958738,-0.01435344,0.02716857
1.017859,-0.1584697,0.07198456,0.002626702,0.01957224,0.006097001,0.09787568,-0.01507218,0.03441296
1.019311,-0.1517271,0.07133281,0.004075298,0.02621626,0.005351907,0.08816983,-0.007729865,0.0247606
1.020713,-0.1470479,0.06878947,0.005475281,0.03079229,0.002713541,0.07101652,-0.0006387587,0.01254495
1.020686,-0.1471746,0.06474173,0.005446103,0.03055701,-0.00143069,0.04606722,0.001022678,0.01014877
1.019041,-0.1482567,0.06510555,0.003799368,0.0293601,-0.001164528,0.01989915,0.006634131,-0.0001957034
1.017574,-0.1505825,0.06731568,0.002329496,0.02691248,0.000947161,-0.003421306,0.01711691,-0.0172858
1.018852,-0.1543547,0.06565541,0.003606026,0.02301096,-0.0008119812,-0.02313619,0.02276587,-0.02641568
1.020074,-0.1594029,0.0673705,0.004824769,0.01782537,0.0008040972,-0.04368237,0.02550834,-0.03143858
1.019343,-0.16565,0.06929493,0.004090659,0.01143287,0.002629647,-0.06011357,0.03764607,-0.04009969
1.018308,-0.1722392,0.06838165,0.003051949,0.004690554,0.001617795,-0.06262467,0.05499205,-0.05210713
1.01525,-0.1835286,0.07403361,-1.057031e-05,-0.006759263,0.007171612,-0.05187909,0.05807739,-0.05643834
1.010674,-0.1963365,0.08247499,-0.004592285,-0.01973373,0.01551523,-0.02142729,0.03988559,-0.04340794
1.010091,-0.1972411,0.0887131,-0.005181412,-0.02080948,0.0216556,0.02067714,0.01114526,-0.02170645
1.010588,-0.1869253,0.0923527,-0.004691621,-0.01066776,0.02519682,0.04518176,-0.01210604,-0.001342147
1.009711,-0.1670431,0.08793947,-0.005574822,0.009038801,0.02068377,0.03351489,-0.02159382,0.00974538
1.011673,-0.1359481,0.08216445,-0.003618988,0.03995712,0.01480672,-0.004117074,-0.0264181,0.01542973
1.011634,-0.1259201,0.08533037,-0.003664381,0.04980666,0.01786787,-0.05065372,-0.0294636,0.02057015
1.010186,-0.1401841,0.08992903,-0.005117584,0.03536115,0.02235862,-0.1057938,-0.02324908,0.01141175
1.011761,-0.1370378,0.09102618,-0.003547731,0.03832146,0.02334421,-0.1534854,-0.01722511,-0.004831446
1.011566,-0.1351791,0.09175176,-0.003745649,0.03998836,0.02395398,-0.1891684,-0.01747641,-0.01948746
1.01375,-0.1488464,0.08652055,-0.001564417,0.02612261,0.01860216,-0.2149631,-0.0180253,-0.02415395
1.01846,-0.1578656,0.07997722,0.003143991,0.01689775,0.01193308,-0.2159336,-0.01806121,-0.01248383
1.018472,-0.1724353,0.07943888,0.003156206,0.00211503,0.01126371,-0.2080774,-0.01412021,-0.01037028
1.017971,-0.1767244,0.0769283,0.002655633,-0.002393876,0.00861695,-0.1854634,-0.007303731,-0.006393669
1.019001,-0.1772945,0.07256566,0.003686946,-0.003189386,0.004113246,-0.1450442,-0.003677923,-0.0008520629
1.019702,-0.1887128,0.07025445,0.004390018,-0.01483755,0.001656488,-0.117282,-0.002444368,-0.01098257
1.019638,-0.1804107,0.07034445,0.004328002,-0.006768516,0.001597013,-0.08969912,-0.0006228773,-0.006408898
1.018734,-0.1778314,0.07555235,0.003424949,-0.004423973,0.006652071,-0.05924121,0.002091807,-0.004143056
1.017884,-0.186993,0.08078377,0.002576913,-0.01382098,0.01172769,-0.03204001,0.002847531,-0.006823609
1.016134,-0.1826885,0.07830118,0.0008275412,-0.009751409,0.009086568,-0.003792227,0.006536644,0.005182481
1.01643,-0.1827421,0.07452398,0.001123934,-0.01003815,0.005148245,0.01578485,0.01364105,0.006213177
1.017882,-0.1761865,0.07871783,0.002576636,-0.003713044,0.009178615,0.03601433,0.01177344,0.01295266
1.016673,-0.1672292,0.08044929,0.001367002,0.005017133,0.01074445,0.04942019,0.006916251,0.02035637
1.016968,-0.1663446,0.07676138,0.001660773,0.005678562,0.0068889,0.04834497,0.007866628,0.01244653
1.017638,-0.1572482,0.07605737,0.002329221,0.01455558,0.006015417,0.0489983,0.008874725,0.01430201
1.015842,-0.1515894,0.07212189,0.0005310622,0.01999863,0.001908886,0.03705176,0.01242587,0.01348582
1.016053,-0.1460975,0.06567037,0.0007386144,0.02527781,-0.004714835,0.005382104,0.0150986,0.00616003
1.017479,-0.141992,0.06136717,0.002161547,0.02917303,-0.009190767,-0.01732962,0.01275571,-0.001970098
1.016479,-0.1488916,0.06213338,0.001156671,0.02206443,-0.008596993,-0.02787001,0.01365519,-0.009432275
1.016252,-0.1521315,0.06689617,0.0009247741,0.01861616,-0.004005485,-0.04643194,0.01373826,-0.007266822
1.017232,-0.1586152,0.06556103,0.001898767,0.01192407,-0.005510037,-0.06016588,0.01138042,-0.008744958
1.016362,-0.1671217,0.06747292,0.001021677,0.003209041,-0.003765098,-0.05836013,0.01169943,-0.007383495
1.01639,-0.16439,0.07332269,0.001042298,0.005732276,0.001920648,-0.05756537,0.009021807,-0.001764557
1.015977,-0.1625813,0.0720898,0.0006213655,0.007332709,0.0005269842,-0.05746419,0.004982227,-0.003750429
1.013512,-0.1678184,0.07247815,-0.001852026,0.001887931,0.0007579772,-0.05451994,0.001521752,-0.00297531
1.013039,-0.1739043,0.07428907,-0.002334399,-0.004404817,0.002415077,-0.04846269,-0.003372911,-0.004663638
1.013423,-0.1789248,0.07544213,-0.001960514,-0.009630734,0.003417945,-0.03256003,-0.00509517,-0.008454955
1.014811,-0.1810234,0.07751831,-0.0005818733,-0.0119325,0.005347549,-0.01544943,-0.004115974,-0.002998731
1.016049,-0.1805654,0.0775222,0.0006456245,-0.01167452,0.005208404,-0.006070362,0.0006283088,0.001731002
1.014887,-0.1816946,0.07830552,-0.0005262806,-0.01299962,0.005852093,0.002922133,0.005947711,0.0004987293
1.014888,-0.1807936,0.07745362,-0.0005353638,-0.01228962,0.004863832,0.01730734,0.005209204,0.001804665
1.013941,-0.1788199,0.07647483,-0.001492492,-0.01050116,0.003751813,0.03408418,0.005803168,0.007549496
1.012541,-0.1784171,0.07556227,-0.00290225,-0.01027719,0.002709067,0.04379225,0.008391218,0.01017001
1.014334,-0.1726196,0.06944983,-0.001118997,-0.004651554,-0.003530499,0.04405675,0.01070313,0.005411589
1.015244,-0.1696283,0.0656934,-0.0002189109,-0.001824721,-0.007410845,0.04770047,0.01356717,-0.004491412
1.015072,-0.1690308,0.06925731,-0.000399685,-0.001384452,-0.003967305,0.04961009,0.0103402,-0.01121795
1.015718,-0.1633868,0.07562224,0.000237034,0.004109843,0.002281106,0.04106879,0.0075155,-0.009458405
1.016097,-0.1646598,0.07781781,0.0006081582,0.002694162,0.004364087,0.03773442,0.01067366,-0.005706665
1.017173,-0.1662329,0.07643529,0.001676385,0.0009854315,0.002872811,0.03540998,0.009823619,-0.004148963
1.018923,-0.1615127,0.07282787,0.003417858,0.005576607,-0.000839657,0.02420585,0.0001464529,-0.007103531
1.020564,-0.1612897,0.06277583,0.005051524,0.005677029,-0.01099302,0.0182272,-0.01737138,-0.009555329
1.020518,-0.1659244,0.05972063,0.004997735,0.0009256871,-0.0141455,0.03111614,-0.03600719,0.0009947982
1.016023,-0.174127,0.06922708,0.0004954765,-0.007387825,-0.0047318,0.06549175,-0.04460945,0.01680309
1.011394,-0.178098,0.07757283,-0.004142424,-0.01146388,0.003526062,0.09634139,-0.03659806,0.02214092
1.012047,-0.1724558,0.08050079,-0.00349773,-0.005920781,0.006370979,0.103716,-0.01770574,0.01780877
1.013756,-0.1688082,0.07988671,-0.001797449,-0.002365892,0.005678357,0.1034871,-0.001946744,0.01162328
1.014851,-0.1702464,0.0821151,-0.0007099613,-0.003890361,0.007832297,0.1028525,0.005411557,0.005974872
1.017736,-0.1690698,0.08635131,0.002166697,-0.002793825,0.01199767,0.0931649,0.006894814,0.003242991
1.019068,-0.1642413,0.08702061,0.003490311,0.00196086,0.01259919,0.07064918,0.01136526,0.004658218
1.018421,-0.1587324,0.08555041,0.002835271,0.00740185,0.01106362,0.03964314,0.01824859,0.003056847
1.016266,-0.1536801,0.08038334,0.0006732887,0.01239176,0.005833024,0.01410708,0.0137611,0.001772615
1.011717,-0.1487493,0.07587435,-0.003884007,0.01726484,0.001261985,-0.005131914,0.004061851,0.004240158
1.011848,-0.1441305,0.07660765,-0.003761687,0.02182966,0.001934527,-0.03605262,-0.003168829,0.004072058
1.016061,-0.1483265,0.07904905,0.0004443727,0.0175825,0.004316441,-0.05942886,-0.006146659,0.009462634
1.017936,-0.1596598,0.07798892,0.00231097,0.006199754,0.003197989,-0.05099983,0.0009379917,0.01624873
1.019528,-0.164682,0.07301039,0.003895577,0.00112917,-0.001837754,-0.04791852,0.005570423,0.01129452
1.016465,-0.1730011,0.06986901,0.0008255909,-0.007237366,-0.005035197,-0.04935377,0.005818841,0.008631588
1.011702,-0.1803885,0.06759651,-0.003944557,-0.01467086,-0.007362357,-0.02606931,0.006706596,0.01617597
1.013831,-0.1718278,0.06989598,-0.001823297,-0.006154686,-0.005115837,-0.005740842,0.00122365,0.0243061
1.012915,-0.1679086,0.07381839,-0.002746106,-0.002277786,-0.001244348,0.00883414,-0.005418086,0.02701067
1.01069,-0.1670191,0.06802617,-0.004977422,-0.00142817,-0.007085258,0.02457983,-0.01039131,0.02241681
1.016798,-0.157775,0.06506125,0.001123849,0.007778403,-0.01009641,0.02665186,-0.007280225,0.01408064
1.021449,-0.1556767,0.0691783,0.005769776,0.009841295,-0.006022788,0.0224244,0.00172249,0.007919166
1.019427,-0.1571158,0.07287602,0.00374194,0.008368454,-0.002365425,0.01172388,0.0002947681,0.006896795
1.017229,-0.1570451,0.07733295,0.001538636,0.008406678,0.002054323,-0.002864919,-0.0009791496,0.004630349
1.016209,-0.1572195,0.0769941,0.0005135954,0.008200654,0.001681385,-0.01108072,0.0004132819,-0.003791559
1.012995,-0.1568507,0.07604377,-0.002704656,0.008538091,0.0006998563,-0.01706819,-0.002244831,-0.00709386
1.011361,-0.160214,0.0795886,-0.004344433,0.005143478,0.004216167,-0.02576853,-0.0021892,-0.003437958
1.013154,-0.1620942,0.08128279,-0.002556304,0.003231734,0.00588427,-0.03170822,-0.002969626,-0.004014319
1.012642,-0.1629176,0.08090539,-0.003072423,0.002376412,0.005482854,-0.03133232,-0.002180312,-0.004359605
1.013033,-0.1647867,0.08101486,-0.002684554,0.0004749774,0.005570024,-0.03744475,0.001202761,-0.002671389
1.014633,-0.165922,0.08239784,-0.001088299,-0.0006929358,0.006932055,-0.0439349,0.002517759,-0.006592716
1.013637,-0.1694342,0.08169334,-0.002086138,-0.004238015,0.006207604,-0.04582445,0.003398285,-0.008977272
1.013635,-0.1723942,0.07851346,-0.002090621,-0.007230866,0.003008437,-0.04798007,0.003233984,-0.006639272
1.013192,-0.175293,0.07613145,-0.002533746,-0.01016213,0.0006075841,-0.03726315,0.005530711,-0.003257921
1.01203,-0.1773654,0.07356801,-0.003696352,-0.01226605,-0.001974331,-0.02517845,0.005732043,0.001338124
1.012543,-0.1766015,0.07159015,-0.00318209,-0.01153213,-0.003970235,-0.01345135,0.002859457,0.0006205217
1.01262,-0.1779779,0.07065844,-0.00310317,-0.01293652,-0.004919411,0.004248451,0.001988849,-0.001633937
1.012778,-0.1782333,0.07232112,-0.002941984,-0.01321729,-0.003273402,0.009375268,-0.002741596,-0.0003063395
1.014282,-0.1711856,0.0747949,-0.001433993,-0.006191783,-0.0008153207,0.01102156,-0.003601881,-0.001336656
1.015859,-0.1626673,0.07357446,0.0001493115,0.002307642,-0.002050386,0.0122489,-7.447457e-05,0.0007257557
1.015488,-0.1633195,0.07407896,-0.000215147,0.001640004,-0.001559386,0.0100367,-0.002140392,0.005680342
1.01481,-0.1656199,0.07583532,-0.0008851026,-0.000672673,0.0001846139,0.01414501,-0.003830259,0.007117171
1.015567,-0.1626281,0.07437598,-0.0001195899,0.002309741,-0.001285942,0.01509503,-0.008228412,0.01086394
1.015288,-0.1630881,0.07309105,-0.0003889919,0.001842943,-0.002580937,0.01454312,-0.01546321,0.01436199
1.01507,-0.1602331,0.07174522,-0.0005965258,0.00469351,-0.003935657,0.009589593,-0.016241,0.01575284
1.015517,-0.1545479,0.07108657,-0.000138278,0.01037635,-0.004601895,-0.00479956,-0.01717174,0.02028444
1.014777,-0.1576157,0.07233905,-0.0008662345,0.007307628,-0.003355588,-0.01214834,-0.0234385,0.0200022
1.0135,-0.1605955,0.07394247,-0.002129708,0.004327978,-0.001756822,-0.01548143,-0.02945022,0.01598658
1.012049,-0.1613464,0.07539506,-0.003567551,0.00357773,-0.000307331,-0.02239615,-0.03124306,0.01705067
1.012154,-0.1648858,0.07339948,-0.00344829,3.946921e-05,-0.002304478,-0.02563555,-0.03092073,0.01713055
1.013378,-0.1704907,0.07106268,-0.002209651,-0.005564101,-0.004641327,-0.01862391,-0.03455984,0.01791876
1.014219,-0.1780575,0.07159489,-0.001353337,-0.01312908,-0.004107601,-0.007694726,-0.03991267,0.02227507
1.016609,-0.1803694,0.06807686,0.001053624,-0.01543839,-0.007622437,-0.003873279,-0.04064732,0.02409232
1.017453,-0.1798246,0.06347703,0.001915011,-0.01488946,-0.01221718,-0.001580005,-0.04352641,0.02683892
1.016078,-0.1797964,0.06465495,0.0005576706,-0.01485506,-0.01103196,-0.004691263,-0.04907913,0.02903873
1.016784,-0.1710553,0.06449694,0.001281821,-0.006105028,-0.01118007,-0.01422855,-0.04592212,0.02600464
1.016912,-0.1620858,0.06256292,0.001428419,0.002876243,-0.01310119,-0.01938099,-0.04132926,0.02216444
1.016301,-0.1619007,0.06850936,0.0008362034,0.003075959,-0.007138532,-0.03338742,-0.04145737,0.02002183
1.016941,-0.1605171,0.07499585,0.001494063,0.004476591,-0.0006323257,-0.05506371,-0.0397431,0.01945378
1.016942,-0.1576217,0.07230434,0.001514019,0.00739109,-0.003300675,-0.06768801,-0.03681826,0.01703723
1.018355,-0.1585238,0.07070439,0.002944978,0.006509664,-0.004874166,-0.07729936,-0.02732957,0.01194119
1.020006,-0.1601322,0.07203436,0.004613765,0.00492289,-0.003514575,-0.08293942,-0.01343358,0.007637955
1.018578,-0.1640462,0.068023,0.003203672,0.00103122,-0.007493225,-0.0764716,-0.005062824,0.004302177
1.01765,-0.1741162,0.06428065,0.002291821,-0.009015982,-0.01119978,-0.06240574,0.0007923481,0.001620986
1.019407,-0.1814373,0.06404955,0.004064308,-0.01631383,-0.01139187,-0.04473259,0.003918864,9.296065e-05
1.021707,-0.178626,0.06524698,0.00637927,-0.01347818,-0.01015199,-0.02755647,0.009729627,-0.002454083
1.022305,-0.1752715,0.06729465,0.006990849,-0.01009776,-0.008058258,-0.01318729,0.02281942,-0.01143514
1.0205,-0.1767038,0.06505212,0.005197632,-0.01150215,-0.01025101,0.005594152,0.0351508,-0.01964239
1.018683,-0.1770429,0.06259082,0.003389877,-0.01181087,-0.01265873,0.02387248,0.04342411,-0.02121023
1.019492,-0.1778283,0.06468697,0.004207623,-0.01256327,-0.01050504,0.03941173,0.04282313,-0.02595178
1.020668,-0.1811566,0.06587891,0.005389236,-0.01585543,-0.00925149,0.06932236,0.04173016,-0.02716775
1.019847,-0.1822589,0.06643254,0.004572066,-0.01691807,-0.008632118,0.09934791,0.04631011,-0.02238672
1.018766,-0.1837917,0.06490657,0.003492531,-0.01840726,-0.01008821,0.1169585,0.04130485,-0.02082805
1.016513,-0.187521,0.06008809,0.001239434,-0.02208834,-0.01483265,0.1428177,0.03515309,-0.01496627
1.013568,-0.1879728,0.05923461,-0.001709364,-0.02248696,-0.0156078,0.1641047,0.03481615,-0.009217812
1.013436,-0.1860103,0.06216626,-0.001845541,-0.0204656,-0.01259331,0.1686571,0.02860819,-0.00569611
1.01423,-0.1807858,0.06611852,-0.001058497,-0.01517603,-0.008553585,0.1670735,0.02417825,0.00180498
1.013693,-0.1729514,0.07257928,-0.001604239,-0.007270192,-0.002000751,0.1579037,0.02482141,0.000575485
1.013014,-0.1710578,0.07847543,-0.002292835,-0.005298713,0.003991728,0.148674,0.02729838,-0.003136884
1.013078,-0.172124,0.0778593,-0.002238817,-0.006281086,0.00347562,0.1353674,0.03166132,-0.0004747192
1.013332,-0.1700018,0.07141875,-0.001996789,-0.00406921,-0.002861875,0.1209038,0.03001378,-0.000121999
1.013688,-0.1684574,0.06811317,-0.001653852,-0.002429963,-0.006061873,0.1147014,0.02582211,0.003957942
1.015664,-0.1660317,0.07060007,0.0003099735,9.550561e-05,-0.003467153,0.09641676,0.02412406,0.007900304
1.017331,-0.1595368,0.07309662,0.001963547,0.006694354,-0.0008608089,0.08079419,0.02020409,0.007010992
1.015819,-0.1558315,0.07261456,0.0004376634,0.01050698,-0.001231413,0.07457469,0.01592648,0.009846676
1.014524,-0.1592286,0.07223459,-0.0008719118,0.007219809,-0.001498597,0.05552755,0.01519158,0.01122303
1.015551,-0.1615592,0.07573844,0.0001402339,0.0050007,0.002118982,0.04513075,0.01556211,0.010119
1.015443,-0.1548766,0.07748315,1.741735e-05,0.01179563,0.003977975,0.03344464,0.01070139,0.007964675
1.014941,-0.148503,0.07493535,-0.0004993262,0.01828147,0.001544523,0.00416308,0.003715589,0.004848422
1.015548,-0.152398,0.07548369,9.243184e-05,0.01449778,0.002206838,-0.007460382,0.002249225,0.006090717
1.015727,-0.158191,0.0797733,0.000256092,0.008813902,0.006609617,-0.008277182,0.004041992,0.005785801
1.017865,-0.1638918,0.08317464,0.002379293,0.003219554,0.01012282,-0.01549489,0.006111038,0.002674908
1.020274,-0.1688982,0.0819688,0.004772325,-0.001683685,0.009026929,-0.01351839,0.002959711,0.001643699
1.018332,-0.1647483,0.07824098,0.00281496,0.002566023,0.005406541,-0.00988738,-0.005864615,0.001815382
1.015473,-0.1620369,0.07744871,-5.939197e-05,0.005373886,0.004718705,-0.01150942,-0.009820404,0.002723356
1.015653,-0.1646396,0.07821796,0.000104665,0.002863889,0.005589014,-0.0143483,-0.007523469,0.00299695
1.018877,-0.1619588,0.08048387,0.003311689,0.005633669,0.007952307,-0.02363951,-0.003934223,0.003656365
1.021303,-0.1601115,0.08316147,0.005720975,0.007565873,0.01072324,-0.03080682,-0.00326747,0.003708751
1.017641,-0.1611383,0.08284609,0.00204191,0.006619693,0.01049672,-0.03573395,-0.003069294,0.003033108
1.013335,-0.1593151,0.08262446,-0.002281634,0.008518838,0.01035904,-0.04646662,-0.0001988047,0.00396516
1.015652,-0.1580723,0.0811323,1.721641e-05,0.009832828,0.008945505,-0.04844223,-0.0005828888,0.003853242
1.018056,-0.1603011,0.07747529,0.002402742,0.007670053,0.005361484,-0.03860839,0.001241852,0.002836117
1.017696,-0.1638425,0.07746103,0.002024081,0.004189307,0.005414432,-0.02756645,0.007264226,-0.0007484369
1.018555,-0.164304,0.08086743,0.002863076,0.003783066,0.008882149,-0.02271427,0.008921626,-0.005855924
1.01723,-0.1626353,0.08399554,0.001519085,0.005501429,0.01206557,-0.02625217,0.008028321,-0.007168661
1.01412,-0.1623359,0.08262766,-0.001610811,0.005845214,0.01074675,-0.02663296,0.005878601,-0.008057707
1.011972,-0.1622386,0.07919285,-0.003779886,0.005981332,0.007354541,-0.0256999,0.005034438,-0.007217902
1.01183,-0.1617371,0.08005278,-0.003941602,0.006516175,0.008250481,-0.02894147,0.005769258,-0.004743469
1.014486,-0.1608343,0.07940709,-0.001306284,0.007446872,0.007634169,-0.03012053,0.005690858,-0.005802168
1.015246,-0.1608624,0.07880713,-0.0005668043,0.007441107,0.007056945,-0.03128071,0.008404154,-0.005444613
1.016874,-0.1620512,0.0833639,0.001042065,0.006269097,0.01162982,-0.03067716,0.009693915,-0.005432954
1.018791,-0.1635485,0.08374876,0.002939342,0.004783114,0.01202413,-0.02818577,0.009872852,-0.00956112
1.014727,-0.166073,0.08136556,-0.001142855,0.002264372,0.009643576,-0.02749251,0.0129284,-0.01178383
1.01198,-0.1658145,0.08118871,-0.003908483,0.002523489,0.009462521,-0.02309586,0.01489314,-0.01051978
1.012414,-0.164391,0.07937523,-0.003492568,0.003942502,0.007638006,-0.01864664,0.01681896,-0.006281613
1.012682,-0.1659439,0.07720391,-0.003242263,0.002380269,0.00544889,-0.01999256,0.01529009,-0.003230093
1.013626,-0.1662581,0.07729269,-0.002315278,0.002052221,0.005513326,-0.02174519,0.01054172,-0.005059437
1.014032,-0.1661406,0.07941148,-0.001924911,0.002151553,0.007601455,-0.02087103,0.01037128,-0.006054487
1.015058,-0.1654535,0.07953981,-0.0009134619,0.002816378,0.007693,-0.01838473,0.008878658,-0.005196017
1.015597,-0.1632381,0.07959079,-0.0003877955,0.005005541,0.007701241,-0.01440172,0.007265209,-0.005474521
1.016282,-0.1655386,0.08282612,0.0002843642,0.002675179,0.01088802,-0.008818031,0.009312876,-0.00528418
1.018003,-0.1678972,0.08740982,0.001994031,0.0002831748,0.01541738,-0.005106148,0.007438364,-0.002349299
1.018178,-0.1664537,0.09277779,0.002158897,0.001689998,0.02072512,-0.005985645,0.007112841,0.0003911877
1.018156,-0.1671915,0.0883245,0.00212666,0.0009125657,0.01620541,-0.006786557,0.00716903,-0.001689732
1.017751,-0.167779,0.08030043,0.001712666,0.0002827089,0.00810851,-0.006424871,0.0005438794,-0.003560174
1.017307,-0.1659034,0.08353562,0.001260922,0.002113457,0.01126443,-0.007933782,-0.002923887,-0.001367236
1.017679,-0.1644602,0.08322264,0.001624144,0.003509627,0.0108659,-0.00920844,-0.001321053,-0.0001612178
1.018836,-0.1629838,0.0785183,0.002773378,0.004936877,0.006069883,-0.01077331,0.0005785379,0.0003597702
1.020054,-0.1625819,0.07968798,0.003984339,0.005287541,0.007142011,-0.01003739,0.0006643559,0.003769457
1.01796,-0.1636667,0.08121751,0.001883367,0.004149644,0.008568429,0.001326159,-0.001240509,0.006472692
1.015709,-0.1635986,0.08416555,-0.0003752691,0.004162687,0.01140806,0.01225135,-0.001885782,0.005139893
1.014942,-0.1645915,0.085636,-0.001150294,0.003112908,0.01276498,0.01026086,-0.003547968,0.00364844
1.013978,-0.1670718,0.08322398,-0.002121698,0.0005739582,0.0102344,0.007562091,-0.004522316,0.003278359
1.014254,-0.1662459,0.08366695,-0.001852555,0.001339669,0.01055388,0.008337766,-0.003197449,0.002071428
1.014541,-0.1636595,0.08613965,-0.001573143,0.003864496,0.01289829,0.007419307,-0.001192327,0.002253089
1.015883,-0.1625879,0.08786032,-0.0002387282,0.004873341,0.01448595,0.008308171,0.001323256,0.003546345
1.017481,-0.1646021,0.08617123,0.001353626,0.002795188,0.01265917,0.0100621,-0.003086394,0.003285589
1.018175,-0.1679773,0.08304421,0.002040602,-0.0006450038,0.009389815,0.01535108,-0.01124216,0.003058227
1.01899,-0.1657662,0.08295134,0.002849992,0.001500233,0.009150116,0.02179225,-0.01202879,0.003619725
1.016651,-0.1625611,0.08104382,0.0005048671,0.004638794,0.007091527,0.01735233,-0.006735671,0.003654753
1.01409,-0.1617327,0.08013337,-0.002062447,0.005399895,0.006026056,0.01106122,-0.001278609,0.004245376
1.013449,-0.159054,0.08480809,-0.002709176,0.008010765,0.01054215,0.01097727,-0.0007941872,0.005340857
1.012698,-0.1624426,0.08613237,-0.003465569,0.00455352,0.01170444,0.008864585,-0.002490979,0.004353613
1.014971,-0.1712469,0.08074547,-0.001198034,-0.004320229,0.006152371,0.009597562,-0.001526573,0.00215153
1.017551,-0.1745279,0.07581231,0.001377227,-0.007671048,0.001051133,0.01415067,-0.001407708,0.002899294
1.016019,-0.1706353,0.07705609,-0.0001592443,-0.003848416,0.002124362,0.01395765,-0.002888569,0.006068269
1.014346,-0.1656577,0.07833115,-0.001836936,0.001059623,0.003226917,0.01649356,-0.006764004,0.007154737
1.01532,-0.1671216,0.07557807,-0.000866164,-0.0004732012,0.0002998856,0.02291988,-0.01391626,0.01019304
1.014948,-0.1673839,0.07885197,-0.00124171,-0.0008035871,0.003398863,0.02365324,-0.01735889,0.01671453
1.013783,-0.1634699,0.08516931,-0.002409449,0.003043291,0.009540703,0.02267801,-0.01763105,0.01614814
1.015065,-0.1644065,0.08673058,-0.001128706,0.002040495,0.01092611,0.0230479,-0.02093857,0.01405749
1.015024,-0.1658929,0.08683319,-0.001172061,0.0004889061,0.01085249,0.02258969,-0.02356854,0.01727709
1.015723,-0.1676685,0.08635445,-0.0004737654,-0.001350721,0.01019713,0.02303847,-0.02322489,0.01593269
1.01771,-0.1699393,0.0869092,0.001513382,-0.003684441,0.01057484,0.02544944,-0.02305177,0.01609876
1.016329,-0.1709239,0.08372308,0.0001329907,-0.004730599,0.007211234,0.02980543,-0.02354911,0.0187414
1.016379,-0.1757761,0.07822897,0.0001841541,-0.009642616,0.001539313,0.03454438,-0.02522046,0.01690769
1.01702,-0.1754296,0.08059738,0.0008260771,-0.009353824,0.003729816,0.04172153,-0.02911858,0.02095426
1.015338,-0.1699773,0.08129786,-0.0008547134,-0.003956694,0.004252631,0.05292654,-0.03350587,0.02468049
1.015178,-0.1691841,0.07770813,-0.001012531,-0.003215845,0.0004857765,0.06111416,-0.03459078,0.02311866
1.015256,-0.1686409,0.07860824,-0.0009314831,-0.002722012,0.001209611,0.0616033,-0.03258792,0.02747375
1.015431,-0.1670666,0.08211499,-0.0007543817,-0.001194008,0.004541273,0.05992508,-0.02976277,0.03196676
1.016315,-0.1619231,0.08611387,0.0001334831,0.003906263,0.008366477,0.06289914,-0.02702706,0.0329659
1.015848,-0.1576593,0.08457259,-0.00033061,0.008129564,0.00665301,0.06607986,-0.02802478,0.03462776
1.012453,-0.1611284,0.07886843,-0.003721024,0.004622611,0.0007781845,0.06509133,-0.0316677,0.03465568
1.008841,-0.1624914,0.07722772,-0.007328906,0.003223791,-0.001031505,0.06359606,-0.03236111,0.03249554
1.012942,-0.1632958,0.07786264,-0.003223056,0.002385424,-0.0005635722,0.06061175,-0.02797011,0.0303195
1.01833,-0.1672896,0.08083597,0.00217019,-0.001640694,0.002245099,0.05536317,-0.02150258,0.02663467
1.015518,-0.1668642,0.08297436,-0.0006352004,-0.001245984,0.004221369,0.04895172,-0.02154383,0.02111087
1.012999,-0.1642894,0.08254466,-0.003146125,0.001299797,0.003632211,0.04255845,-0.02430754,0.02156702
1.012313,-0.1646109,0.08652106,-0.003824672,0.000950809,0.007451848,0.03954551,-0.0224598,0.02449245
1.009403,-0.1691681,0.09181825,-0.006725517,-0.00363234,0.01259487,0.03642815,-0.02295188,0.024549
1.009279,-0.17334,0.09452379,-0.006839168,-0.007828654,0.01514857,0.02748031,-0.02391633,0.02678941
1.010202,-0.1692005,0.09894094,-0.0059051,-0.0037117,0.01941575,0.01353791,-0.02230394,0.02397049
1.009638,-0.1644731,0.1030458,-0.006456553,0.0009950453,0.02337184,0.001305919,-0.02003778,0.01838691
1.011007,-0.1688912,0.09994236,-0.005073501,-0.003441685,0.02012018,-0.007981196,-0.01232452,0.01839577
1.013634,-0.1756191,0.09323848,-0.002430879,-0.01018617,0.01326787,-0.0177765,-0.003021899,0.01465666
1.016538,-0.1832635,0.0873691,0.0004912917,-0.01784497,0.007249458,-0.02379362,0.01430434,0.009317396
1.01912,-0.1945537,0.07761671,0.003093298,-0.02914651,-0.002652636,-0.03153072,0.05140692,0.009014886
1.019303,-0.1995614,0.0702613,0.003296783,-0.03416169,-0.01015806,-0.03986224,0.07783285,0.01100214
1.016619,-0.1967487,0.07041771,0.0006347397,-0.03135115,-0.0101513,-0.02618806,0.06250743,0.01795863
1.012838,-0.1931835,0.07162338,-0.003123781,-0.02778172,-0.009094023,0.01155372,0.03078491,0.0278014
1.010709,-0.1875598,0.07422205,-0.005228905,-0.02214622,-0.006641733,0.05094857,0.00853392,0.03318587
1.010206,-0.1746974,0.07596178,-0.005707486,-0.009263958,-0.005045685,0.05700593,-0.006129473,0.03423175
1.012718,-0.1568556,0.07459902,-0.003169664,0.008606069,-0.006548917,0.02846417,-0.006555536,0.03182814
1.016898,-0.1466364,0.07440998,0.001036936,0.01886103,-0.006874755,0.008715144,-0.007599892,0.02525224
1.015672,-0.1440088,0.07589793,-0.0001619197,0.02153069,-0.00551949,-0.009914138,-0.0177586,0.01763637
1.014599,-0.141799,0.07667389,-0.00120601,0.02378734,-0.004871726,-0.04775778,-0.01843224,0.00614669
1.01884,-0.1422833,0.07377588,0.003064425,0.02335309,-0.007893122,-0.0870463,-0.02389253,-0.006776706
1.019617,-0.1428226,0.0688462,0.003871344,0.02286536,-0.01294102,-0.1243177,-0.03038561,-0.007607922
1.016591,-0.1471859,0.0658618,0.0008746923,0.01855391,-0.01603799,-0.144062,-0.02862906,-0.004689681
1.014507,-0.160177,0.06683653,-0.001179049,0.005613591,-0.01516957,-0.1438258,-0.03317105,-0.007391844
1.014975,-0.1708424,0.06924274,-0.0006810851,-0.005002619,-0.0128628,-0.1392042,-0.03158249,-0.008772128
1.017367,-0.1785475,0.06776506,0.001740931,-0.01266034,-0.01443254,-0.115895,-0.03061383,-0.01155119
1.017957,-0.1910177,0.06650679,0.002360816,-0.02508424,-0.01577505,-0.08285977,-0.03082695,-0.01218006
1.017557,-0.2006921,0.06785213,0.001990471,-0.03471276,-0.0145057,-0.06055194,-0.02366089,-0.008354052
1.013334,-0.2017891,0.0699525,-0.002203603,-0.03576278,-0.01247271,-0.04604792,-0.0281564,-0.007278037
1.006814,-0.2023424,0.07535705,-0.008695537,-0.03626644,-0.007126678,-0.03451341,-0.03247927,-0.003620773
1.005585,-0.2019556,0.08000128,-0.00989627,-0.03582579,-0.002532129,-0.02696452,-0.0326318,0.0049656
1.005344,-0.1977364,0.08200311,-0.01010889,-0.03154724,-0.0005713564,-0.02753985,-0.03266699,0.0123097
1.006632,-0.1954465,0.08101741,-0.008792201,-0.02919136,-0.0015899,-0.0259183,-0.02468919,0.01374898
1.012329,-0.192789,0.075234,-0.003065195,-0.02646025,-0.007398333,-0.02191806,-0.02058534,0.01388697
1.017,-0.1924901,0.07294329,0.001636492,-0.02607933,-0.009706501,-0.01814692,-0.01383604,0.01610373
1.018083,-0.1961927,0.07249026,0.002751139,-0.02969117,-0.01016952,-0.008203595,-0.004845364,0.007796945
1.017429,-0.1939927,0.07106348,0.002129026,-0.02739092,-0.01159884,-0.005394081,-0.001020059,-0.003568311
1.019496,-0.1915757,0.07314906,0.004228731,-0.02486385,-0.009508337,-0.005973761,0.00542089,-0.002420663
1.019688,-0.18758,0.0725191,0.004453174,-0.02074783,-0.01012592,-0.003356244,0.008979975,4.253713e-05
1.016299,-0.1764411,0.07365133,0.0010974,-0.009478479,-0.00897391,-0.006833207,0.01473419,-0.0006432255
1.014107,-0.1724636,0.07830808,-0.001062605,-0.005360462,-0.004290132,-0.008875545,0.0181455,9.633487e-05
1.01126,-0.1731666,0.07783189,-0.003878087,-0.005913665,-0.004732287,-0.01437731,0.01239325,0.001395182
1.012461,-0.17141,0.07790209,-0.002644901,-0.003998828,-0.004621372,-0.02511146,0.01308525,0.0028186
1.014279,-0.1715098,0.0786626,-0.0007962934,-0.003932707,-0.003813849,-0.02424977,0.01455315,-0.0002174191
1.0124,-0.1710067,0.07817645,-0.002644574,-0.003256699,-0.004247042,-0.01833611,0.01540907,-0.005254695
1.0139,-0.172849,0.07700524,-0.001113781,-0.004920051,-0.005359709,-0.01520032,0.02117829,-0.007415355
1.0149,-0.1774461,0.07174501,-8.363105e-05,-0.009332695,-0.0105561,-0.01012303,0.02250419,-0.01011104
1.015194,-0.1799357,0.06893029,0.0002406929,-0.01163299,-0.01330182,-0.006326293,0.02132677,-0.01197656
1.014733,-0.1828386,0.07250123,-0.0001898926,-0.01434197,-0.009656719,-0.001960303,0.02079049,-0.01246801
1.011973,-0.187472,0.07645696,-0.002920292,-0.01877711,-0.005621706,0.006046719,0.02500192,-0.01480988
1.012971,-0.1903432,0.07327206,-0.001893138,-0.02144567,-0.008722351,0.01190451,0.03193464,-0.01664
1.014382,-0.1886555,0.06824539,-0.0004537713,-0.01955085,-0.01365996,0.013695,0.03141476,-0.01759114
1.015331,-0.1872562,0.06911238,0.0005234759,-0.01793975,-0.01269912,0.01418598,0.02783833,-0.0182306
1.014337,-0.1879383,0.07030864,-0.0004421753,-0.01840532,-0.01140422,0.01565084,0.02331486,-0.01627386
1.00921,-0.1867772,0.07718793,-0.005541091,-0.01702302,-0.004421512,0.01511961,0.01898462,-0.01331747
1.008092,-0.1855498,0.0845302,-0.006630935,-0.01556976,0.003028672,0.01073423,0.01414994,-0.008844277
1.010929,-0.1832393,0.07750854,-0.003766969,-0.01302883,-0.003881052,0.008431868,0.003925099,-0.002012014
1.013543,-0.1806407,0.07208796,-0.001125032,-0.01019554,-0.009186179,0.007586361,-0.0001378095,-0.0003243635
1.012757,-0.1804369,0.07571378,-0.001883608,-0.009753057,-0.005441683,0.003333585,0.004485821,-0.005377266
1.010564,-0.1793963,0.07572065,-0.004048468,-0.008470232,-0.005313145,-0.003898201,0.006753042,-0.007170446
1.011572,-0.1789608,0.07411802,-0.003011565,-0.00778941,-0.006791347,-0.008846049,0.008954778,-0.008056252
1.011138,-0.1782459,0.07533463,-0.003417285,-0.006826552,-0.005447785,-0.01293368,0.01264669,-0.01525908
1.011699,-0.1736017,0.0759674,-0.002827025,-0.001932339,-0.00468577,-0.02743293,0.01136607,-0.0149414
1.013365,-0.1694146,0.07806524,-0.001131388,0.002506295,-0.002456656,-0.03952337,0.005881365,-0.008171411
1.012411,-0.1707921,0.08096474,-0.00205534,0.001381005,0.0005758088,-0.03548259,-0.0001452521,-0.009003032
1.014333,-0.1755953,0.07555849,-0.0001030277,-0.003170067,-0.004696176,-0.03581397,-0.006169034,-0.005659266
1.015688,-0.1781381,0.07022239,0.001282874,-0.005461466,-0.009897007,-0.04139969,-0.009185894,0.0006118218
1.013362,-0.182043,0.07595154,-0.001012179,-0.009116025,-0.004031724,-0.03310522,-0.008668707,0.0003344015
1.012225,-0.18818,0.07995454,-0.002117587,-0.0150041,0.0001081278,-0.01874213,-0.006502314,-0.0009484778
1.014065,-0.188099,0.07725549,-0.0002472175,-0.01467543,-0.002453618,-0.008682496,-0.005088548,-0.005837501
1.016367,-0.18387,0.07648862,0.002086186,-0.01020003,-0.003083041,-0.003673726,-0.005599667,-0.00892598
1.015525,-0.1789565,0.07474505,0.001275642,-0.005041373,-0.00468928,-0.00656298,-0.003252593,-0.007226576
1.01656,-0.1744151,0.07010599,0.002341228,-0.0002560803,-0.009191262,-0.009440479,0.001664478,-0.006708828
1.019011,-0.1737895,0.07068749,0.004822638,0.0006115799,-0.008472967,-0.01195403,0.004756007,-0.005547997
1.017032,-0.172,0.07183685,0.002873869,0.002640855,-0.007187004,-0.02247758,0.005106094,-0.006980266
1.016,-0.1677287,0.06563959,0.001871281,0.007148992,-0.01324778,-0.03250251,0.006446894,-0.01012712
1.016796,-0.1673446,0.06297116,0.002694788,0.007766378,-0.01577966,-0.03743085,0.01186278,-0.01491599
1.015596,-0.1677323,0.06955803,0.001522019,0.007607637,-0.009055884,-0.04132906,0.01421605,-0.02033306
1.013655,-0.1672917,0.07708959,-0.0003936572,0.008272112,-0.001386878,-0.04698749,0.01157297,-0.01880668
1.011779,-0.1728703,0.07895377,-0.002245467,0.002911749,0.0006151581,-0.05065623,0.008976983,-0.01622213
1.010865,-0.1787011,0.07533986,-0.003136293,-0.002706771,-0.002860794,-0.04454926,0.007377373,-0.01480722
1.011841,-0.1767188,0.07321604,-0.002137565,-0.0005186545,-0.004846855,-0.03980588,0.00541805,-0.01320666
1.013082,-0.1757026,0.07384787,-0.0008752784,0.0006971784,-0.004077657,-0.03723286,0.0009644346,-0.01253195
1.01249,-0.1801418,0.07446229,-0.00144676,-0.003548928,-0.003326394,-0.02809043,-0.001480579,-0.01028136
1.012166,-0.1832729,0.07533566,-0.001750937,-0.00649316,-0.002316858,-0.0200046,-0.002921264,-0.009041248
1.013019,-0.183277,0.07471216,-0.000877954,-0.006316675,-0.002805034,-0.01126715,-0.008542077,-0.005814791
1.013426,-0.1816386,0.07262556,-0.0004526731,-0.004503619,-0.004757308,-0.004112774,-0.01162549,-0.004113401
1.014981,-0.1797662,0.07007388,0.001120897,-0.002462268,-0.007175757,-0.001173973,-0.00978984,-0.006879334
1.015504,-0.1804344,0.06879856,0.001661022,-0.002966984,-0.008318921,0.002015607,-0.006465076,-0.004710211
1.013182,-0.1809355,0.07068988,-0.0006438537,-0.003310127,-0.006296423,-0.0003154827,-0.003201488,-0.00429579
1.012148,-0.1791931,0.07227604,-0.001661312,-0.001415122,-0.004579998,-0.003023132,-0.003311871,-0.007741515
1.013322,-0.1788443,0.07225736,-0.0004712575,-0.0009188973,-0.00446933,-0.002474414,-0.005372954,-0.009851865
1.014409,-0.178357,0.07158749,0.0006303424,-0.0002894504,-0.005010793,-0.001899705,-0.004311346,-0.01306962
1.013909,-0.177195,0.06820854,0.0001452418,0.001009525,-0.008262314,0.0003368969,-0.002809333,-0.01263931
1.013555,-0.1769742,0.06379181,-0.000195322,0.001362166,-0.01255248,0.0003077576,-0.004865657,-0.01255792
1.01367,-0.1759685,0.0635239,-6.675366e-05,0.00249437,-0.01269448,-0.001380132,-0.006416433,-0.01405815
1.0111,-0.1753503,0.06745182,-0.002623561,0.0032338,-0.008641004,-0.003168189,-0.009947888,-0.0110295
1.008797,-0.1747975,0.07125885,-0.004914339,0.003902442,-0.00470854,-0.002735367,-0.01641534,-0.007996354
1.009799,-0.1738283,0.07401137,-0.003900195,0.004981909,-0.001830717,-0.0003929152,-0.01963511,-0.001605666
1.011395,-0.1727132,0.07484934,-0.002291485,0.006201597,-0.000867712,-0.002143032,-0.02279676,0.004702092
1.012959,-0.1689506,0.06992008,-0.0007160768,0.010063,-0.005672399,-0.001831685,-0.021553,0.001539159
1.014626,-0.1663186,0.06342191,0.0009635312,0.01278774,-0.01204656,-7.657466e-05,-0.01608656,-0.002396291
1.015018,-0.1706562,0.06453988,0.001367799,0.008536329,-0.01080502,0.0003638321,-0.01671858,-0.004074493
1.01525,-0.1758347,0.06903431,0.00161117,0.003437312,-0.006187257,0.005381416,-0.01355436,-0.006523367
1.016883,-0.1738167,0.06788294,0.003256236,0.005528028,-0.007215388,0.0073064,-0.003783245,-0.008152343
1.018268,-0.1722696,0.06764856,0.00465281,0.007141108,-0.007326578,0.006000978,0.002682108,-0.008684703
1.018275,-0.1746847,0.07287362,0.004671741,0.004785116,-0.001978382,0.008956131,0.004449073,-0.00633887
1.017362,-0.1734097,0.07573269,0.003769116,0.006112558,0.001003664,0.01132129,0.001697574,-0.006139691
1.017558,-0.1723633,0.076936,0.003973996,0.007204597,0.002329512,0.01134242,-0.0006033684,-0.009087575
1.018668,-0.1704656,0.0785728,0.005092853,0.009141364,0.00408803,0.01018769,-0.002180099,-0.008112926
1.01654,-0.1646042,0.07801489,0.002971675,0.01503498,0.003650588,0.008897897,-0.002446252,-0.007602086
1.014228,-0.1644373,0.07701618,0.0006660007,0.01522713,0.002770674,0.008120692,0.001487056,-0.007220127
1.014435,-0.1665287,0.07551005,0.0008768761,0.01315374,0.001381319,0.005328625,0.002787138,-0.006115637
1.016057,-0.1669491,0.07406459,0.002501505,0.01274384,5.031312e-05,0.002080397,0.002984259,-0.01037954
1.019286,-0.1704531,0.07223059,0.005732797,0.0092427,-0.001671716,0.001213655,0.002750354,-0.009374094
1.018069,-0.1717568,0.07097893,0.004515041,0.007934123,-0.002813982,-0.000444915,0.001068874,-0.004272869
1.01519,-0.1702284,0.07343945,0.001634523,0.009450134,-0.0002466628,-0.003505644,0.004334692,-0.004896135
1.015602,-0.1699094,0.07416846,0.002043127,0.009749336,0.0005864959,0.0008909488,0.006345778,-0.002276451
1.014822,-0.1698957,0.07432544,0.001259141,0.009735801,0.0008449179,0.009553782,0.004064434,-0.002394384
1.015365,-0.1718889,0.07432756,0.001795313,0.007708133,0.0009456285,0.01296434,0.001203026,-0.008676374
1.015666,-0.1739283,0.07136409,0.002088345,0.005627318,-0.001922164,0.01527675,-0.001674699,-0.009814927
1.014668,-0.1701537,0.07472431,0.001080575,0.009353611,0.001530755,0.0149851,0.0006143866,-0.009225661
1.015586,-0.1655048,0.07845915,0.001987875,0.01394766,0.005355249,0.009799236,0.005167949,-0.008372852
1.014063,-0.1673098,0.07706061,0.0004525909,0.01208125,0.004043146,0.0043892,0.007208748,-0.008200467
1.012509,-0.1696487,0.08063673,-0.001114696,0.009674474,0.007702247,0.001869148,0.006922519,-0.009210695
1.012897,-0.1707852,0.08205017,-0.0007419138,0.008463588,0.009194916,0.002401138,0.005208411,-0.007571917
1.013974,-0.1756604,0.07537021,0.0003192616,0.003507793,0.002590107,0.001912756,0.006176327,-0.008168484
1.016168,-0.1778407,0.07009504,0.002496759,0.001241123,-0.002614147,0.005286932,0.006589879,-0.007684486
1.015351,-0.1757811,0.07167058,0.001662717,0.003209032,-0.0009718822,0.009957909,0.005707748,-0.005227015
1.014732,-0.1760546,0.07352814,0.001024479,0.002838953,0.0009484035,0.007555413,0.007635264,-0.005897683
1.015435,-0.175747,0.07044525,0.001708436,0.003045578,-0.002075634,0.004128781,0.008050862,-0.005911556
1.013249,-0.1729714,0.07040052,-0.0004973575,0.005716298,-0.00206521,-0.0003222589,0.006284181,-0.007696465
1.011923,-0.1711736,0.07156104,-0.001843892,0.007405648,-0.0008530378,-0.003701429,0.00442321,-0.009601002
1.012833,-0.1715155,0.07033826,-0.0009543244,0.006951938,-0.002027479,-0.00358448,0.002540544,-0.007549735
1.014486,-0.1740331,0.07208684,0.0006771692,0.004319271,-0.0002336817,-0.001500415,0.002553106,-0.005681001
1.01577,-0.1745552,0.0727226,0.00193949,0.003679277,0.0004443045,0.004290608,0.002300594,-0.003202651
1.015356,-0.1723492,0.07267298,0.001503411,0.005764778,0.0004340394,0.003106537,0.0005975454,-0.001036864
1.015061,-0.1718003,0.07344753,0.001185884,0.006190925,0.001245156,-9.002374e-05,-0.0002866686,-0.002105189
1.015004,-0.1695367,0.07249018,0.001106529,0.008329485,0.0003216423,0.003192015,-0.00108189,-0.003092974
1.013554,-0.1664938,0.0732147,-0.0003660585,0.01124535,0.001077323,0.002022041,-0.002447263,-0.001552806
1.012216,-0.1672119,0.07397929,-0.001726806,0.01039827,0.001870481,0.000569759,-0.003309867,-0.001600218
1.014102,-0.1687801,0.0742618,0.0001368971,0.008698964,0.002178989,-0.00292557,-0.005217668,-0.003082585
1.0163,-0.1723802,0.0757849,0.002311288,0.004965761,0.003725523,-0.01198166,-0.00719369,-0.001490975
1.01518,-0.174189,0.07910445,0.001168957,0.00302202,0.007065906,-0.01303841,-0.005774545,0.001683783
1.014867,-0.1711712,0.08224605,0.0008328905,0.005903248,0.01022556,-0.01110153,-0.00534853,0.005837963
1.015694,-0.1710882,0.07535128,0.001637544,0.0058484,0.003345857,-0.01200355,-0.006390191,0.005078317
1.015105,-0.1712195,0.06778191,0.001026044,0.005578019,-0.004211553,-0.008998339,-0.004997561,-0.001204861
1.015565,-0.1705317,0.07360665,0.00146384,0.006125691,0.001622183,-0.004754606,-0.004751896,-0.001618715
1.01725,-0.1730731,0.07743539,0.003126076,0.003443398,0.005457143,-0.00118205,-0.005472493,0.001685487
1.018255,-0.1740866,0.07425114,0.004107847,0.002288377,0.00227638,0.002256988,-0.005101973,0.004040723
1.017451,-0.1735966,0.07658236,0.003281357,0.00263657,0.004608361,0.004537833,-0.004001924,0.003113333
1.016003,-0.172994,0.0789075,0.001810872,0.003097256,0.006931528,0.007060466,-0.002106322,0.0001091851
1.016501,-0.1708674,0.07644234,0.002285288,0.005082018,0.004461585,0.006806866,-0.001267233,0.001410488
1.016154,-0.1688242,0.07505093,0.001914914,0.006983783,0.003062539,0.002025878,-0.001379189,-0.0001659863
1.014616,-0.1689289,0.07216857,0.0003526641,0.006737943,0.000169716,-0.004280698,0.0009331841,-0.00243112
1.015336,-0.1701396,0.06802996,0.001047845,0.005386585,-0.003981999,-0.01075233,0.005863093,-0.0003469121
1.015573,-0.1692218,0.06889015,0.001260912,0.0061642,-0.003137271,-0.01097099,0.006700015,-0.001650865
1.014943,-0.1691343,0.07085434,0.0006055826,0.006111925,-0.001190538,-0.007486947,0.004854838,-0.001877795
1.015111,-0.1698075,0.07090342,0.0007489095,0.005299597,-0.001160601,-0.00951348,0.005105359,-9.276636e-06
1.013483,-0.1684856,0.07344925,-0.0009051848,0.006482835,0.001364636,-0.008745164,0.003072711,0.0001298663
1.011837,-0.1703882,0.07430879,-0.002575617,0.004442185,0.002202289,-0.00615237,-0.002167278,0.0006622922
1.012619,-0.1754082,0.07103745,-0.001819134,-0.0007150555,-0.001092144,-0.006692998,-0.008166075,0.000243202
1.01387,-0.1793217,0.07059667,-0.0005932439,-0.004764952,-0.00155708,-0.001195696,-0.008923341,0.0007147797
1.015073,-0.1799584,0.07244177,0.0005849826,-0.005536623,0.0002629689,0.005672891,-0.007293567,0.001382418
1.016674,-0.1781865,0.07520247,0.002162416,-0.003897903,0.002997865,0.009806125,-0.009301886,0.001585734
1.017892,-0.1775306,0.07841895,0.003356505,-0.003372846,0.00618784,0.01201271,-0.00565415,0.005111384
1.018382,-0.1757234,0.0776216,0.003823049,-0.001693721,0.005363177,0.01015244,-0.002306061,0.008226089
1.018649,-0.1736321,0.07561427,0.004066378,0.0002724706,0.003327597,0.008127537,-0.004571639,0.005903556
1.01766,-0.1716848,0.07367088,0.003053352,0.002097727,0.001354947,0.001848511,-0.002541847,-0.0003333666
1.015337,-0.167741,0.0690952,0.0007073134,0.005922737,-0.003250943,-0.005875167,-0.001459948,-0.005439179
1.014672,-0.1666906,0.06460284,1.840737e-05,0.006857406,-0.007774246,-0.009864547,-0.002890184,-0.006271184
1.015582,-0.167175,0.06453322,0.0009048649,0.006260153,-0.007875163,-0.0153726,-0.001990733,-0.002467575
1.015555,-0.1680309,0.06823839,0.0008539862,0.005293962,-0.004201172,-0.01938621,0.0004850065,0.002094957
1.015897,-0.1703982,0.06941204,0.001171844,0.002818881,-0.003058208,-0.02126228,0.003054982,0.003097539
1.016789,-0.1703933,0.06927808,0.002039787,0.002718386,-0.003222101,-0.01634543,0.001669935,0.00382182
1.014786,-0.1733544,0.07011701,1.34835e-05,-0.0003457387,-0.002412142,-0.007896908,-0.001223468,0.004033116
1.012107,-0.1782799,0.06951947,-0.002689917,-0.005371942,-0.003037555,-0.01043367,-0.005015602,0.003055128
1.012305,-0.1765018,0.06979756,-0.002515538,-0.003691799,-0.002786089,-0.009430402,-0.009064009,0.004602243
1.012716,-0.1744087,0.06913544,-0.002128048,-0.00169381,-0.00347346,-0.002542734,-0.005403255,0.004590441
1.012232,-0.1754519,0.06833151,-0.002634601,-0.002828997,-0.004301115,-0.003489836,-0.0006159006,0.002345445
1.01214,-0.1748661,0.06987981,-0.002748507,-0.002331974,-0.002774884,-0.0001530073,-0.003012853,0.003230923
1.01372,-0.1746032,0.07143628,-0.001190796,-0.002154431,-0.001238714,0.005036626,-0.005440629,0.006211586
1.016878,-0.1742955,0.07336537,0.0019468,-0.001928522,0.0006718688,0.00269359,-0.006404575,0.007633784
1.017453,-0.1721775,0.07210797,0.002501591,0.0001111395,-0.0006022928,0.001770528,-0.00729637,0.00691875
1.016064,-0.1718775,0.0711932,0.00109339,0.0003364424,-0.001532137,0.0005501353,-0.004105563,0.005514154
1.016725,-0.1726759,0.07204987,0.001735984,-0.0005331175,-0.0006889051,-0.005925158,-0.001893914,0.004806867
1.016988,-0.1729644,0.06815259,0.001981155,-0.0008893363,-0.004597983,-0.009828442,-0.003830285,0.00717264
1.016291,-0.1739387,0.06730393,0.001267282,-0.001927938,-0.005456736,-0.006798241,-0.004563724,0.009709315
1.017038,-0.1740951,0.06923797,0.001996872,-0.002145266,-0.003530973,-0.004239216,-0.003271914,0.007494812
1.017433,-0.1754675,0.07077725,0.002375141,-0.003575019,-0.001998037,-0.00293132,0.001365125,0.004767827
1.017399,-0.1789345,0.07604591,0.002325073,-0.007095921,0.003266213,0.001761424,0.00567333,0.004456451
1.017631,-0.1798625,0.07636616,0.002540976,-0.008074016,0.003583831,0.004649451,0.004148782,0.004664541
1.01787,-0.178732,0.07055211,0.00276302,-0.006989828,-0.002231313,0.007298252,0.003755879,0.005300852
1.018118,-0.1779851,0.06647314,0.002995336,-0.006284977,-0.006309934,0.01367632,0.005946262,0.004330482
1.016115,-0.1766309,0.06742514,0.0009757211,-0.004968548,-0.005356082,0.01657599,0.004989843,-0.0009701368
1.01487,-0.1744802,0.06938619,-0.0002853528,-0.002851201,-0.003391522,0.01489659,0.004304817,-0.005552109
1.017246,-0.1721129,0.06784532,0.002073664,-0.0005129988,-0.004927123,0.01094738,0.005691425,-0.001265224
1.018707,-0.1701286,0.07055038,0.003517738,0.001446461,-0.002214964,0.00568162,0.005568217,0.004383169
1.018133,-0.1706436,0.07274487,0.002926971,0.0009105346,-1.15324e-05,0.00403131,0.005844177,0.001830371
1.017371,-0.1723744,0.06565851,0.002146783,-0.0008375457,-0.007087151,0.003105958,0.007235015,-8.20045e-05
1.016414,-0.1723623,0.05849227,0.00117263,-0.0008391553,-0.01424076,-0.001031432,0.007233502,-0.000705041
1.014696,-0.1734294,0.05696527,-0.0005634601,-0.001916698,-0.0157529,-0.002641399,0.00661743,-0.005478554
1.01388,-0.1758649,0.06010635,-0.001397532,-0.004359529,-0.01259423,-0.0006836036,0.005790517,-0.005878122
1.01409,-0.1765972,0.06569856,-0.001206593,-0.005096095,-0.006981259,0.001953618,0.004917716,-0.002639376
1.01263,-0.1755113,0.07278847,-0.002685249,-0.004011266,0.0001327838,0.005124966,0.001359731,0.0004729222
1.012574,-0.1735056,0.07583499,-0.002760153,-0.00200352,0.003206683,0.005544072,-0.0034778,0.003559636
1.014725,-0.1733256,0.0703151,-0.0006269451,-0.001818353,-0.002282896,0.005702026,-0.001136174,0.001702825
1.016283,-0.1740863,0.06459217,0.000912663,-0.002571124,-0.007972846,0.008135623,0.003099208,0.001844779
1.016271,-0.1742864,0.05878931,0.0008829965,-0.002760367,-0.01374008,0.00364929,0.003508502,0.002343237
1.013766,-0.1755543,0.05853349,-0.001638847,-0.004014784,-0.01395738,-0.002467894,0.00539546,-0.004545054
1.013365,-0.17567,0.06854644,-0.002056631,-0.00411425,-0.003902736,0.0004216568,0.005759373,-0.008228069
1.01425,-0.1745326,0.06915214,-0.001187659,-0.00295804,-0.003252037,0.002242181,0.005428169,-0.006885769
1.012659,-0.173458,0.06286049,-0.00279445,-0.001862197,-0.009495476,0.001304003,0.008162372,-0.00565738
1.01267,-0.1736073,0.06275076,-0.002798413,-0.001987657,-0.009553802,0.001851603,0.007828548,-0.006320792
1.014303,-0.1769486,0.06467849,-0.001179657,-0.0053029,-0.007571404,-0.003051346,0.006546285,-0.008456108
1.016145,-0.1796306,0.06794442,0.0006495994,-0.007956476,-0.004247526,-0.008091926,0.006285778,-0.008095938
1.017431,-0.180317,0.06710692,0.001923053,-0.008612129,-0.005023867,-0.006499249,0.003406865,-0.007322933
1.017966,-0.180207,0.06487892,0.002446542,-0.008468888,-0.007187614,-0.005744038,0.002738064,-0.004952766
1.018642,-0.1776301,0.06448928,0.003111088,-0.00585609,-0.007510003,-0.006648818,0.003259916,-0.002938829
1.017693,-0.1747066,0.05868693,0.002151999,-0.002893974,-0.0132421,-0.003630191,0.002761217,-0.001425632
1.01702,-0.1745826,0.05771244,0.001469032,-0.002728588,-0.01414321,-0.0005659678,0.003890757,0.00207164
1.013896,-0.1768955,0.0656016,-0.001663979,-0.004997619,-0.006177348,-0.00183081,0.002388708,-0.001111464
1.008364,-0.1793478,0.07523716,-0.007205469,-0.007403706,0.003538242,-0.002794927,-0.001031752,-0.003075531
1.009504,-0.1811307,0.08179081,-0.006074502,-0.009137815,0.01017486,-0.001339047,-0.003027867,-0.001263784
1.012541,-0.1807071,0.07555473,-0.003045298,-0.008662861,0.004023992,0.002038351,-0.003192913,-0.004390774
1.012413,-0.1783991,0.06640974,-0.003180178,-0.006300892,-0.005034196,0.008224394,-0.002284315,-0.002036509
1.013135,-0.1789506,0.06630413,-0.002463779,-0.006795696,-0.005051774,0.01044839,-0.003190046,0.0008236985
1.01416,-0.1793587,0.0683537,-0.001443761,-0.007144462,-0.002913107,0.004162517,-0.0004248108,-0.0007931788
1.015678,-0.1771455,0.06968369,7.135648e-05,-0.004869173,-0.001493056,-0.0002215596,0.003735014,0.0009532072
1.01579,-0.1761596,0.06937581,0.0001815412,-0.003818472,-0.001710123,0.00438822,0.002630325,-0.002644712
1.014777,-0.1746993,0.06970242,-0.0008327634,-0.002290951,-0.001292133,0.008273664,0.004416417,-0.009206905
1.0163,-0.1734455,0.07264794,0.0006899261,-0.0009676599,0.001745071,0.006972081,0.01033104,-0.01027409
1.015844,-0.1761233,0.07398309,0.0002355869,-0.003573912,0.003171934,0.008735479,0.01469632,-0.008734798
1.012917,-0.1783357,0.07422036,-0.002689915,-0.00571293,0.003500581,0.01192047,0.01322468,-0.004276174
1.012022,-0.1742977,0.07414095,-0.003582026,-0.001599774,0.003511826,0.01180559,0.007291374,-0.001386711
1.012425,-0.1707369,0.07600754,-0.003175787,0.002037592,0.005467948,0.01376223,0.004675944,-0.002148929
1.012782,-0.1743873,0.07994495,-0.002813143,-0.001534926,0.009493363,0.01798765,0.001982623,-0.002188692
1.012726,-0.1771228,0.08165731,-0.002864019,-0.004191586,0.01129168,0.01985792,-0.0009404638,-0.002286848
1.014168,-0.1760053,0.0807895,-0.001414333,-0.002994572,0.01050718,0.01983867,-0.001245179,-0.004004324
1.016082,-0.175479,0.07748895,0.0005080871,-0.002387987,0.007286733,0.01900972,-0.00153819,-0.00499643
1.015266,-0.1748171,0.07559553,-0.0002993062,-0.001645172,0.005469765,0.01781368,0.0005062167,-0.002484171
1.014758,-0.1749835,0.07403619,-0.0007968259,-0.001730378,0.003982957,0.01637669,0.0006298325,-0.001989862
1.014684,-0.1759804,0.06978569,-0.0008589992,-0.00264581,-0.0001991,0.01393981,-0.001748427,-0.003593447
1.013325,-0.1756382,0.06750012,-0.002206513,-0.002221917,-0.002420274,0.01103254,-0.002269072,-0.001799131
1.012851,-0.1746259,0.06727496,-0.002667306,-0.001128076,-0.002584941,0.008909228,-0.002396591,-0.003384108
1.013065,-0.1735436,0.06920664,-0.00243885,3.570491e-05,-0.0005964394,0.009730595,-0.0002969902,-0.008100756
1.014893,-0.171768,0.07101196,-0.0005960971,0.001892441,0.001262194,0.01238527,0.0006583355,-0.009243317
1.017149,-0.1705057,0.0717655,0.001674951,0.003235255,0.002065659,0.01278554,-0.0009753345,-0.004114766
1.014326,-0.1732037,0.07164817,-0.001131835,0.000616994,0.001994885,0.01490488,-0.002585836,0.003166675
1.011609,-0.1782019,0.06793784,-0.003831052,-0.004302619,-0.001672214,0.02107836,-0.005169199,-0.0002528286
1.016402,-0.1801355,0.06901604,0.0009794756,-0.006158704,-0.0005539925,0.02637151,-0.004357777,-0.004515221
1.020722,-0.1788437,0.06986966,0.005317281,-0.004790506,0.0003365821,0.03273833,-0.001416032,-0.001871007
1.019441,-0.1769653,0.06625156,0.004055026,-0.002836564,-0.003247471,0.03865073,0.0002447354,-0.004594553
1.018658,-0.1751791,0.06792042,0.003290431,-0.0009756037,-0.001547278,0.03652682,0.002492541,-0.005855172
1.017819,-0.1709123,0.06765106,0.002470324,0.003364961,-0.001787812,0.02884622,0.004369699,-0.005772495
1.01513,-0.1637677,0.06861424,-0.0002008281,0.01058217,-0.0007981156,0.020462,0.008058281,-0.01006907
1.014717,-0.1607873,0.07549658,-0.0005957426,0.01363364,0.00610855,0.01073038,0.0117599,-0.01046537
1.015705,-0.1646698,0.07775097,0.0004097865,0.0098199,0.008385012,-0.0008999278,0.01196457,-0.01327543
1.015209,-0.1712238,0.07333383,-6.974529e-05,0.003331928,0.003987496,-0.01183357,0.01320909,-0.02021817
1.013489,-0.1830126,0.06697185,-0.001773001,-0.008394,-0.002357436,-0.01765795,0.0126049,-0.02239471
1.00747,-0.197761,0.06969948,-0.00777594,-0.02308229,0.000384704,-0.01425337,0.004522382,-0.01749251
1.001084,-0.2013214,0.07416326,-0.0141465,-0.02658465,0.004860583,0.005250536,-0.004841154,-0.003404299
1.006441,-0.1947373,0.07402401,-0.008773256,-0.01994348,0.004731047,0.03501534,-0.005939439,0.01005867
1.01416,-0.186469,0.08113089,-0.00103747,-0.01161797,0.01184515,0.0420061,2.042473e-05,0.01065389
1.011735,-0.1750276,0.08251925,-0.003444842,-0.0001185344,0.01323795,0.01669575,0.004230835,0.006379082
1.012104,-0.1690247,0.0777719,-0.003056307,0.005943254,0.008491882,-0.01570402,0.007364506,0.0004800266
1.017341,-0.1680181,0.07802787,0.002200339,0.007009236,0.008745659,-0.05433506,0.01030831,-0.01515089
1.020169,-0.1566497,0.07436058,0.005048573,0.01843698,0.005072484,-0.09899211,0.01301664,-0.02447909
1.023438,-0.1425168,0.0755572,0.008339121,0.03262833,0.006259471,-0.1430154,0.02397655,-0.02428169
1.021087,-0.1333914,0.0800973,0.006010273,0.04180982,0.01078613,-0.1922623,0.03499239,-0.03195158
1.015289,-0.1318055,0.07693077,0.0002335962,0.04344763,0.007602253,-0.221606,0.03198582,-0.0349033
1.01372,-0.1488441,0.07719651,-0.001315361,0.02645494,0.007846636,-0.2240197,0.02185427,-0.03758636
1.013089,-0.1654893,0.07761739,-0.001925399,0.009848339,0.008242067,-0.221918,0.01279912,-0.04166166
1.014959,-0.1658558,0.07407612,-3.506503e-05,0.009512309,0.004671226,-0.2021256,0.003821898,-0.02772135
1.014606,-0.1699909,0.07266061,-0.0003689695,0.005399648,0.003222096,-0.1672025,-0.003930276,-0.01617969
1.012427,-0.1785251,0.06845599,-0.002528796,-0.003119968,-0.001020013,-0.1356212,-0.005737672,-0.01107732
1.015043,-0.1791486,0.06268684,0.000106277,-0.003736439,-0.006830169,-0.09560442,-0.003529404,-0.004599529
1.01478,-0.1792895,0.05852498,-0.0001384332,-0.003877,-0.01103598,-0.05437874,-0.001114613,-0.003244019
1.014622,-0.1817084,0.0546404,-0.0002782453,-0.0063017,-0.01496666,-0.03420025,0.001668796,-0.002727835
1.015451,-0.1799123,0.05391469,0.0005686452,-0.004516847,-0.01573971,-0.01901492,0.003818785,-0.009878481
1.013095,-0.1766473,0.05598055,-0.00176948,-0.001267757,-0.01372144,0.002480297,0.006418948,-0.0113533
1.015811,-0.1733686,0.05767534,0.0009636234,0.001990758,-0.0120736,0.01671481,0.007504745,-0.004047169
1.017805,-0.1686754,0.05905817,0.002974678,0.006660025,-0.01073633,0.0336904,0.00524669,-0.002303095
1.016074,-0.1681843,0.06623452,0.001259624,0.007123391,-0.003603579,0.05007005,0.002561514,0.004606392
1.016678,-0.1685992,0.07561291,0.001879575,0.006677041,0.005733481,0.05519856,-0.001287724,0.009541258
1.015767,-0.168205,0.07354952,0.0009835088,0.007036168,0.003630969,0.06892273,-0.004246696,0.01071053
1.014921,-0.1699972,0.07056247,0.0001518414,0.005205111,0.000606798,0.08367136,-0.003566182,0.01226397
1.015327,-0.167576,0.07553841,0.000571301,0.007583838,0.005547421,0.08540688,-0.002006822,0.009583278
1.015276,-0.1657952,0.07500229,0.0005327091,0.009318656,0.004977579,0.08560189,-0.0008191475,0.007719332
1.015387,-0.1680238,0.07454323,0.000655261,0.007040362,0.004486134,0.08939493,-0.0003812621,0.004402517
1.015092,-0.1682262,0.07688081,0.0003715373,0.006784579,0.00679238,0.09486511,0.001229923,0.006521586
1.015423,-0.1679735,0.07192398,0.0007131706,0.006980406,0.001805027,0.09635368,0.006214774,0.008443579
1.015623,-0.1668215,0.0693549,0.0009230635,0.008071885,-0.0007939297,0.09430273,0.008109186,0.006225287
1.01693,-0.1655012,0.0698699,0.002238647,0.009328168,-0.000308187,0.09012488,0.004357085,0.01067546
1.018637,-0.1649344,0.06898841,0.003953232,0.009827522,-0.001218264,0.08491928,0.0006347042,0.009721083
1.01718,-0.1641604,0.07185045,0.002503345,0.01053039,0.001615901,0.07966379,-0.001400876,0.01125372
1.015897,-0.1636391,0.07270158,0.001226217,0.01097692,0.002439896,0.0713181,-9.885853e-05,0.01625877
1.016079,-0.1617487,0.07198743,0.001413004,0.0127888,0.001699268,0.06452922,0.001435764,0.009683611
1.01606,-0.160396,0.07247186,0.001397388,0.01405908,0.002157816,0.05485448,-0.00012407,0.006380866
1.016664,-0.1592547,0.07134803,0.002003918,0.01511395,0.001008608,0.04207521,0.001063841,0.006899823
1.01701,-0.158549,0.0696532,0.002351242,0.01572897,-0.0007111158,0.03260804,0.003577991,0.005302435
1.016283,-0.1618579,0.06627054,0.001624676,0.01232481,-0.004118139,0.02383678,0.00634891,0.005295713
1.01551,-0.1653034,0.06605775,0.0008512238,0.008779512,-0.004354631,0.01982774,0.009793393,0.004887083
1.014183,-0.1651834,0.06862576,-0.0004785319,0.008795234,-0.001809466,0.01384354,0.00752896,0.004759025
1.012049,-0.1648458,0.06910364,-0.002615255,0.009024021,-0.001353416,0.007317968,0.0039949,0.005126127
1.010583,-0.1666991,0.07160764,-0.004084889,0.007057688,0.001129846,0.009672973,0.001275617,0.007444649
1.010376,-0.166983,0.07297794,-0.004296657,0.006656772,0.002480473,0.007323854,-0.004773817,0.007841853
1.01472,-0.1662596,0.07193767,4.247064e-05,0.007259277,0.001421486,-0.0008724663,-0.008909065,0.007196814
1.020081,-0.1670418,0.07224801,0.005397449,0.006352676,0.001713981,-0.007617085,-0.008602892,0.009554561
1.01733,-0.1659375,0.07223144,0.002640639,0.007329299,0.001680304,-0.01382722,-0.004860578,0.009172597
1.014151,-0.1639129,0.0722396,-0.0005445348,0.009223144,0.00167203,-0.02479548,-0.002508432,0.007544961
1.015868,-0.1621595,0.07221711,0.001166251,0.01084283,0.001633681,-0.03942416,-0.005262625,0.005937698
1.015788,-0.1628727,0.07217004,0.001079126,0.00999313,0.001571238,-0.04153225,-0.008094902,0.006038076
1.017576,-0.1665011,0.07233285,0.002859326,0.006225345,0.001719076,-0.04356927,-0.009956005,0.01002372
1.020747,-0.1679482,0.07084686,0.006022315,0.004636352,0.000218471,-0.05321486,-0.009601633,0.01240446
1.019444,-0.1695449,0.06605527,0.004710201,0.002895349,-0.00458739,-0.04941759,-0.007776571,0.01298636
1.018865,-0.1684966,0.0605819,0.00412154,0.003797452,-0.01007454,-0.04585071,-0.008174794,0.01159922
1.019402,-0.1650453,0.06185956,0.004647845,0.007100845,-0.008809816,-0.04764062,-0.008414824,0.01077402
1.016611,-0.1667992,0.06514606,0.0018443,0.005197778,-0.005535011,-0.03997793,-0.01149498,0.01239487
1.014337,-0.1662012,0.06422188,-0.0004426612,0.005645382,-0.00646932,-0.03876363,-0.01784943,0.01262316
1.015176,-0.1631024,0.06543815,0.0003827852,0.008592791,-0.005261373,-0.04316725,-0.02007999,0.01459038
1.015739,-0.1631835,0.06598789,0.0009299576,0.00835946,-0.004717958,-0.04406501,-0.01667046,0.01668406
1.015014,-0.1623707,0.06493484,0.000188916,0.009019237,-0.005775203,-0.04840286,-0.01233017,0.01590509
1.015391,-0.1637107,0.06843136,0.0005493468,0.007525535,-0.002280637,-0.04626969,-0.0104888,0.01562891
1.016775,-0.1678147,0.0694688,0.00191578,0.003267059,-0.001242871,-0.04187911,-0.006755244,0.01490102
1.018504,-0.1712976,0.06480692,0.003625884,-0.0003708199,-0.005902164,-0.04456324,-0.002121032,0.01138526
1.019276,-0.1736584,0.06143027,0.004378909,-0.00288661,-0.009273926,-0.04092001,-0.0003207544,0.006065974
1.015071,-0.1740466,0.06370367,0.0001539767,-0.003429387,-0.006993169,-0.0318002,0.001717064,0.00405296
1.010653,-0.1763389,0.06701894,-0.004285101,-0.005875441,-0.003667906,-0.02452705,0.0016928,0.005287819
1.012364,-0.1791742,0.06487638,-0.002595078,-0.008862777,-0.005797743,-0.02081259,0.002863855,0.005327
1.01362,-0.1789674,0.06441324,-0.001361402,-0.008805938,-0.006245398,-0.02079672,0.006106079,0.005637872
1.012713,-0.178446,0.06556613,-0.002289538,-0.008431518,-0.005074204,-0.01816696,0.004651825,0.006930674
1.014232,-0.177487,0.06364338,-0.0007932993,-0.007615931,-0.006975805,-0.01665707,0.005052755,0.007697954
1.014174,-0.1778088,0.0648409,-0.0008726052,-0.008077068,-0.005754225,-0.01481874,0.006062789,0.006399889
1.012359,-0.1802642,0.06520262,-0.002709472,-0.01066718,-0.005365513,-0.006476642,0.001291088,0.005031427
1.012745,-0.1816751,0.06489815,-0.002344462,-0.01220766,-0.005640036,-0.003279426,-0.004445226,0.00617608
1.013359,-0.1824067,0.06759283,-0.001751425,-0.0130632,-0.002912487,-0.003146865,-0.00816664,0.004700605
1.014037,-0.1817358,0.06624872,-0.001093102,-0.01250999,-0.004220888,0.005175329,-0.006646579,0.004124428
1.014427,-0.1807075,0.0634591,-0.0007222008,-0.01159248,-0.006972036,0.01222857,-0.005204756,0.01072766
1.014516,-0.1810534,0.06215164,-0.0006521731,-0.01204209,-0.008238271,0.01219994,-0.006891323,0.01365044
1.016639,-0.1820085,0.06157292,0.00145386,-0.01309322,-0.008772966,0.01229777,-0.00483544,0.01087987
1.017174,-0.1840385,0.06085418,0.001972231,-0.0152113,-0.009444748,0.01494671,-0.004703154,0.01099168
1.016065,-0.183876,0.05661277,0.0008468651,-0.01512856,-0.01363614,0.01516222,-0.007501996,0.0108968
1.015985,-0.1832854,0.05589142,0.000751386,-0.01460897,-0.01430415,0.01429388,-0.007699819,0.009419791
1.014986,-0.1851713,0.0596222,-0.0002629475,-0.01655677,-0.01051644,0.01696536,-0.006341447,0.007438179
1.014878,-0.1852493,0.06154459,-0.0003851776,-0.01668733,-0.008533327,0.01799813,-0.00498342,0.00517675
1.014769,-0.1850063,0.06330445,-0.000508812,-0.01648718,-0.006708878,0.02088259,-0.009916739,0.005420275
1.013346,-0.1832402,0.0631122,-0.001945009,-0.01475395,-0.006832734,0.0287737,-0.01573747,0.006566412
1.013847,-0.1800128,0.06329862,-0.00145629,-0.01154936,-0.006574206,0.03084009,-0.01340147,0.0102126
1.014016,-0.1800117,0.06593118,-0.001299042,-0.01156094,-0.003865964,0.0291842,-0.01233247,0.01418115
1.012729,-0.1793574,0.06532801,-0.002597048,-0.01090927,-0.004390083,0.02882806,-0.01488239,0.01482381
1.012686,-0.1816603,0.06578356,-0.002651058,-0.01320482,-0.003852342,0.02740863,-0.01666584,0.01548976
1.014223,-0.186849,0.06671958,-0.001123299,-0.01837646,-0.002831243,0.02746488,-0.01897592,0.01557003
1.015927,-0.1863302,0.06174408,0.0005723914,-0.0178306,-0.007719001,0.031028,-0.01642603,0.0172584
1.015479,-0.1850542,0.05921038,0.0001175883,-0.0165177,-0.01016244,0.03855696,-0.01120111,0.01843488
1.014961,-0.1823386,0.06401608,-0.0004077143,-0.01375508,-0.005264,0.04527112,-0.01127438,0.01501833
1.01648,-0.1764631,0.06861189,0.001106142,-0.007822668,-0.0005730422,0.04640766,-0.009430935,0.01155422
1.016602,-0.1753961,0.06686789,0.001222974,-0.006689126,-0.002219733,0.04350399,-0.003811225,0.007264777
1.014751,-0.1771505,0.06403286,-0.0006315626,-0.008367897,-0.004955603,0.03859293,0.000347865,0.005931167
1.013216,-0.1784923,0.06421241,-0.002170245,-0.009625383,-0.004675257,0.03680389,0.004753406,0.00616728
1.012922,-0.1801761,0.06251782,-0.002466876,-0.01121654,-0.006267587,0.03772058,0.005391079,0.001252356
1.013558,-0.1802186,0.06536002,-0.001833524,-0.01115854,-0.003321781,0.03620865,0.004692786,0.002646414
1.014046,-0.1787375,0.07037107,-0.001346558,-0.009569215,0.001794054,0.0343369,0.006268983,0.008243005
1.014956,-0.1788083,0.06691148,-0.0004374758,-0.009524377,-0.001559873,0.03571665,0.004407171,0.008736779
1.015726,-0.1808119,0.06376108,0.0003335569,-0.01140539,-0.004604037,0.04141795,0.004124429,0.009788277
1.0159,-0.1842155,0.06270125,0.0005087391,-0.01467973,-0.005557238,0.04485083,0.00308403,0.009370812
1.016076,-0.1876121,0.06359786,0.000686293,-0.01794044,-0.004553708,0.03756805,-0.001345418,0.009058161
1.015105,-0.181369,0.06826307,-0.0002821522,-0.01155499,0.0002186333,0.02812165,-6.276171e-05,0.01083279
1.014925,-0.1723717,0.0667694,-0.0004591514,-0.002408961,-0.001167877,0.02704127,-0.0005280235,0.009629556
1.015324,-0.1756711,0.06406776,-5.656839e-05,-0.005553814,-0.003762546,0.02498376,-0.004373123,0.007201319
1.01331,-0.1775493,0.06596149,-0.002066485,-0.00727215,-0.001762213,0.01969321,-0.003058783,0.003882658
1.012247,-0.175348,0.06717388,-0.003125138,-0.004906179,-0.0004437345,0.02028728,-0.0003931598,0.002110639
1.014267,-0.179973,0.06790746,-0.001100675,-0.009362311,0.0003952183,0.01843561,0.001364638,0.002948567
1.015692,-0.1818919,0.06567194,0.0003299944,-0.01110832,-0.001735838,0.01510277,0.001890023,0.003693539
1.013605,-0.1817942,0.06314964,-0.001750912,-0.01083404,-0.004154754,0.01718629,0.001973442,0.004770708
1.011455,-0.1840147,0.06650854,-0.003893516,-0.01287459,-0.0006936403,0.0145617,0.003005961,0.00457238
1.01265,-0.1820865,0.07020798,-0.002691178,-0.01076306,0.003106731,0.01324133,0.002831755,0.00425621
1.013071,-0.1795376,0.07149832,-0.00226184,-0.008027648,0.004496481,0.01473348,0.002962548,0.001579107
1.012946,-0.1790238,0.07428742,-0.002377958,-0.007324397,0.007383135,0.01003752,0.00377817,-0.002530855
1.014213,-0.1798513,0.07461343,-0.001101625,-0.007959839,0.007804404,0.008364329,0.002717581,-0.0006499873
1.013128,-0.1812328,0.06960988,-0.002175619,-0.009146906,0.00289338,0.009588952,-0.0001066247,0.002178138
1.01184,-0.1805769,0.06612547,-0.003451514,-0.008294659,-0.0005015502,0.01063505,-0.002191164,0.002690261
1.012873,-0.1814197,0.06616978,-0.002406355,-0.008939221,-0.0003709105,0.01336447,-0.002244569,0.002735766
1.01334,-0.1834173,0.06712478,-0.00192611,-0.0107371,0.0006672474,0.01405326,-0.003272765,0.0009800024
1.013067,-0.1833061,0.06780633,-0.002185163,-0.01042465,0.001428766,0.01525611,-0.007026017,0.0008198233
1.012463,-0.1822497,0.06803863,-0.002773165,-0.009165736,0.001737829,0.01621255,-0.01236157,0.003839687
1.012519,-0.1801684,0.06934418,-0.002701006,-0.006880808,0.003116853,0.01347953,-0.0187159,0.007642436
1.014905,-0.177542,0.06905376,-0.0002979444,-0.004049893,0.002896548,0.005627426,-0.02118303,0.008969418
1.017615,-0.1758853,0.06660204,0.002429634,-0.002188032,0.0005114991,-0.002896643,-0.01624022,0.00774347
1.018792,-0.1775036,0.06472843,0.003626269,-0.003601065,-0.001298894,-0.003880136,-0.01138817,0.008130911
1.018972,-0.1813206,0.06484609,0.003825455,-0.007213069,-0.001121386,-0.005105399,-0.009856069,0.008251375
1.01939,-0.182745,0.0669435,0.004262427,-0.008432967,0.001032615,-0.01008813,-0.007586491,0.004682505
1.019629,-0.1828483,0.06671658,0.004521531,-0.008332329,0.0008591234,-0.01240638,-0.005000785,-0.001444215
1.018148,-0.1834137,0.06619315,0.003059209,-0.008694637,0.000385996,-0.01583214,-0.001403477,-0.005497576
1.016635,-0.1832992,0.06624941,0.001564885,-0.008377816,0.0004895037,-0.02014197,0.001623638,-0.002088914
1.015844,-0.1818392,0.06456122,0.0007922923,-0.006716304,-0.001154421,-0.02072267,0.003173327,0.000641071
1.015556,-0.1789135,0.06536515,0.0005219433,-0.003590094,-0.0003091109,-0.02074932,0.007553207,-0.005199029
1.016153,-0.1773331,0.06562198,0.001135398,-0.001810388,-1.364715e-05,-0.02310172,0.01110321,-0.008780373
1.015079,-0.1793952,0.06479562,7.649444e-05,-0.003674681,-0.0008040126,-0.0261266,0.01093897,-0.006516354
1.014019,-0.1817495,0.06567026,-0.0009687155,-0.005832942,0.0001040847,-0.02820711,0.009588896,-0.00570707
1.015004,-0.1821514,0.06509555,3.110259e-05,-0.006040637,-0.0004395897,-0.02682407,0.00585035,-0.004809243
1.015305,-0.1852442,0.06523256,0.0003456032,-0.008941369,-0.0002738654,-0.02007639,-0.0008142667,-0.002045551
1.014869,-0.1893863,0.06531043,-7.791743e-05,-0.01289328,-0.000169487,-0.009322127,-0.004653358,0.0001557908
1.012607,-0.1884524,0.06357634,-0.002327845,-0.01177101,-0.001879174,0.003367426,-0.0008807223,0.002296649
1.010098,-0.1882435,0.0611655,-0.00482531,-0.01137537,-0.004267565,0.01295185,0.001023849,0.005209163
1.011214,-0.1890874,0.05868355,-0.003698833,-0.0120339,-0.00672876,0.01986287,-0.002160681,0.005786064
1.012489,-0.1835999,0.05869482,-0.002412836,-0.006362234,-0.00669811,0.02528285,-0.001257467,0.004270531
1.01243,-0.1758547,0.05590613,-0.002460925,0.001565918,-0.009468402,0.02153867,0.001634178,0.004645747
1.012834,-0.1723013,0.05214121,-0.002046338,0.005300766,-0.01321542,0.01769055,0.003824423,0.00366551
1.013323,-0.1760542,0.05863845,-0.001547219,0.001727386,-0.006700292,0.02104937,0.004124575,0.001360888
1.014107,-0.1807974,0.06597478,-0.0007521037,-0.002838774,0.000654325,0.01853787,0.003374222,0.002045506
1.01411,-0.1789178,0.06442268,-0.0007383435,-0.0007849347,-0.0008789552,0.01187118,0.005865632,0.002279176
1.01377,-0.1785716,0.0650874,-0.001067067,-0.0002674362,-0.0001949448,0.006173834,0.005312127,0.002911321
1.014908,-0.1798027,0.06767086,8.32275e-05,-0.00133048,0.002408214,0.003540133,0.004146986,0.005464756
1.015627,-0.1776993,0.06548146,0.0008137352,0.0009376432,0.0002387754,0.005380363,0.007811709,0.004778324
1.01521,-0.1780037,0.0672062,0.0004083396,0.0007944211,0.001983627,0.0005065339,0.009897686,0.001944509
1.015573,-0.1796963,0.06908036,0.0007828055,-0.0007408861,0.003877875,-0.004492797,0.01005135,0.000405663
1.017123,-0.1805276,0.06405772,0.002344512,-0.001418811,-0.001124842,-0.003263424,0.009076749,0.000225155
1.018405,-0.1792723,0.06080432,0.003637902,-1.414437e-05,-0.004358573,-0.005380949,0.008585915,-0.0004204854
1.017195,-0.1772809,0.05796861,0.002439438,0.002122375,-0.00717477,-0.005515947,0.009178831,-0.002326005
1.014904,-0.1819719,0.05488613,0.0001593331,-0.0024276,-0.01023766,-0.001994238,0.008013552,-0.0009770829
1.014046,-0.1876987,0.05668309,-0.0006887404,-0.008017732,-0.008420643,0.0003048431,0.008024662,0.001343152
1.012889,-0.1880791,0.06114135,-0.001835836,-0.008265522,-0.003941526,0.0005605625,0.006482059,0.0003682033
1.012001,-0.1870071,0.06635526,-0.00271478,-0.007064723,0.001294206,-0.0002598631,0.00295982,0.002300935
1.01285,-0.1854898,0.0663218,-0.001856447,-0.005422117,0.001283528,0.0019689,0.002127582,0.005372475
1.013482,-0.1842282,0.06428097,-0.001215956,-0.00403838,-0.0007337268,0.002609442,0.0006407724,0.003616822
1.014163,-0.1835899,0.06770518,-0.0005266103,-0.003281092,0.002714688,0.0008966121,-0.0001513445,0.0009576974
1.015031,-0.1827616,0.0677207,0.0003505157,-0.002336865,0.002754878,-0.0009926757,0.002068855,-0.002588984
1.015463,-0.1805993,0.06227067,0.0007911947,-6.147492e-05,-0.002670212,-0.003427534,0.004271525,-0.006107271
1.016183,-0.1786384,0.0586519,0.001518804,0.002009389,-0.006263823,-0.002521842,0.006673942,-0.005252268
1.016118,-0.1813414,0.06075139,0.001462213,-0.0005866847,-0.004138883,-0.002897308,0.01035663,-0.006154606
1.015928,-0.185831,0.06344459,0.001279215,-0.004972573,-0.001419784,-0.001653113,0.01227644,-0.008697165
1.016809,-0.1884419,0.05768273,0.002167681,-0.007482788,-0.007155213,0.008261115,0.007063913,-0.003068629
1.016568,-0.1925257,0.05410472,0.001933939,-0.01146874,-0.0107061,0.029735,-0.0002223386,0.004636529
1.014657,-0.2002191,0.0596701,2.908159e-05,-0.01906668,-0.005112662,0.0756913,-0.004864075,0.00680679
1.013362,-0.2017764,0.06328459,-0.001260199,-0.0205302,-0.001468951,0.1284203,-0.01563001,0.009637478
1.013974,-0.1843321,0.06463215,-0.0006434945,-0.002992996,-9.096501e-05,0.141789,-0.02405127,0.01096034
1.014898,-0.1624129,0.06896172,0.0002855483,0.01901842,0.004270094,0.1158295,-0.01603503,0.008529937
1.014308,-0.1578905,0.07640065,-0.0002999703,0.02363174,0.01174125,0.08786205,-0.009161583,0.008043907
1.012808,-0.1560435,0.08149847,-0.001796534,0.02556743,0.0168715,0.05294947,-0.00909505,0.002377045
1.011507,-0.1468164,0.07535092,-0.003093972,0.0348794,0.01075581,-0.006052698,0.000680068,-0.008147356
1.0099,-0.1487411,0.06461385,-0.004697306,0.03303438,4.938565e-05,-0.06360655,0.008555759,-0.01068814
1.008784,-0.1549892,0.06368451,-0.005809597,0.02685927,-0.0008508486,-0.1027688,0.006608056,-0.01247448
1.013139,-0.1605973,0.06754326,-0.001451305,0.0213162,0.003035452,-0.1154404,0.009821156,-0.01970266
1.019036,-0.1789595,0.06922294,0.004450014,0.003010286,0.004741065,-0.1127623,0.01614689,-0.02272665
1.017049,-0.1876108,0.07191725,0.0024672,-0.00559351,0.007459564,-0.1197513,0.01876187,-0.02179577
1.014974,-0.1866536,0.06590255,0.000397144,-0.004597214,0.001467093,-0.1069524,0.01672742,-0.02056405
1.015812,-0.1982492,0.05543905,0.001239242,-0.01616124,-0.0089762,-0.07755283,0.01139308,-0.01694208
1.009507,-0.1985862,0.0578304,-0.005061077,-0.01647335,-0.006566427,-0.06703926,0.008219817,-0.01175153
1.005312,-0.1922022,0.05963922,-0.009250815,-0.01006989,-0.004740577,-0.06059887,0.004972237,-0.007828865
1.010881,-0.1977192,0.0552319,-0.003677181,-0.01557183,-0.009131871,-0.05039318,0.004365925,-0.005572203
1.013826,-0.1900714,0.1110865,0.00193634,0.02090741,0.0455617,-0.002889048,0.05667789,-0.1038596
1.012547,-0.1929196,0.1100854,0.0006419946,0.01686091,0.04291007,-0.0102767,0.05946821,-0.1031803
1.011977,-0.1960525,0.1053866,6.108697e-05,0.01254648,0.03657265,-0.007092829,0.06215543,-0.1016181
1.012961,-0.1967633,0.1007023,0.001038195,0.01067186,0.03026338,-0.008745239,0.06000246,-0.09954669
1.013321,-0.196634,0.1013485,0.00139476,0.009656537,0.02929995,-0.01623408,0.05796677,-0.1004474
1.012448,-0.1991174,0.1052603,0.0005220199,0.00604886,0.03161897,-0.02480756,0.06146178,-0.102184
1.009854,-0.2005989,0.1052345,-0.002069362,0.003464683,0.03001903,-0.03673666,0.06495247,-0.103714
1.007397,-0.19659,0.1045538,-0.004520466,0.006393636,0.02778411,-0.0396215,0.06322357,-0.1012908
1.009725,-0.1929535,0.1035847,-0.002183529,0.00897389,0.02528214,-0.04432782,0.06806051,-0.1003715
1.014392,-0.1936083,0.09886687,0.002494522,0.007287394,0.01905394,-0.04652945,0.07773976,-0.1015749
1.015477,-0.1978482,0.09854021,0.003594027,0.002040972,0.01724087,-0.03592235,0.08021108,-0.1011177
1.012931,-0.203976,0.09953471,0.001064055,-0.005067342,0.01677423,-0.03041423,0.07765188,-0.1063089
1.007101,-0.2063005,0.09860416,-0.004748232,-0.008345534,0.01440912,-0.02959042,0.07410489,-0.1102951
1.003916,-0.2067554,0.1004276,-0.007913055,-0.009726339,0.01482576,-0.02774293,0.06807003,-0.109661
1.00624,-0.2059872,0.09819213,-0.005567108,-0.009855332,0.01121235,-0.02416827,0.06140755,-0.1103119
1.008226,-0.2008167,0.09493852,-0.003558157,-0.005552545,0.006610685,-0.01651005,0.06069796,-0.1092697
1.011189,-0.1963604,0.09530439,-0.0005688688,-0.001933654,0.005659436,-0.01074047,0.06035786,-0.1087062
1.01369,-0.1930337,0.09499932,0.001959388,0.0005861082,0.004069198,-0.007202576,0.06065901,-0.1068834
1.012402,-0.1895926,0.09619122,0.0007009116,0.003250778,0.004008835,-0.01863072,0.06652708,-0.1054409
1.011698,-0.1889276,0.09693185,2.761875e-05,0.003169734,0.003530919,-0.04649498,0.06543985,-0.1094852
1.011087,-0.1894116,0.09613375,-0.0005511144,0.001969675,0.001548702,-0.05774873,0.06051867,-0.1122126
1.008939,-0.1910174,0.09575112,-0.002666236,-0.0003224417,1.700185e-05,-0.0527958,0.05693883,-0.1122538
1.008257,-0.1951079,0.09461071,-0.003314567,-0.005069862,-0.002236866,-0.05038147,0.05103722,-0.1123147
1.007803,-0.1980393,0.094346,-0.003733649,-0.008628864,-0.003578913,-0.04258715,0.05129591,-0.1113301
1.006259,-0.1981697,0.09444176,-0.00524166,-0.009357822,-0.004523894,-0.02954886,0.05106956,-0.1049115
1.007258,-0.198618,0.09402424,-0.004205516,-0.01037559,-0.005945158,-0.01812619,0.04586996,-0.09676794
1.009238,-0.1991299,0.09281149,-0.00218784,-0.01142778,-0.008124324,-0.01091989,0.04294486,-0.0964246
1.008855,-0.1990064,0.0918569,-0.002530958,-0.01181564,-0.01000768,-0.009426871,0.03781425,-0.09622636
1.005703,-0.1989361,0.0959861,-0.005642499,-0.01222778,-0.006769369,-0.007081856,0.03374448,-0.09366304
1.002003,-0.1955397,0.1004439,-0.009301817,-0.009285142,-0.003164489,-0.004941113,0.03213726,-0.09412718
1.006758,-0.1911161,0.09845057,-0.004504369,-0.005286939,-0.005972916,-0.008596247,0.02750399,-0.09249755
1.013464,-0.1902313,0.09584202,0.002245892,-0.004799606,-0.009358949,-0.0142019,0.02495749,-0.08998901
1.010772,-0.1893879,0.09559275,-0.0004012932,-0.004326445,-0.01034831,-0.01814216,0.025106,-0.08747145
1.009117,-0.1884076,0.09365449,-0.002010089,-0.003689859,-0.01298948,-0.01726055,0.02655072,-0.08192074
1.00954,-0.189544,0.09177281,-0.001540316,-0.005144243,-0.01553701,-0.01362795,0.03270052,-0.07809026
1.007607,-0.1918469,0.09252588,-0.003425153,-0.007740092,-0.01541291,-0.01421029,0.03877882,-0.07628523
1.009509,-0.1948107,0.09421542,-0.001475297,-0.01097258,-0.01431563,-0.009676604,0.04009296,-0.07393911
1.01132,-0.1958293,0.09497676,0.0003846774,-0.01223608,-0.01411013,0.0002507071,0.04128714,-0.07500198
1.01077,-0.1932592,0.09353096,-0.000116191,-0.009887639,-0.0160757,-0.001644506,0.0414823,-0.07860144
1.010473,-0.187204,0.09070845,-0.0003629874,-0.004031276,-0.01938232,-0.0127359,0.03756375,-0.08068627
1.009807,-0.1812715,0.08847565,-0.000979223,0.001724258,-0.0220639,-0.03040277,0.0370048,-0.08250496
1.012286,-0.1842494,0.0901641,0.001550037,-0.001409722,-0.02078922,-0.04797426,0.04019661,-0.08210435
1.014551,-0.1912593,0.09401915,0.003864229,-0.008555637,-0.01731325,-0.04788767,0.04172888,-0.07944143
1.011202,-0.1921601,0.09323715,0.0005653361,-0.009573422,-0.01844013,-0.04213589,0.04405973,-0.07871617
1.008406,-0.1924509,0.0923694,-0.002182199,-0.00996273,-0.01961915,-0.03686642,0.04767175,-0.07664615
1.009776,-0.1972413,0.09212229,-0.0007643448,-0.01483374,-0.02014452,-0.02489944,0.05262433,-0.07437797
1.010303,-0.207747,0.08466878,-0.0001894704,-0.02540241,-0.02784386,-0.01592544,0.05609522,-0.07655812
1.009587,-0.2160723,0.07804956,-0.0008587199,-0.03377332,-0.03467689,-0.00265848,0.05723923,-0.07740842
1.013738,-0.2099058,0.08046025,0.003338741,-0.02763456,-0.03244816,0.01014505,0.07245126,-0.07751707
1.024018,-0.2026878,0.08470117,0.01366305,-0.02042624,-0.0283575,-0.004981221,0.1130918,-0.08058372
1.031225,-0.2029418,0.0854489,0.02091367,-0.02067193,-0.02772866,-0.03295996,0.1606985,-0.08485836
1.021712,-0.2008949,0.08798063,0.01144196,-0.01859886,-0.02528494,-0.0480973,0.1688749,-0.08591013
1.000781,-0.195735,0.09375954,-0.009450305,-0.01339535,-0.01956382,-0.04478278,0.1080117,-0.06403807
0.9919933,-0.1861723,0.09638031,-0.01820276,-0.003772353,-0.01697149,-0.02912312,0.02933597,-0.03397399
0.9995633,-0.1819231,0.09609453,-0.01059934,0.0005531704,-0.01725746,-0.02644464,0.004230478,-0.0348993
1.008834,-0.1887121,0.09466327,-0.001297098,-0.006144949,-0.01866178,-0.03117388,0.007110306,-0.04053826
1.011085,-0.191905,0.09129713,0.0009851727,-0.009233282,-0.02197496,-0.03233842,-0.004490496,-0.03690078
1.009366,-0.1930468,0.08699191,-0.0007046044,-0.0102579,-0.02620214,-0.03857761,-0.004946312,-0.05216991
1.009633,-0.1930808,0.08350047,-0.0004088262,-0.01016282,-0.02959129,-0.03575744,-0.001677697,-0.05897987
1.009658,-0.1893272,0.08197887,-0.000356439,-0.00626891,-0.03098695,-0.03030483,-0.01368185,-0.04024215
1.00873,-0.1917563,0.08332948,-0.001257375,-0.008547352,-0.02948727,-0.02631448,-0.01790495,-0.02351954
1.008403,-0.1986342,0.09126403,-0.00155929,-0.01526482,-0.02138114,-0.01329966,-0.02023204,-0.01782885
1.009242,-0.2069611,0.09716583,-0.0006956665,-0.02342209,-0.01528603,-0.005101641,-0.02164218,-0.02888903
1.012202,-0.2121812,0.09377956,0.002288013,-0.02846348,-0.01845839,-0.0002668273,-0.01464438,-0.04826434
1.012975,-0.2098796,0.09240765,0.003084654,-0.02597395,-0.01959692,0.001195358,-0.0104902,-0.05901489
1.01235,-0.2073872,0.09344264,0.002481476,-0.02328434,-0.01831019,0.0001193969,-0.002567364,-0.06274383
1.012917,-0.1998241,0.09222801,0.003069082,-0.01551453,-0.01925578,0.001037022,0.005096682,-0.06166455
1.014142,-0.1914146,0.09408748,0.00431361,-0.006889331,-0.01711097,-0.001239953,0.01495353,-0.06446023
1.016021,-0.1932687,0.1018908,0.006210056,-0.008519177,-0.009007081,0.007706938,0.026981,-0.06826466
1.014654,-0.1953556,0.1080191,0.004859551,-0.01037415,-0.002564388,0.01773346,0.01995695,-0.0653782
1.01089,-0.1948442,0.1069826,0.001110314,-0.009623761,-0.003273982,0.01648287,0.01340489,-0.06364285
1.00725,-0.1905148,0.1074158,-0.002517464,-0.00504911,-0.00250317,0.01851476,0.01457784,-0.05694525
1.00632,-0.1825024,0.1058283,-0.003436009,0.003214024,-0.003743785,0.01623659,0.008983356,-0.05019372
1.010586,-0.1829329,0.1019015,0.0008389894,0.00303882,-0.007315877,0.007754815,0.009279251,-0.05313169
1.013845,-0.1879318,0.1042354,0.004105951,-0.001701448,-0.004620819,0.000745158,0.01264871,-0.05359762
1.014062,-0.1895938,0.1022611,0.004329988,-0.003102316,-0.006228518,-0.01134457,0.01981302,-0.05332186
1.012902,-0.1897515,0.09752336,0.003174644,-0.002997367,-0.0105954,-0.02729452,0.03237901,-0.05580669
1.010987,-0.191531,0.09198712,0.001262454,-0.004513249,-0.01575734,-0.03102771,0.03403972,-0.05729618
1.011009,-0.1967802,0.08417669,0.001286267,-0.009498374,-0.02319063,-0.0238775,0.0345132,-0.06122606
1.010825,-0.1982043,0.08696075,0.001103098,-0.01065848,-0.02002686,-0.0237743,0.03816948,-0.06378628
1.009057,-0.1947356,0.08764168,-0.0006668778,-0.006926054,-0.01896383,-0.02269794,0.0334869,-0.05893566
1.007033,-0.1946185,0.08241075,-0.002693908,-0.006545773,-0.02381041,-0.01596465,0.02954717,-0.05190984
1.006669,-0.198135,0.08539723,-0.00306105,-0.009799828,-0.02043749,-0.01429461,0.0314279,-0.05142567
1.009305,-0.2009864,0.08651794,-0.0004310379,-0.01238991,-0.01892833,-0.01301514,0.03253349,-0.0522923
1.011355,-0.199338,0.08624823,0.001613479,-0.01048133,-0.01880777,-0.009435225,0.03313152,-0.05025455
1.012207,-0.1965203,0.08859774,0.002458638,-0.007404554,-0.01606639,-0.004710502,0.03539523,-0.05093276
1.012434,-0.1964876,0.08718917,0.002678385,-0.00711422,-0.01708178,-0.001506501,0.03714331,-0.04972612
1.010616,-0.1929533,0.08684363,0.000851901,-0.003323922,-0.01703314,-0.002469489,0.03808526,-0.0464473
1.009525,-0.1881682,0.08622421,-0.0002481622,0.001715208,-0.01725764,-0.002415291,0.0394785,-0.04617862
1.011341,-0.1883239,0.08377455,0.001558141,0.00181119,-0.01931187,-0.001612285,0.03773059,-0.04599503
1.012683,-0.1878176,0.08519612,0.002888936,0.002566192,-0.01749458,-0.004354626,0.03153868,-0.04663275
1.009014,-0.1867108,0.08789647,-0.000791134,0.003917988,-0.01439838,-0.009194801,0.02558198,-0.04703198
1.005278,-0.1879448,0.08930155,-0.00453925,0.002924895,-0.01259759,-0.01417005,0.02012224,-0.04298647
1.007181,-0.1876009,0.08915026,-0.002649605,0.003504931,-0.01235369,-0.02679013,0.01149834,-0.0365991
1.008549,-0.1874544,0.08694986,-0.001294543,0.003882466,-0.01415978,-0.04304723,0.008602919,-0.0309958
1.007983,-0.1896514,0.08465985,-0.001873372,0.001910888,-0.01605667,-0.04552052,0.01121985,-0.02544284
1.008988,-0.1906983,0.0828555,-0.0008817805,0.001083489,-0.01746933,-0.04006612,0.00693219,-0.02377631
1.010261,-0.1905471,0.08372726,0.0003786617,0.001447976,-0.01620742,-0.03526972,0.007726741,-0.02669243
1.012356,-0.1910021,0.08576745,0.002460704,0.00119983,-0.01377871,-0.02901604,0.01166083,-0.02488375
1.013247,-0.1917479,0.08500929,0.003339245,0.0006542915,-0.01415018,-0.02718084,0.009396104,-0.02344811
1.012197,-0.1910503,0.08699413,0.002276658,0.001545475,-0.01178065,-0.02780579,0.01252153,-0.02533094
1.013409,-0.1896252,0.09031514,0.003475383,0.00315727,-0.008077249,-0.02823787,0.0110005,-0.02398651
1.013561,-0.1906782,0.08878775,0.003614922,0.002284058,-0.009224864,-0.03373932,0.008006231,-0.02670333
1.009186,-0.1924128,0.08815814,-0.0007740144,0.0007222465,-0.009477701,-0.03846193,0.01293741,-0.02875211
1.006114,-0.1932026,0.08835336,-0.0038598,9.811589e-05,-0.008909055,-0.03696565,0.01353057,-0.02499652
1.009722,-0.193848,0.08538577,-0.0002654115,-0.0003887274,-0.01150685,-0.03650372,0.01564389,-0.0237714
1.015544,-0.1944414,0.08211294,0.005542884,-0.0008304999,-0.01441373,-0.03962384,0.01736508,-0.02330434
1.015986,-0.1965749,0.08045493,0.00597117,-0.002819179,-0.01570968,-0.04233966,0.01885044,-0.02537889
1.014361,-0.1972628,0.08364053,0.004331533,-0.003368959,-0.01216589,-0.04458677,0.02558841,-0.03014458
1.013771,-0.1966643,0.08797646,0.00372611,-0.002638719,-0.007475658,-0.04689878,0.02522435,-0.03277292
1.011536,-0.1976236,0.08620278,0.001476005,-0.003472428,-0.008899075,-0.05011518,0.02322556,-0.03362325
1.010403,-0.1961909,0.08525671,0.0003258183,-0.00192003,-0.00949913,-0.05244741,0.02226221,-0.03219857
1.010324,-0.1962953,0.08786962,0.0002301645,-0.001910357,-0.006544642,-0.04874194,0.01871869,-0.03243557
1.011764,-0.2016278,0.08756309,0.001652079,-0.007134257,-0.006514231,-0.04039325,0.0185202,-0.03227855
1.01467,-0.2057596,0.08778379,0.004540199,-0.01116249,-0.005961464,-0.03110204,0.0171505,-0.0263933
1.011504,-0.2057307,0.09053762,0.001354965,-0.01103451,-0.002880701,-0.02113829,0.01546209,-0.02019306
1.007926,-0.2043527,0.09216191,-0.002241801,-0.009561418,-0.0009349082,-0.009812101,0.0154367,-0.01843991
1.010158,-0.2040864,0.09213828,-2.987351e-05,-0.00920339,-0.00064284,-0.001948317,0.01444248,-0.01956986
1.010176,-0.201613,0.0911131,-3.277993e-05,-0.00664109,-0.0013585,-0.00366124,0.01368016,-0.01879552
1.009456,-0.2001486,0.09084848,-0.0007733387,-0.005090491,-0.001320135,-0.004145356,0.009740524,-0.01674692
1.012055,-0.202386,0.08741802,0.001804701,-0.007243809,-0.004454416,7.440391e-05,0.002546148,-0.0151502
1.014087,-0.2008015,0.08121466,0.003815152,-0.005577358,-0.01036852,-0.003595057,-0.001985295,-0.01042982
1.015083,-0.1989571,0.07929323,0.004790087,-0.003652664,-0.01200754,-0.006928658,0.000111475,-0.006823379
1.015113,-0.1974139,0.07763192,0.004798153,-0.002030876,-0.01339302,-0.00640369,0.004835021,-0.01042365
1.013447,-0.1932164,0.07745035,0.003109956,0.002243548,-0.01330497,-0.01089015,0.007450166,-0.01545113
1.011956,-0.1917486,0.08247296,0.001595184,0.003786658,-0.008018579,-0.01181749,0.009028403,-0.01502512
1.012091,-0.1903412,0.08511936,0.00170692,0.00526745,-0.005114016,-0.01256619,0.007728495,-0.01509421
1.012044,-0.1906037,0.08497362,0.001635424,0.005076103,-0.005007143,-0.01788935,0.006807889,-0.01882014
1.010816,-0.19452,0.08500805,0.0003823549,0.001228547,-0.004725645,-0.01729904,0.008003054,-0.01721433
1.011954,-0.1973567,0.08643231,0.001495388,-0.001542147,-0.003059906,-0.01556372,0.006775539,-0.01198012
1.013986,-0.1987218,0.08928994,0.003501368,-0.002843777,3.355351e-05,-0.01507905,0.007162416,-0.008599943
1.013021,-0.1992146,0.08918633,0.002509237,-0.003275667,0.0001599608,-0.01084961,0.00793527,-0.00575953
1.011812,-0.2020993,0.0888616,0.001273932,-0.006101696,5.925541e-05,-0.005572217,0.006565456,-0.006191012
1.011068,-0.201876,0.09094166,0.0005024763,-0.00582185,0.00235714,-0.001589168,0.006427448,-0.006459574
1.011018,-0.1972901,0.09084443,0.0004245121,-0.001181229,0.002471341,-0.003382143,0.003717586,-0.002851691
1.012875,-0.1975276,0.08562646,0.002252876,-0.001365762,-0.002541802,-0.008586375,0.0005991653,-0.001655152
1.013015,-0.1988538,0.08005646,0.002364221,-0.002640475,-0.007913621,-0.01031518,0.001337863,-0.005121355
1.011609,-0.200023,0.08324611,0.0009291311,-0.003759698,-0.004532264,-0.01037969,0.002188267,-0.008841737
1.010844,-0.1990092,0.08781971,0.0001344063,-0.00269722,0.0002267497,-0.01255581,0.003191349,-0.009333985
1.00939,-0.1955761,0.08538552,-0.001349702,0.000783148,-0.002028213,-0.01717577,0.003891151,-0.008909532
1.009211,-0.1976181,0.08485022,-0.001558214,-0.001212718,-0.00239043,-0.0180216,0.002314601,-0.007691645
1.010483,-0.1977844,0.08522388,-0.000315629,-0.001334231,-0.001849771,-0.01476585,0.002460956,-0.003930423
1.010265,-0.1963276,0.08340424,-0.0005638517,0.0001662014,-0.003508383,-0.01204628,0.004407179,-0.004044223
1.010417,-0.1979441,0.08217561,-0.0004410049,-0.001407827,-0.004581832,-0.007802121,0.003253848,-0.007359205
1.010692,-0.1970979,0.07798983,-0.0001953919,-0.000520519,-0.008618033,-0.007285364,0.00283433,-0.008291035
1.009865,-0.1985297,0.07629103,-0.001051134,-0.001912295,-0.01017253,-0.007905146,0.003839603,-0.008305248
1.009923,-0.2024908,0.07676758,-0.001020847,-0.005834491,-0.009556514,-0.001236524,0.002592017,-0.005961104
1.009527,-0.2059299,0.07049701,-0.001444678,-0.009235681,-0.01569193,0.001451398,0.003576103,-0.003994015
1.009943,-0.2076757,0.0676497,-0.001055691,-0.01094409,-0.01840779,-0.0004747921,0.004448513,-0.004740947
1.011914,-0.2035845,0.07632055,0.0008895318,-0.006815727,-0.00960851,0.0005359619,0.004192907,-0.003592941
1.012469,-0.1998055,0.08462903,0.001419789,-0.002999406,-0.001174091,-0.0008258859,0.004700388,-0.00164949
1.011975,-0.1993232,0.0830931,0.000900891,-0.00247937,-0.002586393,-0.004534025,0.0009582268,0.0005458838
1.00986,-0.1980604,0.08184978,-0.001238446,-0.001178584,-0.003708406,-0.008072461,-0.002294519,0.001426043
1.007285,-0.1960106,0.08639969,-0.003835736,0.0009094695,0.0009604425,-0.007645349,-0.003729158,0.0004274523
1.005476,-0.195112,0.08488781,-0.005667775,0.001846646,-0.0004349512,-0.00527834,-0.005464149,0.0005664224
1.0069,-0.1962175,0.08210028,-0.004264103,0.0007796551,-0.003108539,-0.006704595,-0.005193216,0.0009420492
1.012548,-0.1959455,0.08251898,0.001363969,0.00109001,-0.002578502,-0.00600318,-0.008894207,0.005541299
1.013006,-0.1956139,0.0794192,0.001803527,0.001459672,-0.00556952,-0.004634857,-0.01260177,0.01081274
1.01,-0.1971217,0.08041546,-0.001219688,-1.05885e-05,-0.004466965,-0.002915608,-0.01048826,0.00928494
1.009646,-0.1972976,0.08252329,-0.001589589,-0.0001494278,-0.002255196,-0.0007550464,-0.00907592,0.003526299
1.009271,-0.1978171,0.08121122,-0.001980288,-0.0006324188,-0.003465617,-0.004375037,-0.008145844,-0.004641837
1.010305,-0.1999126,0.08197947,-0.0009591355,-0.002692055,-0.002597956,-0.006451803,-0.00561108,-0.007969071
1.010653,-0.2020476,0.07919682,-0.0006241176,-0.004791896,-0.005283376,-0.01052536,-0.002803479,-0.008381133
1.010927,-0.2019412,0.07653725,-0.0003611215,-0.004650701,-0.007847787,-0.01611023,0.002540499,-0.01265244
1.011987,-0.2005909,0.07827062,0.0006894309,-0.003265929,-0.006021115,-0.01255305,0.01166759,-0.01170623
1.011386,-0.2024396,0.0791306,8.028518e-05,-0.005080343,-0.005069492,-0.01212243,0.01776968,-0.008236317
1.012933,-0.2052029,0.08129748,0.001619539,-0.007809274,-0.002812462,-0.01355434,0.01924904,-0.01084358
1.012743,-0.2067774,0.08386933,0.001422348,-0.00934922,-0.0001519148,-0.01204659,0.02524217,-0.01720377
1.010841,-0.2041086,0.08502196,-0.0004847017,-0.006645391,0.001087925,-0.01730093,0.03042027,-0.02480311
1.01198,-0.1983742,0.08475843,0.0006492848,-0.0008751181,0.0009099613,-0.02874627,0.0323378,-0.03143993
1.013484,-0.2006505,0.08269477,0.002148505,-0.003114731,-0.001069917,-0.04787431,0.04370341,-0.04299896
1.016111,-0.2069445,0.08133168,0.004771825,-0.009371289,-0.002351092,-0.06419555,0.0555444,-0.05993612
1.01573,-0.2109071,0.07836755,0.004387989,-0.01329526,-0.00523516,-0.06812951,0.06022578,-0.06904475
1.013124,-0.2144538,0.07383387,0.001778086,-0.01680199,-0.009690525,-0.06444364,0.06693357,-0.07047221
1.013405,-0.2169984,0.07218707,0.00205594,-0.01930464,-0.01126045,-0.04961271,0.06656691,-0.07064152
1.012108,-0.2232047,0.07073711,0.0007559842,-0.02546643,-0.01263456,-0.03425041,0.0573642,-0.06817542
1.01106,-0.2250709,0.07013892,-0.0002950626,-0.02728453,-0.01315745,-0.01748548,0.05379454,-0.06175682
1.007482,-0.2184808,0.07851867,-0.003876506,-0.02064194,-0.004702522,0.01455342,0.05015887,-0.05068186
1.000188,-0.2163833,0.08766991,-0.01117407,-0.01848684,0.004523976,0.03709045,0.04105973,-0.03998388
1.000727,-0.2120226,0.08571966,-0.0106381,-0.01406289,0.002648936,0.0410485,0.03281939,-0.03173586
1.004414,-0.1988706,0.08569115,-0.00695376,-0.0008418241,0.002695257,0.04875679,0.02024485,-0.0204936
1.004117,-0.1839849,0.09354876,-0.007251551,0.01411847,0.01062693,0.04807889,-0.002710171,-0.005315577
1.004304,-0.1729549,0.09586804,-0.007063811,0.02522757,0.013019,0.03012465,-0.02394404,0.01117707
1.005232,-0.1709989,0.09284391,-0.00613329,0.02726588,0.01006575,0.01657692,-0.02812962,0.0179923
1.009517,-0.1731919,0.09117896,-0.001843239,0.02515659,0.008469143,-0.0009733486,-0.02621829,0.0149735
1.015649,-0.1755414,0.08873136,0.004295095,0.02289044,0.006086858,-0.02515439,-0.02901229,0.01626161
1.016408,-0.1806176,0.08573649,0.005062583,0.01789587,0.003153952,-0.03385997,-0.02672339,0.0150912
1.01609,-0.1883767,0.08614689,0.004754097,0.01021568,0.003622775,-0.04190536,-0.02268439,0.009378893
1.017233,-0.19335,0.08924919,0.005907674,0.00531769,0.00677985,-0.05386992,-0.01695181,0.00457503
1.015526,-0.1947894,0.0911773,0.004212637,0.003949692,0.00875892,-0.05651957,-0.00423965,-0.0085568
1.013986,-0.2014388,0.09130567,0.002684302,-0.002632401,0.008934191,-0.05620966,0.008230832,-0.01873209
1.012124,-0.2046433,0.09156767,0.0008349174,-0.005773655,0.009238753,-0.04789039,0.02069267,-0.02060942
1.008279,-0.2027107,0.09229249,-0.002998224,-0.00378142,0.01000153,-0.03428355,0.02729429,-0.02766463
1.008531,-0.205359,0.09388551,-0.00273393,-0.006373497,0.01162761,-0.02319312,0.02717384,-0.02816612
1.009983,-0.2032288,0.09756029,-0.001270406,-0.004190145,0.01533025,-0.00668112,0.02787452,-0.02282496
1.009238,-0.2022773,0.09983019,-0.002002513,-0.00318812,0.01762242,0.0127943,0.02347459,-0.02400661
1.010055,-0.2044871,0.09839801,-0.001173296,-0.005349782,0.01620643,0.02739615,0.02034204,-0.01958553
1.009815,-0.1996085,0.09764337,-0.001399881,-0.0004252729,0.01546145,0.04352835,0.02244312,-0.0140137
1.009665,-0.1966364,0.09643412,-0.001537178,0.002590684,0.01425498,0.05705671,0.02418641,-0.01527416
