accx,accy,accz,body_accx,body_accy,body_accz,body_gyrox,body_gyroy,body_gyroz
1.017143,-0.1304419,0.1259597,0.01095557,-0.005959646,-0.01565919,0.02672913,0.06355361,-0.0141438
1.018568,-0.1304813,0.1234491,0.01235213,-0.005821885,-0.01757697,0.02477483,0.06173898,-0.01407904
1.016183,-0.1303706,0.1234107,0.009927233,-0.005535874,-0.01701605,0.02306502,0.05982144,-0.009729753
1.014581,-0.1290004,0.1251689,0.008273316,-0.003992449,-0.01465336,0.01621554,0.05928213,-0.009140803
1.014851,-0.129022,0.1269772,0.008482023,-0.003842862,-0.01223652,0.007371428,0.05835831,-0.008145433
1.015053,-0.1309863,0.1274397,0.008611693,-0.005638191,-0.01116274,0.009189604,0.06071617,-0.003782973
1.013488,-0.1314179,0.1234827,0.00696525,-0.005903016,-0.01450701,0.01327966,0.06124543,-0.002468958
1.01578,-0.1317953,0.1190294,0.009166555,-0.006115978,-0.01834715,0.01085242,0.05587584,-0.003563483
1.018661,-0.134012,0.120572,0.01194803,-0.008170433,-0.01619191,0.009138417,0.05076128,-0.005779674
1.017248,-0.1336029,0.1222709,0.0104275,-0.007601113,-0.01388159,0.007652224,0.04979465,-0.006810998
1.014491,-0.1315131,0.1222032,0.007555813,-0.005353301,-0.01333994,0.004640375,0.04884746,-0.0102822
1.011954,-0.1311788,0.1262101,0.004895415,-0.004862892,-0.008726636,0.002955018,0.04696279,-0.01609311
1.015042,-0.1302825,0.1282711,0.007854218,-0.003812472,-0.006063033,-0.001869094,0.04950029,-0.01509983
1.020242,-0.1307756,0.1260795,0.01291789,-0.004153506,-0.007656781,-0.006196808,0.05134098,-0.01033773
1.018838,-0.1344748,0.1245505,0.01137139,-0.007702656,-0.00859352,-0.004166717,0.04806732,-0.00669497
1.014538,-0.1394809,0.1239053,0.006923119,-0.01256084,-0.008652938,-0.0006336943,0.04378495,-0.005841489
1.01198,-0.1452665,0.1281737,0.004211003,-0.01820019,-0.00380604,0.008903393,0.04119528,-0.007046781
1.014513,-0.1468232,0.1339615,0.00658518,-0.01961187,0.002552382,0.02590296,0.04387227,-0.003005996
1.018522,-0.1441221,0.1314707,0.01043101,-0.01676633,0.000623258,0.03779899,0.04742823,5.646763e-05
1.016376,-0.1416401,0.1256686,0.008118356,-0.01413997,-0.004626882,0.03933197,0.04490643,-0.003216023
1.014844,-0.1375991,0.124047,0.006414667,-0.009954265,-0.005707012,0.03669449,0.0430007,-0.002955564
1.016327,-0.1348949,0.125036,0.007722562,-0.007104891,-0.004187604,0.03673227,0.04808033,-0.004402681
1.016895,-0.1355368,0.124334,0.00811323,-0.007600911,-0.004370462,0.03644251,0.05569117,-0.010699
1.020409,-0.1339484,0.1193414,0.01144605,-0.005866253,-0.00885574,0.03213324,0.06058234,-0.01151464
1.022018,-0.1302911,0.1150284,0.01287217,-0.002062177,-0.01267327,0.02654938,0.05912882,-0.01313538
1.018819,-0.1277759,0.117308,0.009487043,0.0005998816,-0.009910125,0.0211944,0.05253525,-0.01454645
1.014757,-0.1225355,0.1230388,0.005236776,0.005987035,-0.003707495,0.01749277,0.04811237,-0.009859813
1.010862,-0.117992,0.1257856,0.001151154,0.01067642,-0.0005008519,0.01382505,0.0455302,-0.007834717
1.017114,-0.1247063,0.1236398,0.007211649,0.004106549,-0.00219891,0.01123515,0.04327015,-0.006213393
1.025861,-0.1314106,0.120988,0.01576485,-0.00245545,-0.004415361,0.01573576,0.04417398,-0.007547061
1.019841,-0.1297872,0.1225234,0.009550964,-0.0006920783,-0.002457186,0.02078463,0.04421426,-0.0123105
1.014092,-0.1305077,0.12478,0.003606204,-0.00127526,0.0002096241,0.01797705,0.04097663,-0.009746434
1.015132,-0.1258084,0.1248717,0.004450224,0.00355869,0.0006986946,0.01287659,0.03690321,-0.01019796
1.013291,-0.1156631,0.1253627,0.002411964,0.01383553,0.001574169,0.006692731,0.03430461,-0.01635454
1.014776,-0.1169814,0.1249288,0.003699744,0.01264524,0.00151169,-0.003048895,0.0336829,-0.01897944
1.017408,-0.1195828,0.12502,0.006134515,0.01016751,0.001961009,-0.01436781,0.03356283,-0.02077403
1.017143,-0.1140905,0.1269291,0.005673689,0.01577866,0.004214816,-0.03495938,0.03341928,-0.02457274
1.018621,-0.1090045,0.1261959,0.006955658,0.02097774,0.00381289,-0.06202672,0.02963049,-0.03451989
1.017628,-0.1043762,0.1246749,0.005767837,0.02571276,0.00260954,-0.08508389,0.02518084,-0.04041538
1.014689,-0.1052781,0.1253774,0.002635401,0.02491007,0.003615985,-0.1065853,0.02519217,-0.03316574
1.012892,-0.1137633,0.1287793,0.0006456963,0.01651569,0.00730816,-0.1109967,0.02237212,-0.02825782
1.012311,-0.1191528,0.1307838,-0.0001258126,0.01120796,0.009589097,-0.09951195,0.017269,-0.02860798
1.01415,-0.1253555,0.1251978,0.001523958,0.005077582,0.004265658,-0.09675272,0.01756573,-0.02940717
1.01425,-0.1339849,0.1207769,0.001437764,-0.003488734,9.34166e-05,-0.09390686,0.02032224,-0.03483083
1.01496,-0.136469,0.1255697,0.001964267,-0.005918608,0.005121019,-0.08892541,0.02223548,-0.04032231
1.016024,-0.1367678,0.1299813,0.002846655,-0.006171387,0.009753793,-0.08186311,0.02180607,-0.04133809
1.012696,-0.1359659,0.1273667,-0.0006587391,-0.005330899,0.007346811,-0.06791256,0.017574,-0.04124636
1.011967,-0.1302467,0.1258855,-0.00156341,0.0004202505,0.006059726,-0.06622585,0.01690128,-0.03987579
1.012887,-0.1250388,0.1271839,-0.0008138225,0.005653752,0.007538613,-0.06608926,0.02117191,-0.03413572
1.012163,-0.1262681,0.1249437,-0.0017061,0.004444182,0.005465691,-0.0618305,0.02043124,-0.02754476
1.013326,-0.1301623,0.1218687,-0.000706719,0.0005638663,0.002544784,-0.0663172,0.01451154,-0.02142793
1.015397,-0.1304743,0.1189987,0.001205177,0.000260298,-0.0001839144,-0.06270687,0.009216559,-0.01603655
1.019188,-0.1289016,0.1203565,0.004842014,0.001836164,0.001302821,-0.05793602,0.009544075,-0.01423698
1.020227,-0.12721,0.1257034,0.005729964,0.003526076,0.006766752,-0.05958331,0.0131522,-0.009536192
1.016731,-0.1278207,0.1239424,0.002087912,0.002908967,0.005111214,-0.054292,0.01225793,-0.006648826
1.015374,-0.1312785,0.1229188,0.0005885557,-0.0005596973,0.00418186,-0.04928901,0.01272168,-0.01307788
1.014687,-0.1322971,0.1242767,-0.0002369247,-0.001593244,0.005623013,-0.0416929,0.01361371,-0.01790701
1.013421,-0.1325077,0.1198317,-0.001637752,-0.001822635,0.001250651,-0.03091853,0.009815429,-0.01648732
1.012267,-0.1336267,0.1199743,-0.002921319,-0.00296377,0.001455768,-0.02878954,0.008570607,-0.01071025
1.012309,-0.1349914,0.1230119,-0.003005029,-0.004353579,0.004546084,-0.02607803,0.008837578,-0.004349417
1.014884,-0.1354171,0.1217512,-0.0005506491,-0.004806699,0.003328723,-0.01247797,0.00803789,0.002655501
1.015647,-0.1339476,0.1212623,9.666294e-05,-0.003366736,0.002874172,0.004637678,0.005658866,0.01145677
1.014866,-0.1344183,0.1208365,-0.000796505,-0.003868454,0.002474148,0.01529509,0.003183109,0.01371561
1.013543,-0.132423,0.1204491,-0.002225613,-0.00190544,0.00210438,0.02121772,0.003176307,0.01285074
1.01231,-0.1294141,0.1211742,-0.003561408,0.001070372,0.002839408,0.02542109,0.002021424,0.01166332
1.015182,-0.1326002,0.1216581,-0.0007861861,-0.002149521,0.003325912,0.03183677,0.001514467,0.008791993
1.018153,-0.1335757,0.125129,0.002091469,-0.003159202,0.006792386,0.04214185,0.0003612132,0.01020785
1.018316,-0.1287625,0.1293795,0.002166689,0.001619485,0.0110317,0.04295336,-0.0008604161,0.01107326
1.018603,-0.1230195,0.1274546,0.002370046,0.007327914,0.009089038,0.03551199,-0.001712218,0.007908895
1.017941,-0.1211409,0.1231476,0.001629113,0.009171674,0.004757534,0.02915101,-0.006650203,0.005558234
1.015819,-0.1248494,0.1219645,-0.0005680903,0.005427791,0.003543632,0.02445873,-0.007044471,0.006464428
1.014856,-0.1284782,0.1227175,-0.001602145,0.001762817,0.004259733,0.02617581,-0.004063594,0.00723624
1.015302,-0.1325458,0.1233636,-0.001223508,-0.002341555,0.004863093,0.02788322,-0.001792855,0.004805428
1.015354,-0.1354949,0.1189791,-0.001234164,-0.00532811,0.0004304307,0.02869707,0.003870615,0.004434035
1.014898,-0.1308323,0.1128894,-0.001750351,-0.0007031914,-0.005712394,0.03225875,0.006073797,0.005137297
1.013838,-0.1244099,0.113324,-0.002865762,0.005681407,-0.005335325,0.02710715,0.005143868,0.004754186
1.013899,-0.1233368,0.1154967,-0.002857111,0.0067167,-0.003223823,0.01995662,0.005639932,0.004117537
1.016574,-0.1235727,0.1181673,-0.0002299826,0.006442675,-0.0006174861,0.02073426,0.004989629,-0.0007372848
1.017484,-0.1211835,0.1232915,0.0006354826,0.00879336,0.004439812,0.02041812,0.002429843,-0.004796326
1.016199,-0.1176992,0.1244257,-0.0006896383,0.01223835,0.005504969,0.01605127,-0.001596111,-0.003765504
1.016605,-0.1129642,0.1245798,-0.0003217799,0.01693291,0.005587742,0.005993083,-0.004561046,-0.005779568
1.016998,-0.1105818,0.127437,3.758054e-05,0.01927326,0.00837162,-0.008322688,-0.002062503,-0.01016141
1.016559,-0.1154926,0.1266842,-0.0004325249,0.014318,0.007543328,-0.01563344,0.002025459,-0.007078428
1.017633,-0.120066,0.1253338,0.000614142,0.009697304,0.00611532,-0.01806808,-0.0006460209,-0.002285657
1.018459,-0.118886,0.1258113,0.001415027,0.01082682,0.006513088,-0.0215939,-0.003264054,-0.001429228
1.017767,-0.1216497,0.1228163,0.0007008942,0.008009311,0.003436386,-0.01992469,-0.002168332,0.003094132
1.016767,-0.1308254,0.122654,-0.0003186729,-0.001223643,0.003190342,-0.01646143,-0.00271441,0.003699334
1.014666,-0.133806,0.1298769,-0.002437948,-0.004264557,0.01032767,-0.01358672,-0.001036378,-0.001895299
1.013194,-0.1298048,0.1334776,-0.003924434,-0.0003264163,0.01384104,-0.003480737,-0.001296301,-0.002316545
1.0141,-0.1272018,0.1242213,-0.003031642,0.00221123,0.004495508,0.004498213,-0.004537122,-0.002836304
1.015052,-0.1250059,0.1148429,-0.002089105,0.004339961,-0.004974212,0.006058944,-0.004678545,-0.00271415
1.015346,-0.1238069,0.1237632,-0.001803655,0.005469851,0.003853168,0.009938865,-0.007443951,0.002154688
1.015398,-0.1228011,0.1324448,-0.001756829,0.006404919,0.0124405,0.008047413,-0.01084686,0.005002986
1.015008,-0.120626,0.1265819,-0.002150469,0.008507568,0.006481877,0.001085135,-0.0114432,0.007175138
1.014363,-0.123932,0.1275607,-0.002796312,0.005127395,0.007363569,-0.001067108,-0.01324713,0.01065293
1.013881,-0.1283214,0.1310683,-0.003276922,0.0006621038,0.01077256,-0.004452449,-0.01422834,0.01423492
1.014608,-0.1270735,0.1271311,-0.002547401,0.001832648,0.006735229,-0.005869636,-0.01379542,0.01394478
1.01576,-0.1290485,0.1275747,-0.001389723,-0.0002212146,0.007077176,3.561746e-05,-0.01323494,0.008092292
1.015163,-0.1340084,0.1287958,-0.001979197,-0.005260868,0.00819496,0.009971755,-0.01327189,0.00427646
1.014058,-0.1330625,0.1299216,-0.003074367,-0.004395365,0.009215811,0.02489404,-0.01329066,0.004294647
1.014063,-0.1313874,0.1331963,-0.003057484,-0.002800683,0.01238406,0.02965056,-0.01070809,0.005332902
1.014794,-0.128994,0.1320447,-0.002313868,-0.000487509,0.01112415,0.02388322,-0.008447606,0.007446583
1.016345,-0.1233053,0.1304037,-0.0007468662,0.005121481,0.009372913,0.02677684,-0.01060412,0.01219784
1.016434,-0.1260412,0.1279989,-0.0006410543,0.002306546,0.006855863,0.02447678,-0.01518623,0.01454678
1.016305,-0.1309268,0.1234712,-0.0007508048,-0.002657357,0.002214044,0.01848754,-0.0158536,0.00969269
1.020472,-0.1279277,0.124181,0.003435853,0.0002641355,0.002807868,0.02202846,-0.01041254,0.006798328
1.023727,-0.1289742,0.1246261,0.006712839,-0.0008589055,0.00313561,0.01911847,-0.005500627,0.004900258
1.020927,-0.1318217,0.1191145,0.003935335,-0.003781725,-0.002494584,0.01557048,-0.007581481,-0.0003691227
1.015343,-0.1301844,0.1173992,-0.001625622,-0.002218356,-0.004329153,0.01662252,-0.01083174,-0.0008385818
1.01108,-0.1302632,0.1227479,-0.005865352,-0.002369401,0.0008999767,0.01520322,-0.009465224,0.0007129053
1.012051,-0.1297121,0.1284296,-0.00487032,-0.001888703,0.006462259,0.01763683,-0.01178276,-0.0002591658
1.015484,-0.1278067,0.1299108,-0.001413091,-5.166959e-05,0.007824369,0.01855935,-0.01593196,0.000692889
1.015418,-0.1275426,0.1260407,-0.001454803,0.000146093,0.003835344,0.01796722,-0.01664009,0.003202966
1.014864,-0.1277704,0.1228183,-0.001982929,-0.000145808,0.0004943791,0.01827809,-0.02090613,0.002686842
1.014732,-0.1275955,0.1232573,-0.002088377,-3.291843e-05,0.0008153708,0.01545047,-0.02321583,0.0007370092
1.0133,-0.1256571,0.1220159,-0.00349349,0.001845666,-0.0005434422,0.01483901,-0.02032916,0.001562675
1.014068,-0.1234041,0.1205089,-0.002697893,0.004040913,-0.002166822,0.01401816,-0.01927736,0.003238595
1.015145,-0.1223487,0.1226391,-0.001592742,0.005040616,-0.0001516918,0.008683456,-0.02001275,0.005292278
1.015126,-0.1218965,0.1257957,-0.001583353,0.005438831,0.0028914,-0.001409717,-0.02208686,0.005795871
1.015659,-0.1219171,0.1271095,-0.001021186,0.005365784,0.004093261,-0.01143512,-0.02162844,0.003388023
1.015561,-0.1235563,0.1278761,-0.001089494,0.003675473,0.004749748,-0.01416332,-0.01677559,0.0002363473
1.017729,-0.1275429,0.128263,0.001108871,-0.0003611377,0.005028045,-0.01812129,-0.012839,-0.005721268
1.01966,-0.1288432,0.1273413,0.003070534,-0.001710405,0.003999432,-0.0238458,-0.01420335,-0.007684291
1.016866,-0.1275651,0.1281698,0.0003069504,-0.0004801127,0.004722522,-0.02102248,-0.01769522,-0.004787921
1.013084,-0.129166,0.1295306,-0.003444231,-0.002127567,0.005979301,-0.01466967,-0.01807194,-0.006299892
1.010598,-0.1292904,0.1290639,-0.005899319,-0.00229702,0.005410027,-0.0119123,-0.0224479,-0.005410101
1.012403,-0.1253562,0.1286271,-0.004063606,0.00159348,0.00487194,-0.01317753,-0.02786739,-2.398423e-07
1.016761,-0.1241199,0.1287802,0.0003252401,0.002787609,0.004924963,-0.01563261,-0.02629446,0.005593813
1.018135,-0.1267204,0.1288058,0.001730684,0.0001464507,0.004851526,-0.0146013,-0.02551183,0.01137314
1.019473,-0.1285942,0.1246646,0.003100596,-0.001766706,0.0006123722,-0.01370484,-0.02502196,0.01154023
1.019044,-0.1292502,0.1207539,0.002702586,-0.002460587,-0.003395047,-0.01536156,-0.02385925,0.01019783
1.015178,-0.1282261,0.1244146,-0.001132589,-0.001472866,0.0001703025,-0.01536294,-0.02323187,0.01124351
1.013905,-0.1251516,0.1280413,-0.002374804,0.001566899,0.003703169,-0.01542134,-0.02146929,0.0103799
1.011235,-0.1235749,0.1279503,-0.005014779,0.003110355,0.003519913,-0.01293371,-0.02727331,0.0101258
1.007189,-0.1235081,0.1275801,-0.009030487,0.003145315,0.003059106,-0.007098194,-0.03356834,0.008417121
1.010843,-0.1231581,0.126779,-0.005346145,0.003464778,0.002168982,-0.006272279,-0.02831086,0.00560101
1.01524,-0.1220219,0.1260485,-0.0009187603,0.004571566,0.001350957,-0.0085683,-0.02354818,0.006517069
1.013988,-0.1198039,0.1253431,-0.002140156,0.006760971,0.0005597495,-0.01589744,-0.02436121,0.006898991
1.014316,-0.1188062,0.1249026,-0.00178085,0.007730635,3.504039e-05,-0.02706221,-0.02386801,0.006698991
1.015991,-0.1180788,0.1248785,-7.490802e-05,0.008430335,-7.15113e-05,-0.02595702,-0.02669574,0.009966513
1.015224,-0.1178065,0.1248834,-0.0008100134,0.008674751,-0.0001472403,-0.02035619,-0.03269648,0.01491731
1.015145,-0.1211966,0.1242051,-0.0008577385,0.005256399,-0.0009042361,-0.02160816,-0.03246727,0.01865821
1.016311,-0.1262093,0.1233346,0.0003404328,0.000214739,-0.001851338,-0.02014903,-0.03185702,0.018724
1.016095,-0.1304173,0.1245338,0.0001564565,-0.004022883,-0.0007265519,-0.01835883,-0.03423043,0.01202657
1.016288,-0.1295118,0.125472,0.0003811545,-0.003147383,0.0001394858,-0.01611675,-0.03336772,0.004339967
1.018596,-0.1245671,0.1245324,0.002721404,0.001766973,-0.000869866,-0.01082041,-0.03335992,0.005308584
1.02023,-0.1244066,0.1231359,0.004386738,0.001897123,-0.00233376,-0.01605019,-0.02967873,0.003862166
1.018942,-0.1248896,0.1226432,0.003129661,0.00138371,-0.002891468,-0.02285937,-0.02209646,-0.005365713
1.016316,-0.1210538,0.1264719,0.0005332965,0.00518899,0.0008748623,-0.01904861,-0.02257425,-0.006286922
1.014822,-0.1195632,0.1305495,-0.0009306939,0.006648922,0.004892722,-0.01897353,-0.02327117,-0.004587667
1.014911,-0.124419,0.1277388,-0.0008137687,0.001762109,0.002024753,-0.01882422,-0.02119693,-0.007035265
1.015678,-0.1302666,0.1243782,-1.942748e-05,-0.004116881,-0.00139092,-0.01092282,-0.02238528,-0.004974314
1.014924,-0.1298181,0.1247217,-0.0007468855,-0.003699997,-0.001100127,-0.007364465,-0.02039672,-0.005883697
1.013151,-0.1314246,0.1217636,-0.0024944,-0.005338032,-0.004108696,-0.004906599,-0.01823346,-0.008232597
1.012872,-0.1369158,0.119312,-0.002747716,-0.01086045,-0.006608291,0.006627141,-0.01963118,-0.005466551
1.014793,-0.1331817,0.1227876,-0.0008025649,-0.007156771,-0.003178218,0.01844485,-0.01917482,-0.004407526
1.017791,-0.1281036,0.1272497,0.002218958,-0.002107754,0.001241234,0.01944923,-0.01882218,-0.001639762
1.017082,-0.1279262,0.1316861,0.001533352,-0.001958008,0.005637702,0.01498914,-0.01948451,7.100723e-06
1.015464,-0.1266197,0.131,-6.325706e-05,-0.0006774965,0.004914109,0.01037583,-0.01970018,-0.003274255
1.016499,-0.12649,0.1271263,0.0009938729,-0.0005722038,0.001005057,0.004181546,-0.02228796,-0.002008187
1.014936,-0.1246911,0.1290403,-0.0005485715,0.001203873,0.002885769,0.004873556,-0.02600736,0.0019153
1.014892,-0.1243927,0.1263495,-0.0005729858,0.001481038,0.000163324,0.01020349,-0.02747167,0.003899214
1.017006,-0.1279688,0.1212731,0.001560524,-0.002114927,-0.00494288,0.007601136,-0.02809185,0.00404775
1.016554,-0.1277365,0.1241101,0.001126106,-0.001901098,-0.002133924,0.001360152,-0.02810635,0.003353465
1.01775,-0.1274299,0.1251181,0.002339262,-0.001611502,-0.00115222,-0.004910382,-0.02674116,0.005390174
1.018255,-0.1262898,0.1263485,0.002861272,-0.000486913,5.391936e-05,-0.006011947,-0.02695103,0.007846663
1.016898,-0.1242461,0.1271251,0.001518829,0.001542698,0.0008080216,0.001047468,-0.0264675,0.007839858
1.016801,-0.1271166,0.1181381,0.001436679,-0.001340542,-0.008199698,0.003969255,-0.02172377,0.005771115
1.017267,-0.1284952,0.1134357,0.001914977,-0.002730574,-0.0129208,0.007569222,-0.01797451,0.004664692
1.01843,-0.1274578,0.1177508,0.003090069,-0.001703213,-0.008622122,0.01334976,-0.01875051,0.004339433
1.017075,-0.1268214,0.119428,0.00174505,-0.001075456,-0.00695855,0.01076449,-0.01988218,0.0008744748
1.015038,-0.1265926,0.1224626,-0.0002819648,-0.0008540445,-0.003934643,0.00916889,-0.01831326,-0.0002822466
1.015542,-0.1291797,0.1254472,0.0002296318,-0.003447072,-0.0009576506,0.01034105,-0.01765539,0.0008491292
1.016034,-0.1317093,0.1218583,0.0007279338,-0.005981231,-0.004551076,0.0103374,-0.0171504,-0.0003952352
1.017007,-0.1322874,0.1221819,0.001706257,-0.006562264,-0.004229091,0.01210335,-0.01390839,-0.001121417
1.016684,-0.1308319,0.126808,0.001387333,-0.005108021,0.0003983228,0.01222043,-0.012937,-0.004743413
1.015353,-0.126813,0.1277651,5.940722e-05,-0.001088486,0.001359542,0.01010789,-0.0124403,-0.008838157
1.015697,-0.1237562,0.1261088,0.0004053374,0.00197088,-0.000289999,0.00498071,-0.01211392,-0.007097978
1.01703,-0.1257787,0.121225,0.001739325,-4.730176e-05,-0.005164616,0.0007015862,-0.0162345,-0.003711363
1.019418,-0.1287929,0.1191025,0.004127687,-0.003055617,-0.007275582,0.002444604,-0.0185051,-0.0005068721
1.018793,-0.128291,0.1195195,0.003501059,-0.002546204,-0.006844694,0.004269696,-0.01662212,0.0001016845
1.015438,-0.1289939,0.1181532,0.0001428228,-0.003240085,-0.008194522,0.005225511,-0.01048363,-0.003214496
1.01486,-0.1279661,0.121875,-0.0004382301,-0.002201634,-0.004453462,0.009701276,-0.004418519,-0.006809529
1.015701,-0.1250337,0.1247241,0.0003979831,0.0007429112,-0.001582332,0.01432599,-0.007260927,-0.01064853
1.017143,-0.1267007,0.1244619,0.001833848,-0.000910561,-0.001819902,0.01433738,-0.01096395,-0.01329219
1.018596,-0.1267759,0.125936,0.00327977,-0.0009708793,-0.0003186813,0.01552614,-0.01123749,-0.00972302
1.018158,-0.1254427,0.1245592,0.002833156,0.0003784081,-0.001666007,0.01731348,-0.01137278,-0.004095047
1.017788,-0.1248889,0.1254216,0.002454324,0.0009494466,-0.0007719582,0.00951624,-0.008837088,-0.005664795
1.018172,-0.1219583,0.1292827,0.002828392,0.003898226,0.003122679,0.001244333,-0.00796278,-0.007010652
1.018119,-0.1220672,0.1302723,0.002764022,0.003808112,0.004147428,0.002309517,-0.009262525,-0.00415106
1.018108,-0.1246787,0.1277094,0.002740209,0.001215862,0.001620984,0.003824308,-0.009070793,-0.005548296
1.019018,-0.1262049,0.1231938,0.003636269,-0.0002908707,-0.00285724,0.003602511,-0.01022631,-0.006283138
1.019748,-0.1268944,0.1240606,0.004351,-0.000960863,-0.001952273,0.00433432,-0.01172495,-0.004964988
1.019274,-0.125799,0.1228547,0.003860187,0.0001542457,-0.003119251,0.001278671,-0.01056213,-0.003752516
1.018445,-0.1245201,0.1143906,0.003013759,0.001452737,-0.01154369,-0.001096909,-0.007427957,-0.002086552
1.017302,-0.1236529,0.1139256,0.001851597,0.002339547,-0.0119681,0.002436911,-0.004522689,-0.004933498
1.015284,-0.1251539,0.1219645,-0.0001870051,0.0008578786,-0.003887272,0.003685105,-0.005004833,-0.005329594
1.013244,-0.1283407,0.1288882,-0.002248653,-0.00230986,0.003079813,0.003765108,-0.00825202,-0.003917799
1.013471,-0.1280787,0.129222,-0.002044304,-0.002029046,0.003458386,0.002584226,-0.009225604,-0.005942885
1.01522,-0.1260498,0.126019,-0.0003194187,1.835922e-05,0.000301039,-0.004013902,-0.008127615,-0.004433937
1.01704,-0.1218486,0.1266868,0.001476559,0.004237829,0.001015102,-0.006589579,-0.007311282,-0.004609199
1.019453,-0.115891,0.1231065,0.003863879,0.01021323,-0.002518407,-0.008373446,-0.005452334,-0.005635368
1.018239,-0.1162962,0.1185962,0.002625216,0.009825068,-0.006981459,-0.01107234,-0.006110676,-0.003939744
1.014661,-0.1180497,0.1214686,-0.0009792172,0.008087347,-0.004061411,-0.00918199,-0.01135877,-0.004167304
1.013654,-0.1158492,0.1212715,-0.002013375,0.01030194,-0.004210438,-0.009850098,-0.01747479,-0.0001315281
1.012287,-0.1180923,0.1197381,-0.003407008,0.008070854,-0.00569508,-0.009035217,-0.02094555,0.003564267
1.013747,-0.1217464,0.1196173,-0.001974354,0.004426409,-0.005766485,-0.005629517,-0.01827877,0.001925594
1.016774,-0.121223,0.1185017,0.00102579,0.00495683,-0.006831878,-0.002655584,-0.01630963,0.003557082
1.014863,-0.1174462,0.1240833,-0.000912188,0.008738,-0.001199265,0.001985231,-0.01984514,0.008929542
1.014865,-0.1118038,0.1302712,-0.0009363114,0.01438193,0.005040596,0.00226663,-0.02032027,0.01242542
1.015979,-0.1127689,0.1281073,0.0001516103,0.01341507,0.002929183,0.003189171,-0.01801177,0.00849596
1.014354,-0.1139276,0.1264199,-0.001500011,0.01225079,0.001294528,0.00475305,-0.01763312,0.001874615
1.013725,-0.1102038,0.1296896,-0.002153746,0.01596509,0.004616816,0.001145467,-0.02015625,-0.0006547239
1.012054,-0.1154639,0.1325371,-0.003850028,0.01069089,0.007516644,-0.001135411,-0.0243662,-0.002527435
1.012336,-0.1209671,0.1334662,-0.003591948,0.005168879,0.008497167,-0.002969458,-0.0224879,-0.006462458
1.015053,-0.1195127,0.1308202,-0.0008975093,0.00659964,0.005901386,-0.0066607,-0.01586626,-0.01170719
1.014652,-0.1227465,0.1292819,-0.001320745,0.003337517,0.004411614,-0.01038402,-0.01217431,-0.01014319
1.011741,-0.1249741,0.1354007,-0.004251771,0.001077114,0.01057697,-0.009176843,-0.01293664,-0.001399028
1.007637,-0.1230542,0.1373441,-0.008375666,0.002959862,0.0125646,-0.004816913,-0.02003369,0.002171021
1.007446,-0.1234813,0.1342771,-0.008584364,0.002491704,0.009538867,-0.001884527,-0.03095517,0.001744013
1.010844,-0.1235916,0.1340981,-0.00520213,0.002336701,0.009397804,0.008751737,-0.03579202,0.005046322
1.014972,-0.1207298,0.1297741,-0.001087665,0.005150374,0.005108144,0.01509016,-0.02990153,0.01108376
1.021456,-0.1158012,0.125553,0.005384484,0.01002746,0.0009174138,0.00496989,-0.02297375,0.01318544
1.020679,-0.1124635,0.1259719,0.00459752,0.01331047,0.001362931,-0.002625128,-0.02194739,0.007395447
1.016323,-0.113805,0.1264866,0.0002337854,0.01191076,0.001900515,-0.00461166,-0.02143451,0.001355816
1.018908,-0.115837,0.1256144,0.002812017,0.009816877,0.001047567,-0.01133795,-0.01952736,0.001491151
1.018484,-0.1171728,0.1232579,0.002382789,0.008415364,-0.001293101,-0.01530085,-0.01754988,0.002623607
1.017779,-0.1231876,0.1237876,0.001673265,0.002331093,-0.0007507878,-0.004313687,-0.02026694,0.0006929717
1.019883,-0.1285202,0.1254072,0.00377361,-0.003074566,0.0008783233,0.01166926,-0.02509586,-0.001829898
1.0166,-0.1256449,0.128988,0.0004875541,-0.0002754803,0.004465901,0.01691658,-0.02136978,-0.003217032
1.014076,-0.1227292,0.1343885,-0.002038268,0.002561341,0.009870303,0.01869541,-0.01978584,-0.00138951
1.013021,-0.1208479,0.1319835,-0.003094828,0.004361424,0.007466314,0.01912125,-0.02669475,0.005581012
1.015035,-0.115394,0.1256831,-0.00108242,0.009731992,0.001163724,0.01116271,-0.02928673,0.01170301
1.021417,-0.115322,0.1229066,0.005299407,0.009718526,-0.001617982,0.002738956,-0.02589448,0.0105838
1.020714,-0.1191028,0.1250832,0.004595551,0.005850103,0.0005504157,0.00299713,-0.02222109,0.006295969
1.019654,-0.1173131,0.1294652,0.003535798,0.007550046,0.004921536,0.006907362,-0.02274115,0.004295581
1.02064,-0.1175812,0.1302711,0.00452197,0.007190092,0.005714075,0.006251966,-0.02260978,0.003049885
1.015795,-0.1214831,0.1265663,-0.000322952,0.003194212,0.001993247,0.006019051,-0.01950077,0.003256469
1.0143,-0.1224648,0.1216489,-0.001817483,0.002116562,-0.002942737,0.008563174,-0.02161725,0.00458929
1.015733,-0.12349,0.1236702,-0.0003857557,0.000993756,-0.000942293,0.01017203,-0.02449496,0.00234774
1.015296,-0.1205596,0.12747,-0.0008233285,0.00382519,0.002834641,0.01131435,-0.02434234,0.001094018
1.016288,-0.1161625,0.1256203,0.0001687064,0.008122173,0.0009602032,0.006293301,-0.01971129,0.001764542
1.01647,-0.1192299,0.1248472,0.000349575,0.004953548,0.0001606277,-0.0003931053,-0.01174111,-0.001102911
1.015021,-0.1206333,0.1238156,-0.001100759,0.003447838,-0.0008990439,-0.001510174,-0.01118383,-0.003324862
1.013056,-0.119593,0.1235641,-0.003066167,0.004384884,-0.001179853,-0.007679105,-0.01007653,-0.00315067
1.013033,-0.1217485,0.1260724,-0.003089701,0.00212546,0.00129793,-0.01843181,-0.006306384,-0.003341794
1.0147,-0.1232961,0.1271741,-0.001423471,0.0004732364,0.002368181,-0.02179047,-0.008351657,-0.003814207
1.015598,-0.1264599,0.1272653,-0.0005259415,-0.002795458,0.002427011,-0.01889467,-0.007862483,-0.002108798
1.017528,-0.1289143,0.123939,0.001403992,-0.005354631,-0.0009324984,-0.01218063,-0.009004409,0.0005721681
1.018385,-0.1265134,0.1209552,0.00226139,-0.003058067,-0.003950214,0.001987087,-0.01379595,-0.001096718
1.017839,-0.123881,0.1192299,0.001715104,-0.0005289765,-0.005709959,0.01190931,-0.01470731,-0.00235076
1.017258,-0.1206077,0.11611,0.001134827,0.002642197,-0.008864283,0.01078548,-0.0167599,0.001093473
1.016168,-0.1166485,0.1180574,4.610473e-05,0.006500681,-0.006950951,0.01255851,-0.01548512,0.005543029
1.017301,-0.1183695,0.1191342,0.001179202,0.004680293,-0.005907477,0.01169597,-0.0102296,0.006110151
1.019705,-0.1243938,0.1176017,0.003583367,-0.00144208,-0.007471933,0.004738368,-0.005630682,0.001393301
1.022258,-0.1293094,0.1211015,0.00613719,-0.006454424,-0.004002696,0.00443177,0.003412699,-0.0003757909
1.02272,-0.13166,0.1237784,0.006598601,-0.008899897,-0.001354556,0.006755751,0.008692765,0.0004562697
1.019229,-0.1284322,0.1247704,0.003106295,-0.005764814,-0.0003893354,0.01070592,0.005633723,0.0008269525
1.016334,-0.1243241,0.1266222,0.0002097225,-0.001746692,0.001437518,0.01420083,0.001160898,0.005282331
1.014935,-0.1237143,0.1246937,-0.001192041,-0.001224057,-0.0005141656,0.01143778,-0.001783296,0.01085441
1.016678,-0.1205654,0.1207381,0.0005469621,0.00184076,-0.004491259,0.008768736,0.003831945,0.01544401
1.019206,-0.1183894,0.1207359,0.003070731,0.003935768,-0.004513079,0.00412001,0.01048606,0.01474948
1.016695,-0.1197053,0.1239651,0.0005543279,0.002541626,-0.001301632,-0.000840208,0.003868177,0.008554143
1.015067,-0.1195265,0.1251546,-0.001078942,0.002645036,-0.0001279468,0.001693546,-0.003417609,0.005790674
1.015862,-0.1190233,0.1225328,-0.0002907155,0.003075381,-0.002763589,0.003784768,-0.001893352,0.003271712
1.016754,-0.1176444,0.1199616,0.0005939365,0.00438399,-0.005346648,-2.091271e-05,-0.001843708,0.001791426
1.018449,-0.1162986,0.122579,0.002280826,0.005661683,-0.002739271,-0.002121965,-0.004196458,0.004478517
1.016489,-0.1177946,0.126099,0.0003123179,0.004099689,0.0007729259,0.0006916592,-0.006951601,0.005777045
1.014135,-0.1203594,0.125892,-0.002050102,0.001470725,0.0005600038,0.006353375,-0.009746792,0.008594914
1.01551,-0.1216327,0.1271634,-0.0006844036,0.0001350991,0.00182732,0.01479501,-0.007279896,0.01143204
1.01577,-0.1215614,0.1274636,-0.0004342884,0.0001457189,0.002125098,0.01950197,-0.00512513,0.009910022
1.015797,-0.1223741,0.1247635,-0.0004171391,-0.0007258483,-0.0005759598,0.01910557,-0.007551849,0.007878701
1.01712,-0.1219845,0.1247248,0.0008951477,-0.0003932988,-0.000614275,0.01906853,-0.01086945,0.005355318
1.016806,-0.118287,0.1250527,0.0005711147,0.003248926,-0.0002847779,0.01431805,-0.01541067,0.00390212
1.016319,-0.1126116,0.124701,7.437112e-05,0.008870856,-0.0006336959,0.005435175,-0.01587813,0.006173918
1.016719,-0.1076423,0.1273381,0.0004634954,0.0137882,0.00200724,-0.003633309,-0.01106,0.00713778
1.015943,-0.1082839,0.1324084,-0.0003235218,0.01309554,0.007082406,-0.01120239,-0.005312108,0.002722422
1.01575,-0.1118708,0.1355065,-0.0005272459,0.009457888,0.01018582,-0.01130873,0.0003477833,-0.001815579
1.017011,-0.1144043,0.1345735,0.0007235532,0.006873636,0.009258379,-0.008675886,-0.001020105,-0.001966732
1.016697,-0.117156,0.1339323,0.0003986195,0.004070774,0.008622311,-0.003128199,-0.006301397,-0.002798806
1.01528,-0.1183763,0.1348873,-0.001029399,0.002798905,0.00958166,0.01130119,-0.008925821,-0.003792683
1.014442,-0.117183,0.1360568,-0.001877956,0.003940059,0.01075428,0.02399899,-0.01296939,-0.001513113
1.014441,-0.1152402,0.1372661,-0.001889055,0.005830166,0.01196497,0.02512559,-0.0117654,-0.0002056534
1.015522,-0.1143379,0.1372696,-0.0008183313,0.006679171,0.01196767,0.01403143,-0.007023255,0.00296545
1.015601,-0.1125963,0.1349914,-0.0007496115,0.008366729,0.009686062,-0.001781674,-0.007964449,0.008023781
1.014891,-0.1083546,0.1289958,-0.001469536,0.01255349,0.003684181,-0.009414126,-0.007415277,0.006410405
1.015419,-0.1074073,0.1240296,-0.0009499824,0.01344465,-0.001291328,-0.01239529,-0.008405248,0.002957067
1.015402,-0.1094754,0.1250475,-0.000976014,0.01131866,-0.0002856327,-0.0235587,-0.01152046,0.002786326
1.015394,-0.1112559,0.125969,-0.0009921602,0.009478334,0.0006211051,-0.03629905,-0.009849867,0.00203366
1.017257,-0.1158184,0.1224266,0.0008643071,0.004853833,-0.002938516,-0.03725997,-0.01219943,0.003925828
1.018369,-0.1215645,0.120734,0.001969105,-0.0009564734,-0.004650371,-0.0330437,-0.01479749,0.01081506
1.017115,-0.1269408,0.1238374,0.00070859,-0.006398944,-0.001568021,-0.02618706,-0.01184793,0.01775399
1.015236,-0.1311353,0.1259733,-0.001177008,-0.01066117,0.0005454177,-0.01096548,-0.01142252,0.01985483
1.014967,-0.1308468,0.1278504,-0.001451646,-0.01044103,0.002398943,0.001483355,-0.01087714,0.0188187
1.015525,-0.1301174,0.1281454,-0.0008983334,-0.009780052,0.002669172,0.01177345,-0.008898091,0.02039296
1.015353,-0.1301786,0.1250992,-0.001074847,-0.009909035,-0.0004028993,0.02591864,-0.01039407,0.02162212
1.016145,-0.1261203,0.1273816,-0.0002877208,-0.005917146,0.001852676,0.02830507,-0.01525992,0.02298665
1.017049,-0.1202957,0.128634,0.0006128216,-0.0001572675,0.0030773,0.01753179,-0.02021544,0.02951494
1.016817,-0.1182692,0.124035,0.0003775058,0.001806615,-0.001550235,0.005631451,-0.02016112,0.03359071
1.017457,-0.1214382,0.1205123,0.001014552,-0.001423003,-0.005102319,-0.002994047,-0.01654686,0.03388002
1.017857,-0.1270292,0.1169061,0.001411619,-0.007072514,-0.008738213,-0.003283951,-0.01412669,0.03584177
1.01549,-0.1330997,0.1192242,-0.0009568595,-0.01319925,-0.006449884,0.004371885,-0.01215476,0.03741988
1.012831,-0.1357612,0.1228606,-0.003618191,-0.01591409,-0.00284276,0.01463619,-0.01300113,0.04095289
1.013853,-0.1300265,0.1202931,-0.002597482,-0.01022932,-0.005438813,0.02469733,-0.01972136,0.04505295
1.015844,-0.1260712,0.1224402,-0.0006073565,-0.00632,-0.00331927,0.03332468,-0.02757592,0.04254048
1.016851,-0.1308852,0.1250406,0.0003987274,-0.01117568,-0.0007452399,0.0424501,-0.03507354,0.0343413
1.019271,-0.1331907,0.124004,0.002818559,-0.01351822,-0.001806863,0.05501806,-0.03975554,0.02242731
1.021048,-0.1303272,0.1252844,0.004595758,-0.01068683,-0.0005501371,0.05844453,-0.03075428,0.008513719
1.022168,-0.1278363,0.1259516,0.00571619,-0.008222823,9.468058e-05,0.03560143,-0.009782406,-0.006548121
1.021071,-0.1256916,0.1275417,0.004619825,-0.00609949,0.001663816,0.007064153,0.0116054,-0.02503413
1.014515,-0.1232887,0.1287844,-0.001936292,-0.003712543,0.002886811,-0.001459031,0.02930455,-0.03796518
1.011142,-0.11851,0.1269874,-0.005309289,0.001055572,0.00107116,-0.003002035,0.03715199,-0.03878341
1.014366,-0.110074,0.1288703,-0.002085886,0.009486087,0.002936516,-0.00847607,0.03049359,-0.03715592
1.016336,-0.10717,0.1316463,-0.0001155763,0.01238898,0.005695715,-0.01101389,0.01340756,-0.03131914
1.015216,-0.1161127,0.1299675,-0.001235919,0.003448895,0.004000687,-0.007323668,-0.009195301,-0.01461294
1.014391,-0.1224752,0.1315659,-0.002061945,-0.002908062,0.005583248,0.003976662,-0.02262807,0.005190631
1.013781,-0.1189714,0.1376073,-0.002671376,0.0006040498,0.01160891,0.02157928,-0.0193939,0.0200646
1.010823,-0.1155709,0.1414149,-0.005629878,0.004015291,0.01540046,0.02984659,-0.01614657,0.02992482
1.009592,-0.1086549,0.1404295,-0.006859755,0.01094416,0.0143981,0.02001409,-0.01570477,0.04213618
1.011101,-0.09857696,0.1346275,-0.005349567,0.02103654,0.00857763,0.004912244,-0.0139095,0.05089425
1.011497,-0.1003722,0.131536,-0.004950699,0.01925627,0.005465778,-0.01607903,-0.01789742,0.04623294
1.014326,-0.1065701,0.1306561,-0.002118438,0.01307293,0.004563296,-0.03599236,-0.0241347,0.04016834
1.01797,-0.1051829,0.1264777,0.001530501,0.01447348,0.0003602361,-0.04490025,-0.02858126,0.03439626
1.018029,-0.1064624,0.1254634,0.001596423,0.01320529,-0.0006808603,-0.06144146,-0.02528823,0.0270469
1.015026,-0.1143248,0.1258449,-0.001399496,0.005351694,-0.0003279818,-0.07032264,-0.01774494,0.02786033
1.010925,-0.128025,0.1246772,-0.005492906,-0.008342551,-0.00152592,-0.05916283,-0.01997046,0.02718272
1.011083,-0.1400092,0.1244132,-0.00532562,-0.02032319,-0.001821579,-0.04740139,-0.02005268,0.02401893
1.015087,-0.1351356,0.1212785,-0.001311731,-0.01544767,-0.004988961,-0.02574376,-0.01992428,0.02997601
1.020397,-0.1316381,0.1147699,0.004010561,-0.01194908,-0.01153088,-0.006295574,-0.02676826,0.03311183
1.023777,-0.1372661,0.110578,0.007403,-0.01757585,-0.01575634,-0.008652241,-0.02342148,0.02897528
1.020513,-0.1340767,0.1133895,0.004151378,-0.01438437,-0.01297774,-0.01536071,-0.01938255,0.02670559
1.016241,-0.1337389,0.1152782,-0.000107081,-0.01404291,-0.01112054,-0.02012493,-0.02088697,0.02567271
1.014775,-0.1363279,0.112962,-0.001559573,-0.0166261,-0.01346631,-0.02329581,-0.0211913,0.02679415
1.014811,-0.1354145,0.1128076,-0.001509051,-0.01570403,-0.01364767,-0.02232509,-0.02551908,0.02805506
1.015856,-0.144988,0.1080008,-0.0004508474,-0.02526542,-0.01847818,-0.01901385,-0.02406472,0.02750885
1.015137,-0.1547991,0.1024357,-0.001155091,-0.0350601,-0.02406305,-0.009289106,-0.02121915,0.03023358
1.015337,-0.158216,0.1074126,-0.0009414736,-0.03845511,-0.01910131,0.01123833,-0.02484495,0.03359508
1.017689,-0.165394,0.1122721,0.001425007,-0.04560435,-0.0142515,0.03837844,-0.02384321,0.03287089
1.019188,-0.1689076,0.1102668,0.002938047,-0.04908072,-0.01626058,0.06612055,-0.02265733,0.02926843
1.020146,-0.1628653,0.110463,0.003910629,-0.04299104,-0.01606171,0.0878733,-0.02027248,0.02692738
1.020398,-0.155615,0.1118579,0.004176701,-0.0356817,-0.01465744,0.0895103,-0.01154663,0.02620845
1.021717,-0.1489373,0.1087312,0.005508705,-0.02893253,-0.01776774,0.07218489,-0.004825087,0.01934781
1.022473,-0.1372437,0.107962,0.006277025,-0.01715426,-0.01851322,0.04388074,-0.001797316,0.006438213
1.018104,-0.1235146,0.110932,0.001919752,-0.00332737,-0.01551189,0.004305398,-0.0002536648,-0.0005922051
1.011784,-0.1139209,0.1142478,-0.004389211,0.006376505,-0.01215694,-0.03070564,0.0007368999,-0.0008487508
1.008466,-0.1151934,0.1219277,-0.007698192,0.005225318,-0.004430052,-0.04185217,-0.00545037,-0.002390688
1.011491,-0.1248087,0.1326104,-0.004664215,-0.004258707,0.006307136,-0.02914235,-0.01527063,0.0004138287
1.016341,-0.1312293,0.1378325,0.0001932962,-0.01053925,0.01159046,-0.01517701,-0.01101312,0.006029385
1.016716,-0.1373168,0.1302584,0.0005763583,-0.01647847,0.004083473,-0.005180936,-0.003107153,0.002812521
1.016568,-0.1437427,0.1227618,0.0004364436,-0.0227482,-0.003341159,0.0194728,-0.00269935,-3.767148e-05
1.014447,-0.1489541,0.1279322,-0.001677106,-0.02779563,0.001905345,0.04293574,-0.003372028,4.980608e-05
1.009772,-0.151235,0.1293856,-0.006345068,-0.02990445,0.003438602,0.054531,-0.008847119,-0.004657023
1.008746,-0.1442184,0.1262911,-0.007363798,-0.02270733,0.0004269823,0.06014761,-0.01095069,-0.005707116
1.012478,-0.1360323,0.1275342,-0.003624993,-0.014332,0.001755551,0.04725587,-0.004543883,-0.002420446
1.018955,-0.1287884,0.1234544,0.002860028,-0.006890424,-0.002236756,0.0303379,-0.001837145,-0.0008820325
1.019011,-0.1256604,0.1180219,0.00292476,-0.003556842,-0.007579898,0.01894325,-0.002457317,-0.0006188594
1.014508,-0.130087,0.1164034,-0.001569525,-0.007770716,-0.009107498,-0.001256677,-0.002985129,-0.001068105
1.01465,-0.1302798,0.1132283,-0.001419504,-0.00774453,-0.01219006,-0.01471291,-0.002620947,-0.0002050709
1.013561,-0.1306613,0.1134147,-0.002498685,-0.007901482,-0.01190925,-0.01229382,-0.003362974,0.0002830204
1.013591,-0.1330484,0.1175905,-0.002460142,-0.01005896,-0.007636992,-0.0137687,-0.00664013,0.001591615
1.015852,-0.1338399,0.1184902,-0.0001890783,-0.01061631,-0.00663881,-0.02304517,-0.006801233,0.005140818
1.015513,-0.1384835,0.1166393,-0.0005182442,-0.01502172,-0.008389121,-0.02770611,-0.0070599,0.00484304
1.016413,-0.1439654,0.1148052,0.0003927156,-0.02026157,-0.01012053,-0.02760092,-0.008003423,0.003356937
1.014996,-0.1475495,0.1135528,-0.001014139,-0.02359988,-0.01126819,-0.02263995,-0.00743705,0.004031143
1.013581,-0.1464297,0.1128973,-0.002418004,-0.02223035,-0.0118167,-0.01189029,-0.008085098,0.003002852
1.014574,-0.1463215,0.110585,-0.001414188,-0.02186829,-0.0140196,-0.008229756,-0.007991133,0.001068864
1.013237,-0.1492373,0.1093034,-0.002739261,-0.0245259,-0.01518929,-0.01037108,-0.007792107,-0.001234814
1.014242,-0.1427395,0.1105508,-0.001722148,-0.01776559,-0.01382723,-0.009105824,-0.005906169,-0.003046327
1.015139,-0.1363898,0.111522,-0.0008125378,-0.01114891,-0.01273835,-0.005683717,-0.004439234,-0.002856297
1.014919,-0.1390966,0.1176003,-0.001019607,-0.01358463,-0.006539138,-0.002033085,-0.00544748,-0.002562373
1.015951,-0.141215,0.1243132,2.554709e-05,-0.01542799,0.0002976062,-0.001123982,-0.002825589,-0.001231917
1.014629,-0.1402412,0.1224911,-0.001282927,-0.01417578,-0.001397894,-0.0001377229,-0.001285836,-0.0005911034
1.01439,-0.1387956,0.121565,-0.001507158,-0.01244847,-0.002195195,0.001532455,-0.002102904,-0.002051038
1.014008,-0.1389815,0.1250583,-0.001874509,-0.01234972,0.001428644,0.004384715,-0.002515624,-0.0006756005
1.013603,-0.1390666,0.1272199,-0.002264934,-0.01214767,0.003721988,0.008829116,-0.004384635,0.0004146341
1.016298,-0.1393685,0.1273929,0.0004451294,-0.0121601,0.004027615,0.00858256,-0.003743361,-0.002105137
1.016792,-0.1396813,0.1230526,0.0009549976,-0.01218157,-0.0001800558,0.008429988,-0.001387155,-0.00502154
1.015804,-0.1364459,0.1174999,-1.710951e-05,-0.008653192,-0.005600348,0.008397404,-0.0006323795,-0.009605195
1.015019,-0.1344346,0.1179452,-0.0007864116,-0.006347731,-0.005023159,0.004827276,-0.001334119,-0.01142827
1.014943,-0.1347287,0.1196356,-0.0008459663,-0.006346977,-0.003201521,0.001353509,-0.0006713441,-0.008296211
1.015821,-0.1355258,0.1171027,4.842358e-05,-0.006849047,-0.005603895,-0.003495697,0.001319227,-0.007413028
1.015472,-0.1393625,0.1144733,-0.0002840089,-0.01039104,-0.008103438,-0.005447176,0.00248864,-0.00763612
1.017929,-0.1428801,0.1119996,0.002189987,-0.01361446,-0.01044808,-0.004766814,0.005504917,-0.008658815
1.02005,-0.1411704,0.1098788,0.004327346,-0.01161136,-0.01244025,-0.005767565,0.005142547,-0.01177849
1.016674,-0.1353545,0.112154,0.0009674666,-0.005502942,-0.01003676,-0.004967918,0.002645083,-0.01270569
1.014313,-0.1331101,0.1151442,-0.001377078,-0.00296725,-0.006918276,-0.002193348,0.004699356,-0.01099256
1.016079,-0.1387888,0.1172369,0.0004046317,-0.008356382,-0.004697354,0.00568931,0.006449122,-0.008615403
1.017551,-0.1456482,0.1184634,0.001891703,-0.01492805,-0.003342565,0.01509575,0.00812624,-0.009036661
1.016376,-0.1442903,0.1174281,0.0007309473,-0.01328459,-0.004249756,0.01549082,0.007456296,-0.01021166
1.016205,-0.1368109,0.1190167,0.0005738459,-0.005521633,-0.002533249,0.01254805,0.004729513,-0.009697794
1.016279,-0.1334071,0.121988,0.0006618557,-0.001836425,0.0005654329,0.009223704,0.005808683,-0.01125951
1.014616,-0.1348361,0.1236556,-0.0009885469,-0.002986674,0.002359702,0.0003130433,0.004880274,-0.01082739
1.015272,-0.138034,0.1228306,-0.0003200494,-0.005908716,0.001660211,-0.002623457,0.002798114,-0.00772642
1.015661,-0.1392273,0.1183925,8.059236e-05,-0.006829514,-0.002653692,0.003328235,0.002508596,-0.006848711
1.0145,-0.1358933,0.116298,-0.001068899,-0.003226425,-0.004625555,0.002697597,0.001656513,-0.008936375
1.013748,-0.1339332,0.1136185,-0.001809781,-0.001001031,-0.007184147,-0.002294752,0.002639259,-0.01294152
1.012269,-0.1353893,0.1130836,-0.003278771,-0.002195959,-0.007599674,-0.003911642,0.002843724,-0.01294712
1.014129,-0.1396103,0.1199863,-0.001409077,-0.006160108,-0.0005791233,0.0004507117,0.00197022,-0.01178139
1.017328,-0.1430127,0.1218182,0.001800201,-0.009310105,0.00136923,0.00867918,0.002325444,-0.01388294
1.01677,-0.1408963,0.1199983,0.001252131,-0.006945983,-0.0003359341,0.006774017,0.002207598,-0.01393514
1.016199,-0.136678,0.1184294,0.0006906042,-0.002484375,-0.001791916,-0.001146987,0.003684938,-0.01349612
1.015993,-0.1334134,0.1153453,0.0004930333,0.00101902,-0.00476499,-0.005678824,0.005052003,-0.01363031
1.014921,-0.1335673,0.1170128,-0.0005694501,0.001098903,-0.002988571,-0.007325164,0.004813577,-0.01271679
1.015149,-0.1350131,0.1180409,-0.0003339178,-0.0001181838,-0.001853436,-0.002217632,0.007498046,-0.01242028
1.015732,-0.1352739,0.1177043,0.0002570794,-0.000155803,-0.002085021,0.0007889692,0.01050944,-0.01244903
1.016009,-0.1359621,0.1184795,0.0005421641,-0.0006264634,-0.001206766,-0.002028179,0.009427286,-0.01361467
1.016923,-0.1326627,0.1168637,0.001463292,0.002884632,-0.002721585,-0.006398839,0.007509389,-0.01404561
1.016723,-0.1291498,0.1176031,0.001270234,0.006603193,-0.001883336,-0.01051345,0.005926794,-0.01104336
1.015431,-0.1316496,0.1196693,-1.49337e-05,0.004302575,0.0002796661,-0.005431183,0.0002511029,-0.004473167
1.015352,-0.134651,0.1214314,-8.816617e-05,0.001493711,0.002136397,-0.001295595,-0.005356202,0.002145524
1.016482,-0.1376831,0.1218861,0.001047703,-0.001352863,0.002683298,-0.00435098,-0.002424423,0.0007084544
1.01874,-0.141071,0.1166764,0.003309885,-0.004562077,-0.002436644,-0.003518298,0.002971212,-0.007124076
1.01965,-0.1375528,0.1121462,0.004225235,-0.0008721144,-0.006879569,-0.003828142,0.003645821,-0.01497913
1.016636,-0.1305348,0.1137629,0.001214611,0.006311013,-0.005178084,-0.007008063,0.002188729,-0.01899494
1.014234,-0.1306176,0.1167963,-0.001184349,0.006386624,-0.002061974,-0.008464889,0.0005598509,-0.01621137
1.015568,-0.1354627,0.1163436,0.0001519305,0.001692886,-0.002434171,-0.007760022,0.001485784,-0.01428515
1.017385,-0.1386932,0.1145741,0.001970084,-0.001393388,-0.004125008,-0.005803937,0.005058133,-0.01528637
1.017569,-0.1381382,0.1126277,0.002155051,-0.0007011029,-0.005994691,-0.00648396,0.0100461,-0.01211975
1.017458,-0.136927,0.1106821,0.002044498,0.0006405337,-0.007865295,-0.005016395,0.01586692,-0.006885438
1.018247,-0.1410268,0.1114045,0.002832093,-0.003335422,-0.007069242,0.003728779,0.01515087,-0.005252094
1.019214,-0.1446151,0.1105478,0.003797726,-0.006806363,-0.007853457,0.02222911,0.01238018,-0.01199109
1.019047,-0.1439895,0.1080939,0.003628044,-0.006069472,-0.0102358,0.04209889,0.0142682,-0.02019179
1.016791,-0.1402637,0.1077376,0.001368505,-0.002238012,-0.01052094,0.04082466,0.01150099,-0.02023146
1.014061,-0.1296274,0.111526,-0.001367007,0.008498591,-0.006661666,0.02352072,0.009974711,-0.01998468
1.013172,-0.1205822,0.1176934,-0.002261722,0.01763876,-0.0004233876,0.005819124,0.01387809,-0.02040198
1.013129,-0.1203183,0.1165188,-0.002310857,0.01799163,-0.001527009,-0.01684808,0.01274761,-0.01875967
1.014661,-0.1215622,0.1172376,-0.0007861255,0.01683012,-0.0007372992,-0.03998295,0.01231717,-0.02084691
1.018107,-0.1211412,0.1245781,0.002651226,0.01732627,0.006673945,-0.05169313,0.01299395,-0.02218647
1.018952,-0.1249631,0.1247327,0.00348827,0.01357173,0.006898605,-0.04941566,0.01249989,-0.01981455
1.018425,-0.1358056,0.1256752,0.002952313,0.00278854,0.007910183,-0.04027719,0.0176985,-0.0170336
1.017608,-0.1443154,0.127705,0.002125205,-0.005670066,0.01000746,-0.02773303,0.0199937,-0.01415352
1.014112,-0.1438751,0.1225155,-0.001381261,-0.005186184,0.004883429,-0.007374744,0.01340873,-0.01322396
1.014611,-0.1394887,0.1209904,-0.0008928048,-0.0007632834,0.003421411,0.01197932,0.006869883,-0.01495449
1.016608,-0.1356976,0.1213629,0.001092525,0.003057993,0.003854329,0.02451683,0.007786401,-0.01639013
1.014375,-0.1308608,0.1199687,-0.001152853,0.007918747,0.002517616,0.02874088,0.009656741,-0.01378488
1.015159,-0.1261257,0.1213506,-0.000381668,0.01267179,0.003954156,0.02404372,0.005157928,-0.009619929
1.014988,-0.1246008,0.1214351,-0.0005651393,0.01420836,0.004090119,0.02301715,0.0043861,-0.01058859
1.013165,-0.1211717,0.1234056,-0.002401235,0.01764284,0.006108981,0.01635398,0.005836778,-0.01551226
1.016154,-0.1180778,0.1284808,0.0005747036,0.02073519,0.01122909,0.001617472,0.002185182,-0.01491352
1.017453,-0.1199843,0.1304841,0.001860575,0.01881995,0.01327362,-0.005271749,0.001068423,-0.005851142
1.017047,-0.1222392,0.1324731,0.001440948,0.01654856,0.01529967,-0.01220919,0.003185081,-0.0008273432
1.01675,-0.1262811,0.1333311,0.00113102,0.01248219,0.01619001,-0.01246488,0.007189504,-0.005233355
1.015232,-0.1300536,0.1279634,-0.0004001189,0.008677187,0.01084941,-0.005891471,0.01097482,-0.007946459
1.015148,-0.1290654,0.1212144,-0.000497477,0.009624754,0.004121949,-0.005664266,0.008249268,-0.003446463
1.014678,-0.1269437,0.1203826,-0.0009814443,0.01169811,0.003306102,0.0004671355,0.003168606,0.001003204
1.014972,-0.1263405,0.1257811,-0.0007010343,0.01224526,0.008714979,0.002362154,0.001671229,1.24383e-05
1.015532,-0.1283056,0.1294339,-0.0001534913,0.01021661,0.01237268,-0.002855174,0.001607507,-0.001197202
1.013167,-0.1307673,0.1276194,-0.002531768,0.007683947,0.0105575,0.001170173,2.225576e-05,-0.002541902
1.011877,-0.1302552,0.1259946,-0.003835097,0.008118005,0.008926192,0.001864032,-0.002765082,-0.005168134
1.012928,-0.1261298,0.1258944,-0.002795966,0.01215848,0.008813738,-9.452824e-05,-0.004168814,-0.003456534
1.01445,-0.1212314,0.1256938,-0.001285564,0.01696525,0.008594995,-0.003728379,0.001256547,-0.001405323
1.015708,-0.1203536,0.1273378,-3.867061e-05,0.01774477,0.01021492,-0.01431983,0.008577772,0.0002864613
1.0153,-0.1239307,0.1285921,-0.0004573531,0.01406272,0.01143945,-0.01460304,0.007708394,0.003362953
1.014059,-0.1272561,0.1273995,-0.001707881,0.01062555,0.01021117,-0.0108172,0.006465115,0.0007424205
1.014271,-0.1274365,0.1280073,-0.001504682,0.01032668,0.0107773,-0.01059125,0.006680189,-0.004622137
1.016575,-0.1276931,0.1299518,0.0007920842,0.009945318,0.01267432,-0.005133528,0.00125046,-0.00705653
1.018521,-0.1277983,0.130202,0.002730221,0.009709297,0.01287101,-0.002419597,-0.001458914,-0.005958313
1.016631,-0.1256643,0.1282531,0.0008341162,0.0117065,0.01086256,0.0006064109,0.0006636743,-0.002154603
1.014055,-0.1245562,0.1246881,-0.001747969,0.01267233,0.007232059,0.007122679,0.00101479,-0.001695228
1.015384,-0.1248959,0.1233704,-0.0004247204,0.01218495,0.005842954,0.008025267,0.001162442,-0.003793783
1.015864,-0.1253842,0.1223624,5.011743e-05,0.01154372,0.004758045,0.004068345,0.00130571,-0.003857691
1.014822,-0.1258818,0.1211903,-0.000996323,0.01088805,0.003503722,-0.001277496,0.0002375615,-0.004560107
1.016468,-0.1266538,0.1229632,0.0006458538,0.00995323,0.005189433,-4.146232e-05,-0.0003853677,-0.005897291
1.016862,-0.1276199,0.1229975,0.00103668,0.008819797,0.005132183,0.002696091,-0.0007678549,-0.004078091
1.015184,-0.127717,0.1251339,-0.0006442546,0.00855099,0.00717272,-0.0004282615,-0.001720239,-0.002539774
1.013368,-0.1277701,0.1292685,-0.002462027,0.008322278,0.01120751,0.001673959,-0.002565,-0.005959178
1.012097,-0.1265247,0.1256327,-0.003734923,0.009388554,0.007468009,0.002255311,-0.002890296,-0.008793212
1.014325,-0.1241197,0.1210735,-0.001508503,0.011611,0.002801483,-0.003559169,-0.002247536,-0.007877516
1.016183,-0.1230608,0.1185332,0.0003485317,0.01248421,0.0001503025,-0.006264531,0.001048375,-0.008217082
1.015299,-0.1225325,0.1145285,-0.0005347656,0.01282375,-0.003968185,-0.00738414,0.005308935,-0.009965667
1.015763,-0.1226109,0.1150629,-6.995753e-05,0.01255382,-0.003549882,-0.005953043,0.00649094,-0.01142624
1.015906,-0.1240069,0.1181618,7.396632e-05,0.01096329,-0.0005688294,-0.003970685,0.006399731,-0.01192914
1.013277,-0.1262661,0.1200319,-0.00255284,0.00850704,0.001182302,-0.00240753,0.006205079,-0.007855507
1.011204,-0.1260184,0.1215314,-0.004624249,0.008555119,0.00256201,-0.001166146,0.003189189,-0.002005024
1.010905,-0.1230704,0.120892,-0.004919744,0.01130133,0.001802423,-0.00453138,0.0009784441,-0.001880945
1.010039,-0.1224896,0.120392,-0.005781975,0.01167837,0.001182013,-0.007477492,0.003396502,-0.003154506
1.011951,-0.1222851,0.1217332,-0.003864021,0.01167719,0.002402806,-0.01405825,0.005541967,-0.001748542
1.016248,-0.1218177,0.1237936,0.0004387436,0.01193706,0.004343127,-0.02216693,0.002983773,-0.003881397
1.015504,-0.1224531,0.1274322,-0.0002973269,0.0110925,0.007862032,-0.02289234,-0.0003185115,-0.005842487
1.013601,-0.1211541,0.1289024,-0.002191304,0.01218077,0.009212878,-0.02435803,0.0009653358,-0.003028908
1.014882,-0.1215307,0.1271827,-0.0009004014,0.011592,0.007374139,-0.02251497,0.004904637,0.001594967
1.017226,-0.12707,0.1285921,0.001453621,0.005839002,0.008664654,-0.01501062,0.005420088,0.005646469
1.020005,-0.1342993,0.132683,0.004244599,-0.001605006,0.01263667,-0.007395484,0.000191605,-0.0002318983
1.017423,-0.135461,0.1338611,0.001674941,-0.002982047,0.01369574,0.00278424,-0.006799135,-0.009365075
1.01331,-0.128476,0.1265472,-0.002424461,0.00378771,0.00626229,0.005139327,-0.009524118,-0.00619052
1.015955,-0.1245431,0.1171037,0.0002334019,0.007506055,-0.003301415,0.001251759,-0.003245443,-0.001213153
1.017626,-0.1264741,0.1202359,0.001918289,0.005361353,-0.0002895961,0.003792764,0.004262085,-0.0006037486
1.016989,-0.1269837,0.1242809,0.001295448,0.004639183,0.003635007,0.004495305,0.0003382409,-0.000335473
1.018178,-0.1265774,0.121406,0.002498003,0.004834298,0.0006399237,0.001645704,-0.003692079,-0.0024267
1.018713,-0.1291326,0.1260633,0.003046941,0.002069564,0.00517761,0.001516216,-0.002170447,-0.001603951
1.019886,-0.1329572,0.1293624,0.004234337,-0.001962695,0.008357765,0.001436814,-0.004488686,-0.0006174749
1.019745,-0.1340896,0.1248134,0.004106458,-0.003300375,0.003690323,0.00517417,-0.00065246,-0.005280066
1.018782,-0.1347277,0.1227497,0.0031564,-0.004141041,0.001508767,0.01128779,0.005292153,-0.00821228
1.019611,-0.1349198,0.1216692,0.003996933,-0.004532213,0.0003111854,0.01065183,0.002027466,-0.006819382
1.017546,-0.1317305,0.1219568,0.001943342,-0.001538114,0.0004825687,0.008786794,0.001809053,-0.00353326
1.016021,-0.1279219,0.1220281,0.0004287846,0.002079516,0.0004388812,0.007172256,0.003626482,-0.001404696
1.017805,-0.1253465,0.1207038,0.002221256,0.004468407,-0.0009990718,0.002061981,0.002224112,-8.365054e-05
1.018351,-0.1259815,0.1220155,0.002775376,0.003651463,0.0002005289,0.002853,0.001764585,0.002306687
1.018123,-0.1269639,0.1213991,0.002553444,0.002491522,-0.000526105,0.005821945,-0.0003899643,0.003556532
1.017858,-0.1240152,0.1200334,0.002294261,0.005267225,-0.002000101,0.003005856,-0.0009395762,0.007548047
1.017944,-0.1230241,0.1196523,0.002384673,0.006089725,-0.0024873,0.001662697,0.002178015,0.008515709
1.017125,-0.123879,0.119815,0.001567644,0.00507042,-0.002428246,-0.0007326546,0.002606211,0.002263791
1.015062,-0.1232915,0.1252373,-0.00049384,0.005497743,0.002893022,-0.003736738,0.001738364,0.001072444
1.014234,-0.1228511,0.1295239,-0.001321179,0.005781969,0.007081351,-0.003008185,0.002548532,0.001842215
1.013633,-0.1218582,0.1283044,-0.001923802,0.006622474,0.005766102,-0.005302811,0.001211712,0.00260083
1.01398,-0.1220936,0.1288095,-0.001578774,0.006238293,0.006177687,-0.005367008,-0.002322317,0.005477672
1.015227,-0.1225785,0.1303857,-0.0003343907,0.005608211,0.007662528,-0.00258098,-0.004482138,0.001810967
1.016376,-0.1219062,0.1256122,0.0008116392,0.006138592,0.002799535,-0.004096834,-0.00272718,-0.001291913
1.018057,-0.1234336,0.1204464,0.002488699,0.004472376,-0.002454121,-0.005180677,0.001847034,0.0007183219
1.018252,-0.1276254,0.1256568,0.002678763,0.0001449481,0.002670302,-0.005964598,0.002469718,0.001073665
1.017936,-0.1313176,0.1302174,0.002356899,-0.003679933,0.007146707,-0.002436419,0.002352034,0.001130648
1.018319,-0.1270996,0.1265451,0.00273326,0.0004088253,0.003391959,0.003376139,0.005555902,0.001089432
1.018681,-0.1189433,0.1236809,0.003088819,0.008439195,0.0004468288,-0.0004149478,0.005737926,0.001991675
1.018902,-0.119668,0.1184152,0.003300998,0.007591986,-0.004898098,-0.002318716,0.004963851,0.004352742
1.017861,-0.1254899,0.1109115,0.002251267,0.001650614,-0.01247923,0.003426962,0.004920549,0.006151477
1.017345,-0.1290445,0.111242,0.001725621,-0.002020518,-0.01222382,0.006602871,0.003714375,0.006919825
1.016669,-0.1276787,0.1171797,0.001038158,-0.0007682552,-0.006358237,0.009702935,0.002731201,0.005960807
1.015105,-0.1220638,0.1218823,-0.0005384749,0.004736335,-0.001724458,0.01227898,0.001468405,0.005097877
1.017658,-0.1205007,0.1218474,0.002001712,0.006192117,-0.001824505,0.005272743,0.003222689,0.002464728
1.020167,-0.1234158,0.1210162,0.004496931,0.003172718,-0.002717345,-0.007633672,0.00600711,-0.0005603544
1.015812,-0.1259707,0.124662,0.0001268604,0.000516317,0.0008705014,-0.01127986,0.005305002,0.001376344
1.012695,-0.1255446,0.1258257,-0.003006005,0.0008436598,0.001979743,-0.008950398,0.004957418,0.002616347
1.016899,-0.1237659,0.123094,0.00118111,0.002526427,-0.0008030668,-0.01402052,0.005311167,0.000688023
1.020421,-0.124873,0.1221087,0.004686657,0.00132608,-0.001836178,-0.01939298,0.004577101,0.0005884888
1.019444,-0.1253247,0.1224468,0.003691644,0.0007838942,-0.001542606,-0.0186842,0.004036052,0.002367832
1.019089,-0.128898,0.1256572,0.003318109,-0.002877159,0.001626356,-0.0129293,0.00437301,0.005074419
1.019217,-0.133867,0.1270435,0.003426161,-0.007931067,0.002974345,-0.001334295,0.004953153,0.006660972
1.016658,-0.1288879,0.121983,0.0008471524,-0.003033721,-0.002121675,0.005628143,0.005479362,0.004210422
1.014388,-0.1250074,0.1187341,-0.001444594,0.0007682715,-0.005403373,0.001817817,0.006691216,0.001765924
1.015462,-0.1271102,0.1203081,-0.000392587,-0.001409534,-0.003859351,-0.004302467,0.007933055,0.00354127
1.017565,-0.1271978,0.1252262,0.001688441,-0.001568799,0.001031635,-0.006763022,0.007302459,0.006273716
1.018159,-0.1275956,0.1312495,0.002259205,-0.002034778,0.007030665,-0.004436056,0.003456532,0.009112171
1.017289,-0.1262421,0.1342945,0.001365269,-0.0007460344,0.01005379,-0.0005238891,-0.0001337036,0.01055987
1.016422,-0.1240999,0.1347786,0.0004743599,0.001334808,0.01051788,-0.001326321,0.0006425814,0.007116147
1.017434,-0.1252066,0.1278925,0.001461155,0.0001701091,0.003613145,-0.00347814,0.002224026,0.005877703
1.018676,-0.126052,0.117764,0.002678297,-0.0007300792,-0.006532837,-0.003267796,0.002705072,0.007397769
1.018114,-0.1257048,0.119592,0.002090388,-0.0004344455,-0.004721408,-0.005287626,0.003527672,0.004610026
1.018719,-0.1262643,0.1241918,0.002670286,-0.001042429,-0.0001370393,-0.004007105,0.002576317,0.002503188
1.019844,-0.129177,0.1238822,0.003768679,-0.004000548,-0.0004606827,0.003392577,0.002111394,0.001938206
1.018288,-0.1316462,0.1289424,0.002185879,-0.006512108,0.004586646,0.007692579,0.00386402,0.001156652
1.016698,-0.1302852,0.1291623,0.0005680614,-0.005190096,0.004794741,0.006798854,0.004666917,0.002027574
1.016508,-0.128176,0.1236871,0.0003502406,-0.003116559,-0.0006913668,0.004788536,0.00485776,-0.0006630854
1.016998,-0.127652,0.1263179,0.00081118,-0.002624792,0.001929108,0.006347859,0.002382485,-0.003858917
1.018579,-0.1275612,0.1287348,0.002363808,-0.002562725,0.004336411,0.007922941,0.0007424128,-0.002082694
1.019892,-0.1277209,0.1300411,0.00364822,-0.002747828,0.005633431,0.00766084,0.004855859,0.002903262
1.019669,-0.1268373,0.1282011,0.003395702,-0.001886079,0.003784449,0.006145996,0.005463553,0.008471599
1.019092,-0.1249651,0.1204714,0.002788265,-3.260309e-05,-0.003954286,-0.007312978,0.0004397032,0.006538152
1.019023,-0.1265858,0.1221582,0.002688762,-0.001668733,-0.002276513,-0.01954881,-0.003386583,0.003025104
1.016919,-0.1340451,0.1253001,0.0005540197,-0.009140391,0.0008565298,-0.01108485,-0.0008332352,0.006557305
1.014201,-0.1413601,0.124067,-0.002195118,-0.01646456,-0.0003852457,-0.0003937604,0.003311805,0.007296872
1.014961,-0.1377407,0.125126,-0.001467283,-0.0128508,0.0006653724,0.001127212,-0.0008356116,0.005630229
1.014814,-0.12771,0.1227813,-0.001646039,-0.002821622,-0.001687559,0.004442254,-0.002547192,0.006937044
1.012285,-0.1242941,0.1232922,-0.004206438,0.0005968317,-0.001184642,0.0005963261,0.0001451592,0.01068713
1.012186,-0.1252311,0.1244211,-0.00433743,-0.0003336652,-6.342913e-05,-0.0109999,-0.0002204143,0.01423909
1.012799,-0.1287628,0.1218977,-0.003754947,-0.003855204,-0.002594094,-0.008376861,0.002193454,0.01113879
1.01253,-0.1321486,0.1237545,-0.004054191,-0.007227417,-0.0007442011,-0.005327651,0.001936293,0.008292258
1.013584,-0.1302182,0.1259401,-0.003028613,-0.005279885,0.001434969,-0.008286466,-0.0007661417,0.007321379
1.014942,-0.1301762,0.1285804,-0.001698607,-0.005217269,0.00406932,-0.0001896735,-0.001773908,0.005163678
1.014858,-0.1310964,0.1293406,-0.001808983,-0.006113398,0.004823765,0.002501482,-0.005261996,0.007769666
1.01447,-0.1301253,0.124051,-0.002221961,-0.005114856,-0.0004713971,0.004887384,-0.005212616,0.006520659
1.015673,-0.1302639,0.1210347,-0.001042273,-0.005222715,-0.003493331,0.0126883,-0.003959096,0.004509914
1.017508,-0.1278148,0.121834,0.000770446,-0.002739439,-0.002699561,0.008807016,-0.00588764,0.007211442
1.018251,-0.1260139,0.1225978,0.001492515,-0.0009012799,-0.001940994,0.008419919,-0.007295398,0.005831693
1.018281,-0.1293013,0.1202594,0.001503929,-0.004148386,-0.004284292,0.0083398,-0.009116811,0.009233204
1.017885,-0.1340855,0.1193221,0.001089732,-0.008889519,-0.005225971,0.00470148,-0.008050462,0.01220299
1.018149,-0.1367718,0.1244038,0.001337277,-0.01152994,-0.0001478795,0.01001524,-0.004813933,0.007444432
1.019012,-0.1367867,0.1271505,0.002184288,-0.01149601,0.002595882,0.01060962,-0.003269467,0.005116589
1.018442,-0.133579,0.123885,0.00159949,-0.008236284,-0.0006717874,0.00732901,-0.002057652,0.001225491
1.017034,-0.1292441,0.1199489,0.0001777207,-0.003845997,-0.004609318,0.002363045,-0.006024273,-0.002147138
1.016209,-0.1326731,0.1211467,-0.0006612884,-0.007216382,-0.003412318,-0.004142498,-0.01049589,-0.003693835
1.016663,-0.1370499,0.1225729,-0.0002199703,-0.01153135,-0.00198602,-0.001086085,-0.003466276,-0.005410956
1.016808,-0.1337836,0.1198837,-8.656772e-05,-0.008199965,-0.004674189,-0.000805456,0.003325952,-0.004542262
1.015452,-0.1324497,0.1210948,-0.001453389,-0.006797675,-0.003461017,-0.008431742,0.0007149229,-0.009701762
1.01512,-0.129504,0.1232619,-0.001796359,-0.003780323,-0.001290745,-0.01626543,0.003149868,-0.01397318
1.015293,-0.1242107,0.1234768,-0.001632616,0.001587708,-0.001071343,-0.0264872,0.009303538,-0.01148786
1.01523,-0.1263151,0.1242458,-0.001703753,-0.0004392148,-0.0002967922,-0.03545081,0.007030694,-0.01145211
1.015418,-0.1280159,0.1232918,-0.001523607,-0.002060268,-0.001244063,-0.03506263,0.002965996,-0.00886562
1.015116,-0.1281538,0.1245197,-0.001833437,-0.0021163,-8.47891e-06,-0.0303647,0.001066934,-0.004820162
1.015359,-0.1321745,0.1258558,-0.001595969,-0.006053418,0.001336306,-0.03108014,-0.001280471,-0.003783701
1.015328,-0.1338276,0.1254572,-0.001631795,-0.007621319,0.0009472618,-0.02473266,-0.001471018,-0.0002657516
1.014767,-0.1349929,0.1266746,-0.002197061,-0.008699797,0.00217484,-0.007323355,-0.002435161,0.004272618
1.013672,-0.1383701,0.1252417,-0.003294819,-0.01198853,0.0007527071,0.01318,-0.004231868,0.007594997
1.012009,-0.139121,0.1225994,-0.004959493,-0.0126491,-0.001878321,0.04041057,-0.003820611,0.01072011
1.013556,-0.1379631,0.1225982,-0.003412026,-0.01139875,-0.001867944,0.05311877,-0.004051172,0.01040905
1.016803,-0.1332065,0.125612,-0.0001649,-0.006547497,0.001157757,0.0447902,-0.003153283,0.004645289
1.018763,-0.1266208,0.1281512,0.001797497,0.0001351569,0.003709297,0.03482129,-6.956769e-05,0.001522157
1.020047,-0.1260863,0.1226544,0.003085073,0.0007686714,-0.001775027,0.01977377,0.001366122,0.00628053
1.019499,-0.1271615,0.1172673,0.002542159,-0.0002059364,-0.007149413,0.01425716,-0.002309678,0.01154887
1.019427,-0.1275382,0.1212309,0.002475321,-0.0004808353,-0.003172906,0.01839587,-0.007729838,0.01298985
1.021539,-0.1317478,0.1234008,0.004593075,-0.00458771,-0.0009896729,0.007329272,-0.006048414,0.01362277
1.022158,-0.1346642,0.1188184,0.005217971,-0.007400614,-0.005558233,-0.002220323,-0.001937637,0.01366994
1.019635,-0.1333402,0.1169827,0.002701788,-0.005972596,-0.007379371,-0.006448231,0.0003030581,0.008676313
1.017189,-0.13365,0.1180302,0.0002617465,-0.006177624,-0.006316459,-0.01145457,0.004366496,0.001972542
1.018694,-0.1389165,0.1163718,0.001772512,-0.01133877,-0.007958369,-0.005257476,0.006584169,-0.003302811
1.02028,-0.14523,0.1143932,0.003364493,-0.01754603,-0.009919129,0.0002686582,0.005170821,-0.01040432
1.018178,-0.1460897,0.115135,0.001267962,-0.01829836,-0.009157724,0.007802956,0.001055191,-0.01262628
1.017372,-0.1392922,0.1197426,0.0004666953,-0.0113919,-0.004528676,0.01773304,-0.0004462124,-0.01351845
1.01735,-0.1309203,0.1281404,0.0004487096,-0.002908986,0.003892692,0.01488198,0.003071294,-0.01689698
1.014974,-0.1291053,0.1329161,-0.001924234,-0.0009811216,0.008693797,0.0117136,0.00421845,-0.01109858
1.013126,-0.131241,0.1295476,-0.003768749,-0.003002388,0.005352,0.008928597,0.004193735,-0.007172544
1.012859,-0.1316876,0.1276715,-0.004033124,-0.003333259,0.00350364,0.0108323,0.006166467,-0.01321225
1.015823,-0.1316624,0.1298054,-0.001066818,-0.003191294,0.005665679,0.01859987,0.00971223,-0.01721215
1.019559,-0.1311372,0.1273141,0.002672063,-0.002548539,0.003202717,0.01231293,0.01208212,-0.01839462
1.017907,-0.1290956,0.1261461,0.001022622,-0.0003887634,0.002062915,0.008888103,0.01152517,-0.01658279
1.014668,-0.1277994,0.13138,-0.002213973,0.001025835,0.007324608,0.01015698,0.01319102,-0.01470044
1.011792,-0.1277884,0.1344565,-0.005087379,0.001155223,0.01042815,0.003461429,0.01217766,-0.01615632
1.008351,-0.1271195,0.1328226,-0.008525661,0.001941951,0.008820114,0.002806354,0.005038426,-0.01528593
1.010085,-0.1246161,0.1304949,-0.00678803,0.004562443,0.006516733,-0.00166573,-0.0003991169,-0.01275243
1.014701,-0.1202061,0.1298071,-0.002169101,0.009088167,0.005851305,-0.01270395,-0.000664282,-0.009592016
1.017412,-0.1188402,0.126535,0.0005471918,0.0105679,0.002599392,-0.02050018,0.001786608,-0.005787414
1.018202,-0.1238279,0.1226484,0.001342798,0.005691613,-0.001269274,-0.02665354,0.002537505,-0.0005847814
1.013243,-0.1281559,0.1234181,-0.003609755,0.001472047,-0.000483889,-0.02426959,0.00447613,0.005191238
1.008265,-0.1282367,0.1238709,-0.008580006,0.001496378,-1.74841e-05,-0.02119492,0.006576674,0.003106155
1.009666,-0.1275365,0.1282383,-0.007171256,0.002298327,0.004361437,-0.02174023,0.004518201,0.001284809
1.011484,-0.1287388,0.1323761,-0.005343471,0.00119416,0.008508893,-0.01222437,-0.0001505088,0.008400403
1.015599,-0.1333826,0.1249526,-0.001217832,-0.003355215,0.001092832,0.006312919,-0.008116979,0.01076624
1.021475,-0.1375903,0.1196911,0.004671548,-0.007471971,-0.004163425,0.02230178,-0.008938302,0.006363991
1.019687,-0.134947,0.1209972,0.002897517,-0.004740981,-0.002854026,0.0227,-0.004176728,0.003637374
1.015251,-0.126089,0.1202325,-0.001523948,0.004201567,-0.003617251,0.006736157,-0.005494169,0.003679813
1.015203,-0.1199187,0.1182842,-0.001555794,0.01045336,-0.005565461,-0.01016034,-0.002362542,0.006244803
1.015243,-0.1218781,0.1161231,-0.001499298,0.008572084,-0.00772757,-0.0150061,-0.0008815007,0.007725309
1.015455,-0.1264611,0.1187718,-0.001269952,0.004063351,-0.00508056,-0.004050009,-0.004469502,0.008909233
1.017435,-0.1303915,0.124413,0.0007277713,0.0002031539,0.0005585747,0.007452195,0.001696591,0.009625942
1.017937,-0.1347107,0.1264343,0.001248936,-0.004049798,0.002577659,0.008490342,0.006385769,0.00471294
1.016521,-0.1340226,0.1286666,-0.0001476661,-0.003299327,0.004807445,0.0102569,0.006086579,-0.0007201365
1.014559,-0.1299826,0.1305985,-0.002090336,0.0007994188,0.006736548,0.01057034,0.006931942,-0.001186604
1.014896,-0.1304813,0.1274971,-0.001733358,0.0003560584,0.003631627,0.006580547,0.006057771,0.0009023326
1.016078,-0.1299495,0.1240202,-0.0005306921,0.0009397847,0.0001503822,0.007476532,0.006653993,0.002811492
1.014927,-0.1287651,0.128917,-0.001660711,0.002172857,0.005042034,0.009394313,0.001170437,0.005217056
1.016154,-0.1324502,0.1364635,-0.0004133186,-0.001466872,0.0125823,0.01035655,-0.005097289,0.00721469
1.017565,-0.13399,0.1365545,0.001019113,-0.0029644,0.01266582,0.009089796,0.0004509067,0.006646533
1.016922,-0.1332285,0.1343422,0.0003979854,-0.002163528,0.01044417,0.004685237,0.004697036,0.006937566
1.01762,-0.1323201,0.1319382,0.001118205,-0.001218472,0.008028491,0.0063034,0.003108249,0.00640781
1.016533,-0.1312664,0.1290777,5.212968e-05,-0.0001306241,0.005153915,0.01015391,0.002804966,0.003528842
1.016164,-0.1312382,0.1288761,-0.0002945471,-7.069468e-05,0.004935544,0.009881519,0.003196938,0.0005297189
1.017066,-0.1292051,0.1276276,0.0006291448,0.001991797,0.003667603,0.008174159,0.002037327,-0.00190443
1.014922,-0.1285674,0.1269831,-0.001494402,0.002656682,0.003000989,0.006312773,-0.0001875994,0.001311382
1.012327,-0.1286354,0.1276899,-0.004068077,0.002613528,0.003683159,0.006173054,-0.001802206,0.003761691
1.010922,-0.1266919,0.1267708,-0.005451604,0.004579491,0.002736828,0.005776694,-0.002234295,0.0002432178
1.013426,-0.1250193,0.1279829,-0.002926284,0.006272168,0.003919343,0.002660147,-0.0006375846,-0.002703755
1.016808,-0.1220054,0.1294726,0.0004762255,0.009303581,0.005377184,-0.00374253,-0.0003768449,-0.005988466
1.015172,-0.1216617,0.1297543,-0.001138244,0.009661886,0.005624631,-0.01205571,-0.001675013,-0.005569598
1.014441,-0.1237754,0.1311139,-0.001847271,0.007559639,0.006947605,-0.01904844,-0.003319749,-0.0006296816
1.014851,-0.1236404,0.1306465,-0.001415741,0.007702774,0.006441244,-0.02258022,-0.005960108,0.001506594
1.012648,-0.1245199,0.1295752,-0.003596373,0.006827851,0.005328498,-0.01751605,-0.005467673,0.002321346
1.012885,-0.1280831,0.1281046,-0.003337289,0.00326552,0.003814028,-0.01151482,-0.004797447,0.005252927
1.014747,-0.1318469,0.1245284,-0.001452727,-0.0005010653,0.0001915706,-0.01311675,-0.003285875,0.01032333
1.014729,-0.1312082,0.123931,-0.001447841,0.0001314078,-0.0004542954,-0.0104012,-0.0002041532,0.01119411
1.015303,-0.1299358,0.1243464,-0.0008506765,0.001394439,-8.913922e-05,-0.003147008,-0.002877555,0.0102527
1.015449,-0.1338189,0.123302,-0.0006805909,-0.00250116,-0.001185545,0.002255749,-0.005608832,0.01364265
1.01407,-0.135734,0.1268244,-0.002036303,-0.004431369,0.002283617,0.0110473,-0.00713021,0.0135526
1.013876,-0.1331785,0.1312154,-0.002205641,-0.001893228,0.006620204,0.0155848,-0.01154127,0.01356363
1.014799,-0.1278771,0.1309314,-0.001258356,0.003388759,0.006280542,0.006695215,-0.01428788,0.01662713
1.015742,-0.1204919,0.1258527,-0.0002906159,0.01075276,0.001145084,-0.006517239,-0.01316474,0.01653092
1.016319,-0.1195976,0.1184904,0.0003118464,0.01162392,-0.006274998,-0.01643572,-0.01011356,0.01655954
1.016655,-0.1241328,0.1194337,0.0006722018,0.007063172,-0.005390218,-0.02761602,-0.01109134,0.01315316
1.016932,-0.126145,0.1223892,0.0009747679,0.005023045,-0.002493662,-0.03715588,-0.01128422,0.008175657
1.01668,-0.1298621,0.1159833,0.0007480256,0.001275326,-0.008958298,-0.03689516,-0.006861005,0.006678012
1.01749,-0.1377979,0.1130489,0.001583286,-0.006693484,-0.01195081,-0.03362799,-0.005421116,0.002602556
1.01837,-0.1448005,0.1162077,0.002487694,-0.01373107,-0.008848847,-0.02539046,-0.005058709,0.002144474
1.016881,-0.1456181,0.119971,0.001022953,-0.01458488,-0.00514071,-0.004068253,-0.007184009,0.007201836
1.015374,-0.1410897,0.1260877,-0.0004605774,-0.01009321,0.0009230163,0.01365892,-0.01018955,0.009490403
1.015248,-0.138206,0.1266121,-0.0005639044,-0.007245774,0.001396676,0.01801485,-0.009299304,0.009187949
1.016331,-0.1363161,0.1222849,0.0005413698,-0.005391436,-0.002979007,0.01952807,-0.01210361,0.005942442
1.017808,-0.1356953,0.1200486,0.002040818,-0.004804913,-0.005261513,0.01908059,-0.01424277,0.002912675
1.017228,-0.1394644,0.1201744,0.00148187,-0.008606738,-0.005179525,0.01472194,-0.008947033,0.003875484
1.015434,-0.1405252,0.1216008,-0.0002920413,-0.009698358,-0.003794346,0.01496043,-0.002914874,0.004067026
1.015036,-0.137274,0.1196159,-0.000670479,-0.00647574,-0.005817626,0.01963126,-0.002503841,0.001750941
1.017016,-0.1336749,0.1187295,0.001328648,-0.00290272,-0.006739534,0.01930623,-0.005317761,0.0001323083
1.020645,-0.1304307,0.1205139,0.004975504,0.0003181748,-0.004987443,0.01281532,-0.00558113,0.0002241563
1.022321,-0.1289837,0.1214659,0.006667765,0.001744405,-0.004064567,0.003895349,-0.006622614,0.000150424
1.018105,-0.1294129,0.1264667,0.00246778,0.001296982,0.0009104722,0.001693501,-0.006785141,-0.002671812
1.013186,-0.1313506,0.1284146,-0.002436686,-0.0006567839,0.002835831,0.003293014,-0.003600569,-0.006750631
1.01509,-0.1313534,0.1228792,-0.0005199529,-0.0006733844,-0.002719055,0.0007963697,-0.000704605,-0.009181874
1.016505,-0.1323706,0.1193049,0.0009064123,-0.001702434,-0.006309897,0.005632617,0.005506325,-0.01362818
1.014121,-0.1355955,0.1212049,-0.001466552,-0.004937111,-0.004423628,0.008544872,0.00881796,-0.0202684
1.014583,-0.1312315,0.1263152,-0.0009951798,-0.0005808109,0.0006759976,0.001462441,0.003208509,-0.02248658
1.014421,-0.1274804,0.1313682,-0.001148236,0.003164499,0.005721184,-1.209671e-05,-0.001627019,-0.01911697
1.015081,-0.1320052,0.1336834,-0.0004814193,-0.001364153,0.008031041,-0.0004299413,-0.002146204,-0.01496885
1.018624,-0.1355278,0.1274681,0.003068392,-0.004888876,0.001812442,-0.0008656945,-0.00309866,-0.01587542
1.017606,-0.1368634,0.120554,0.002056207,-0.006224853,-0.00510314,0.0007965846,-0.004066281,-0.01727073
1.016896,-0.1371283,0.1251307,0.001352135,-0.006488267,-0.0005263636,-0.0005393455,0.0001549081,-0.014135
1.019612,-0.1373509,0.1283775,0.004072008,-0.006707251,0.002722162,-7.306498e-05,0.004467748,-0.01414354
1.019232,-0.1379378,0.1267355,0.003694504,-0.007288298,0.001083313,0.0005230814,0.002081791,-0.01510458
1.016576,-0.1371873,0.126605,0.001041129,-0.006529555,0.0009572235,0.005858899,-0.005553913,-0.01006922
1.014835,-0.1375286,0.1235565,-0.0006997998,-0.006859931,-0.002085737,0.01526967,-0.01692236,-0.0012123
1.016764,-0.1371516,0.1209442,0.001229373,-0.006469305,-0.004691509,0.01693655,-0.02216431,0.006740035
1.019259,-0.1345724,0.1192579,0.003722976,-0.003873708,-0.006370101,0.01971704,-0.02078911,0.006041616
1.017868,-0.1312695,0.1189169,0.002328906,-0.0005516605,-0.006702061,0.02351599,-0.0217694,0.001888563
1.017617,-0.1247331,0.123787,0.002073744,0.00600666,-0.001821443,0.01301136,-0.01869083,0.005414752
1.018738,-0.115262,0.1278818,0.003190445,0.01550186,0.002285413,-0.006450264,-0.01516863,0.01570282
1.018696,-0.1118994,0.1298067,0.003142416,0.01888998,0.004223777,-0.018521,-0.01770231,0.02719812
1.020036,-0.1184444,0.12887,0.004474555,0.01237095,0.00330162,-0.02151469,-0.0164635,0.02739902
1.021542,-0.1228008,0.1261045,0.005971515,0.008040147,0.0005514936,-0.02427372,-0.0127059,0.02031492
1.021991,-0.1233068,0.1261022,0.006409713,0.007558806,0.0005652131,-0.0270536,-0.009648174,0.0164738
1.020332,-0.1281736,0.1230482,0.004739309,0.002715311,-0.002472285,-0.02677283,-0.003589385,0.003296914
1.015851,-0.1315624,0.1206944,0.0002444613,-0.000651809,-0.004808992,-0.02485582,0.0003088455,-0.004761647
1.014241,-0.1320125,0.122734,-0.00138112,-0.001081807,-0.002751784,-0.0187276,-0.0004155014,0.003158115
1.015316,-0.1322938,0.1196601,-0.0003234768,-0.001344552,-0.005807475,-0.009601862,-0.001194601,0.0006903526
1.013563,-0.1305565,0.1148828,-0.002095369,0.000409865,-0.0105656,-0.006439938,-0.0006263438,-0.004374533
1.012286,-0.1310738,0.1138733,-0.003392266,-9.165901e-05,-0.01155491,-0.005244626,-0.001065241,-0.003151475
1.01512,-0.1343356,0.1170161,-0.0005785136,-0.003338968,-0.008390274,-0.001997689,-0.001787405,-0.004607803
1.017654,-0.138026,0.1211524,0.001934404,-0.007015919,-0.004230365,-0.002709338,-0.001106133,-0.001741511
1.015902,-0.142137,0.117507,0.0001604542,-0.01111426,-0.007850205,0.002582034,-0.001725122,0.0005148163
1.014484,-0.144756,0.1114026,-0.001280065,-0.0137209,-0.01392682,0.01017286,-0.003191837,0.002406397
1.016947,-0.1433303,0.1089411,0.001160054,-0.01228258,-0.01635804,0.006319302,-0.005819491,0.004768992
1.018874,-0.1378751,0.1090749,0.003063915,-0.006813889,-0.01619104,0.004611526,-0.0100716,0.006291963
1.01915,-0.1352051,0.1119473,0.003315532,-0.004129118,-0.01328198,0.005329345,-0.0125777,0.01431089
1.017144,-0.1342255,0.1136868,0.001285607,-0.003133364,-0.01150191,0.005706574,-0.0126613,0.01728258
1.014692,-0.1329356,0.1175408,-0.001189858,-0.00182583,-0.007603266,0.0108304,-0.009680443,0.01683892
1.01872,-0.1358242,0.1213718,0.002812559,-0.004695397,-0.003723462,0.009018751,-0.007658452,0.01259869
1.022713,-0.1358186,0.1191715,0.006780727,-0.004669159,-0.005870904,0.006909502,-0.007209929,0.0005536333
1.020424,-0.134072,0.1196288,0.004466889,-0.002900427,-0.005356771,0.01029053,-0.001843643,0.00198861
1.0193,-0.1335713,0.120973,0.003316363,-0.002376062,-0.003952156,0.01294865,0.003468505,0.004030796
1.019617,-0.1297595,0.1182178,0.003606754,0.001460923,-0.006643334,0.01955443,0.002861332,0.0003474938
1.01823,-0.12983,0.1166055,0.002191545,0.00141691,-0.008188175,0.02069116,0.0004688731,0.006497818
1.017482,-0.1296148,0.1156222,0.001415122,0.001659812,-0.009100725,0.01561216,-0.002004919,0.005792887
1.016347,-0.1264106,0.1181919,0.000250986,0.004892519,-0.006456887,0.01191138,-0.005616364,0.00358026
1.014691,-0.1284029,0.1217687,-0.001434632,0.002929316,-0.00280272,0.003412469,-0.004279071,0.00690102
1.015826,-0.1299441,0.1165364,-0.0003297506,0.001417542,-0.007954628,-0.002395959,0.001757293,0.002475719
1.019238,-0.1305684,0.1114707,0.003051969,0.0008226583,-0.01293688,-0.004689945,0.003244967,0.0006573745
1.021699,-0.131182,0.1141802,0.005481729,0.0002383734,-0.01014091,-0.01071211,0.002335831,0.0005998777
1.020711,-0.1304615,0.1156663,0.00446232,0.0009880643,-0.0085653,-0.01300309,0.0005578171,-0.00249883
1.017472,-0.133833,0.1171052,0.001191616,-0.002354593,-0.007033615,-0.01162321,-0.0004417212,6.782798e-05
1.016109,-0.1374955,0.120741,-0.0002039271,-0.005988484,-0.003302078,-0.00816332,0.001510954,0.0007757743
1.016576,-0.137985,0.1182682,0.0002301627,-0.006449557,-0.005676298,-0.003397872,0.0004693923,-0.001825521
1.017033,-0.137454,0.116325,0.0006543799,-0.005889985,-0.007518181,-0.002501885,0.002684665,-0.00200344
1.01758,-0.1371922,0.1193926,0.001167092,-0.005599342,-0.0043469,-0.002509052,0.005206546,-0.003760855
1.018325,-0.1378277,0.1173648,0.001878764,-0.006205374,-0.006268656,-0.004766474,0.001131879,-0.002748616
1.019219,-0.1373807,0.1146043,0.002738909,-0.00572832,-0.008920824,-0.008830634,0.002132553,0.0005340241
1.019492,-0.137376,0.1146123,0.002978069,-0.00569262,-0.008802564,-0.008559145,0.00301023,-0.001564987
1.019699,-0.1377621,0.1156009,0.003150928,-0.006046774,-0.00770146,-0.007645146,0.0003478965,-0.002789943
1.020366,-0.1372481,0.1195459,0.003783743,-0.005499575,-0.003642019,-0.006189686,0.001990077,-0.002668758
1.020052,-0.1379878,0.1185102,0.003434295,-0.006204869,-0.00456141,0.0001614032,0.00324373,-0.006780023
1.016649,-0.139311,0.1170388,-3.54085e-06,-0.007492156,-0.005914862,0.006662372,0.005786996,-0.01000215
1.012254,-0.1406811,0.1209941,-0.004434247,-0.008824825,-0.001840096,0.007546767,0.007898698,-0.009838933
1.013366,-0.1399609,0.1206616,-0.003358203,-0.008065379,-0.002051967,0.008373255,0.006350395,-0.008908524
1.01552,-0.1361425,0.1188596,-0.001239401,-0.004205889,-0.003732471,0.009730199,0.008066516,-0.01062976
1.014854,-0.1338963,0.1178752,-0.001940123,-0.00191656,-0.004594544,0.001320116,0.009314062,-0.01126953
1.01721,-0.1342311,0.1173263,0.0003810465,-0.00220632,-0.005020683,-0.006262664,0.008348579,-0.005553668
1.017453,-0.1341545,0.11856,0.000590351,-0.002082941,-0.00366389,-0.002191361,0.008789002,-0.001809784
1.015573,-0.1320741,0.115901,-0.001323247,4.591956e-05,-0.006199456,0.0002346788,0.008636712,-0.002199696
1.017466,-0.1319588,0.1141134,0.0005372298,0.0002109418,-0.00786355,-0.001986505,0.009351363,-0.00356267
1.017799,-0.1365787,0.113923,0.0008382729,-0.004357855,-0.007930273,-0.002818922,0.01193383,-0.007553795
1.0187,-0.1411409,0.1117211,0.00170845,-0.008868012,-0.01000819,-0.002979546,0.01464474,-0.01072627
1.020432,-0.14217,0.1124389,0.003409855,-0.009843729,-0.009166192,-0.00222402,0.01451458,-0.01144021
1.018775,-0.1384787,0.1137623,0.001723112,-0.006097689,-0.007718154,0.0001226146,0.01263238,-0.009748005
1.018316,-0.1343621,0.1166497,0.001235482,-0.001924768,-0.004705534,0.002505816,0.01222371,-0.006805472
1.01727,-0.1344773,0.1215128,0.0001606109,-0.001982197,0.0002831392,0.002514077,0.01033105,-0.003880144
1.016028,-0.1351995,0.1217039,-0.001109206,-0.002645268,0.0005999311,0.003743412,0.009731008,-0.002278008
1.01796,-0.1364832,0.1200042,0.0007949022,-0.003868616,-0.0009743244,0.006497833,0.01041686,-0.004266461
1.018176,-0.1381202,0.1215149,0.0009836827,-0.005444077,0.0006614887,0.003489149,0.007709159,-0.004612612
1.01701,-0.1379108,0.1258091,-0.0002085522,-0.005172082,0.005079857,0.0009036647,0.007563043,-0.006031553
1.016483,-0.1390465,0.1273922,-0.0007615887,-0.006243957,0.006785802,0.004394409,0.0104087,-0.009671442
1.016454,-0.1405741,0.1254233,-0.000814833,-0.007706619,0.004938048,0.005947434,0.0123273,-0.007515286
1.016454,-0.1383986,0.1264828,-0.0008395735,-0.005464852,0.00611642,0.006784879,0.01241211,-0.006282068
1.013814,-0.1337713,0.1269027,-0.003503395,-0.0007700322,0.006652387,0.009080278,0.009378227,-0.008023043
1.012163,-0.1297171,0.1246484,-0.005176964,0.003352882,0.004511045,0.007882814,0.006744573,-0.006848286
1.015068,-0.1271389,0.1249836,-0.00229357,0.006000671,0.004955634,0.005068767,0.003562725,-0.003072525
1.017878,-0.1288759,0.1241593,0.0004961795,0.004333624,0.004236823,0.00286015,0.001247903,-0.001071368
1.016826,-0.1321633,0.1228042,-0.000574854,0.001116085,0.002983272,0.0008000216,0.003049771,-0.007488074
1.015725,-0.1303168,0.1231161,-0.001693495,0.003032001,0.003392401,-0.001054722,0.004001162,-0.01213607
1.016334,-0.1296386,0.1221298,-0.001100571,0.003778948,0.00249897,-0.001959799,0.007118509,-0.009189771
1.014969,-0.1305898,0.1238719,-0.002481137,0.002895482,0.004329421,-0.00217418,0.01181119,-0.008517796
1.014795,-0.1288779,0.125964,-0.002669087,0.004673765,0.006505351,-0.004870461,0.01107727,-0.006549841
1.01597,-0.1317426,0.1249774,-0.001506068,0.001873943,0.005597863,-0.005697246,0.01020373,-0.003401727
1.014321,-0.1344066,0.1267994,-0.003166373,-0.0007269689,0.007494013,-0.002930666,0.01106811,-0.006290563
1.012589,-0.1312363,0.1321826,-0.004907909,0.002504647,0.01294623,-0.003370451,0.009100693,-0.009304279
1.010981,-0.1297397,0.1353489,-0.006523361,0.004060396,0.01617601,-0.00314572,0.006342712,-0.007518068
1.012331,-0.1311749,0.1290732,-0.005179531,0.002682325,0.009957872,-0.001111789,0.003531706,-0.00647011
1.016438,-0.1335363,0.119831,-0.001076276,0.0003757172,0.0007670024,-0.001398915,-0.000472665,-0.007413122
1.016089,-0.1351335,0.1191291,-0.001427331,-0.001169002,0.0001100948,0.002116102,0.0001917361,-0.00588568
1.015481,-0.1339326,0.1216146,-0.00203598,8.20069e-05,0.002634656,0.006265805,0.004295303,-0.004474347
1.015711,-0.1317871,0.1242784,-0.001804194,0.002275305,0.005331594,0.004901065,0.005273378,-0.003712766
1.014591,-0.1315999,0.1277102,-0.002920448,0.002507979,0.0087909,0.003175068,0.006832189,-0.002936304
1.015652,-0.1323152,0.1268958,-0.001853259,0.001835821,0.007998374,0.001788646,0.00634883,-0.004311387
1.015402,-0.1317407,0.126345,-0.002095908,0.002451068,0.007463688,0.002625297,0.003505606,-0.003021842
1.014821,-0.1317461,0.1284963,-0.002668032,0.002483841,0.009625264,0.00524487,0.004622126,-0.002486103
1.01541,-0.1312485,0.1269758,-0.002068353,0.003017124,0.008109255,0.004320529,0.00509508,-0.007492965
1.01321,-0.1296637,0.125499,-0.004255751,0.004634958,0.006631154,0.003329388,0.005155151,-0.01117748
1.012657,-0.1288662,0.1268663,-0.004794429,0.005462898,0.007991217,0.0009739916,0.003337029,-0.01208637
1.016099,-0.1273749,0.126359,-0.001336019,0.006981659,0.00747103,-0.002648401,0.0001474547,-0.01020306
1.019419,-0.1277334,0.1261531,0.002001473,0.006647732,0.007246441,-0.0007437487,0.0009274646,-0.005836352
1.019429,-0.1304796,0.1259777,0.002030381,0.003922767,0.007046816,0.0007288506,-0.002472462,-0.004760245
1.0187,-0.1327799,0.1225874,0.001322332,0.001640517,0.003626778,-0.00161389,-0.002689947,-0.006288059
1.019596,-0.1347565,0.1198325,0.002239594,-0.0003213378,0.0008368493,-0.002016636,0.002155923,-0.006928539
1.01669,-0.1337822,0.1213407,-0.0006433181,0.000664527,0.002305146,-0.0004824042,-0.0001371183,-0.008529609
1.014148,-0.1305704,0.1260062,-0.003162829,0.003885108,0.006926087,0.001868795,0.0008401175,-0.009014359
1.016515,-0.1286807,0.1286969,-0.0007718102,0.005780555,0.009567906,0.002717063,-0.0001054377,-0.006110711
1.017118,-0.1289745,0.127149,-0.0001443158,0.005489626,0.00796681,0.0001665339,-0.00568974,-0.004855777
1.016329,-0.1314713,0.1255764,-0.0009084512,0.002992778,0.006336709,0.0001937145,-0.001735576,-0.004441816
1.015754,-0.1328654,0.1253488,-0.001457692,0.001595537,0.006047406,0.00258091,-0.0003356701,-0.003286796
1.014994,-0.1329888,0.1215027,-0.00219121,0.001466209,0.00213548,0.002692558,-0.002118078,-0.003788323
1.015289,-0.1326155,0.1159705,-0.001869796,0.001830853,-0.003466163,0.005340085,0.001514396,-0.002807692
1.015495,-0.1296174,0.1175152,-0.001637413,0.004817614,-0.001994218,0.005713291,0.002962633,-0.002788656
1.016184,-0.1285114,0.1199163,-0.0009216942,0.005909699,0.0003314284,-0.0007375245,0.002208985,-0.005107931
1.016908,-0.1304823,0.1197075,-0.0001701208,0.003922292,4.488489e-05,-0.002585021,-4.309497e-05,-0.004304145
1.01658,-0.1307734,0.1259251,-0.0004694257,0.003612003,0.006182747,-0.0005708834,-0.002837512,-0.003040079
1.015652,-0.1305307,0.1299609,-0.001369863,0.003832984,0.01013716,0.0004434977,-0.004167579,-0.002573056
1.014981,-0.1298209,0.1274865,-0.002012936,0.004518561,0.007579512,0.001652168,-0.003791974,-0.001175328
1.015853,-0.1263814,0.1294097,-0.001112169,0.007931315,0.009417524,0.0008660017,-0.001272271,-0.001134966
1.018017,-0.1213795,0.1325186,0.001080537,0.01290383,0.01243936,0.0005732339,-0.0007351272,-0.001977362
1.020207,-0.119617,0.1306937,0.00329902,0.01463402,0.01052522,-0.000979935,-0.0008268278,-0.002956126
1.018915,-0.1226561,0.1245402,0.002035793,0.0115595,0.004280267,-0.004447268,-0.0002412227,-0.004211834
1.014303,-0.1249101,0.1185554,-0.002548494,0.009266414,-0.001798243,-0.006288906,0.001130214,-0.004657486
1.011865,-0.1270025,0.1193519,-0.004958153,0.007131302,-0.001097282,-0.008111589,0.003084202,-0.004121811
1.013817,-0.1298988,0.1215835,-0.002979392,0.00418848,0.001037261,-0.006221498,-0.0008432706,-0.002937327
1.016541,-0.1306055,0.1208066,-0.0002278923,0.003431604,0.000162186,-0.002063924,-0.004596874,-0.001514817
1.015489,-0.1327541,0.1238677,-0.001252267,0.001229429,0.00312433,0.00207065,-0.001572844,-0.002601791
1.015377,-0.1332509,0.1284796,-0.001336613,0.0006757777,0.007636688,0.007351176,0.0008887717,-0.007068589
1.017522,-0.1287089,0.1298081,0.0008354375,0.005158071,0.008865188,0.003474899,0.001677204,-0.009815431
1.015611,-0.1253857,0.1306645,-0.00104874,0.008418929,0.009620958,-0.008450061,0.001941127,-0.007953273
1.014727,-0.1232223,0.1284452,-0.001905625,0.01051729,0.007300241,-0.01641641,0.0001783074,-0.001964227
1.016683,-0.1230122,0.1240431,7.744725e-05,0.01065957,0.002795944,-0.01582281,0.002249244,0.00301586
1.01618,-0.1269591,0.1233519,-0.0003993664,0.006642049,0.002001763,-0.009564623,0.00788254,0.002188151
1.014093,-0.130457,0.1253553,-0.002459904,0.003070517,0.003901577,-0.004621365,0.009006069,0.001606542
1.011797,-0.1325018,0.1272237,-0.004730327,0.0009494097,0.005666012,0.0009878834,0.009622831,0.001601158
1.013142,-0.131724,0.1266679,-0.003359692,0.001648456,0.005005927,0.003932376,0.009988859,-0.0007553426
1.015924,-0.1294995,0.126162,-0.0005512141,0.003791978,0.004395434,0.0053616,0.00541345,-0.001281718
1.0151,-0.1317246,0.1258892,-0.001349397,0.001483952,0.004017843,0.01169838,0.00417708,-0.0007713297
1.015185,-0.1318728,0.1221924,-0.001238809,0.001251288,0.0002161519,0.009852987,0.008635329,-0.0002823026
1.015556,-0.1265994,0.1202323,-0.0008412729,0.006438677,-0.001848844,0.007235653,0.01360941,-0.001237409
1.014769,-0.1225597,0.1195195,-0.001602551,0.01039112,-0.00266609,0.01088385,0.01238717,-0.003641847
1.014804,-0.1201398,0.1176394,-0.001541226,0.01272226,-0.00464988,0.006338617,0.00659729,-0.003296218
1.014975,-0.119453,0.1185176,-0.001344319,0.01331876,-0.003874247,0.0005699443,0.006848344,-0.001069126
1.018025,-0.1206375,0.1190014,0.001732061,0.01204199,-0.003491438,-0.00169718,0.007012885,0.001890707
1.020238,-0.1244892,0.1193037,0.003970642,0.008095971,-0.003288217,0.00137371,0.005079367,0.001256268
1.016578,-0.1298788,0.1213198,0.0003365594,0.00260971,-0.001368906,0.004916806,0.00491309,-0.002741173
1.014195,-0.1312997,0.1251607,-0.002021144,0.001090141,0.002377498,-0.001936195,0.004578688,-0.003032849
1.016482,-0.130134,0.1297451,0.0002905008,0.002155292,0.006870028,-0.00690584,0.008972086,-0.003000845
1.018282,-0.1275628,0.1230982,0.00211527,0.004624517,0.000133514,-0.01253082,0.0126984,-0.003101062
1.017684,-0.1255495,0.1146224,0.001540706,0.006534435,-0.008429536,-0.0188576,0.01227264,-0.002045863
1.017233,-0.1786328,0.07394167,0.008198024,0.01692719,0.03188306,0.05639481,0.01858075,-0.1125329
1.02078,-0.1801883,0.07420338,0.01115902,0.01305036,0.03029812,0.06421742,0.01412746,-0.1137051
1.022015,-0.1746056,0.07146581,0.01182301,0.01637586,0.02575381,0.06496385,0.015253,-0.1149292
1.013923,-0.1673363,0.07407508,0.003173544,0.02145271,0.02659682,0.06006233,0.01618864,-0.1190515
1.006968,-0.1617834,0.07258863,-0.004325165,0.02487819,0.02338512,0.04896006,0.005095618,-0.1071802
1.009698,-0.1625424,0.070898,-0.002123941,0.02205692,0.02001074,0.0387803,-0.006359265,-0.0887724
1.01524,-0.1691944,0.07349093,0.00290389,0.01340734,0.02096188,0.03312054,-0.002898456,-0.09352988
1.015195,-0.1740253,0.07356373,0.002360913,0.00664356,0.01943522,0.03154106,0.001508259,-0.09709736
1.015721,-0.1743972,0.07349235,0.002403893,0.004403607,0.01780698,0.034721,-0.0001813644,-0.09283408
1.01637,-0.1731687,0.07328736,0.002586559,0.003828811,0.01608796,0.03331216,-0.007658012,-0.09764772
1.016065,-0.1741293,0.07300456,0.001829836,0.001129775,0.0143341,0.03060716,-0.01784767,-0.09361844
1.016639,-0.1776702,0.0739238,0.00196754,-0.004084819,0.01382538,0.03060365,-0.01643334,-0.08806421
1.014601,-0.1783032,0.07172931,-0.000490111,-0.006326674,0.01024609,0.02918194,-0.01258416,-0.09165496
1.016348,-0.171557,0.06966766,0.0008516326,-0.001124799,0.006842852,0.02733168,-0.01663751,-0.08919949
1.019555,-0.165456,0.06976488,0.003669496,0.003496323,0.005641781,0.02163969,-0.01709402,-0.08455567
1.01886,-0.1751972,0.06586934,0.00260093,-0.007661043,0.0004913414,0.01670108,-0.01862954,-0.0808291
1.018163,-0.1889846,0.06050597,0.00154531,-0.02280139,-0.006083381,0.01874303,-0.02299647,-0.07852497
1.016187,-0.1887571,0.06022309,-0.000773898,-0.02386383,-0.007533783,0.02501047,-0.01521835,-0.07974697
1.018057,-0.1896414,0.06695217,0.0007665998,-0.02597479,-0.001928105,0.03743506,-0.004255281,-0.07779069
1.02006,-0.1932046,0.07516997,0.002454938,-0.03070157,0.005210464,0.05244739,-0.001951591,-0.07806432
1.014386,-0.190669,0.07656519,-0.003519379,-0.02926621,0.005570322,0.05760522,-0.005181698,-0.07987649
1.011006,-0.1927862,0.07724556,-0.007185538,-0.03242044,0.005258633,0.05500155,-0.01100028,-0.07733236
1.012932,-0.1940368,0.0775815,-0.005530863,-0.034645,0.004645088,0.05735446,-0.01024585,-0.07886776
1.015973,-0.1920609,0.06821178,-0.002747691,-0.03358016,-0.005632194,0.06144259,-0.006778691,-0.08219495
1.018142,-0.193718,0.05900912,-0.0008227494,-0.03608571,-0.015701,0.0646365,-0.002812331,-0.08252097
1.018342,-0.1927059,0.05962203,-0.0008529776,-0.03586002,-0.01591294,0.07088536,0.004629038,-0.08188966
1.018079,-0.1913406,0.06567193,-0.001332532,-0.03521943,-0.01064664,0.07191059,0.001507614,-0.07902912
1.01777,-0.1892636,0.06997103,-0.001844855,-0.03380625,-0.007090059,0.06740848,-0.003408948,-0.07789097
1.018301,-0.1860231,0.06686846,-0.001504679,-0.03116945,-0.01089452,0.06355728,-0.001251702,-0.07832987
1.018242,-0.1884372,0.06087734,-0.00174117,-0.03412812,-0.01754739,0.06206245,-0.001328328,-0.08008383
1.018684,-0.1915711,0.05716938,-0.001465842,-0.03774853,-0.02187733,0.06582259,0.002915129,-0.08345742
1.020084,-0.1930151,0.05792269,-0.0002194561,-0.03962204,-0.02170643,0.06856084,0.008316123,-0.08104616
1.018384,-0.1909982,0.06242226,-0.002061813,-0.0379787,-0.01774993,0.06653051,0.009417551,-0.07845439
1.014829,-0.1862429,0.06367596,-0.005749168,-0.03354197,-0.0170003,0.0655756,0.006712506,-0.07722106
1.011403,-0.1877694,0.06321378,-0.009295238,-0.03533347,-0.01792807,0.06838883,-0.001715958,-0.07198738
1.012424,-0.1911965,0.06349733,-0.008384467,-0.03897318,-0.01807225,0.07438038,-0.003726403,-0.07177727
1.01729,-0.1924869,0.06404707,-0.003617448,-0.04042516,-0.01791304,0.07943482,-0.00064704,-0.07267514
1.018205,-0.1928622,0.06721367,-0.002791421,-0.04091223,-0.01510048,0.07855877,-0.0008592797,-0.06976256
1.016459,-0.1895696,0.06845147,-0.004616183,-0.03768289,-0.01418108,0.07392638,-8.166371e-05,-0.07049102
1.014947,-0.1869822,0.0671571,-0.006197646,-0.03511157,-0.01575912,0.06932112,1.063886e-05,-0.07104773
1.016607,-0.1859538,0.06658183,-0.004596899,-0.0340535,-0.01658431,0.06163557,0.003119552,-0.07117832
1.018771,-0.1846871,0.06738985,-0.002482582,-0.03271298,-0.0159934,0.0543987,0.01063015,-0.07356207
1.013954,-0.1826761,0.06974832,-0.007340418,-0.03058583,-0.0138202,0.05059641,0.01372381,-0.07606596
1.010055,-0.1763296,0.0690398,-0.01127105,-0.02408255,-0.01468317,0.04324706,0.01258466,-0.07900683
1.011657,-0.1729172,0.06612316,-0.009693368,-0.02047467,-0.01772449,0.03436276,0.01211171,-0.07937261
1.014517,-0.1745524,0.06304233,-0.006848127,-0.02187794,-0.0209012,0.02550838,0.01340651,-0.0788887
1.018752,-0.1760353,0.06182138,-0.002619912,-0.02309452,-0.02219006,0.02152319,0.01224344,-0.07771448
1.019932,-0.1823052,0.06685568,-0.001438109,-0.02906575,-0.01719651,0.02678668,0.008588772,-0.07555027
1.016553,-0.1871497,0.07191698,-0.004808531,-0.03358117,-0.01214967,0.02815507,0.00696195,-0.07960472
1.013654,-0.1852863,0.07085221,-0.007690638,-0.03135969,-0.01320368,0.02724309,0.008161331,-0.08230515
1.012528,-0.1855794,0.06439632,-0.008793508,-0.03126724,-0.01962473,0.03027963,0.01111827,-0.07926277
1.011806,-0.1855567,0.06127168,-0.009485817,-0.03083281,-0.02269143,0.03017167,0.01053159,-0.07767994
1.014756,-0.1820944,0.06476678,-0.006498511,-0.02693423,-0.0191161,0.0248777,0.009359218,-0.07492864
1.020137,-0.1805526,0.0668255,-0.001074806,-0.02493289,-0.01695567,0.01762025,0.009508902,-0.07444555
1.018005,-0.1815802,0.07210393,-0.003156548,-0.02547939,-0.01155493,0.01646109,0.001821324,-0.07778515
1.013823,-0.183121,0.07546833,-0.007283699,-0.02651915,-0.008048753,0.01918456,-0.007867811,-0.07809744
1.015126,-0.1837155,0.06967167,-0.005920291,-0.02659409,-0.01368539,0.02325619,-0.01023901,-0.07546334
1.017836,-0.1829035,0.06253594,-0.003145226,-0.02524537,-0.02064399,0.02893014,-0.003556602,-0.0724935
1.021705,-0.1817467,0.05354644,0.0007949236,-0.02353607,-0.02944005,0.02438842,0.0050787,-0.07454452
1.019222,-0.1823328,0.05735154,-0.001613896,-0.02355542,-0.02542572,0.01657497,0.001344288,-0.07852236
1.01406,-0.1853871,0.06774847,-0.006696988,-0.02602997,-0.01480419,0.01530668,-0.001254499,-0.07872889
1.017378,-0.1872163,0.06222014,-0.003297203,-0.02726761,-0.02009317,0.01804163,0.008500016,-0.0809736
1.017444,-0.1858464,0.066077,-0.003144939,-0.02529562,-0.01598301,0.02346066,0.01579853,-0.08378983
1.015407,-0.185867,0.07487659,-0.005093621,-0.02470451,-0.006917029,0.01946841,0.02063137,-0.08326111
1.017433,-0.187043,0.06716266,-0.002976324,-0.0252603,-0.01435249,0.01421342,0.02543629,-0.08230362
1.015303,-0.1847742,0.06406681,-0.005012536,-0.02236397,-0.01715882,0.01874429,0.02913412,-0.08084765
1.013101,-0.1822093,0.06518642,-0.007117977,-0.019165,-0.01573947,0.01889799,0.02912174,-0.07702899
1.010711,-0.1809768,0.067273,-0.009409962,-0.01729325,-0.01334368,0.01872987,0.01620112,-0.06966444
1.007664,-0.1784083,0.07319018,-0.01235667,-0.01408137,-0.007108628,0.02125826,0.002754614,-0.05742716
1.010354,-0.1759101,0.07132341,-0.00956395,-0.01093698,-0.008649818,0.02436813,-0.003279939,-0.04249561
1.012302,-0.1751686,0.07241766,-0.007510282,-0.009547847,-0.007223281,0.03651083,-0.008090735,-0.03193671
1.012252,-0.1751166,0.08063379,-0.007452601,-0.008847976,0.001330775,0.04403335,-0.009344175,-0.02591223
1.0132,-0.1740066,0.08283012,-0.006394752,-0.007091361,0.003869491,0.04009981,-0.01110419,-0.02375627
1.013823,-0.1713555,0.07931897,-0.005659032,-0.003795951,0.0007038644,0.03329623,-0.01091178,-0.03010217
1.017639,-0.1676328,0.07669856,-0.001728977,0.0005672716,-0.001569159,0.02084004,-0.007782462,-0.03569972
1.020419,-0.1677412,0.07957451,0.001166896,0.00109415,0.00165496,0.007445524,-0.007688333,-0.03177861
1.016695,-0.1733439,0.08189592,-0.002439286,-0.003879627,0.004324261,0.0006746283,-0.006112033,-0.02733613
1.013848,-0.1779952,0.07965992,-0.005168391,-0.007909785,0.002434826,0.003393751,-0.006323448,-0.02732458
1.015473,-0.1802777,0.07951128,-0.003424531,-0.009579513,0.002630417,0.01208673,-0.006671995,-0.02620162
1.015787,-0.1782078,0.08158707,-0.002989921,-0.006906099,0.005047164,0.01735056,-0.0001839303,-0.02576309
1.015476,-0.171752,0.08282275,-0.003180995,0.0001435686,0.006619621,0.02151331,0.00530904,-0.03103417
1.019029,-0.1670495,0.0803234,0.0004916694,0.005429257,0.004451987,0.0250842,0.004928774,-0.03624799
1.02225,-0.1651356,0.07633333,0.003833408,0.007914939,0.0007877841,0.02414402,0.003494151,-0.03798999
1.021872,-0.1659769,0.07720142,0.003574791,0.007632931,0.001975256,0.01912912,0.004309069,-0.03884984
1.021173,-0.1673782,0.0799285,0.002994533,0.006777398,0.005014723,0.01000376,0.00170171,-0.03752055
1.019101,-0.1700617,0.08210891,0.001039306,0.00462517,0.007499989,0.0067985,-0.003007033,-0.03398463
1.015625,-0.1732211,0.07998651,-0.002320735,0.001982067,0.005674319,0.01469649,-0.003695939,-0.03341305
1.016931,-0.17181,0.07384693,-0.0009012206,0.003893812,-0.0001771456,0.02115578,-0.006302184,-0.03588374
1.019466,-0.1713617,0.07423501,0.001745638,0.004826739,0.0004901115,0.020432,-0.009620224,-0.03438794
1.017387,-0.1692357,0.07417965,-0.0002232736,0.007420997,0.0007048204,0.02228563,-0.01081685,-0.0327512
1.01659,-0.1648504,0.07091006,-0.0009137713,0.01225776,-0.002303898,0.02699969,-0.009948619,-0.03439865
1.016247,-0.1667651,0.07346367,-0.00115153,0.01077709,0.0005013706,0.02052604,-0.002621149,-0.0345508
1.014136,-0.1673799,0.07426088,-0.003160344,0.01057852,0.00154104,0.01064101,0.001729884,-0.03492897
1.014646,-0.1665022,0.07346872,-0.002550282,0.01185426,0.0009820837,0.008100925,-0.003531144,-0.03228469
1.014498,-0.1698865,0.07571293,-0.002601815,0.008849397,0.003450222,0.002542706,-0.007999945,-0.02659467
1.015876,-0.1724907,0.07690995,-0.001128082,0.006605892,0.004861827,-0.002025203,-0.006656502,-0.02461167
1.018847,-0.1725371,0.07760427,0.001935396,0.006901386,0.005761277,-0.0008616901,-0.006495564,-0.02442122
1.014516,-0.170941,0.07764453,-0.002305764,0.008820541,0.005997054,0.0009088614,-0.01023532,-0.0249527
1.010624,-0.1712684,0.07670416,-0.00611027,0.008797592,0.005242478,0.003826452,-0.01069411,-0.02542713
1.013694,-0.174605,0.07162226,-0.002955449,0.005746802,0.000336581,0.003199862,-0.008472083,-0.02493086
1.017494,-0.177137,0.06614254,0.0009275416,0.003482275,-0.004976814,0.001481645,-0.008286234,-0.02347743
1.020298,-0.1760652,0.06949265,0.003812237,0.004803484,-0.001469753,0.002089772,-0.008725537,-0.01885239
1.019584,-0.1738193,0.07351729,0.003177432,0.007281147,0.002702838,-0.0001279781,-0.009111397,-0.01438458
1.015889,-0.1756294,0.07472534,-0.0004425703,0.005685503,0.004050064,-0.0001435208,-0.01054422,-0.01423909
1.014732,-0.1772897,0.07872598,-0.001526667,0.004222706,0.008181188,0.006469611,-0.01321679,-0.01562247
1.015647,-0.17758,0.07897893,-0.0005409082,0.004113474,0.00855589,0.0139904,-0.01378889,-0.01320118
1.017512,-0.1783307,0.07636071,0.001391721,0.003527726,0.006050598,0.01559516,-0.0134537,-0.009632297
1.020425,-0.1763777,0.07805301,0.004369516,0.005630107,0.007846955,0.01434836,-0.01248984,-0.009632283
1.021474,-0.1760434,0.0774306,0.005481716,0.006098826,0.007319718,0.01564829,-0.008709241,-0.01387043
1.0207,-0.1769817,0.07499601,0.004766631,0.005280206,0.004971434,0.01309196,-0.00892074,-0.02379713
1.02067,-0.1770605,0.0760795,0.004792567,0.005307026,0.006132448,0.01100786,-0.009698516,-0.02860183
1.020987,-0.1792139,0.07500443,0.005162311,0.003245482,0.005126243,0.01543452,-0.006270778,-0.02407268
1.020641,-0.1791464,0.07544093,0.004865586,0.003391668,0.005623105,0.01825156,-0.004821569,-0.02298577
1.019138,-0.1767347,0.07926707,0.003408025,0.005869462,0.009501249,0.02130975,-0.004731151,-0.02225783
1.015513,-0.1740936,0.08191859,-0.0001746347,0.008564465,0.01219648,0.02065501,-0.008921808,-0.01915353
1.011774,-0.1717931,0.08515098,-0.003875862,0.01090708,0.0154642,0.01456932,-0.01587224,-0.01809128
1.012486,-0.1722507,0.083277,-0.003128787,0.01048009,0.01361701,0.01588847,-0.01592063,-0.0129083
1.01626,-0.1725045,0.07827315,0.0006772276,0.01024552,0.008631254,0.01673726,-0.01346472,-0.00735023
1.018942,-0.172933,0.07494519,0.003388739,0.009825168,0.005312707,0.01471027,-0.0133382,-0.01006087
1.02019,-0.1741003,0.07042557,0.004661898,0.00865532,0.0007940761,0.01642127,-0.01251595,-0.01535179
1.018856,-0.173536,0.07170776,0.003351703,0.009206413,0.002069229,0.01460364,-0.008762241,-0.01783608
1.016317,-0.1734894,0.07339001,0.000833054,0.00922975,0.00373692,0.01356699,-0.004356168,-0.02062267
1.015483,-0.1732103,0.06926198,1.62993e-05,0.009475704,-0.0004127242,0.01436835,-0.005491746,-0.02193978
1.017419,-0.1706688,0.06967752,0.001966092,0.01197454,-2.53548e-05,0.01395513,-0.007976023,-0.01982386
1.020064,-0.1679556,0.07245207,0.004623093,0.01463576,0.002714972,0.01482788,-0.008261308,-0.01888245
1.016195,-0.16886,0.07329959,0.0007637058,0.01367023,0.003522705,0.01161623,-0.01460281,-0.01593769
1.012085,-0.1732977,0.07026401,-0.003339525,0.009162403,0.0004421333,0.006424988,-0.02067164,-0.01194821
1.016444,-0.1763878,0.063371,0.001023161,0.00599346,-0.006500599,0.002025661,-0.0141569,-0.01439692
1.019837,-0.1777042,0.06331747,0.004418534,0.004589989,-0.006607982,-0.001623355,-0.0047981,-0.01867516
1.020278,-0.1780866,0.06656705,0.004859233,0.004112752,-0.003415659,-0.002169825,-0.001634329,-0.02146001
1.020842,-0.1773964,0.06776258,0.005420215,0.004700934,-0.002280132,-0.002035342,-0.000120332,-0.02057814
1.017826,-0.176939,0.072411,0.002400011,0.005049738,0.002306034,-7.651855e-05,-0.002425886,-0.0119018
1.014804,-0.1761718,0.07665963,-0.000629489,0.005702222,0.006490478,0.003564361,-0.008416914,-0.003411134
1.014935,-0.1761701,0.07757949,-0.0005078315,0.005583679,0.007344335,0.007306796,-0.01158229,0.0003536142
1.015593,-0.1763568,0.07815145,0.0001389594,0.00527155,0.007848448,0.008212295,-0.01612872,0.00571082
1.015272,-0.1744184,0.07890876,-0.0001957063,0.00707988,0.008535991,0.005096492,-0.01924168,0.009541515
1.01506,-0.1730492,0.07759191,-0.0004226314,0.008314639,0.007147388,0.004269399,-0.01255249,0.006253009
1.014804,-0.1739003,0.07601853,-0.0006949409,0.007325035,0.005500213,0.004135254,-0.008025268,0.004798086
1.011597,-0.176004,0.07675094,-0.003919058,0.005079194,0.006156794,0.009210874,-0.01255518,0.008081988
1.008925,-0.1782644,0.07520992,-0.006609443,0.002673179,0.004537963,0.02294946,-0.01547619,0.008555993
1.011434,-0.1780426,0.07375164,-0.004119853,0.002746337,0.003,0.02839206,-0.01424428,0.007874037
1.015121,-0.1758151,0.07179629,-0.0004523263,0.00482278,0.0009632444,0.02343053,-0.01484734,0.005161346
1.016758,-0.1758472,0.06719362,0.001165084,0.00463745,-0.003722287,0.01916395,-0.01703959,0.001200144
1.018396,-0.1767316,0.06863343,0.002783133,0.003598134,-0.00236641,0.01360299,-0.01582125,0.004047079
1.01875,-0.1738177,0.07197942,0.00311821,0.006355567,0.0008949881,0.005610139,-0.01504108,0.01199851
1.017158,-0.169958,0.07332275,0.001505981,0.01005772,0.002153381,0.004304845,-0.01769229,0.02402183
1.017304,-0.1679867,0.0759105,0.001631558,0.01187027,0.004656048,0.007349037,-0.01840754,0.03163528
1.016987,-0.1680459,0.0749252,0.001294016,0.01165133,0.003585582,0.003347929,-0.01867335,0.02253568
1.01685,-0.171674,0.07255823,0.001136633,0.007862196,0.001133433,-0.0012472,-0.01833907,0.01141843
1.019131,-0.1757173,0.07191003,0.00339718,0.003656826,0.0004001531,-0.004521088,-0.0127687,0.008020122
1.01891,-0.177755,0.07108598,0.003155044,0.001456099,-0.0005087104,-0.00819212,-0.007628506,0.005074659
1.01918,-0.1795089,0.07078426,0.003403428,-0.0004613849,-0.0008947561,-0.003164719,-0.00981092,0.003877431
1.019845,-0.1825878,0.07160764,0.00404661,-0.003703892,-0.0001550035,0.0002393901,-0.01286673,0.0007099101
1.017029,-0.1839464,0.07535926,0.001208408,-0.005225651,0.003513881,-0.00295932,-0.01063509,-0.003088957
1.016109,-0.1791164,0.07849071,0.0002659268,-0.0005577499,0.006563543,-0.002872511,-0.01095672,0.002725785
1.015477,-0.1753806,0.07408447,-0.0003899402,0.003017548,0.002076408,-0.00311631,-0.01362299,0.009270479
1.013151,-0.1766273,0.06749949,-0.002739761,0.001612196,-0.004588585,-0.004071412,-0.01286623,0.01031721
1.012429,-0.1774211,0.06730618,-0.003486014,0.0006618069,-0.004860822,-0.003423159,-0.01315442,0.01409112
1.01453,-0.1783573,0.06908476,-0.001408677,-0.0004286798,-0.003159761,-0.001520647,-0.01210893,0.01591967
1.018992,-0.1794848,0.06954247,0.003028811,-0.001707934,-0.002777853,0.0005866635,-0.01139568,0.0110058
1.019733,-0.180135,0.07118863,0.003746755,-0.00250704,-0.001205532,-0.0008248623,-0.01762755,0.008930628
1.016477,-0.1802416,0.06962297,0.0004667627,-0.002759457,-0.002842896,-0.002310639,-0.02474323,0.01290182
1.015003,-0.1805176,0.0649581,-0.001030859,-0.003177896,-0.007577151,-0.002031483,-0.02627223,0.01562688
1.017804,-0.182889,0.06324764,0.00174725,-0.005687913,-0.00935438,-0.00231712,-0.01841557,0.01420282
1.021854,-0.183723,0.06492621,0.005773592,-0.006656418,-0.007739587,-0.002166227,-0.009388569,0.01300463
1.020885,-0.1834243,0.06781001,0.004781454,-0.006487867,-0.004916191,-0.002570604,-0.009245412,0.01293859
1.019257,-0.1844886,0.06873372,0.00312966,-0.007677344,-0.00404926,-0.006276963,-0.008365155,0.009970933
1.019767,-0.1858832,0.06854213,0.003616265,-0.009192035,-0.004293871,-0.00878573,-0.005587987,0.007287766
1.018534,-0.1875676,0.06889217,0.00235899,-0.01099092,-0.003992983,-0.005741857,-0.009277906,0.00772547
1.016909,-0.187621,0.06751645,0.0007091459,-0.01115276,-0.005413934,-0.00321706,-0.01464061,0.005357411
1.014626,-0.1866617,0.06593283,-0.001598749,-0.01029553,-0.007038756,-0.0001885424,-0.01364651,0.001096748
1.014603,-0.184101,0.06547337,-0.001647232,-0.007830105,-0.007535267,0.002105803,-0.008650477,0.0004212295
1.016246,-0.1808276,0.06702974,-3.011859e-05,-0.004644993,-0.006011624,-0.004242365,-0.009815625,0.001889613
1.014789,-0.1825574,0.07040696,-0.001512049,-0.006456022,-0.00266271,-0.008075038,-0.0145746,0.003885695
1.015124,-0.1840665,0.06957214,-0.001202739,-0.008039155,-0.003521423,-0.005535087,-0.01427828,0.00751396
1.015638,-0.1809402,0.06618766,-0.0007144659,-0.004979826,-0.006925442,-0.005518373,-0.01319465,0.0128389
1.013835,-0.1789482,0.0662757,-0.002542367,-0.003047682,-0.006852579,-0.00673148,-0.01182608,0.01658925
1.013732,-0.1797687,0.06724031,-0.002669219,-0.003921105,-0.005898728,-0.00981687,-0.009284177,0.01481294
1.012924,-0.1827856,0.06761017,-0.003501851,-0.00698397,-0.005535178,-0.01261549,-0.01030037,0.009531247
1.012162,-0.1858536,0.06914047,-0.004286897,-0.01009128,-0.004006748,-0.01221928,-0.01017964,0.004266215
1.01299,-0.1849217,0.06960492,-0.003480288,-0.009191828,-0.003539813,-0.01086599,-0.008482487,-0.001078009
1.0142,-0.1826499,0.06711984,-0.002291497,-0.006945607,-0.006018134,-0.008611368,-0.009670223,-0.003103161
1.015916,-0.1817115,0.06421775,-0.0005953513,-0.006025935,-0.008909273,-0.007301975,-0.01008929,-0.001220878
1.015443,-0.1800325,0.0633454,-0.001086545,-0.00435901,-0.00976643,-0.006486038,-0.01057043,-0.001149853
1.014815,-0.1801009,0.06340262,-0.001731421,-0.004432871,-0.009689661,-0.007523353,-0.01083388,0.0003032954
1.015623,-0.1812904,0.0614471,-0.0009388414,-0.005621457,-0.01162114,-0.01105357,-0.009103254,0.00653479
1.015187,-0.1812104,0.05923051,-0.001388892,-0.005534482,-0.01380902,-0.01127233,-0.009220652,0.0109692
1.015354,-0.1858348,0.06264468,-0.001234783,-0.0101459,-0.01036127,-0.009814035,-0.01022796,0.01034317
1.016521,-0.1905827,0.06814071,-7.892542e-05,-0.01487487,-0.004826663,-0.008318393,-0.01074774,0.01059017
1.017694,-0.1871088,0.06871046,0.001083801,-0.0113759,-0.004213401,-0.005661029,-0.01071174,0.01549471
1.018497,-0.1836884,0.06810314,0.001878768,-0.007924409,-0.004772467,-0.005344797,-0.01010652,0.01736228
1.017786,-0.1848637,0.06986414,0.001159624,-0.009062323,-0.00295873,-0.004905561,-0.01051355,0.01488674
1.017184,-0.1846909,0.07106275,0.000550388,-0.008846119,-0.001703179,-0.002176753,-0.01001655,0.01339897
1.01749,-0.1825501,0.06926329,0.0008507495,-0.006656021,-0.003441819,-0.001390641,-0.008376668,0.00982903
1.018104,-0.1819406,0.06705742,0.001460069,-0.005991346,-0.005583279,-0.003165488,-0.007096651,0.006598277
1.018374,-0.1835913,0.06985019,0.001725031,-0.007581274,-0.002722745,-0.004936106,-0.006980224,0.006291365
1.017283,-0.1849147,0.07751691,0.0006302668,-0.008838611,0.005014815,-0.004051668,-0.008001075,0.003541779
1.015169,-0.1817532,0.0830932,-0.001486415,-0.00560584,0.01066453,-0.002767625,-0.007636214,-0.0009509191
1.012573,-0.1769761,0.07767586,-0.004085912,-0.0007525549,0.005322492,-0.004548075,-0.007561238,-0.002127792
1.012748,-0.1783253,0.06857882,-0.003912751,-0.002021028,-0.003698037,-0.005876678,-0.008056635,0.0009563742
1.015681,-0.1820724,0.06937438,-0.000980966,-0.005683182,-0.002825134,-0.006688669,-0.006377855,0.005981397
1.015962,-0.1826267,0.06870409,-0.0007009624,-0.006148808,-0.003417403,-0.007902502,-0.00545406,0.01043893
1.01623,-0.1832328,0.06459114,-0.0004328708,-0.006662661,-0.007451722,-0.006992373,-0.00443334,0.009791169
1.017178,-0.1838343,0.0678046,0.0005164006,-0.007168447,-0.004159034,-0.006427643,-0.0001543658,0.006864425
1.014804,-0.183075,0.06851433,-0.001856467,-0.006310228,-0.003369461,-0.006823936,0.002894108,0.006835395
1.014571,-0.1828451,0.06753975,-0.002087238,-0.00597842,-0.004263637,-0.007358572,0.002163063,0.004839543
1.015937,-0.1818541,0.06894051,-0.0007181424,-0.00488262,-0.002781966,-0.008967389,0.001878941,0.005701647
1.014021,-0.1799746,0.06826633,-0.002629813,-0.002895604,-0.003374818,-0.009523105,0.003560318,0.01041886
1.013466,-0.1814014,0.07003671,-0.003179918,-0.004212509,-0.001522793,-0.006593011,0.004295953,0.009891012
1.014359,-0.183726,0.07011425,-0.00228196,-0.006425092,-0.0013634,-0.001713579,0.004616887,0.01145732
1.014636,-0.1832601,0.07076591,-0.001998794,-0.005845328,-0.0006298399,8.753536e-05,0.004859542,0.01427301
1.015415,-0.1833071,0.07537129,-0.00121195,-0.005776653,0.00405727,0.0002852347,0.003958979,0.01013272
1.014345,-0.1834624,0.07405842,-0.002273382,-0.005814566,0.00282568,0.001194311,0.004969478,0.007304382
1.012433,-0.1834865,0.0685153,-0.004176779,-0.005719962,-0.002636914,-0.0004119808,0.006650715,0.00884672
1.012856,-0.1854959,0.06356685,-0.003743737,-0.007609189,-0.007505733,-0.004619692,0.005958551,0.008702788
1.015781,-0.187618,0.06443036,-0.0008068047,-0.009609819,-0.006563427,-0.01058869,0.004775832,0.004429302
1.020185,-0.1888668,0.06795875,0.003609603,-0.01073581,-0.002956927,-0.01201804,0.005790848,0.002039354
1.021772,-0.1884334,0.06667452,0.005210369,-0.01017825,-0.004163615,-0.008135611,0.01281267,0.005924
1.019443,-0.1859747,0.07013414,0.002895097,-0.00759391,-0.0006270325,-0.006988045,0.01939194,0.007161458
1.018003,-0.1831229,0.07387961,0.001468824,-0.004615084,0.003194749,-0.004910846,0.01296178,0.006101369
1.018069,-0.1825875,0.07085699,0.0015496,-0.003951336,0.0002476116,-0.002982254,0.003272017,0.01086911
1.01741,-0.1839593,0.07032069,0.0009052334,-0.005193602,-0.000214246,-0.002243118,0.004368229,0.01295078
1.015276,-0.1832351,0.07106437,-0.001214817,-0.004338955,0.000602674,0.003232189,0.00692237,0.007384545
1.012382,-0.182103,0.07136382,-0.004094097,-0.003075658,0.000974054,0.005036885,0.00759438,0.003777533
1.012695,-0.1793389,0.07387941,-0.003767394,-0.0001798972,0.003560085,0.002754885,0.01171654,0.00530514
1.014968,-0.1755879,0.07747676,-0.00147914,0.003702949,0.007226175,0.0004716134,0.01154702,0.01042297
1.014556,-0.181447,0.07884974,-0.00187651,-0.002024483,0.008665861,-0.004877233,0.008586914,0.01548204
1.01438,-0.1921785,0.07720044,-0.002037588,-0.01262491,0.007080826,-0.003842081,0.006211217,0.01566308
1.014923,-0.19749,0.07752396,-0.001479347,-0.01780584,0.007465763,0.004353384,-0.003400084,0.01762347
1.014284,-0.1989205,0.07715345,-0.002103161,-0.01910586,0.00715348,0.01387051,-0.01511727,0.02392417
1.014694,-0.1947581,0.07492283,-0.001677339,-0.0148125,0.004977601,0.02446346,-0.01727854,0.02620375
1.014693,-0.1874435,0.07579692,-0.001662175,-0.007365981,0.005902737,0.02700489,-0.007961379,0.02421731
1.014515,-0.1826149,0.07674245,-0.001822981,-0.002404509,0.006895452,0.02335146,0.0004417934,0.02126766
1.016082,-0.1785463,0.07534783,-0.0002388007,0.001797849,0.005543977,0.01904071,-0.0014737,0.01828563
1.018071,-0.1780971,0.07058464,0.001767726,0.002381338,0.000819782,0.004165843,-0.004129837,0.01546769
1.019923,-0.1804374,0.06458564,0.003637209,0.0001752551,-0.005144295,-0.02361962,-0.003213801,0.007187369
1.017701,-0.1799346,0.06425304,0.00143325,0.0008119295,-0.005445776,-0.05334735,0.000578558,-0.005925629
1.01088,-0.1820007,0.06615499,-0.005370067,-0.001121077,-0.003516096,-0.07014924,0.006997268,-0.01231674
1.007191,-0.1869605,0.06512933,-0.009041591,-0.005948891,-0.004516995,-0.07115067,0.008299616,-0.01350602
1.01054,-0.1897582,0.064907,-0.005674184,-0.008615743,-0.004717182,-0.06596316,0.006801364,-0.01539935
1.014558,-0.1917865,0.06697576,-0.001638253,-0.01051427,-0.002628552,-0.05493536,0.007742714,-0.01007563
1.013246,-0.1927513,0.07131852,-0.002931025,-0.01135011,0.001732094,-0.038384,0.004391888,-0.002991362
1.013218,-0.1947414,0.07681262,-0.002939219,-0.01321192,0.00724219,-0.0145906,-0.006871435,-0.003746087
1.014817,-0.1955022,0.0758587,-0.001319537,-0.01384465,0.006302258,0.02161249,-0.01786687,-0.001902593
1.012358,-0.1933372,0.07235607,-0.003757321,-0.01155151,0.002811436,0.05231344,-0.01999257,0.004014172
1.012112,-0.1947801,0.07420785,-0.003980943,-0.01286584,0.004672703,0.06890789,-0.01719323,0.007410454
1.014446,-0.190285,0.07383288,-0.001623558,-0.008241557,0.004304842,0.07934793,-0.01235933,0.01030887
1.019163,-0.1698246,0.07264239,0.003117065,0.01234853,0.003119025,0.06198445,-0.003273794,0.01268954
1.02609,-0.1492872,0.07355771,0.01006887,0.03301576,0.004036533,0.01522997,0.004083349,0.01452087
1.023379,-0.1501106,0.07149957,0.007382043,0.03232077,0.001978104,-0.02041406,0.009112794,0.01344059
1.016345,-0.158164,0.07291399,0.000372368,0.02439265,0.003389776,-0.04263082,0.01115843,0.007558271
1.014835,-0.1532791,0.07739715,-0.001113441,0.02939807,0.007867734,-0.07993566,0.01025562,0.0007911249
1.014627,-0.162734,0.07981444,-0.00129763,0.02005758,0.01027726,-0.1163509,0.01719143,-0.01015519
1.01577,-0.1808556,0.07956736,-0.0001320981,0.002043205,0.01001963,-0.1200987,0.02137538,-0.02500706
1.015518,-0.1802443,0.07598195,-0.0003620715,0.002754323,0.006420629,-0.1130947,0.01740262,-0.03005064
1.014193,-0.1887874,0.07706949,-0.001664779,-0.005696468,0.007491359,-0.110042,0.0170945,-0.02388192
1.014165,-0.2012723,0.08029032,-0.001671787,-0.01809599,0.01069204,-0.09214813,0.01079908,-0.02025184
1.011722,-0.2010518,0.07864757,-0.004093901,-0.01779633,0.009025643,-0.06835832,0.003652078,-0.01513281
1.012024,-0.2060695,0.0756881,-0.003771138,-0.02273991,0.006038882,-0.04618499,0.004442424,-0.001912385
1.013462,-0.2072124,0.07156768,-0.0023124,-0.02381247,0.001887493,-0.02847198,0.003611291,0.004258106
1.012129,-0.2026793,0.06942087,-0.003624237,-0.01921163,-0.0002938265,-0.011761,0.003548707,0.00763072
1.01447,-0.1999438,0.06914598,-0.001263279,-0.01640989,-0.0006064712,0.006529645,0.000118786,0.01942585
1.016121,-0.1982676,0.06679011,0.0004089817,-0.01466822,-0.003002978,0.008196195,-0.004927578,0.02886198
1.014974,-0.1994796,0.06601236,-0.0007178219,-0.01581462,-0.003823841,0.02176406,-0.003603352,0.03471533
1.015856,-0.1958256,0.06749408,0.0001858799,-0.01209432,-0.002387259,0.0466538,-0.000987291,0.03284568
1.01794,-0.1920756,0.06948381,0.002290611,-0.00827701,-0.0004442703,0.04409529,0.006142308,0.02258529
1.019401,-0.1848317,0.0722569,0.003772134,-0.0009644627,0.002280782,0.03533724,0.01255103,0.01651868
1.015314,-0.1721379,0.07578517,-0.0002945796,0.01179929,0.005759891,0.02011932,0.009086997,0.01244805
1.010587,-0.1724327,0.07822224,-0.005001148,0.01157505,0.00814667,-0.006054452,0.001147014,0.01132853
1.013512,-0.1765005,0.07571714,-0.00205658,0.007577955,0.005590067,-0.01938955,-0.004200299,0.01086398
1.016057,-0.1783634,0.0693118,0.0005079213,0.005784923,-0.0008680722,-0.02241495,-0.001566917,0.006670994
1.01506,-0.1871441,0.06687078,-0.0004705701,-0.002926996,-0.00336306,-0.01833482,0.001626545,0.004224827
1.016196,-0.194026,0.0714464,0.0006845399,-0.009741495,0.001157697,-0.00998975,-0.002987109,0.00306663
1.017014,-0.1958406,0.07831383,0.001521976,-0.01148974,0.007969579,0.0008800265,-0.009915454,0.01242994
1.015027,-0.1970952,0.08422837,-0.0004474111,-0.01267865,0.01382783,0.01442392,-0.01426686,0.02679109
1.012306,-0.1993768,0.08535648,-0.003149717,-0.01489482,0.01489861,0.03159503,-0.01359663,0.02889589
1.010485,-0.1998462,0.0810245,-0.004953102,-0.01529835,0.0105078,0.05722415,-0.008690784,0.02611359
1.011754,-0.1952582,0.07089309,-0.003666212,-0.01064373,0.0003157649,0.07412897,-0.00164874,0.02493348
1.013757,-0.1913131,0.05933428,-0.001645779,-0.006630646,-0.01130541,0.07446801,0.006516288,0.02551716
1.013997,-0.1905059,0.06616269,-0.001388748,-0.005754092,-0.004540632,0.06891884,0.006854017,0.02272334
1.014522,-0.1882997,0.07904194,-0.0008459649,-0.003476964,0.008274227,0.05482993,0.005298748,0.01883005
1.010369,-0.183519,0.07413837,-0.004980716,0.001376016,0.003305727,0.03713229,0.01285595,0.02517001
1.00368,-0.1814899,0.07018854,-0.01165113,0.0034786,-0.0007095381,0.02974177,0.01319206,0.03651169
1.004944,-0.1822208,0.06664794,-0.01036844,0.002821996,-0.004315952,0.02483722,0.0140241,0.04982812
1.008132,-0.1818395,0.05531869,-0.007160763,0.00327791,-0.01571101,0.01571063,0.01753409,0.06024456
1.010968,-0.182987,0.05109631,-0.004303481,0.002205015,-0.01999848,0.01708276,-0.01810677,0.06423059
1.017229,-0.1828213,0.04504977,0.001980907,0.002444953,-0.02610839,0.01971075,-0.06695797,0.07254566
1.01616,-0.1770401,0.04309402,0.000935679,0.008299724,-0.02812455,0.006716125,-0.07667144,0.08500019
1.011272,-0.1657369,0.05118932,-0.003926525,0.01967532,-0.02008547,-0.0181336,-0.07935348,0.0968606
1.012129,-0.1535907,0.04800392,-0.00304333,0.0318917,-0.02332176,-0.06239652,-0.09979365,0.1037188
1.011439,-0.1507504,0.04750636,-0.003705588,0.03479891,-0.02386398,-0.116142,-0.1100306,0.1024522
1.013396,-0.1542447,0.05380478,-0.001720309,0.03136664,-0.01760316,-0.1607526,-0.1156235,0.1000263
1.01893,-0.1593612,0.05102318,0.003844189,0.02630565,-0.02041461,-0.1878593,-0.1297297,0.09973518
1.018072,-0.1721583,0.05082505,0.0030165,0.01355653,-0.02063432,-0.1839198,-0.1282355,0.09716778
1.015332,-0.1911771,0.05207388,0.0003078985,-0.005422344,-0.01939829,-0.1753603,-0.1268176,0.09064442
1.009671,-0.2073248,0.05050358,-0.005321642,-0.02153787,-0.02097218,-0.1751913,-0.1383969,0.08698146
1.002166,-0.2165123,0.04978266,-0.0127945,-0.0306998,-0.02168708,-0.1607234,-0.138434,0.09303515
1.001605,-0.2224698,0.04606696,-0.0133229,-0.0366367,-0.02538676,-0.1378191,-0.1450522,0.1098274
1.000397,-0.2250841,0.04179117,-0.01449621,-0.0392334,-0.02963604,-0.1109826,-0.1614479,0.1262408
0.9985728,-0.2219336,0.03594445,-0.01628472,-0.0360662,-0.03544519,-0.09942604,-0.168574,0.1270432
1.000368,-0.2160058,0.0309264,-0.01445074,-0.03012073,-0.0404138,-0.110734,-0.1613596,0.1171396
0.997426,-0.2111439,0.0303258,-0.01735197,-0.02523853,-0.04095219,-0.1159215,-0.1407215,0.1086209
0.9949989,-0.2134454,0.0301516,-0.01973451,-0.02751588,-0.04105043,-0.1256375,-0.1354602,0.1045649
1.002306,-0.2193472,0.03092318,-0.01237859,-0.03338866,-0.04018824,-0.1410128,-0.1289035,0.1009665
1.015313,-0.2227764,0.0307913,0.0006810422,-0.03678274,-0.04021407,-0.1471222,-0.09704512,0.09702425
1.024228,-0.2303426,0.03103756,0.009652569,-0.04430649,-0.03984566,-0.1549283,-0.0722699,0.09513131
1.020053,-0.2338016,0.03269137,0.005537461,-0.04771427,-0.03805305,-0.1559724,-0.06573053,0.09094443
1.015082,-0.2253332,0.03088091,0.0006295962,-0.03918432,-0.03970762,-0.153903,-0.06209445,0.09323404
1.023283,-0.2225945,0.02725447,0.008896055,-0.03637255,-0.04316071,-0.1609734,-0.03598957,0.1067402
1.037573,-0.2309553,0.02541045,0.0232522,-0.0446477,-0.04481352,-0.1661345,0.004774064,0.1156666
1.056023,-0.2418303,0.03258014,0.04176943,-0.05542348,-0.03743439,-0.1748135,0.03785205,0.1103379
1.060885,-0.2504957,0.04571949,0.04669708,-0.06397468,-0.02406724,-0.1851085,0.06987383,0.08350669
1.03688,-0.2541716,0.04720857,0.02275322,-0.0675198,-0.02233232,-0.1814231,0.07835679,0.04555494
1.016872,-0.260941,0.03977355,0.002802256,-0.07414,-0.02950412,-0.1708382,0.06615992,0.0252615
1.015394,-0.2716761,0.03618523,0.00137476,-0.08470559,-0.03281246,-0.1556268,0.06809978,0.02414462
1.015257,-0.2770881,0.03866209,0.001282881,-0.08992559,-0.03003929,-0.1289482,0.0828352,0.02322286
1.009789,-0.278162,0.04699967,-0.004145659,-0.0907826,-0.02138953,-0.09041946,0.1004774,0.02045546
1.001048,-0.2771326,0.0519547,-0.01285303,-0.08950937,-0.01610714,-0.05093192,0.1061506,0.01846635
0.9969218,-0.275549,0.04735999,-0.01694875,-0.08765296,-0.02036026,-0.03474662,0.09909416,0.00824162
0.9940689,-0.2755031,0.04394425,-0.01977499,-0.08730343,-0.02342116,-0.0233535,0.09560569,-0.001718073
0.9964915,-0.2763217,0.04695802,-0.01732796,-0.08778633,-0.02004014,0.01338477,0.09613568,-0.005662573
1.00597,-0.2808643,0.05200522,-0.007826486,-0.09195965,-0.01461412,0.05849983,0.09894675,-0.01668503
1.005834,-0.2857868,0.06152284,-0.007939677,-0.09647811,-0.004707146,0.1122049,0.1034885,-0.02694094
1.003282,-0.2786073,0.06973587,-0.01047003,-0.08885868,0.003904414,0.157342,0.1025985,-0.03161075
1.00249,-0.2626383,0.06289515,-0.01123941,-0.0724131,-0.002530208,0.1612539,0.09449999,-0.03440612
1.000137,-0.2501585,0.05373903,-0.01356846,-0.05941979,-0.01127427,0.1611523,0.08319309,-0.03122918
1.001497,-0.2433332,0.053998,-0.01218395,-0.05204473,-0.01059852,0.1675523,0.06970236,-0.02875149
1.001479,-0.2474167,0.05241301,-0.01217619,-0.05554343,-0.01176298,0.1648488,0.0666654,-0.0280693
1.004238,-0.2540499,0.05345621,-0.009388355,-0.06155797,-0.01029636,0.1833573,0.07423834,-0.02764162
1.00671,-0.2524044,0.06158303,-0.006885663,-0.05926117,-0.001744072,0.2175896,0.07354954,-0.0292977
