accx,accy,accz,body_accx,body_accy,body_accz,body_gyrox,body_gyroy,body_gyroz
1.019425,-0.04390549,0.09178558,-0.001324976,0.008620835,0.05599214,-0.009086392,0.1211137,-0.03147946
1.017624,-0.04941154,0.09479391,-0.003416866,0.002100551,0.05733984,0.002602254,0.1001593,-0.05410587
1.031637,-0.05065827,0.08450039,0.01030916,-0.0001170466,0.04542779,-0.01659973,0.08260498,-0.05351362
1.038442,-0.05692617,0.08461061,0.01683226,-0.007312987,0.04396035,0.001847187,0.09952391,-0.06641228
1.030819,-0.06732867,0.09752845,0.008930748,-0.018601,0.05534028,0.07338699,0.0680555,-0.0840319
1.015259,-0.07043905,0.1221458,-0.006904326,-0.02255442,0.07845803,0.1405574,-0.1021273,-0.0863281
1.008103,-0.0590275,0.1531686,-0.01433051,-0.01194326,0.1080174,0.1794873,-0.2048671,-0.05992326
1.014895,-0.04388608,0.1136727,-0.007803171,0.002440277,0.06709111,0.06336837,-0.01638717,-0.03043989
1.018677,-0.04181001,0.055244,-0.004279791,0.003800263,0.007262706,-0.06034657,0.2035388,-0.03865924
1.015577,-0.05919461,0.06499997,-0.007631486,-0.01425965,0.01564898,0.0004382324,0.1396338,-0.03849528
1.014517,-0.07287646,0.07147701,-0.008936165,-0.02857677,0.02078692,0.03443996,0.06729368,-0.020177
1.0202,-0.06127951,0.06313218,-0.003490906,-0.01757532,0.01113419,-0.006186706,0.1455936,-0.02779437
1.02751,-0.04820315,0.07157547,0.003590758,-0.005054913,0.01830128,0.01971413,0.09531386,-0.03620558
1.031235,-0.05132328,0.07258913,0.007094618,-0.008692131,0.01807079,0.02085862,0.08138923,-0.03195951
1.026294,-0.0499933,0.07760928,0.001941257,-0.007841335,0.02187901,-0.0104399,0.1436624,-0.03790006
1.019066,-0.04507101,0.08382994,-0.005491465,-0.003361412,0.02691988,0.004866635,0.0818028,-0.03990552
1.024287,-0.04752351,0.07727419,-0.0004677232,-0.00622059,0.01921617,-0.0096656,0.09699988,-0.03723561
1.027252,-0.04620828,0.07181165,0.002308556,-0.005277573,0.01263724,-0.03240322,0.1084952,-0.03832299
1.023319,-0.04911011,0.07195713,-0.001805892,-0.008518322,0.01169779,-0.02023627,0.07023724,-0.03383559
1.025584,-0.05806858,0.07167716,0.0002856844,-0.0177835,0.01036438,-0.02615284,0.1023794,-0.03235748
1.025305,-0.06006053,0.06677911,-0.0001591218,-0.02005077,0.004444423,-0.02202111,0.07673024,-0.03119213
1.023899,-0.06177391,0.06858038,-0.001723453,-0.02200866,0.005255443,-0.008700499,0.07921715,-0.02854213
1.02397,-0.06118325,0.07697722,-0.001802985,-0.02163223,0.01269377,0.003342635,0.09398799,-0.03018526
1.021366,-0.05816544,0.07920192,-0.004550005,-0.01879886,0.01399153,0.02628167,0.06929609,-0.02618197
1.023201,-0.05705811,0.07745892,-0.002851208,-0.0178468,0.01135281,0.02620412,0.08970962,-0.02139392
1.02539,-0.05248447,0.07516883,-0.0007894053,-0.01340005,0.008197754,0.02283693,0.07679236,-0.01517596
1.024448,-0.05048161,0.07502127,-0.001852345,-0.01149658,0.007215617,0.01995353,0.07664531,-0.008766996
1.023226,-0.05233158,0.07494851,-0.00318788,-0.01341949,0.006338338,0.009942719,0.08455609,-0.01326975
1.020662,-0.05593961,0.07450246,-0.005858431,-0.01707505,0.005117484,0.01097414,0.067578,-0.01730892
1.020527,-0.05900928,0.07473522,-0.006092266,-0.02016777,0.004604838,0.00852267,0.08332985,-0.01781209
1.022139,-0.05399006,0.07276677,-0.00457216,-0.01514793,0.001920026,0.007714382,0.07626407,-0.01921344
1.022348,-0.04966325,0.07350757,-0.004447018,-0.01079767,0.001973207,0.002442944,0.07444413,-0.01898656
1.022279,-0.05313806,0.07304502,-0.004593455,-0.01422721,0.000851451,-0.009731219,0.07964285,-0.0186905
1.022661,-0.05440946,0.06873874,-0.004281604,-0.01543255,-0.004085916,-0.01684195,0.07081937,-0.01918407
1.024928,-0.04748729,0.06299373,-0.002077864,-0.008424522,-0.01043408,-0.02698986,0.07941816,-0.02247055
1.02708,-0.04203638,0.05822856,1.762507e-05,-0.002869054,-0.0157745,-0.03079705,0.06801695,-0.024894
1.025737,-0.04446769,0.07289831,-0.001375506,-0.005178383,-0.001651966,-0.03252698,0.05945131,-0.02337043
1.024161,-0.04540297,0.09889303,-0.002995488,-0.005975641,0.02382326,-0.02657607,0.05470849,-0.02364959
1.025722,-0.04658945,0.09907992,-0.001471589,-0.007009294,0.02351731,-0.007225263,0.04531417,-0.03021865
1.02799,-0.05884047,0.06455454,0.0007648188,-0.01909378,-0.01147567,0.002563408,0.05508998,-0.03919558
1.029568,-0.07095141,0.03474146,0.002316853,-0.03102519,-0.04173176,0.01499195,0.06158249,-0.03873611
1.030083,-0.06629682,0.04934189,0.002810558,-0.02617831,-0.0275493,0.0283976,0.07488626,-0.02957999
1.030349,-0.06046079,0.06983868,0.003059444,-0.02013733,-0.007444631,0.02421302,0.07172223,-0.02310628
1.032596,-0.06722375,0.06369065,0.005293877,-0.0266829,-0.01395871,0.02471487,0.06592426,-0.02148475
1.032525,-0.06754765,0.06775809,0.005214326,-0.02677721,-0.01023147,0.03449877,0.09853423,-0.02205461
1.029947,-0.06227797,0.07208228,0.002631399,-0.02126596,-0.006222033,0.02821982,0.1169488,-0.02218902
1.02819,-0.06228332,0.06406513,0.0008715343,-0.02101806,-0.01452896,0.002628244,0.1366754,-0.02595782
1.025096,-0.0594304,0.07018375,-0.002222807,-0.01790062,-0.008675642,-0.0269616,0.153193,-0.03495532
1.021173,-0.05798014,0.07742366,-0.006143494,-0.01617514,-0.001677115,-0.03596918,0.1065838,-0.03574494
1.014433,-0.0570351,0.08545641,-0.01287903,-0.01494481,0.006137358,-0.007611577,0.06050503,-0.02397137
1.012684,-0.05115346,0.08869449,-0.01462079,-0.008768552,0.00917909,0.01830335,0.05975769,-0.009609465
1.018339,-0.04672622,0.07976582,-0.008954507,-0.004038263,7.46673e-05,0.01129838,0.04639564,-0.002252235
1.015141,-0.04392007,0.08720063,-0.01213906,-0.0009217148,0.007353037,0.006742047,0.01714495,-0.00449558
1.016511,-0.04409468,0.08874316,-0.01075064,-0.0007798086,0.008757193,0.01109109,0.02364105,-0.005264551
1.024864,-0.04518227,0.08395787,-0.00237582,-0.001546012,0.003850343,0.00647854,0.03031706,-0.0009042156
1.022234,-0.04506889,0.09157201,-0.004980187,-0.001107541,0.01135848,0.003689189,0.0126076,0.003280115
1.027631,-0.04705349,0.08537728,0.0004462819,-0.002764442,0.005072067,-0.007875306,0.0140592,0.005111712
1.045892,-0.04686939,0.07685277,0.01874043,-0.002251007,-0.0035309,-0.05264879,0.008453661,-0.01035061
1.061472,-0.04673621,0.07019013,0.03435667,-0.001787775,-0.01025956,-0.0996736,0.007336132,-0.03095441
1.055333,-0.05038962,0.07325409,0.02825385,-0.005111231,-0.007249614,-0.09269149,0.0234099,-0.02311741
1.022388,-0.05329971,0.08998341,-0.004654868,-0.00769217,0.009437261,-0.05402454,0.01455671,-0.007987848
1.0068,-0.05317565,0.08545196,-0.02020778,-0.007240295,0.004874206,-0.03486749,0.01685601,-0.001919167
1.019909,-0.0529524,0.08086118,-0.007063492,-0.006691012,0.0002617412,-0.02461549,0.02800002,0.007285628
1.029999,-0.05786338,0.08024071,0.003060856,-0.0112781,-0.0003713324,-0.01696812,0.05242792,-0.001278336
1.024957,-0.06577097,0.07256331,-0.001946897,-0.01886415,-0.008052842,-0.008856291,0.09411105,-0.01261989
1.018761,-0.06953664,0.07806623,-0.008108779,-0.0223106,-0.002545974,0.002157729,0.07649599,-4.60691e-05
1.02294,-0.06546306,0.07737836,-0.003895544,-0.0179198,-0.003222198,-0.00589326,0.05305837,0.004471044
1.019482,-0.06091075,0.07057112,-0.00731943,-0.01305203,-0.01001046,-0.004798912,0.05557625,0.005951359
1.015802,-0.06281143,0.05959644,-0.01096437,-0.01463892,-0.02095901,0.0125634,0.01021502,0.03110621
1.017739,-0.06245496,0.04764762,-0.008991973,-0.0139703,-0.0328743,0.02441275,-0.0428861,0.05252478
1.01699,-0.05908313,0.07127719,-0.009703729,-0.01028801,-0.009203275,0.04573163,-0.04666337,0.04300023
1.02526,-0.05807893,0.09906508,-0.001395455,-0.008975144,0.01863415,0.0508826,-0.02867255,0.02877795
1.022166,-0.05852816,0.0958617,-0.0044503,-0.009117683,0.01548758,0.05188371,-0.04442382,0.03849058
1.013461,-0.06380848,0.09148413,-0.01311383,-0.01409348,0.01117275,0.08861415,-0.0914445,0.04186537
1.014468,-0.07216656,0.08391418,-0.01206373,-0.02214924,0.003670201,0.1206392,-0.1336774,0.03730034
1.010044,-0.07712592,0.05766062,-0.01644309,-0.02680821,-0.02251207,0.1155153,-0.1331823,0.04456269
1.014736,-0.07524557,0.04908178,-0.01170398,-0.02462888,-0.03101571,0.1004365,-0.04185173,0.03835698
1.02089,-0.07089581,0.06324353,-0.005498968,-0.01998101,-0.0167742,0.1117455,0.03532456,0.03376304
1.023415,-0.0690704,0.06315782,-0.002920699,-0.01785797,-0.016775,0.1190511,0.0303302,0.03621868
1.026666,-0.06518769,0.06524501,0.000386463,-0.01367788,-0.01459739,0.1128208,0.04221298,0.02861371
1.021236,-0.06231522,0.07008176,-0.004985185,-0.01050829,-0.009664573,0.118106,0.04294232,0.02977228
1.025895,-0.05694383,0.06155137,-0.0002648369,-0.004840217,-0.01809324,0.1031326,0.02325918,0.02877719
1.028244,-0.04768985,0.06592565,0.002147848,0.004709579,-0.01361154,0.09423132,0.03231282,0.02637088
1.022249,-0.05062362,0.06837015,-0.00378255,0.002070076,-0.0110539,0.09566219,0.01204332,0.02752852
1.024891,-0.05229539,0.06369271,-0.001074104,0.0006902268,-0.01561249,0.08187781,-0.01020332,0.01970989
1.023776,-0.04320127,0.06795313,-0.002120917,0.01007314,-0.0112276,0.08374888,0.00705429,0.01644833
1.025094,-0.0390116,0.06260716,-0.0007338312,0.01454759,-0.0164435,0.06281265,0.01337624,0.009291957
1.02584,-0.03358391,0.05904883,8.302248e-05,0.02025496,-0.01986619,0.02423396,0.005323413,0.001140481
1.021528,-0.02580221,0.06134772,-0.004158263,0.02830992,-0.01742596,0.001641129,-0.003736398,0.0005386912
1.022965,-0.01915487,0.06741186,-0.002650002,0.03522255,-0.01121468,-0.03084069,-0.01791447,-0.001101399
1.021619,-0.01476956,0.08271168,-0.003924377,0.03986342,0.00423791,-0.06150408,-0.02290177,0.006813201
1.021945,-0.02437428,0.0807659,-0.003526252,0.0305027,0.002449928,-0.09309323,-0.01589316,0.009226317
1.022176,-0.03718261,0.07469105,-0.003222012,0.01792528,-0.003462916,-0.1099229,-0.01316552,0.001503879
1.019397,-0.04326983,0.07799984,-0.005928686,0.01205493,1.131664e-05,-0.1084,-0.01110976,-0.005957012
1.021827,-0.04754689,0.07406944,-0.003424782,0.007980285,-0.003750823,-0.1220026,-0.009717952,-0.01449576
1.021626,-0.04862671,0.07649954,-0.003551704,0.007088385,-0.001150218,-0.1299684,-0.01623562,-0.007486788
1.022042,-0.05043987,0.08157967,-0.00306182,0.005448778,0.004102116,-0.1394788,-0.01904902,-0.001659115
1.022704,-0.05605682,0.08058878,-0.002325871,-8.717901e-06,0.003284474,-0.1542823,-0.02642963,-0.009456489
1.019518,-0.06954346,0.08359037,-0.005436935,-0.01334947,0.006459623,-0.1512998,-0.03709633,-0.008773256
1.019987,-0.08112682,0.08546403,-0.004893381,-0.02479954,0.008506387,-0.1395991,-0.03536894,-0.002100437
1.021875,-0.07921287,0.08373052,-0.002930252,-0.02276348,0.006944736,-0.1172941,-0.0342787,0.004349266
1.024466,-0.08395202,0.07934183,-0.0002641726,-0.02739001,0.002725914,-0.09401178,-0.03422822,0.007644019
1.024289,-0.09369397,0.07537175,-0.0003656452,-0.03702711,-0.001076841,-0.07306844,-0.03035257,0.01042042
1.022583,-0.09741416,0.07686113,-0.001996476,-0.04064827,0.0005769726,-0.03621669,-0.02414861,0.01526231
1.025315,-0.1028669,0.07659873,0.0008098265,-0.04600564,0.0004758455,0.004600626,-0.01361545,0.01452527
1.025202,-0.09628108,0.07289496,0.0007719824,-0.03932603,-0.003069996,0.02988316,-0.006482739,0.01858823
1.024595,-0.08216489,0.07162116,0.0002382032,-0.0251156,-0.004189342,0.04527254,0.0006678758,0.02671099
1.025145,-0.07570392,0.0718598,0.0008617061,-0.01855861,-0.003799725,0.05721972,-0.0148979,0.02797171
1.022233,-0.06507966,0.06793439,-0.001979263,-0.007835787,-0.007577573,0.04935092,-0.08751694,0.02810469
1.019232,-0.05586423,0.05275973,-0.00490934,0.001480971,-0.02260786,0.02496343,-0.1190982,0.03333688
1.02081,-0.05638628,0.03352406,-0.00326072,0.001062758,-0.04170161,0.01316379,0.03305316,0.0561099
1.036651,-0.05638986,0.03829429,0.01264856,0.001165043,-0.03679062,0.0370393,0.1845171,0.08100189
1.050502,-0.05675728,0.06560901,0.02656767,0.0009050414,-0.009334847,0.07008225,0.0522345,0.07488442
1.032718,-0.06629634,0.07220928,0.008848565,-0.008525461,-0.002592473,0.05429304,-0.09306889,0.06140657
1.014058,-0.07352953,0.05770176,-0.00974931,-0.01564908,-0.01695673,0.03584295,-0.01117496,0.04453582
1.027125,-0.0577743,0.05803409,0.003376084,0.0002168091,-0.01647991,0.04243599,0.002094936,-0.01617924
1.034008,-0.03695791,0.06794078,0.01031484,0.02114478,-0.006427268,0.01211139,-0.0334938,-0.05879739
1.02223,-0.03860784,0.07226105,-0.001410972,0.01960656,-0.001959548,-0.0161418,0.02278559,-0.01979426
1.023219,-0.05191096,0.07010299,-0.0003729062,0.006414108,-0.003968857,-0.02194454,0.00629761,0.01487637
1.027718,-0.0617558,0.0622642,0.004172429,-0.003321927,-0.01165787,-0.03672798,0.00143011,0.004984754
1.025611,-0.06805411,0.06077069,0.002107896,-0.009513607,-0.01300066,-0.03280142,0.03296429,0.0008261891
1.021021,-0.07348373,0.06338786,-0.002443493,-0.01483859,-0.01023177,-0.02380365,0.006371214,-0.006505715
1.013697,-0.07609643,0.06373661,-0.009730726,-0.01734818,-0.009730155,-0.01591739,0.01505847,-0.01434995
1.023149,-0.07526182,0.06724138,-0.0002452653,-0.01641138,-0.006071386,-0.002307938,0.0158995,-0.001203454
1.03474,-0.07778852,0.06963275,0.01137637,-0.01883614,-0.003524997,0.005603278,0.003886477,0.01030118
1.028074,-0.07749623,0.06877818,0.004739557,-0.01844152,-0.004223756,0.02800157,0.01248702,0.01608715
1.027232,-0.07340564,0.06381505,0.003922818,-0.01424759,-0.009030499,0.04194335,-0.004937096,0.01794035
1.029284,-0.0785198,0.05817298,0.005998141,-0.01925688,-0.01451572,0.03648178,0.005165691,0.008788682
1.025367,-0.08423848,0.05818127,0.002100898,-0.02486862,-0.01435001,0.03678175,0.01276435,-0.005730415
1.02904,-0.08579209,0.05416919,0.005790552,-0.02631258,-0.01820382,0.03469328,0.003006648,-0.02057298
1.033761,-0.08871529,0.0484215,0.01052423,-0.02912257,-0.02379201,0.03730354,0.01650312,-0.01957504
1.034439,-0.08652218,0.05320937,0.01121279,-0.02681189,-0.01884292,0.04179839,0.01888823,-0.01381386
1.034847,-0.08490691,0.0599757,0.01162707,-0.02507389,-0.0119132,0.03344641,0.02351794,-0.02349068
1.027845,-0.08601252,0.06019221,0.004627939,-0.02605097,-0.0115309,0.01734215,0.02315348,-0.02779801
1.018334,-0.08406634,0.06624311,-0.004885388,-0.02396992,-0.005311829,-0.005689094,0.002578092,-0.02999908
1.01965,-0.08463996,0.07870389,-0.003574672,-0.02440186,0.00731922,-0.02119703,-0.02958279,-0.03287772
1.021621,-0.08336449,0.07952671,-0.00161251,-0.02297754,0.008313767,-0.02076699,-0.06262204,-0.01666392
1.019455,-0.07517334,0.07317609,-0.003789533,-0.01463013,0.002135484,-0.01453638,-0.07016728,0.00942892
1.022847,-0.06750286,0.06590644,-0.0004122636,-0.006796012,-0.004961962,-0.004433193,-0.0886306,0.03782523
1.021485,-0.0679855,0.05762501,-0.001790651,-0.007108023,-0.01307169,0.009530231,-0.1179554,0.05271834
1.01719,-0.07050599,0.06393604,-0.006103813,-0.009451426,-0.006589519,0.02788057,-0.1292174,0.05331714
1.020546,-0.06355383,0.07437357,-0.002767852,-0.002316313,0.004018557,0.04150538,-0.136542,0.07281959
1.020665,-0.05583403,0.07276551,-0.002669524,0.005591636,0.002580127,0.03972528,-0.1301303,0.1062759
1.020337,-0.05121686,0.07731991,-0.00302027,0.01040116,0.007302719,0.03713006,-0.1281131,0.1338035
1.022769,-0.04658606,0.08551117,-0.0006105286,0.01522733,0.01566006,0.04131059,-0.1400631,0.1363732
1.021582,-0.0483888,0.08171081,-0.001820777,0.01362158,0.01202282,0.04278795,-0.1470768,0.1230339
1.021372,-0.0477078,0.07988501,-0.002054157,0.01449981,0.01035632,0.04386536,-0.1538496,0.1286972
1.01988,-0.0393534,0.08079088,-0.003568936,0.02305035,0.01141687,0.04101769,-0.1483699,0.1295799
1.019232,-0.03132106,0.07504288,-0.004240245,0.03127625,0.005818344,0.03048154,-0.1354208,0.1222511
1.02371,-0.02728729,0.07098861,0.0002145792,0.03549929,0.001907865,0.02102346,-0.1199411,0.1193171
1.026014,-0.03203397,0.06924207,0.00249591,0.03093574,0.0002992442,0.01492511,-0.09838489,0.1019827
1.026542,-0.03923281,0.07524185,0.003002833,0.0239122,0.006431,0.01754336,-0.0990459,0.09510253
1.027984,-0.0426295,0.08478868,0.00442279,0.02068162,0.01610368,0.0238035,-0.1032664,0.09267917
1.029818,-0.04717897,0.07441951,0.006235622,0.01628815,0.005853847,0.02458763,-0.08878223,0.07383987
1.029814,-0.05305946,0.06296441,0.006210743,0.01055289,-0.005488693,0.03220989,-0.08093274,0.06120953
1.029179,-0.05729952,0.06771142,0.005553292,0.006447005,-0.0006358297,0.03985581,-0.06887396,0.05217559
1.030321,-0.05512912,0.06444981,0.006673771,0.008740444,-0.003797989,0.03553358,-0.05288212,0.04678196
1.025348,-0.05255865,0.05537683,0.001677912,0.01142287,-0.01277754,0.02502297,-0.05270032,0.0399207
1.020215,-0.05640808,0.04953997,-0.00347863,0.007674332,-0.01852635,0.004392737,-0.04786272,0.02844342
1.024116,-0.05880831,0.04213164,0.000397991,0.005363987,-0.02585105,-0.01489449,-0.03923704,0.03213789
1.02639,-0.06494785,0.04671442,0.002647465,-0.0006964476,-0.02118793,-0.01820253,-0.03780433,0.03352394
1.024562,-0.077796,0.05917124,0.000794144,-0.01347575,-0.00865292,-0.01593491,-0.02999622,0.02321884
1.024695,-0.0868941,0.06244078,0.0009019141,-0.02251431,-0.00530663,-0.01034872,-0.02089004,0.01751908
1.025439,-0.09128649,0.06000722,0.001619381,-0.0268551,-0.007664538,-0.0005942452,-0.0155517,0.01661389
1.024832,-0.09086356,0.05513273,0.0009861852,-0.02638685,-0.0124642,0.003338766,-0.006103372,0.01563074
1.024833,-0.09126537,0.05341166,0.0009605232,-0.02674794,-0.01411091,0.002393386,0.008064177,0.009908702
1.024799,-0.09475791,0.05743134,0.000899645,-0.03020275,-0.01001686,0.006270316,0.0244902,0.004546523
1.022043,-0.09428824,0.05903754,-0.00188286,-0.02969675,-0.008335909,0.01328455,0.03365123,0.001337592
1.020089,-0.09443829,0.05871266,-0.003864529,-0.02981034,-0.008585364,0.01536221,0.03016486,0.000355129
1.020834,-0.09482436,0.05886361,-0.003146526,-0.03015841,-0.008358139,0.0101486,0.02644793,0.005264211
1.021906,-0.09383147,0.06014087,-0.002101097,-0.02912463,-0.007003591,0.004097501,0.02242998,0.008998157
1.02155,-0.09496034,0.06116601,-0.00248307,-0.03020852,-0.005900043,0.009442616,0.004263269,0.01944943
1.020229,-0.09481315,0.06028379,-0.00383003,-0.03001115,-0.006702683,0.01871688,-0.01522327,0.03641956
1.020128,-0.09725932,0.05679406,-0.003955147,-0.03240087,-0.01011162,0.0214416,-0.02591711,0.03954421
1.021294,-0.1023861,0.04252722,-0.002812293,-0.03746391,-0.02429624,0.02778234,-0.03639543,0.03544276
1.026552,-0.1057295,0.03124432,0.002422832,-0.04073519,-0.03549488,0.03433092,-0.03494374,0.0322461
1.033029,-0.109316,0.04341475,0.008879106,-0.04423995,-0.02323715,0.04040998,-0.02017252,0.02428214
1.032025,-0.1075634,0.0568613,0.007855197,-0.04239479,-0.009699382,0.04888003,-0.01017957,0.01710248
1.027258,-0.09836939,0.05243955,0.003068213,-0.03309632,-0.01402555,0.04054051,-0.01030681,0.01196501
1.024774,-0.08890609,0.0473887,0.0005649045,-0.02351582,-0.01897632,0.02148814,-0.01150064,0.008171355
1.024469,-0.08542005,0.04576495,0.0002404353,-0.01989963,-0.02049525,0.007537349,-0.006011114,0.01032543
1.025169,-0.08785285,0.04024893,0.0009215937,-0.02218944,-0.02590132,-0.006043516,-0.008537956,0.01558691
1.024185,-0.08909248,0.04076853,-8.11632e-05,-0.02327343,-0.02526613,-0.01549023,-0.01460664,0.01978032
1.023026,-0.09123329,0.04269775,-0.001259419,-0.02524613,-0.02321513,-0.02126194,-0.01226014,0.01913661
1.023773,-0.09660791,0.04068852,-0.0005307558,-0.03044027,-0.02509592,-0.02251162,-0.01713855,0.01630744
1.023755,-0.09855745,0.04498453,-0.0005667616,-0.0321969,-0.0206644,-0.01739037,-0.02067005,0.02051292
1.023376,-0.1015967,0.04647261,-0.0009635058,-0.03503065,-0.01903347,-0.01562808,-0.02317882,0.0244979
1.023966,-0.106373,0.0442456,-0.0003907974,-0.03958853,-0.02111015,-0.01006135,-0.03277838,0.02250646
1.024449,-0.1041067,0.04410932,7.629809e-05,-0.03709066,-0.02108853,-0.002040087,-0.03253998,0.02288554
1.025217,-0.102937,0.04008434,0.0008278014,-0.03567581,-0.02494791,0.0006925943,-0.03359745,0.02356987
1.025223,-0.1054195,0.03934163,0.000817908,-0.03789926,-0.02551715,0.008519259,-0.03503023,0.02148961
1.024675,-0.1036384,0.04047458,0.0002548209,-0.03584515,-0.02420264,0.01075286,-0.02539959,0.01989833
1.025175,-0.1026387,0.04216163,0.0007393694,-0.03455837,-0.02232575,0.004922563,-0.02170442,0.01921524
1.025212,-0.0979354,0.04793917,0.0007621564,-0.02955382,-0.01635005,-0.004401967,-0.02043869,0.01606375
1.02573,-0.08823481,0.04605689,0.001266107,-0.01953812,-0.01802596,-0.03068771,-0.01836713,0.00721841
1.02684,-0.08778894,0.04221858,0.002362632,-0.01876386,-0.02164992,-0.04896548,-0.01960216,0.001204851
1.025855,-0.0924793,0.04267983,0.001364546,-0.02311335,-0.02096648,-0.04643519,-0.01804357,0.003761673
1.023505,-0.09586652,0.04001123,-0.0009988546,-0.02614791,-0.02340516,-0.0464862,-0.01747568,0.006182828
1.021939,-0.1001087,0.04088767,-0.002577632,-0.03002624,-0.02229109,-0.04381435,-0.01661975,0.004520881
1.023624,-0.1010076,0.04665313,-0.0009055281,-0.03055041,-0.01628039,-0.03732089,-0.01761587,0.004803455
1.026141,-0.1007164,0.05183892,0.001599242,-0.02987397,-0.01084201,-0.03177411,-0.02602226,0.009108516
1.024971,-0.1034814,0.05462481,0.0004181282,-0.03224343,-0.007796674,-0.0225447,-0.03305179,0.01281955
1.024408,-0.1048857,0.053031,-0.0001560782,-0.03324209,-0.009124885,-0.01645936,-0.03290029,0.01519798
1.025572,-0.102856,0.04999204,0.0009960739,-0.03079675,-0.01189277,-0.01260452,-0.02968573,0.01715852
1.024788,-0.101025,0.04434671,0.0002013173,-0.02854055,-0.01726213,-0.009292035,-0.02885346,0.01713978
1.024847,-0.09955812,0.04086168,0.0002501776,-0.02663907,-0.02046667,-0.009319683,-0.02491125,0.01243894
1.025334,-0.09795657,0.0445342,0.0007269293,-0.02459403,-0.01650929,-0.007987746,-0.01920439,0.005367066
1.0247,-0.09888316,0.0460357,8.307715e-05,-0.02506875,-0.01471875,-0.003898678,-0.02077162,0.004115293
1.025132,-0.1004272,0.0471554,0.0005053084,-0.02615307,-0.0133061,-0.001639772,-0.02005824,0.003501015
1.024703,-0.09949935,0.04927548,6.750482e-05,-0.0247582,-0.01088954,-0.005016116,-0.01443863,-0.002051443
1.023386,-0.09637732,0.05062716,-0.001258915,-0.02116234,-0.009238279,-0.008318327,-0.01011803,-0.004853094
1.023669,-0.09386986,0.05473329,-0.000984062,-0.01817488,-0.004830001,-0.007551146,-0.008001864,-0.004130222
1.025194,-0.09442982,0.04983469,0.0005319248,-0.01824939,-0.009424526,-0.01015864,-0.009427048,-0.003819354
1.025658,-0.09419414,0.04321902,0.0009883704,-0.01752358,-0.0157347,-0.01541252,-0.009817964,-0.006499211
1.024451,-0.09125891,0.05121703,-0.0002259984,-0.01409431,-0.007430156,-0.01614633,-0.01015763,-0.009490182
1.024996,-0.08877129,0.05711848,0.0003108326,-0.01110959,-0.001221532,-0.01783224,-0.01065145,-0.008646279
1.025082,-0.08863438,0.05561146,0.0003896543,-0.01047342,-0.002421339,-0.02521476,-0.009067368,-0.009502635
1.022702,-0.09105782,0.05724079,-0.001996432,-0.01239638,-0.000485488,-0.03037212,-0.01019664,-0.01170496
1.021956,-0.09195059,0.05793694,-0.002749331,-0.01278833,0.0005157744,-0.03037673,-0.01433123,-0.01193194
1.022244,-0.08971144,0.0529444,-0.002467847,-0.01004878,-0.004173764,-0.02896312,-0.01839038,-0.01198691
1.023227,-0.08811372,0.04708284,-0.001489708,-0.007951841,-0.009734961,-0.02972907,-0.01806936,-0.01022082
1.024224,-0.08837834,0.04821969,-0.0004979919,-0.007719228,-0.008300711,-0.03359333,-0.01688686,-0.009036936
1.024276,-0.09029577,0.0516877,-0.0004505915,-0.009142212,-0.004538441,-0.034992,-0.01443853,-0.01142375
1.025168,-0.09238111,0.05157546,0.0004383619,-0.01073658,-0.004359813,-0.03148239,-0.007663779,-0.01664942
1.024254,-0.09276908,0.05436975,-0.0004790495,-0.01063765,-0.001278363,-0.02756657,-0.006441729,-0.02079317
1.022996,-0.09165951,0.06023229,-0.001738909,-0.009045768,0.004867231,-0.03019233,-0.005110826,-0.01679811
1.023974,-0.08954222,0.0635912,-0.0007631462,-0.006451228,0.008504505,-0.03311586,-0.003334259,-0.0109538
1.024576,-0.08744782,0.06098878,-0.0001628758,-0.003885201,0.006175047,-0.02714976,-0.004815732,-0.01113484
1.024799,-0.08699936,0.05597426,5.938528e-05,-0.00297134,0.001427417,-0.02390964,-0.002278334,-0.009890196
1.023392,-0.08785172,0.0553655,-0.001346849,-0.003365149,0.00107896,-0.0247529,-0.009699028,-0.00587628
1.021439,-0.08768202,0.05310734,-0.003300185,-0.002744337,-0.0009257787,-0.01953859,-0.01855765,-0.00547956
1.022133,-0.08848229,0.04985893,-0.002604327,-0.003101479,-0.003927852,-0.0103559,-0.01305766,-0.006776786
1.023002,-0.09109518,0.0517416,-0.00173417,-0.005279686,-0.001805984,-0.002592249,-0.009886583,-0.007702541
1.023729,-0.09140285,0.0517586,-0.001004015,-0.005161478,-0.001556919,-0.0007410349,-0.008115604,-0.01011133
1.025538,-0.09108031,0.05085399,0.0008076863,-0.004422147,-0.002236634,0.0006011426,-0.003424992,-0.01432817
1.026121,-0.09383467,0.05213809,0.001395627,-0.006769016,-0.0007347948,0.005011827,-0.002265385,-0.01987992
1.028669,-0.1004356,0.05229371,0.003947432,-0.01297189,-0.0003686124,0.009991056,0.001306385,-0.0261528
1.03551,-0.1073268,0.0509425,0.01079368,-0.0194743,-0.001516439,0.01700708,0.01786792,-0.0421013
1.036167,-0.1065534,0.04679143,0.01145599,-0.018321,-0.005471262,0.02112476,0.04200153,-0.06900042
1.027104,-0.09706575,0.04504297,0.002397779,-0.008461787,-0.007030455,0.02268525,0.04821037,-0.07622773
1.0202,-0.08659684,0.04664528,-0.004503402,0.002370453,-0.005245569,0.02063231,0.03637251,-0.05649255
1.021763,-0.08359626,0.04675296,-0.002936778,0.005725981,-0.00496173,0.01017768,0.02557171,-0.03979296
1.025395,-0.0853567,0.05200812,0.0006967565,0.004311611,0.0004633995,0.001618059,0.009865447,-0.02741499
1.024473,-0.08390564,0.05909137,-0.0002225334,0.006099307,0.007710494,-0.0003172706,-0.01049161,-0.01503684
1.022075,-0.08327698,0.05838383,-0.002619862,0.007054659,0.007160493,-0.0003855363,-0.02327433,-0.01348032
1.02102,-0.08533685,0.05635093,-0.003673397,0.005311035,0.005278522,-0.0008379376,-0.03511199,-0.01198283
1.022726,-0.08625042,0.05374647,-0.001966495,0.004702856,0.00281814,-0.001305709,-0.04232697,-0.008566569
1.026645,-0.08751473,0.04928538,0.001953135,0.003732768,-0.001505802,-0.000271219,-0.03110072,-0.01044496
1.025173,-0.08503306,0.05454106,0.0004814575,0.006497268,0.003880123,0.001247591,-0.02031455,-0.009056528
1.023836,-0.07892939,0.06259471,-0.000854924,0.0128721,0.01205713,0.003590815,-0.02637365,-0.009039474
1.026107,-0.07521002,0.05937161,0.00141741,0.01685057,0.00895031,0.001636881,-0.02851755,-0.01268687
1.024541,-0.06990111,0.05653609,-0.0001480638,0.02240593,0.006223696,-0.007025954,-0.01855251,-0.01505502
1.024754,-0.06658723,0.05845377,6.51822e-05,0.02595283,0.008242743,-0.01400219,-0.01321137,-0.02079536
1.025659,-0.06789469,0.05974643,0.0009707264,0.0248641,0.009629077,-0.01582932,-0.01134942,-0.02341023
1.023961,-0.06629225,0.06375558,-0.0007278337,0.02667011,0.01372406,-0.01910753,-0.005525117,-0.02369914
1.023623,-0.0667149,0.06341251,-0.001065696,0.02643509,0.01345871,-0.02823306,-0.002241261,-0.02487846
1.021653,-0.0710107,0.06090292,-0.00303566,0.02231028,0.01101845,-0.02960201,-0.003532375,-0.02138254
1.021715,-0.07555677,0.0635115,-0.002973024,0.01791809,0.01368774,-0.02346572,-0.006781733,-0.02215868
1.023073,-0.07960781,0.06249065,-0.00161502,0.01400358,0.01271878,-0.02401662,-0.01006965,-0.02286341
1.021636,-0.07790463,0.06177756,-0.0030513,0.01582595,0.0120486,-0.02276929,-0.01297904,-0.01985708
1.02269,-0.07719199,0.06322842,-0.001996378,0.01664061,0.01353329,-0.01960433,-0.01346749,-0.01954943
1.024275,-0.08145008,0.06098643,-0.0004093641,0.01246752,0.01131596,-0.01637977,-0.01051814,-0.01386391
1.025133,-0.08243005,0.06095972,0.0004501738,0.01155579,0.01130468,-0.00932538,-0.009193987,-0.01208524
1.025559,-0.0819807,0.06096728,0.0008789897,0.01205701,0.01131851,-0.006899547,-0.005422716,-0.0159874
1.024425,-0.081352,0.05899919,-0.0002523184,0.01272162,0.009347573,-0.003190457,-0.001060151,-0.01456287
1.024988,-0.07889541,0.05959688,0.0003140075,0.01519858,0.009933461,0.002332391,-0.00109003,-0.0166787
1.024003,-0.07641254,0.06497508,-0.000667994,0.01768662,0.01529101,0.003294291,0.001828981,-0.01889052
1.021471,-0.07481087,0.07247569,-0.003195799,0.01927851,0.02276215,0.003227706,0.0029714,-0.01605523
1.022328,-0.07319103,0.07204276,-0.002333989,0.02087377,0.0222907,-0.00137166,0.0009442829,-0.01487496
1.024019,-0.06877257,0.06963627,-0.0006383203,0.02525295,0.01983629,-0.004755583,0.001192489,-0.016119
1.024212,-0.06730576,0.06845209,-0.0004405294,0.02666577,0.01859455,-0.004311863,0.0008180249,-0.01705151
1.024264,-0.06909253,0.06175944,-0.0003830977,0.02481021,0.01183456,-0.007407182,0.0002380628,-0.01486166
1.026156,-0.0674373,0.06171582,0.001514765,0.02638178,0.01171395,-0.009451649,-0.001271386,-0.01229753
1.026954,-0.06792997,0.06161688,0.002319519,0.02579057,0.01152861,-0.00981495,-0.001560431,-0.01060847
1.024981,-0.06872082,0.05317645,0.0003526432,0.0248863,0.002992768,-0.01424966,-0.00124061,-0.01025155
1.024826,-0.06730067,0.05548646,0.0002049506,0.02617824,0.005198858,-0.02172014,-0.002308619,-0.0100352
1.024768,-0.06851298,0.06199382,0.0001541103,0.02482304,0.0115944,-0.02461572,-0.001158896,-0.007816253
1.023052,-0.06805152,0.06508455,-0.001555377,0.02512706,0.01456584,-0.02250165,-0.003062502,-0.010601
1.021891,-0.06768981,0.070017,-0.002709981,0.02531699,0.01937174,-0.02387289,-0.005182022,-0.0132865
1.02218,-0.06820867,0.06622486,-0.002413448,0.02461221,0.01544584,-0.0251198,-0.005313711,-0.00770875
1.02449,-0.06549703,0.06230956,-9.609351e-05,0.02712404,0.01138961,-0.01855369,-0.008058021,-0.002247284
1.025428,-0.06311378,0.06491553,0.0008497391,0.02929377,0.01384766,-0.007939553,-0.007025153,0.0003344336
1.024936,-0.06184296,0.06350855,0.0003657661,0.0303375,0.012286,-0.002393225,-0.009287727,0.002383536
1.024849,-0.06241635,0.06366621,0.0002862754,0.02952355,0.01228249,-0.004418037,-0.01531047,0.001705467
1.023791,-0.06268311,0.065192,-0.0007635286,0.02900286,0.01364086,-0.006562676,-0.0148076,-6.157727e-05
1.022614,-0.0600075,0.06682385,-0.001932781,0.03141129,0.01509931,-0.01020698,-0.01639354,0.001036177
1.022136,-0.05850964,0.07095986,-0.002402408,0.03262884,0.01905606,-0.01839554,-0.01625727,0.003384348
1.024186,-0.05867629,0.06960487,-0.0003439651,0.03216887,0.01751601,-0.01982152,-0.01182365,0.005945573
1.026767,-0.0624241,0.06750508,0.002245937,0.02811481,0.0152254,-0.01359376,-0.01255343,0.008115886
1.026858,-0.06836965,0.06821126,0.002345532,0.02185035,0.01573505,-0.006853344,-0.01144307,0.004211099
1.027895,-0.07032453,0.06560647,0.003391901,0.01956439,0.01292822,0.001120391,-0.01023517,-0.00069616
1.028846,-0.06912351,0.06272827,0.004350695,0.02042282,0.00984267,0.00433523,-0.01258043,7.454044e-05
1.027159,-0.06648536,0.06113532,0.00267277,0.02270762,0.008037433,0.001899059,-0.01109299,0.001508138
1.024471,-0.06455757,0.06070953,-8.126574e-06,0.02427189,0.007394892,0.002401142,-0.01199457,0.002598985
1.022199,-0.0628066,0.0617781,-0.002272663,0.02564973,0.008242725,0.003431883,-0.01407476,0.002396656
1.022065,-0.06081905,0.06279777,-0.002399821,0.02725494,0.009038176,0.001611551,-0.00861314,0.0005681466
1.024396,-0.06456584,0.06507149,-6.355459e-05,0.02311701,0.0110846,-0.003213488,-0.004632414,-2.380382e-05
1.026613,-0.06959227,0.06783967,0.00215977,0.0176911,0.01362272,-0.01217159,-0.003520854,-0.001236064
1.026408,-0.06914432,0.06942434,0.001959812,0.01773182,0.01497476,-0.01707315,-0.001653121,-0.003576359
1.025333,-0.06901447,0.06731319,0.0008904284,0.01744745,0.01262854,-0.01326165,-0.006805055,-0.005672925
1.02463,-0.06988388,0.06280732,0.0001912178,0.01615754,0.007885293,-0.01046868,-0.01184028,-0.00377924
1.023947,-0.06806718,0.06341247,-0.0004874939,0.01754823,0.008251037,-0.01151363,-0.00917102,-2.607612e-05
1.023598,-0.06695729,0.06504606,-0.000833222,0.01822725,0.009643536,-0.01061521,-0.008303976,-0.000995327
1.02337,-0.0684163,0.06406698,-0.001058074,0.01633316,0.008422022,-0.008342763,-0.01194145,-0.0007547063
1.023586,-0.07257236,0.06570177,-0.0008391091,0.01173844,0.009813313,-0.004037251,-0.01698029,0.003234481
1.022798,-0.07689029,0.06553302,-0.001624385,0.006979019,0.009400275,0.0004077758,-0.01966853,0.008263718
1.02171,-0.07633625,0.06418842,-0.002710527,0.007089653,0.007810852,0.0007344405,-0.01763076,0.0136947
1.022353,-0.07647396,0.06647411,-0.002065044,0.006507581,0.009851428,0.004244501,-0.01510223,0.01357424
1.022324,-0.07841966,0.06720693,-0.002092165,0.004117517,0.01033906,0.01031316,-0.01357877,0.01010585
1.02206,-0.07363292,0.06646884,-0.00235322,0.008460781,0.009355898,0.009631362,-0.01299456,0.008319801
1.022356,-0.06602697,0.06589986,-0.002054339,0.01562494,0.008542111,0.004992212,-0.01419466,0.008427179
1.022141,-0.06235427,0.06350202,-0.002266351,0.01885798,0.005899939,-0.001362641,-0.01373623,0.01119529
1.022253,-0.06331142,0.06223858,-0.002151959,0.01746352,0.004392896,-0.011548,-0.01125848,0.01266979
1.022412,-0.06545249,0.06598484,-0.001989061,0.01488763,0.0078966,-0.0209901,-0.01189707,0.01224193
1.022896,-0.06562641,0.06929545,-0.001499965,0.01428153,0.01096594,-0.02509784,-0.01309783,0.01017324
1.023404,-0.06975601,0.06452751,-0.0009872958,0.009722659,0.00595816,-0.02640399,-0.01179608,0.00798975
1.024323,-0.07356561,0.05836658,-6.325521e-05,0.005487053,-0.0004410128,-0.02456172,-0.01390186,0.01283767
1.027949,-0.07274374,0.05594627,0.003569258,0.005886693,-0.003097586,-0.01547213,-0.01565166,0.01960924
1.030498,-0.07754355,0.05569883,0.006124722,0.0006690253,-0.003578768,-0.003836768,-0.01083387,0.01930197
1.028459,-0.08188798,0.06027881,0.004091804,-0.004088195,0.0007706041,0.005673937,-0.007067365,0.01190617
1.025944,-0.07709183,0.06407614,0.001583204,0.0003010046,0.004340882,0.01146062,-0.008155031,0.0040147
1.024753,-0.07237379,0.06227757,0.0003985963,0.004618672,0.002319107,0.01083623,-0.0107174,0.00487563
1.024461,-0.07143247,0.06036635,0.0001120573,0.005166714,0.0001887235,0.006662241,-0.01238141,0.009559864
1.025291,-0.06934791,0.06097215,0.0009474364,0.006865422,0.0005796192,0.001195345,-0.01207093,0.01011542
1.024316,-0.06871479,0.06102463,-2.206782e-05,0.007120306,0.0004217042,-0.0002551631,-0.01338329,0.0097758
1.024344,-0.07326363,0.05814899,9.752632e-06,0.002201032,-0.002659572,0.001552294,-0.01442609,0.008868113
1.028315,-0.07541062,0.05556687,0.003985335,-0.0003083752,-0.005442286,-0.0008511092,-0.009214602,0.008365788
1.029715,-0.07471691,0.05453143,0.00538856,3.126278e-05,-0.006672888,0.0009985894,-0.004194685,0.01006736
1.027113,-0.07545741,0.0544654,0.002790159,-0.0010546,-0.006928218,0.002983419,-0.003975512,0.008905061
1.024711,-0.07459876,0.05777354,0.0003896879,-0.0005322709,-0.003803097,-0.001162932,-0.004305108,0.005466
1.02462,-0.07453081,0.06101871,0.0003002764,-0.0007912932,-0.0007343587,1.230435e-06,-0.005598454,0.004116169
1.025439,-0.07265033,0.05994805,0.001119465,0.0007718056,-0.001974728,6.089966e-05,-0.006383886,0.0049196
1.024779,-0.06946201,0.05931287,0.0004596529,0.003652485,-0.002772815,-0.0005862649,-0.005245291,0.008654985
1.025128,-0.07154676,0.06198302,0.000807546,0.001269877,-0.0002587178,0.004634805,-0.004244862,0.01140854
1.026129,-0.07391511,0.06327529,0.001806425,-0.001386533,0.0008843381,0.006954313,-0.002749651,0.009475628
1.026025,-0.07538657,0.06340107,0.001699116,-0.003136168,0.0008676739,0.007986953,-0.002784635,0.008905308
1.024729,-0.07540023,0.06504001,0.0003998345,-0.003417983,0.002370771,0.008429995,-0.003891757,0.01249563
1.021916,-0.07337683,0.06566878,-0.002417736,-0.001652555,0.002870126,0.007756721,-0.002320204,0.01544294
1.021742,-0.07403418,0.06519141,-0.002595998,-0.002557608,0.002269507,0.005287277,0.004449478,0.01551166
1.02311,-0.07541249,0.06482554,-0.001233643,-0.004173277,0.001786341,-0.003536752,0.01361858,0.01582987
1.023714,-0.07694585,0.06356731,-0.0006356669,-0.005933579,0.0004165566,-0.008783364,0.0142333,0.01863415
1.025755,-0.07758992,0.06198666,0.001399901,-0.006794052,-0.001270089,-0.00666677,0.01170404,0.02065283
1.026251,-0.0763096,0.06217539,0.001889031,-0.005719449,-0.001181873,-0.005557521,0.01640909,0.01833338
1.025865,-0.07566247,0.06302324,0.001497028,-0.005267265,-0.0004291362,-0.007770631,0.01909746,0.01344526
1.025619,-0.07416817,0.0629724,0.001243537,-0.003957096,-0.0005697932,-0.01209975,0.01832,0.01100041
1.022731,-0.07303711,0.06593925,-0.001651493,-0.002999411,0.002312433,-0.01709864,0.01787839,0.01180964
1.021435,-0.07328214,0.06912998,-0.002954517,-0.003407158,0.005423504,-0.01840726,0.01238245,0.01253738
1.023422,-0.07689799,0.06638371,-0.0009752442,-0.00717521,0.00260224,-0.01334997,0.004350058,0.01188638
1.026727,-0.08276476,0.06402966,0.002322419,-0.0131837,0.0001775586,-0.009837341,0.001280588,0.01137138
1.030388,-0.08116224,0.06519783,0.005975363,-0.0117123,0.00127924,-0.008248451,0.002976438,0.01097475
1.029102,-0.07905541,0.06385762,0.004681702,-0.009725816,-0.000123481,-0.004436299,0.0009746812,0.006624804
1.024495,-0.08262674,0.06151485,6.668189e-05,-0.01340658,-0.002524913,-0.001955185,-0.004022359,0.001457484
1.023229,-0.08208909,0.06282244,-0.001208476,-0.01296733,-0.001272203,0.002440026,-0.00280084,0.002318738
1.024283,-0.08085775,0.06481612,-0.0001638709,-0.01182325,0.0006703307,0.004685335,-0.0003590446,0.004150169
1.025517,-0.07992272,0.0653614,0.001060428,-0.01096427,0.001168079,0.0002765466,0.0005526833,0.003471757
1.025221,-0.0761196,0.06598535,0.0007550841,-0.007226034,0.001747954,-0.006444502,0.001210693,0.003861777
1.024434,-0.07616569,0.06680997,-4.245722e-05,-0.007325978,0.002531728,-0.01400045,-0.004149236,0.004095678
1.025587,-0.07706904,0.06815741,0.001100384,-0.008272408,0.003841342,-0.011709,-0.009079982,0.003605961
1.025881,-0.07740131,0.06645552,0.00138346,-0.008637258,0.002104351,-0.004715627,-0.008451073,0.004605823
1.026339,-0.07868188,0.06219657,0.001830323,-0.009940126,-0.002187179,-0.006989025,-0.003964441,0.005637907
1.026747,-0.07745021,0.06209337,0.00222684,-0.008720692,-0.00232053,-0.005190534,0.004078961,0.005893362
1.024983,-0.07849051,0.06287135,0.0004516743,-0.00976339,-0.001570301,0.00124671,0.005525164,0.005648525
1.024708,-0.08004716,0.06259256,0.0001640685,-0.0113128,-0.001874432,0.002187395,0.002797309,0.003665875
1.02404,-0.07813578,0.06393211,-0.0005156251,-0.009384756,-0.0005578297,0.0048592,0.005576104,0.002433511
1.02224,-0.0762104,0.06341456,-0.002328494,-0.00743349,-0.001095984,0.004304393,0.007954383,0.003283434
1.022115,-0.07259456,0.06208588,-0.002466021,-0.003782863,-0.002442983,-0.005591303,0.009986866,0.005578623
1.022107,-0.07104141,0.06311216,-0.002486421,-0.002186479,-0.001432754,-0.01238101,0.01034569,0.008032437
1.022558,-0.07363208,0.06434482,-0.002047596,-0.004726,-0.0002139388,-0.009803959,0.00450877,0.007107385
1.022925,-0.07574237,0.06570733,-0.001692901,-0.006777752,0.00113687,-0.003568438,0.001042042,0.006929767
1.02282,-0.07854576,0.06944983,-0.001809813,-0.009515601,0.004869634,0.00296331,0.001942256,0.007302038
1.022315,-0.07859443,0.07228699,-0.002325731,-0.009492007,0.007698756,0.009108016,0.003099164,0.004400929
1.021696,-0.07686577,0.07194379,-0.0029556,-0.007684589,0.007348818,0.01117008,0.004723605,0.004343801
1.022958,-0.07914834,0.07159368,-0.001703121,-0.009882143,0.00699281,0.01147637,0.005485053,0.004596468
1.024217,-0.07986755,0.07050899,-0.0004533726,-0.01051029,0.00590266,0.01340271,0.003777798,0.002971185
1.026088,-0.07919171,0.07007747,0.00140951,-0.009737521,0.005465775,0.01271961,0.0005449172,0.004679314
1.027656,-0.07920513,0.0697192,0.002970107,-0.009648321,0.005101937,0.01268776,-0.001702524,0.007376716
1.027062,-0.0761535,0.06704631,0.002369408,-0.006488586,0.002423047,0.01582745,-0.003034824,0.009405795
1.026688,-0.07487726,0.06787257,0.001989798,-0.005099046,0.003242727,0.01768283,0.0002432034,0.007625128
1.022994,-0.07644898,0.06881654,-0.001709808,-0.006552633,0.004179431,0.02100995,0.007619072,0.003842341
1.020098,-0.07741317,0.06717671,-0.004611239,-0.007394209,0.002531533,0.02836209,0.01011378,0.005404238
1.021387,-0.07984254,0.06694509,-0.003327212,-0.009696781,0.00229096,0.03421659,0.008652202,0.006138514
1.020262,-0.08360729,0.06379583,-0.00445728,-0.01333075,-0.0008681692,0.03271777,0.005688776,0.004825958
1.024947,-0.08822995,0.0616066,0.0002241894,-0.01781867,-0.003068096,0.02560716,0.001446555,0.006098278
1.03295,-0.08939795,0.06489904,0.008224542,-0.01884785,0.0002129471,0.01256645,-0.0004981379,0.004736626
1.029903,-0.08331571,0.06787368,0.005175673,-0.01262251,0.003175631,-0.004929736,0.002767515,0.003059126
1.026177,-0.07766297,0.06854641,0.001447599,-0.006822313,0.003835833,-0.014025,0.007754799,0.003635401
1.02669,-0.07698287,0.0673934,0.001959002,-0.005990599,0.002669657,-0.01834195,0.006333938,0.000597107
1.024149,-0.07733178,0.06523254,-0.0005831481,-0.006184079,0.0004949171,-0.02389286,0.004357556,-0.004067636
1.023416,-0.07447044,0.06398922,-0.001318645,-0.003163892,-0.000762984,-0.02398068,0.003329551,-0.004900039
1.023304,-0.07127546,0.06735634,-0.001431614,0.0001928852,0.002588905,-0.02547497,-0.001910806,-0.001578566
1.021306,-0.07502542,0.07352843,-0.003431447,-0.003392868,0.008745132,-0.02377945,-0.004232607,-0.001211017
1.022336,-0.07991521,0.07559635,-0.002402894,-0.008116522,0.01079634,-0.01223601,-0.004846671,-0.010862
1.022681,-0.07899662,0.07639682,-0.002059274,-0.007030214,0.0115789,-0.004539953,-0.00459424,-0.01922722
1.021648,-0.07636851,0.07694893,-0.00309364,-0.004233014,0.01211146,-0.002420554,-0.002929285,-0.01255638
1.022572,-0.07176361,0.07487497,-0.002169664,0.0005420354,0.0100159,-0.001996409,-0.002031575,-0.004559638
1.022211,-0.06549204,0.07425362,-0.002530345,0.00698436,0.009370534,-0.002079416,0.002087345,-0.007953031
1.02162,-0.06242151,0.07333143,-0.003119916,0.01022554,0.008421655,-0.00523961,0.001000193,-0.008336437
1.020764,-0.06216911,0.07309368,-0.003973553,0.01064762,0.008154346,-0.01134802,-0.00439623,-0.007292787
1.018829,-0.06347595,0.07685069,-0.005905709,0.009508596,0.01187876,-0.01180225,-0.004769358,-0.01504655
1.020558,-0.06798304,0.07823118,-0.004173729,0.005166634,0.01322339,-0.008264918,-0.004514676,-0.01624443
1.023759,-0.07530049,0.08051065,-0.0009671678,-0.001988966,0.01546344,0.001269625,-0.00229032,-0.01034494
1.025831,-0.07978359,0.08448674,0.001111101,-0.006313785,0.01939616,0.009199055,-0.0008922507,-0.008529441
1.027948,-0.08025724,0.07852146,0.003236073,-0.006632724,0.01338312,0.0072905,0.0002026447,-0.008351115
1.027703,-0.08243183,0.07102556,0.002999863,-0.008656021,0.005834743,0.009446862,0.01058455,-0.009667298
1.025559,-0.08375523,0.07290891,0.000864997,-0.009831307,0.00766084,0.01647813,0.02043659,-0.01007796
1.023497,-0.08284323,0.07706967,-0.001187413,-0.008774094,0.01175966,0.02743173,0.01778746,-0.01016565
1.022228,-0.08460546,0.07986923,-0.002446671,-0.01039372,0.01449258,0.03583572,0.01048809,-0.01061903
1.022211,-0.08464041,0.07796748,-0.002451993,-0.01028836,0.01251939,0.03697743,0.005438233,-0.007792499
1.02217,-0.08159679,0.07356956,-0.002482199,-0.00710646,0.008045111,0.04336071,-0.0008151296,-0.006820416
1.022214,-0.07971789,0.07437563,-0.002426435,-0.005091089,0.008769928,0.0485852,-0.0005855501,-0.007401753
1.022319,-0.07812407,0.07461938,-0.002307981,-0.003362531,0.008927655,0.05413007,0.004828088,-0.005649022
1.022457,-0.07670407,0.07355074,-0.002157117,-0.001809543,0.007768333,0.05923141,0.004181092,-0.0008866039
1.02408,-0.07477652,0.07272973,-0.000519651,0.0002491351,0.006852175,0.05225794,0.007681442,0.004809129
1.025381,-0.07353731,0.06592313,0.0007954435,0.001617437,-5.38136e-05,0.04566063,0.009021353,0.004043172
1.024241,-0.07273406,0.06108808,-0.000329169,0.002547486,-0.004992057,0.03862413,0.003354295,0.001123332
1.02302,-0.07060626,0.0665439,-0.001533736,0.0047995,0.0003573665,0.02825065,0.0004746133,-0.0001644267
1.02382,-0.07092482,0.07466881,-0.0007175472,0.004602243,0.008373249,0.02314926,-0.009875272,-0.001440541
1.024808,-0.07209453,0.07640788,0.0002869312,0.003550566,0.01000095,0.0215043,-0.01342633,0.002292976
1.024977,-0.07344981,0.07393786,0.0004739163,0.00230978,0.007417283,0.02112735,-0.005860493,0.003033887
1.025025,-0.07610734,0.07414626,0.0005394899,-0.0002370038,0.007509788,0.01733573,-0.007331977,-0.0007753808
1.023829,-0.07660167,0.07678505,-0.000638962,-0.0006244225,0.0100305,0.01749668,-0.006240129,0.002328463
1.02234,-0.07652972,0.08173815,-0.002110564,-0.0004494041,0.01486336,0.02066798,-0.004460704,0.003340227
1.022064,-0.07628895,0.08357193,-0.002368446,-0.0001093943,0.01657455,0.01474247,-0.007030143,0.000613302
1.022137,-0.07515786,0.07983845,-0.00227669,0.001117119,0.01271591,0.01115123,-0.005748433,0.002059305
1.022378,-0.0708409,0.0808529,-0.00201716,0.00552566,0.0136024,0.007335119,-0.007278678,0.002143373
1.022173,-0.06341823,0.08389837,-0.002203071,0.01303588,0.01651693,-1.588249e-05,-0.008250366,0.002151867
1.022479,-0.06254761,0.08429424,-0.001878642,0.01398961,0.0167787,-0.0002104088,-0.0105981,-0.002025993
1.024366,-0.06637218,0.08122645,2.819153e-05,0.01024318,0.01357342,-0.003759098,-0.01476114,-0.005999241
1.026288,-0.0707543,0.07098187,0.001969956,0.005933799,0.00318786,-0.01054348,-0.007993188,-0.0003227412
1.026925,-0.07621861,0.06658976,0.002627006,0.0005366048,-0.001348496,-0.01305425,-0.001528257,-0.002816587
1.026322,-0.07266788,0.07469144,0.002043705,0.00414883,0.006606131,-0.01698882,-0.00488495,-0.006190038
1.027145,-0.06643288,0.08140691,0.002886793,0.01043975,0.01317215,-0.02131444,-0.006334006,-0.002579755
1.028017,-0.06988576,0.07912761,0.003778644,0.007037135,0.01074113,-0.02147658,-0.004883157,-0.006063132
1.025644,-0.07106287,0.07412864,0.001424121,0.00590451,0.005588222,-0.01733848,-0.009071376,-0.004342888
1.023446,-0.06975203,0.07066553,-0.0007556115,0.007253981,0.001969116,-0.01694718,-0.01277298,-0.002580133
1.023148,-0.07351089,0.0683979,-0.001035503,0.003527897,-0.0004561998,-0.01927991,-0.00846662,-0.007453701
1.023216,-0.07261746,0.07718167,-0.0009500755,0.004448316,0.008168619,-0.01757595,-0.004739221,-0.00867138
1.023473,-0.07104604,0.08816119,-0.0006768221,0.006041033,0.01898819,-0.01806765,-0.005143068,-0.01133909
1.023806,-0.07342454,0.08351195,-0.0003282042,0.00367825,0.01417787,-0.01756469,-0.005903479,-0.00917184
1.024043,-0.07272191,0.07942329,-7.544414e-05,0.00439113,0.009926782,-0.01219507,-0.006577934,-0.005647209
1.024783,-0.07364001,0.08078777,0.0006793101,0.003477963,0.01112737,-0.006096648,-0.006770731,-0.005935822
1.0257,-0.07467635,0.07851425,0.001609672,0.002441431,0.008688481,0.001077629,-0.007247895,-0.004265202
1.024554,-0.07440165,0.0785593,0.0004775361,0.002711016,0.008566751,0.004277095,-0.00639627,-0.005831464
1.023758,-0.0765038,0.07860802,-0.0003054019,0.0005990747,0.00844738,0.003403358,-0.002369488,-0.004373658
1.023778,-0.07496392,0.08146402,-0.0002732299,0.002124756,0.01113407,0.002566853,0.001905754,-0.003142964
1.022344,-0.0741008,0.08578414,-0.0016955,0.00296955,0.01528367,0.001179402,0.001910256,-0.003049361
1.022911,-0.07536178,0.07796045,-0.0011174,0.001686349,0.007288223,0.0007458399,-0.001647157,0.002824492
1.023469,-0.07175295,0.06924758,-0.0005484521,0.00526926,-0.001597604,0.001253307,-0.004636856,0.002347547
1.023352,-0.06898132,0.07052106,-0.0006544246,0.00801142,-0.0004979205,0.002866181,-0.007032496,0.0006161629
1.024907,-0.06927331,0.07260317,0.0009096754,0.007686421,0.001410078,0.004935855,-0.008488277,0.0006157979
1.02503,-0.06936464,0.07330402,0.001042149,0.007558509,0.001936979,0.00925716,-0.009702172,-0.002391936
1.027364,-0.06868316,0.07457925,0.003385798,0.008199801,0.003038799,0.01549862,-0.0108513,-0.0009879258
1.03007,-0.06755557,0.07433914,0.006099872,0.009283538,0.002626149,0.01637134,-0.01101833,-0.0009007494
1.026423,-0.06773527,0.07214151,0.00246097,0.009056262,0.0002571138,0.01588198,-0.01195111,-0.002941617
1.023388,-0.06579014,0.07082648,-0.0005675561,0.01095003,-0.001227855,0.01917014,-0.009892997,-0.003914875
1.024321,-0.06160185,0.0710496,0.0003712291,0.01508303,-0.00117284,0.02143763,-0.006188548,-0.007215391
1.023828,-0.06216133,0.07192176,-0.0001171104,0.01446412,-0.0004665742,0.01889316,-0.004354598,-0.007909571
1.022825,-0.06631923,0.07403576,-0.001115986,0.01024241,0.001484053,0.01246001,-0.0007185142,-0.001498999
1.023088,-0.06627064,0.07372364,-0.0008492803,0.01022264,0.001011344,0.007970824,0.0008348924,0.00517903
1.022378,-0.06405949,0.070279,-0.001556355,0.01236085,-0.002590899,0.009162895,-0.000280972,-0.0006642507
1.023539,-0.06565482,0.0687777,-0.0003932186,0.01068795,-0.004246559,0.01162465,-0.001232417,-0.007905764
1.025953,-0.06576589,0.07063687,0.002021844,0.01049465,-0.002538167,0.00799126,-0.003520449,-0.00290903
1.023677,-0.06445917,0.07595945,-0.0002531463,0.01171448,0.002637492,0.003621891,-0.003463088,-0.0005515044
1.021026,-0.06604837,0.08133075,-0.002903329,0.01003375,0.007865833,0.003546614,-0.003718298,-0.001135146
1.020926,-0.06625861,0.08124981,-0.00300361,0.00972735,0.007645763,0.001757603,-0.006297197,0.0007814406
1.021598,-0.06747469,0.07940736,-0.002331394,0.008410597,0.005667751,0.0007916556,-0.005002072,-0.001774297
1.023873,-0.06898533,0.07909996,-5.644451e-05,0.006794899,0.005228139,0.001023352,-0.003945359,-0.002335995
1.024666,-0.06750046,0.07737743,0.000736643,0.00817053,0.003376573,0.002807412,-0.007587693,-0.001206916
1.024057,-0.06812305,0.07646876,0.0001272623,0.007434727,0.002341957,0.006003426,-0.01144173,-0.0016803
1.0233,-0.06833373,0.0749696,-0.0006294317,0.007107056,0.0007199077,0.001892291,-0.01285471,0.00268553
1.021238,-0.0680024,0.07095514,-0.0026922,0.007317853,-0.003414331,-0.001379754,-0.01161966,0.006976692
1.019692,-0.07019503,0.07252778,-0.004238061,0.005001358,-0.001958209,0.0009619146,-0.01035696,0.006549772
1.018989,-0.07101998,0.07535085,-0.004940833,0.004049488,0.0007517895,0.001169403,-0.008281196,0.002528711
1.019468,-0.06995661,0.0737533,-0.004461144,0.0049832,-0.000955272,0.0001704952,-0.003897154,-0.001842951
1.019782,-0.06803253,0.07512443,-0.00414572,0.006775185,0.0003099461,-0.003311346,-0.003344616,-0.0003203674
1.01977,-0.06747052,0.07626425,-0.004155524,0.007202894,0.00134749,-0.007018603,-0.003013974,0.005747675
1.023209,-0.06754591,0.07792142,-0.0007136746,0.006991193,0.002905987,-0.006723461,-0.0003872562,0.01077372
1.02581,-0.06687736,0.08577482,0.001892035,0.007521563,0.01066418,-0.006117268,-0.002671362,0.009864773
1.023383,-0.07018109,0.08881181,-0.0005299282,0.004077936,0.01360907,-0.007082031,-0.005335971,0.007814725
1.02113,-0.07309577,0.08302175,-0.002777912,0.001021892,0.007729516,-0.008134191,-0.007278178,0.009677956
1.022239,-0.06966624,0.07766971,-0.001661649,0.0043089,0.002290147,-0.009032697,-0.008889074,0.006809871
1.022996,-0.06656986,0.07699151,-0.0008970008,0.0072619,0.001526555,-0.009402289,-0.007029414,0.001218111
1.022753,-0.0681251,0.07822798,-0.001132096,0.005562614,0.002679544,-0.00710499,-0.007227249,0.0001439799
1.024908,-0.06930461,0.07740438,0.001032094,0.004238519,0.001774346,-0.004647183,-0.00598526,0.001317687
1.025648,-0.0700742,0.0761348,0.001782239,0.003323999,0.0004250371,-0.003229617,-0.005444104,0.003212348
1.024282,-0.07286744,0.07648693,0.0004269547,0.0003856998,0.0006993227,-0.001523975,-0.01157632,0.00277217
1.024173,-0.07085435,0.07794348,0.0003286313,0.002253917,0.002079952,2.373268e-05,-0.01371207,0.0008408037
1.022481,-0.06690627,0.07810317,-0.001352652,0.006057568,0.002165643,0.004906149,-0.0135803,-0.0006079326
1.021981,-0.06826385,0.07541466,-0.001840639,0.004556181,-0.0005949771,0.00743451,-0.0164648,-0.000459583
1.024744,-0.06835774,0.07447702,0.0009341399,0.004319201,-0.001602799,0.003779996,-0.01486728,0.003964984
1.027214,-0.06757385,0.07556617,0.003416437,0.00496081,-0.000581821,0.002656595,-0.009763314,0.005938557
1.028138,-0.06900559,0.07668784,0.004352883,0.00338771,0.0004737761,0.001755569,-0.006869455,0.00384176
1.025899,-0.07052591,0.07752784,0.00212608,0.001727067,0.001249813,-0.0006132906,-0.005869062,0.002020152
1.023943,-0.07302039,0.07346776,0.00018266,-0.0009065223,-0.00287208,0.0001062527,-0.003881858,0.0005162745
1.024283,-0.07237205,0.06918723,0.0005341131,-0.0003958118,-0.007212203,0.000863961,-0.001520963,0.002271524
1.023716,-0.06956698,0.07154546,-2.20778e-05,0.002273374,-0.004911119,-0.0001162415,-0.002192721,0.003665082
1.024188,-0.0694059,0.07325198,0.0004606272,0.002300514,-0.003259055,-0.002006982,-0.002935765,0.001505939
1.025376,-0.06944205,0.07083058,0.001659202,0.002132499,-0.005732016,-0.00330418,-0.0006286551,0.001308461
1.023971,-0.07037649,0.07103139,0.0002642992,0.001068367,-0.005579693,-0.00351385,-0.0005570314,0.005521509
1.021955,-0.07132131,0.07483473,-0.001741746,-3.860198e-06,-0.001821626,-0.005423403,-0.001746079,0.009959554
1.021189,-0.07061362,0.07729366,-0.002498616,0.0005788711,0.0005953408,-0.00754443,0.0004087939,0.008240685
1.021169,-0.07139423,0.07641479,-0.002509996,-0.0003241114,-0.0003222778,-0.005053568,0.001545879,0.004634586
1.023371,-0.07359073,0.07378298,-0.0002996636,-0.002640238,-0.002989692,-0.0008490333,0.001079699,0.004032912
1.026067,-0.07515707,0.07200045,0.002405047,-0.004323249,-0.004804751,-0.002571251,0.0003448764,0.003329436
1.025179,-0.07224107,0.07027193,0.001524467,-0.001520708,-0.006562641,-0.009440904,-0.002279348,0.003711519
1.024345,-0.06660347,0.06977771,0.0006985728,0.004006813,-0.007082945,-0.01805189,-0.003715907,0.00393223
1.025458,-0.06659639,0.07491956,0.001818726,0.003907227,-0.00196375,-0.02120716,-0.003282154,0.003557578
1.024778,-0.07086953,0.07912381,0.001146077,-0.0004692789,0.002221276,-0.01133407,-0.004123292,0.005918345
1.023502,-0.07391579,0.07542911,-0.0001231272,-0.00361563,-0.00148934,-0.002881605,-0.005675166,0.007900555
1.021857,-0.07286086,0.07176381,-0.001762319,-0.0026574,-0.005167427,-0.005301755,-0.005718004,0.007747099
1.019997,-0.06822325,0.07346167,-0.00361672,0.001887023,-0.003479279,-0.006815978,-0.005411692,0.006583465
1.021188,-0.06587386,0.072668,-0.002420385,0.00414675,-0.00427957,-0.006949771,-0.006319297,0.006800117
1.023066,-0.06671272,0.07027786,-0.0005374629,0.003221633,-0.006673232,-0.01059746,-0.007667574,0.01107462
1.023559,-0.06896158,0.07580029,-3.906432e-05,0.0008897372,-0.001151192,-0.01347106,-0.007952447,0.01476285
1.023092,-0.07137579,0.08124732,-0.000501371,-0.001604385,0.004298509,-0.0132764,-0.005335614,0.01407017
1.021808,-0.07232656,0.07904743,-0.001779992,-0.002631949,0.002104078,-0.01209139,-0.002555256,0.0123463
1.02299,-0.07274339,0.07670642,-0.0005929041,-0.00312236,-0.0002290055,-0.01455472,-0.001238351,0.01173428
1.024739,-0.07193383,0.07619904,0.001160695,-0.002383074,-0.0007262595,-0.02814158,0.005484346,0.009215794
1.024713,-0.07161198,0.07396137,0.00114044,-0.002128097,-0.002951761,-0.04247627,0.01358746,0.006008333
1.024542,-0.070996,0.07137414,0.0009742766,-0.001575532,-0.005524853,-0.03514014,0.01051727,0.006346679
1.02086,-0.06789995,0.07445872,-0.002702433,0.00146055,-0.002424178,-0.02323391,0.006372235,0.006318914
1.01773,-0.06754551,0.08077206,-0.0058274,0.001758401,0.003907195,-0.02543773,0.01002537,0.005685487
1.020086,-0.06961398,0.08486328,-0.003467228,-0.0003634331,0.008018148,-0.01878915,0.006392162,0.007308335
1.02099,-0.07295155,0.08826949,-0.002557355,-0.003751231,0.01144531,-0.004658162,-0.00525838,0.008257347
1.021653,-0.07550331,0.08793299,-0.001888268,-0.006350061,0.01113038,0.001160594,-0.01262854,0.00868405
1.025013,-0.07405894,0.08508433,0.001477288,-0.004949495,0.008303239,0.001447258,-0.01112773,0.007463013
1.026288,-0.07424408,0.07971219,0.00275951,-0.005174994,0.002952065,-0.006295252,-0.005258194,0.005953796
1.026356,-0.07293613,0.07004883,0.00283434,-0.003903841,-0.00669115,-0.01045539,-0.006363165,0.009234537
1.02547,-0.07089283,0.06781902,0.001955482,-0.001893715,-0.008901562,-0.007718397,-0.007182409,0.0116174
1.023527,-0.07312378,0.06966473,1.968929e-05,-0.004154214,-0.007036871,-0.009548591,-0.004013977,0.008246031
1.023465,-0.07280591,0.06951578,-3.511391e-05,-0.003862283,-0.007166884,-0.009583406,-0.0035073,0.005187306
1.023856,-0.07528284,0.07611419,0.000363041,-0.006361527,-0.0005492759,-0.008466108,0.002457345,0.005888104
1.024463,-0.07929443,0.07929552,0.0009767024,-0.01039171,0.002651601,-0.004486285,0.006196372,0.005889358
1.024998,-0.07576141,0.07316395,0.001519097,-0.006873402,-0.003460127,0.001713994,0.004016284,0.003234147
1.023209,-0.07390067,0.07009909,-0.0002632282,-0.005023312,-0.006504853,-0.001728754,0.00525639,0.001204745
1.021554,-0.07534215,0.07078786,-0.001912396,-0.006471322,-0.005795519,-0.004914999,0.004776864,0.001511845
1.022097,-0.07603577,0.07221332,-0.00136321,-0.0071673,-0.004348863,-0.00281035,0.005343488,0.004686143
1.022617,-0.07930411,0.074488,-0.0008373712,-0.01043378,-0.002052226,-0.001122923,0.005190934,0.008214124
1.022008,-0.08326379,0.079022,-0.001439854,-0.0143872,0.002504549,0.002089631,-0.0007986362,0.007278939
1.022496,-0.08233393,0.08171286,-0.0009463893,-0.01344642,0.00521884,0.003710837,-0.005516856,0.003241175
1.024263,-0.07854687,0.07157351,0.0008267345,-0.009643458,-0.004896623,0.00348908,-0.006060111,0.001712859
1.025311,-0.07723998,0.06170857,0.001880504,-0.008315517,-0.01473725,0.004591935,-0.004149757,0.00308071
1.025121,-0.07505595,0.07017339,0.001695872,-0.006105243,-0.006247398,0.007461965,-0.003452307,0.004619226
1.023773,-0.0737551,0.08046453,0.0003538972,-0.004773022,0.004069768,0.01038173,-0.0017047,0.007332384
1.02336,-0.07442826,0.07941463,-5.42266e-05,-0.005409842,0.00304688,0.008828116,-0.00372609,0.006831934
1.023592,-0.07306905,0.07832565,0.0001825917,-0.004009535,0.001985641,0.004508771,-0.009854056,-0.0005816282
1.022591,-0.07518722,0.07722076,-0.0008127748,-0.006082037,0.0009089493,0.003664139,-0.006869633,-0.00545896
1.022041,-0.07577786,0.07249324,-0.001358426,-0.006622648,-0.003790062,0.005139488,-0.005280676,-0.004046215
1.021928,-0.07201422,0.07334048,-0.001467493,-0.002804762,-0.002914048,0.004168895,-0.006753881,-0.002860842
1.021978,-0.0723746,0.07757342,-0.001412595,-0.00310689,0.001347944,-0.002101291,-0.003777053,-0.004305181
1.022944,-0.07330799,0.076895,-0.0004419821,-0.003978309,0.0006988073,-0.01113766,-0.006130171,-0.005068982
1.023723,-0.07437483,0.07460885,0.0003412158,-0.004979686,-0.00155793,-0.01234449,-0.006629049,-0.006220661
1.022411,-0.07456281,0.074013,-0.0009662385,-0.005098945,-0.002124318,-0.008322057,-0.004229804,-0.009072053
1.021371,-0.07101275,0.07089587,-0.002002447,-0.001477078,-0.005211906,-0.007013049,-0.004427674,-0.004736838
1.023732,-0.07083803,0.06701113,0.0003635561,-0.001227729,-0.009066909,-0.004347738,-0.002054548,0.0009036311
1.024094,-0.07389852,0.07234532,0.0007298847,-0.004211054,-0.003702576,-0.006352667,-0.003362795,-0.002255269
1.022813,-0.07665234,0.08123928,-0.0005466083,-0.006885425,0.005222091,-0.01138687,-0.004952723,-0.003835375
1.023565,-0.07673332,0.0822363,0.0002098297,-0.006884785,0.006250229,-0.007983388,-0.005650035,-0.003088533
1.023734,-0.07391049,0.07712151,0.000383925,-0.003978219,0.001166647,-0.00377261,-0.0126674,-0.004022328
1.026165,-0.07366781,0.07153718,0.002819229,-0.003649792,-0.004386624,-0.0002096683,-0.01574759,-0.002931916
1.027483,-0.07574194,0.0722798,0.004142083,-0.005636313,-0.00361312,0.004285384,-0.01293908,-0.001871515
1.025723,-0.07906998,0.07509291,0.002386492,-0.008875007,-0.0007692271,0.003840551,-0.008721477,-0.001574626
1.02716,-0.08190081,0.07406409,0.003826491,-0.01161474,-0.001767306,0.004808259,-0.004310801,-0.001825946
1.026535,-0.08147267,0.07468477,0.003204618,-0.01109362,-0.001115942,0.005980233,-0.004248624,-0.001779585
1.024073,-0.07946292,0.07379831,0.000745029,-0.008988847,-0.001971768,0.003057287,-0.003708877,-0.001745702
1.024834,-0.07683082,0.07160338,0.001508232,-0.006259583,-0.004136106,0.001053941,-0.002032017,-0.00497015
1.024406,-0.07696852,0.07497215,0.001080953,-0.006297995,-0.0007367328,-0.002192462,-0.0009728147,-0.00886171
1.023329,-0.07658381,0.07662465,4.550692e-06,-0.005811961,0.0009463967,-0.004872802,0.002152383,-0.01040126
1.024752,-0.0720372,0.07051659,0.001426411,-0.001162128,-0.005131038,-0.009030552,0.002139317,-0.009924748
1.026992,-0.07149129,0.06420545,0.00366514,-0.0005113428,-0.01141148,-0.0179022,0.001169875,-0.00971798
1.026506,-0.0730254,0.06518275,0.003176787,-0.001939255,-0.01040312,-0.01977312,0.004368695,-0.008288611
1.024361,-0.07278289,0.07017214,0.001028897,-0.001589529,-0.005381922,-0.01832284,0.006550924,-0.005079653
1.025239,-0.07379664,0.07333373,0.001902854,-0.002495348,-0.002187534,-0.01741727,0.007028516,-0.006341467
1.02814,-0.07289222,0.0743721,0.004797953,-0.001482506,-0.001115303,-0.008743286,0.007005854,-0.007077479
1.029274,-0.07158742,0.07346352,0.005926404,-6.905268e-05,-0.001989035,-0.002475014,0.005250369,-0.005643
1.026688,-0.07275139,0.07339162,0.003333185,-0.001124395,-0.002025172,-0.0001089861,0.004939455,-0.006857858
1.023771,-0.07411383,0.07500744,0.0004073351,-0.002378483,-0.0003727398,0.006021306,0.005315501,-0.004930785
1.024864,-0.07522224,0.07501421,0.001489771,-0.003378991,-0.0003286291,0.009925285,0.003850799,-0.004630181
1.025358,-0.07439023,0.07502243,0.001972044,-0.002439672,-0.0002824582,0.01423254,0.003760413,-0.007509381
1.022699,-0.07292825,0.07510657,-0.0006988836,-0.0008710874,-0.0001598813,0.01751783,0.00309008,-0.006245186
1.021531,-0.0726071,0.07457968,-0.001880809,-0.000444193,-0.0006479794,0.01399173,0.001164822,-0.004527872
1.021434,-0.06855365,0.07381887,-0.001992595,0.003713939,-0.00136976,0.01103727,0.001484793,-0.002889711
1.020595,-0.06368603,0.07054284,-0.002846901,0.008684852,-0.004606566,0.008152349,-0.0001824134,-0.00322086
1.02127,-0.06654127,0.06844997,-0.002187671,0.00593106,-0.006659975,0.005614537,-0.001222863,-0.007347664
1.023673,-0.0701158,0.06971619,0.0001993855,0.002455659,-0.005353922,0.007280034,0.002915414,-0.00991442
1.025731,-0.0683587,0.070803,0.002240599,0.004309226,-0.00422675,0.009365495,0.005809647,-0.01134528
1.024983,-0.0692174,0.0718087,0.001475697,0.003544073,-0.003180075,0.01330222,0.006383122,-0.01255173
1.022592,-0.07021619,0.07310516,-0.0009321154,0.002635667,-0.001841979,0.01445731,0.004880986,-0.01035425
1.02199,-0.06704431,0.07423334,-0.001551239,0.005894583,-0.0006715376,0.01145811,0.001899671,-0.00645872
1.022121,-0.06440877,0.07395802,-0.001436633,0.008613562,-0.0009040609,0.0102915,0.002394981,-0.006747378
1.022289,-0.06200049,0.0728714,-0.001285644,0.01110134,-0.001947443,0.005132086,0.002806574,-0.007214791
1.022347,-0.06367998,0.07480907,-0.001244491,0.009497013,3.380611e-05,0.001595625,2.751815e-05,-0.005675525
1.02235,-0.0680825,0.07630461,-0.001257819,0.005164918,0.001573164,0.003454271,-0.002591255,-0.009875393
1.024177,-0.0679707,0.07442203,0.0005522465,0.005342191,-0.0002655201,0.002800752,-0.003478048,-0.01440236
1.02536,-0.07086126,0.07544631,0.001720011,0.002512045,0.0008025747,0.005499626,-0.002861585,-0.0140602
1.024176,-0.07526203,0.07660973,0.0005204609,-0.001833351,0.002009592,0.01093059,-0.002491132,-0.0138754
1.023129,-0.07370782,0.07374948,-0.0005416743,-0.0002286363,-0.0008074349,0.0143625,-0.004661837,-0.0120238
1.023544,-0.07333879,0.07219744,-0.000141284,0.0001862677,-0.002316742,0.01376109,-0.01062588,-0.009992249
1.023778,-0.0755882,0.0678795,7.822646e-05,-0.002021652,-0.006592409,0.00883143,-0.01444414,-0.01562771
1.022446,-0.07639688,0.06301112,-0.001268085,-0.002792977,-0.01141883,0.00780922,-0.009063469,-0.02418638
1.022688,-0.07498279,0.06643374,-0.001039903,-0.001345367,-0.007954216,0.002704339,-0.001740144,-0.02422817
1.025883,-0.06981847,0.07059135,0.002142406,0.00384889,-0.003754275,-0.005388936,0.001262634,-0.02039406
1.028448,-0.0631827,0.0726817,0.004694352,0.01051111,-0.001621079,-0.004930137,0.004752758,-0.01861402
1.026162,-0.06246078,0.0735606,0.00239586,0.01125581,-0.0006988186,-0.007387076,0.003815507,-0.01475993
1.021745,-0.06656615,0.07299796,-0.002033118,0.00716927,-0.001217653,-0.01148526,-0.002160189,-0.01208133
1.022244,-0.06674356,0.07541519,-0.001545922,0.007006513,0.001243715,-0.01142214,-0.001561393,-0.01099797
1.02446,-0.06615692,0.07393884,0.0006583039,0.007603489,-0.0001883059,-0.01126182,-0.003854808,-0.008614758
1.025145,-0.06579551,0.07049601,0.001331594,0.007970822,-0.003586752,-0.01022854,-0.01226272,-0.007348468
1.025476,-0.06440203,0.07293445,0.001650827,0.009365715,-0.001103904,-0.01123265,-0.01335762,-0.004982015
1.024522,-0.06797089,0.07369372,0.0006860074,0.00579366,-0.0003002559,-0.009110044,-0.01350434,-0.003369389
1.025068,-0.06973696,0.07404977,0.001220767,0.004019745,0.0001000899,-0.003766281,-0.01459899,-0.005793827
1.025343,-0.06936831,0.07595948,0.001484913,0.004375995,0.002053887,0.003578184,-0.01712502,-0.008663081
1.024501,-0.07226226,0.07414235,0.0006323652,0.001465253,0.0002804907,0.01322914,-0.02288943,-0.01215324
1.025371,-0.07365396,0.0720958,0.001490996,5.257419e-05,-0.001722809,0.01257973,-0.02072524,-0.01628968
1.024561,-0.07335968,0.07046809,0.0006701418,0.0003219919,-0.0033078,0.01270078,-0.01827449,-0.01978709
1.023016,-0.06791995,0.07047132,-0.0008852134,0.005733288,-0.003262333,0.01786014,-0.01549363,-0.02200849
1.022379,-0.06130142,0.07343635,-0.001532656,0.01231995,-0.0002555039,0.01494035,-0.002003034,-0.01587771
1.023471,-0.05705554,0.0740574,-0.0004519682,0.0165304,0.0004069214,0.01101155,0.007898335,-0.007232792
1.026135,-0.05164374,0.07406072,0.002201899,0.02190282,0.0004511135,0.004091494,0.00975214,-0.01097761
1.024854,-0.05708649,0.07416939,0.0009099763,0.01641622,0.0006000744,0.0005804511,0.01100898,-0.01534402
1.023428,-0.06479075,0.07437957,-0.0005255822,0.008663163,0.0008498618,0.005110648,0.01146418,-0.01331473
1.024018,-0.06049157,0.07792172,5.427676e-05,0.0129084,0.004430814,0.001988976,0.01137626,-0.01428066
1.023001,-0.05969655,0.07845654,-0.0009731094,0.01364424,0.005003437,-0.001587366,0.01092095,-0.008654116
1.022856,-0.06145929,0.07482111,-0.001127939,0.01181696,0.001404602,-0.002605333,0.006956518,-0.0006878251
1.022158,-0.05787113,0.0728335,-0.001835749,0.01533514,-0.0005477981,-0.002009044,-0.0001741334,0.0004931598
1.021905,-0.05852769,0.07176011,-0.002097513,0.014603,-0.001587389,0.005750853,-0.001054868,0.007207951
1.023669,-0.0625922,0.07202406,-0.0003422841,0.01045724,-0.001291002,0.008775403,0.0004549839,0.0126413
1.023985,-0.06451393,0.07321135,-3.48507e-05,0.008448567,-7.2578e-05,0.009192965,-0.002340545,0.01246861
1.025396,-0.06444272,0.07460587,0.001368114,0.008427274,0.001351835,0.01409455,-0.002007332,0.01378508
1.026878,-0.06303559,0.07737971,0.002842506,0.009736553,0.004154259,0.0170607,-0.004815942,0.01130717
1.025468,-0.06257823,0.07782505,0.001425465,0.01009089,0.004626781,0.01514815,-0.01075934,0.009696156
1.024553,-0.05980087,0.07734285,0.0005029135,0.01276019,0.004170179,0.01030922,-0.009044275,0.01013639
1.02498,-0.05591673,0.07924242,0.0009234621,0.01653129,0.006093566,0.009092173,-0.006578417,0.01047742
1.025239,-0.0571154,0.07882183,0.001175486,0.01521454,0.005694805,0.008590136,-0.00451269,0.01200862
1.024845,-0.05951539,0.0758643,0.0007757867,0.01269134,0.002756938,0.005193437,-0.002296249,0.003057984
1.025306,-0.06438277,0.07270251,0.001229517,0.007695631,-0.000387458,-0.0001306814,-0.002689485,-0.00664018
1.026987,-0.07004958,0.07075524,0.002904595,0.0018956,-0.002319549,-0.005844951,0.003022822,-0.00080043
1.027753,-0.06668389,0.0709177,0.003663182,0.005123584,-0.00214396,-0.002442425,0.009389143,0.004688475
1.026315,-0.06384378,0.06913442,0.00221885,0.00782197,-0.003915934,0.000704971,0.006762145,0.00285798
1.024075,-0.06869938,0.06847011,-2.86456e-05,0.002821034,-0.004570494,-0.003756092,0.003728902,0.003739484
1.024486,-0.07079765,0.06913245,0.0003746758,0.0005742341,-0.003899676,-0.003765591,0.003861252,0.005671985
1.024072,-0.07046021,0.0659262,-4.712867e-05,0.0007604657,-0.007098416,-0.001735734,0.0013182,0.006250176
1.022,-0.07367929,0.06621944,-0.002126719,-0.002611919,-0.006798291,0.004206473,-0.001726501,0.00674577
1.023827,-0.07508528,0.06950479,-0.0003087144,-0.004172689,-0.003506349,0.0139604,-0.001822982,0.006134788
1.024362,-0.06960554,0.06999373,0.0002185238,0.001151464,-0.003010822,0.01623418,-0.004363996,0.007167025
1.022796,-0.06489605,0.07190789,-0.001356477,0.005705063,-0.001089951,0.01938172,-0.007485066,0.00859551
1.024514,-0.06819903,0.07226856,0.0003531695,0.00224624,-0.0007223325,0.02325903,-0.005153967,0.007539105
1.02588,-0.07101395,0.0682694,0.00171115,-0.0007242327,-0.004714285,0.01423808,-0.00220828,0.007852033
1.025703,-0.0675859,0.06589118,0.001525455,0.002548887,-0.007084913,0.003136047,-0.002321691,0.0075246
1.024397,-0.06558486,0.06895088,0.0002106738,0.004395925,-0.004017007,0.0003021235,-0.003518665,0.004468103
1.024116,-0.06539342,0.07441926,-7.823537e-05,0.004434489,0.001460328,-0.004591222,-0.004239406,0.002339204
1.025318,-0.06470889,0.07680009,0.001114723,0.00496737,0.00385089,-0.01159271,-0.007380057,0.002603193
1.021198,-0.06571405,0.07606609,-0.003013443,0.003811896,0.00312719,-0.01187798,-0.01103562,0.00424544
1.018487,-0.06546663,0.07354457,-0.00573269,0.003910412,0.0006163296,-0.01086361,-0.008558265,0.004420102
1.023624,-0.06578723,0.07133041,-0.0006045415,0.003442442,-0.001586949,-0.01413542,-0.008372916,0.004967001
1.027236,-0.06742041,0.0721055,0.002999699,0.001663517,-0.0008008038,-0.01403208,-0.01243107,0.005685137
1.02655,-0.06645905,0.07232934,0.002306892,0.002480916,-0.0005657227,-0.007163869,-0.01277908,0.00482914
1.025012,-0.06594937,0.07014459,0.0007614762,0.002848554,-0.002739044,-0.001497342,-0.01286116,0.005668629
1.024809,-0.06431281,0.06889483,0.0005509876,0.004345099,-0.003977143,-0.001544759,-0.01193532,0.005975556
1.025217,-0.06121365,0.06958099,0.0009519814,0.007306299,-0.003278965,-0.003027522,-0.01250957,0.006112684
1.024585,-0.06162601,0.07041116,0.0003131019,0.006757993,-0.002436328,-0.003138172,-0.01378062,0.006985697
1.02428,-0.0623405,0.07006214,2.069353e-06,0.005909441,-0.002772326,-0.00811194,-0.007341072,0.00628994
1.023504,-0.06261619,0.06925541,-0.0007811094,0.005501484,-0.003565415,-0.01466903,-0.0008719587,0.006578147
1.02423,-0.06534633,0.06942766,-6.084484e-05,0.002640815,-0.003378837,-0.01119091,0.003690756,0.006540443
1.025574,-0.06928683,0.07071592,0.001276648,-0.001428425,-0.002075473,-0.00647198,0.007288907,0.006353326
1.023682,-0.07162937,0.07180012,-0.000622324,-0.003897727,-0.0009753649,-0.005892999,0.008696413,0.006691194
1.02214,-0.06930193,0.07158373,-0.002170243,-0.001694772,-0.001175045,-0.003222104,0.01198346,0.005840809
1.021215,-0.06672232,0.07042999,-0.003100749,0.0007629166,-0.002311317,-0.002869511,0.009458792,0.005750247
1.020419,-0.06833661,0.06965264,-0.003902336,-0.0009705328,-0.003070448,-0.00320615,0.005768046,0.004864624
1.021158,-0.06852643,0.06949629,-0.003168642,-0.0012766,-0.003207802,-0.003565786,0.008690794,0.004019872
1.022104,-0.06707775,0.06925562,-0.002226683,5.888677e-05,-0.003428636,-0.005078593,0.009899801,0.004649717
1.024216,-0.0666273,0.06931521,-0.0001189234,0.0003993169,-0.003348336,0.0004023543,0.009401624,0.005235579
1.025711,-0.06474883,0.06869327,0.001373674,0.002170993,-0.003948623,0.006971357,0.009352857,0.007491307
1.024956,-0.06478372,0.06757118,0.0006156644,0.002032531,-0.005048041,0.006382569,0.0112556,0.009444817
1.025094,-0.06621626,0.06790446,0.0007520099,0.0004996046,-0.004690996,0.003852648,0.01201455,0.008281593
1.026985,-0.06573079,0.06738469,0.002641847,0.0008878492,-0.005185808,0.001452576,0.006485522,0.006620914
1.028144,-0.06725953,0.0663319,0.00380107,-0.0007349662,-0.006212312,-0.0003785564,0.002858389,0.007761914
1.026964,-0.06891847,0.06758859,0.00262044,-0.002484773,-0.004927919,0.002434445,0.004415551,0.008268797
1.02584,-0.06936447,0.06852595,0.00149575,-0.003018342,-0.003961338,0.005880658,0.007432447,0.005667213
1.026435,-0.06985042,0.067984,0.002089881,-0.003588447,-0.00447249,0.001992288,0.00871335,0.005736461
1.026269,-0.06760475,0.06809066,0.001923042,-0.001423369,-0.004333428,-0.001446631,0.00632115,0.009876124
1.024029,-0.06503419,0.06854402,-0.0003178768,0.001070241,-0.003846068,0.0004293042,0.004270407,0.01361279
1.021684,-0.06392619,0.06702015,-0.00266374,0.002104882,-0.005334305,-0.002025277,0.001745365,0.01075537
1.021789,-0.06597799,0.06413355,-0.002560233,-1.679697e-05,-0.008183609,-0.005721984,0.0002449097,0.004453668
1.023662,-0.06930917,0.06305777,-0.0006876825,-0.003414461,-0.009220296,-0.005274897,0.001443144,0.004134095
1.024274,-0.06627166,0.06352265,-7.728495e-05,-0.0004400401,-0.008714344,-0.004890813,-0.0007933024,0.005357587
1.024719,-0.06383846,0.06646927,0.0003667678,0.001933448,-0.005724502,-0.004189448,-0.001634714,0.005722274
1.025526,-0.06613029,0.07140809,0.00117225,-0.000414806,-0.0007402162,-0.004298015,-0.0005089266,0.006552137
1.023811,-0.06619091,0.07140067,-0.0005443265,-0.0005286629,-0.0007000517,-0.005889746,-0.001808493,0.005657028
1.022862,-0.06659871,0.06831326,-0.001494377,-0.0009865973,-0.003737937,-0.006565871,0.0007920507,0.006211419
1.023194,-0.06731228,0.06647762,-0.001162882,-0.001747233,-0.005522273,-0.009055282,0.004512975,0.005924704
1.021704,-0.06676423,0.0644958,-0.002654002,-0.001243215,-0.007451045,-0.01210879,0.00590527,0.004605257
1.022098,-0.06707377,0.06764705,-0.002260603,-0.001593772,-0.004244972,-0.01353992,0.00392589,0.005223024
1.022661,-0.06707236,0.07314389,-0.001697993,-0.001630403,0.001308449,-0.01465399,2.534896e-05,0.006039728
1.021976,-0.06991653,0.07378255,-0.002382533,-0.004509645,0.002005239,-0.009848921,0.004328699,0.00765245
1.023346,-0.0732272,0.07291802,-0.001012071,-0.007852362,0.00120009,-0.003112897,0.008579191,0.005738566
1.023884,-0.07182531,0.07091425,-0.0004728131,-0.006479336,-0.0007433727,-0.003885342,0.007538049,0.002420467
1.023727,-0.07085276,0.07131916,-0.0006276498,-0.00553226,-0.0002774851,-0.003883093,0.009210214,0.004262595
1.024532,-0.07016379,0.07410592,0.0001787756,-0.004865255,0.002570697,-0.001906114,0.00775244,0.006305003
1.024638,-0.06866499,0.07365639,0.0002880726,-0.003384834,0.002182797,-0.003725095,0.005849577,0.007664657
1.022572,-0.06968321,0.07363657,-0.001774786,-0.004417829,0.002224509,-0.003429583,0.006155385,0.009285134
1.019881,-0.06967676,0.0707831,-0.004462445,-0.004422573,-0.0005677678,-0.003527719,0.001118201,0.008627933
1.021865,-0.06884796,0.06556256,-0.002474248,-0.003601378,-0.005727628,-0.005344604,-0.001858258,0.006436117
1.025055,-0.0690726,0.06641329,0.0007209254,-0.003830091,-0.004816704,-0.00213174,0.0003211959,0.004888673
1.025066,-0.06854487,0.06937564,0.0007367513,-0.003302937,-0.001794564,-0.0005647754,0.002559321,0.00525609
1.024772,-0.06952543,0.07067897,0.0004494707,-0.004280639,-0.0004318194,-0.002518434,0.006304175,0.00468038
1.023144,-0.06997451,0.07107731,-0.001172059,-0.004723485,2.55108e-05,-0.001120693,0.007462256,0.003920352
1.021556,-0.06872672,0.07101654,-0.002753232,-0.003466133,2.318529e-05,0.0009806825,0.005952885,0.004860825
1.022249,-0.06858181,0.07108855,-0.002052872,-0.003308398,0.0001529874,0.0025512,0.00747203,0.004260166
1.022426,-0.06702238,0.07036479,-0.001867547,-0.001732961,-0.0005137661,0.001084281,0.007482141,0.002363908
1.022272,-0.06616189,0.07050082,-0.002013076,-0.000853447,-0.0003215831,-0.002634849,0.002667863,0.001347209
1.023109,-0.06811856,0.07430263,-0.001166835,-0.002788255,0.003535413,-0.0008307816,-0.00397682,0.003459703
1.024126,-0.06919372,0.07813349,-0.000139743,-0.003838878,0.007420305,0.0006266613,-0.007506767,0.007833535
1.024578,-0.06964816,0.07886473,0.0003226674,-0.004266198,0.00820411,-0.0005301531,-0.004487228,0.01054731
1.025033,-0.06956034,0.08170029,0.0007884448,-0.00414873,0.01109032,0.0002285977,-0.001060963,0.008679164
1.025105,-0.06972163,0.08116836,0.0008721986,-0.004277909,0.01060663,-0.0003305626,-0.0001204425,0.002070305
1.023871,-0.07231871,0.07284292,-0.0003505395,-0.006840436,0.002326598,-4.34596e-06,-0.0007558802,-0.0008833229
1.023706,-0.0740344,0.06933896,-0.0005033147,-0.008519119,-0.001135036,0.000232349,-0.003230087,0.001189991
1.025465,-0.07169174,0.07217278,0.001267941,-0.00613689,0.001738035,-0.003024881,-0.0009360417,0.002991735
1.026567,-0.06802812,0.07535544,0.002382169,-0.002431117,0.004956928,-0.005088703,0.002435968,0.004937449
1.024673,-0.06747945,0.07583486,0.0005007076,-0.001837759,0.005469532,-0.003156957,0.0008374198,0.00430998
1.021532,-0.0686098,0.07430935,-0.002628488,-0.002921056,0.003974038,0.0004544012,-0.0003914229,0.003346432
1.021059,-0.0688407,0.07586721,-0.00308885,-0.003102722,0.005558648,0.0006059054,-0.00379229,0.003460895
1.020997,-0.06983455,0.07530029,-0.00313805,-0.004045284,0.005015134,-0.000649261,-0.00916321,0.001336187
1.020591,-0.07093666,0.07297003,-0.003531763,-0.005094157,0.002704848,0.0005562511,-0.01087908,0.0004910604
1.022037,-0.07272061,0.07218003,-0.002072977,-0.006822969,0.001931406,0.001531039,-0.008878794,-0.000850579
1.022471,-0.07536424,0.0671313,-0.001625625,-0.009409525,-0.003104096,0.003302654,-0.00443894,-0.003733422
1.022293,-0.07527807,0.0629827,-0.001790547,-0.009264236,-0.007242533,0.005134721,-0.004111921,-0.003923734
1.023377,-0.07429508,0.06538081,-0.0006922686,-0.008219939,-0.004836919,0.006343632,-0.008615705,-0.00293841
1.024669,-0.07378389,0.07088046,0.0006140792,-0.007645134,0.000668009,0.009606254,-0.01424283,-0.001600688
1.025472,-0.07340892,0.07533279,0.001432013,-0.007204159,0.005123624,0.01243906,-0.01858012,-0.00119114
1.024703,-0.07563214,0.075658,0.0006779843,-0.00935894,0.005450153,0.01531065,-0.01673188,-0.003628243
1.023748,-0.07716263,0.07459346,-0.0002621031,-0.01081849,0.004384866,0.01746208,-0.01581026,-0.002793507
1.022722,-0.07546234,0.0749565,-0.00127237,-0.009044639,0.004744983,0.01675164,-0.01704002,0.003209959
1.021638,-0.07288491,0.07435617,-0.002340715,-0.006390914,0.004139492,0.01713403,-0.01243832,0.005437652
1.022736,-0.07045442,0.06999798,-0.001228009,-0.003881436,-0.0002261261,0.01263441,-0.008892331,0.004076936
1.024374,-0.07068689,0.06489307,0.0004263841,-0.004032335,-0.005340617,0.004842686,-0.008804835,0.003830226
1.026141,-0.07222854,0.06436075,0.002208965,-0.005490021,-0.005884372,0.007347434,-0.007564368,0.002362546
1.026565,-0.07125356,0.06608919,0.002648281,-0.004428842,-0.004168796,0.007884627,-0.006690029,-1.491356e-05
1.023146,-0.06791763,0.06618751,-0.0007547656,-0.00100465,-0.004084385,-0.003455653,-0.005794958,-0.002356981
1.020447,-0.06391052,0.06600972,-0.003439022,0.003092495,-0.004276794,-0.01344313,-0.003587511,-0.002600401
1.020914,-0.06452684,0.06446849,-0.002956829,0.002567604,-0.005833032,-0.0189934,-0.002175725,-0.001349981
1.022815,-0.06662721,0.06135842,-0.001040786,0.0005595802,-0.008958143,-0.02193087,-0.005014426,-0.0005440139
1.024582,-0.0650775,0.06283452,0.0007412931,0.002202151,-0.00749672,-0.02147685,-0.008179025,0.001143724
1.025409,-0.06831437,0.06668158,0.001583656,-0.0009417042,-0.003663568,-0.01914386,-0.006497723,4.57929e-05
1.02667,-0.07386398,0.06667403,0.00285933,-0.006398399,-0.003683992,-0.01446927,-0.005339702,0.0008690018
1.026986,-0.07487784,0.06488629,0.003190387,-0.00731952,-0.005483375,-0.007033113,-0.005643938,0.004880962
1.026813,-0.07500909,0.06247804,0.003031596,-0.007358118,-0.00790184,-0.0007431304,-0.0005877338,0.004923055
1.027137,-0.07290505,0.06045599,0.003369518,-0.005161409,-0.009932419,-0.001985385,0.008473771,0.004469207
1.022674,-0.07040878,0.05913658,-0.001080077,-0.002572389,-0.01125832,-0.004758799,0.01489448,0.002442393
1.017689,-0.06947997,0.05855935,-0.006053404,-0.001550824,-0.01183957,-0.00340559,0.01500877,0.001747382
1.020892,-0.06715472,0.06160178,-0.002838419,0.0008670586,-0.008798313,-0.001974039,0.00774311,0.003238503
1.024013,-0.06530393,0.06939501,0.0002932199,0.002810121,-0.001003123,-0.0006473004,-0.0007302045,0.001917117
1.021614,-0.06433063,0.07808849,-0.00209474,0.00387501,0.00769543,-0.006882286,-0.002251371,0.006422271
1.021808,-0.06241193,0.07644219,-0.001889134,0.005884258,0.006056958,-0.01675446,-0.001167662,0.01099877
1.02297,-0.05866519,0.07076789,-0.0007170894,0.009720052,0.0003927707,-0.01478823,-0.002332063,0.008224228
1.022056,-0.05874628,0.06925351,-0.001621061,0.009725998,-0.001109592,-0.009449004,-0.0003556063,0.004101861
1.024095,-0.06706945,0.06131619,0.0004289213,0.001487338,-0.009033107,-0.006548783,0.002436601,-0.0002508601
1.025635,-0.07328642,0.06127723,0.001979402,-0.00464796,-0.009056401,0.0006909313,-0.0005180628,-0.003408455
1.023746,-0.07155885,0.06999751,0.0001004,-0.002841537,-0.0003184134,0.009874005,-0.004459302,-0.009007373
1.022334,-0.0703329,0.06609538,-0.00130134,-0.001539437,-0.004200712,0.01642741,-0.006328328,-0.01109559
1.021951,-0.07346962,0.06044362,-0.001674949,-0.004602574,-0.009830536,0.01737593,-0.007951656,-0.00719819
1.022652,-0.07454049,0.05652706,-0.0009639857,-0.005602257,-0.01372289,0.01387692,-0.009277229,-0.0084978
1.024289,-0.07443874,0.05825151,0.000682575,-0.00543151,-0.01197164,0.01030651,-0.01092812,-0.006673695
1.02627,-0.0761786,0.06972162,0.002672143,-0.007104297,-0.0004718369,0.01068748,-0.01097939,-0.00308884
1.02702,-0.07541841,0.07236066,0.003431401,-0.006278682,0.002199812,0.01321711,-0.009264946,-0.006626964
1.026191,-0.07630933,0.07188271,0.002611538,-0.007105547,0.001757128,0.01109806,-0.004700321,-0.008322206
1.02726,-0.0773514,0.06628678,0.003688714,-0.008084648,-0.003801231,0.00784289,0.001981742,-0.008740972
1.027963,-0.07537124,0.05652393,0.004399164,-0.006042335,-0.01352435,0.004514687,0.0009746455,-0.007511347
1.025799,-0.0768446,0.06678287,0.002242647,-0.00745408,-0.00322345,-0.0001896018,-0.0009369499,-0.002657132
1.024424,-0.07574404,0.0746757,0.0008736232,-0.006292246,0.00471362,0.001024285,0.002676507,-0.001875122
1.024522,-0.07121884,0.06590469,0.0009759396,-0.001705917,-0.004011081,0.001769122,-0.00189832,-0.003571668
1.023552,-0.06919349,0.06365108,9.870852e-06,0.0003804543,-0.006216531,-0.003241549,-0.007483266,-0.005238654
1.021523,-0.07022736,0.06681564,-0.002015875,-0.0005925979,-0.003002055,-0.004610023,-0.004260655,-0.007324964
1.021889,-0.07384297,0.06795219,-0.001647609,-0.004147707,-0.001813867,-0.001818069,-0.001437578,-0.005894855
1.022899,-0.0720853,0.06987215,-0.0006364971,-0.002329876,0.0001593036,0.0001262861,0.002111287,-0.00479146
1.021797,-0.07018902,0.07325319,-0.001737775,-0.000373791,0.003594913,-0.0006774395,0.005698632,-0.009466162
1.022205,-0.07181065,0.07300937,-0.0013297,-0.001936018,0.00340667,-0.00188392,0.006905444,-0.01264203
1.022732,-0.06987849,0.07097392,-0.0008029052,5.506956e-05,0.001427461,-0.0017489,0.009450145,-0.008032872
1.022722,-0.06969503,0.0723633,-0.0008129766,0.0002968907,0.002873379,-0.003073677,0.008464118,-0.002826111
1.024133,-0.06792439,0.06932845,0.0005972228,0.0021252,-0.0001049025,-0.004650763,0.00400814,-0.002618531
1.023698,-0.06518547,0.06443312,0.000161244,0.004920901,-0.004943818,-0.006723067,0.001287497,-0.002156987
1.023234,-0.06734829,0.06333708,-0.0003030625,0.002813741,-0.005983624,-0.01032333,0.002092465,0.000444332
1.023961,-0.06671302,0.06212712,0.0004219801,0.003503286,-0.00713743,-0.01360362,0.004546151,0.00228283
1.023446,-0.06622801,0.06329408,-9.394777e-05,0.004040966,-0.0059142,-0.01748789,0.00294789,0.004424799
1.023941,-0.06719207,0.06384698,0.0003995304,0.003127745,-0.005304754,-0.01960423,0.001868824,0.005283074
1.025542,-0.06625645,0.05969877,0.001999041,0.004112188,-0.009396001,-0.01838803,0.003374286,0.00582846
1.026588,-0.06686481,0.05508059,0.00304278,0.003550452,-0.01395656,-0.01776904,0.004610519,0.00906877
1.025831,-0.06668927,0.05288418,0.002283417,0.003770266,-0.01609434,-0.01799439,0.008160246,0.006973752
1.024268,-0.06648006,0.05458022,0.0007183047,0.004021245,-0.01433812,-0.016987,0.007643124,0.000790234
1.025068,-0.06710246,0.06205597,0.001514897,0.003437981,-0.006800205,-0.0142851,0.005285982,-0.0004779336
1.025365,-0.06732892,0.07210336,0.001808474,0.003247937,0.003311492,-0.0100648,0.006487134,-0.0002606278
1.024405,-0.06881823,0.07133711,0.0008443978,0.001792228,0.002611526,-0.006569917,0.00274374,-0.0004224096
1.024328,-0.06994193,0.06070494,0.0007627972,0.0006993218,-0.007952743,-0.004355752,-0.0006434549,-0.002572455
1.023366,-0.07089191,0.05686965,-0.0002039086,-0.000222638,-0.01171866,-0.001883058,0.0006734227,-0.005853846
1.023489,-0.07041298,0.06003202,-8.724349e-05,0.0002816608,-0.008485303,-0.003315814,-0.0009033898,-0.0041274
1.025118,-0.06935952,0.0635703,0.001536028,0.001357928,-0.00487428,-0.007224982,-0.003542531,-0.001722918
1.026269,-0.07309458,0.06531828,0.002680375,-0.002356758,-0.003051772,-0.005440683,-0.004571139,5.227761e-05
1.028186,-0.07611093,0.06756362,0.004590962,-0.005355014,-0.0007302275,-0.00231129,-0.00470298,0.002809089
1.027305,-0.07268197,0.07114423,0.003701543,-0.001909957,0.002928004,0.0002073704,-0.003392874,0.001600365
1.022147,-0.06838395,0.06859592,-0.001464848,0.002402398,0.0004583905,0.003828249,0.001767853,-0.001665893
1.019766,-0.0674632,0.06493058,-0.003854449,0.003335812,-0.003127497,0.003143914,0.006938763,-0.001028988
1.022712,-0.06795187,0.06392904,-0.0009179014,0.002858104,-0.004049052,0.00562817,0.003457572,0.002349162
1.024772,-0.06732368,0.06295273,0.001131665,0.003495497,-0.004944931,0.01172328,-0.001917706,0.002471131
1.023298,-0.06664265,0.06600332,-0.0003521793,0.004183899,-0.00181351,0.009545454,-0.001142346,0.002308467
1.023279,-0.06832681,0.06741014,-0.0003815076,0.002505208,-0.0003255553,0.005758661,0.001972124,0.003727067
1.024106,-0.07010156,0.06786268,0.0004350027,0.000733984,0.0002082541,0.001792296,0.006428995,0.001718765
1.023294,-0.06824885,0.06855046,-0.0003881843,0.002588311,0.0009772108,-0.007526076,0.01162667,0.001086482
1.023822,-0.06552903,0.06441198,0.000128638,0.005307855,-0.003080399,-0.009641401,0.0139194,0.001081248
1.024867,-0.06554342,0.06441553,0.001162933,0.005291252,-0.002996421,-0.0008590245,0.01121238,-0.0003607481
1.025909,-0.06821958,0.06975164,0.002193971,0.002610826,0.002419574,0.005548176,0.007199685,0.001398658
1.026611,-0.07220213,0.07541702,0.002884313,-0.001378029,0.008164096,0.006084282,0.008292257,0.002563623
1.02443,-0.07291696,0.07558478,0.0006920373,-0.00210111,0.00840986,0.007986344,0.009651959,0.00351718
1.022725,-0.07075699,0.06811101,-0.001024171,4.890022e-05,0.001012476,0.01278602,0.007522887,0.004896242
1.023137,-0.07046388,0.06563607,-0.0006241542,0.0003305157,-0.001388011,0.020865,0.007351211,0.004791441
1.023937,-0.06988367,0.06789578,0.0001640599,0.0008978586,0.0009440928,0.02973152,0.006984613,0.005658854
1.025489,-0.0678289,0.06991967,0.001703071,0.002938477,0.003038271,0.02568667,0.006657124,0.007257102
1.026107,-0.06599412,0.06982804,0.002309373,0.004757835,0.003014675,0.01700338,0.007636946,0.008576268
1.02518,-0.06473821,0.06600127,0.001370462,0.005997007,-0.0007464443,0.01958083,0.006356511,0.004581832
1.024027,-0.06503175,0.06651774,0.0002049528,0.005685284,-0.0001667801,0.01698923,0.006944962,0.000100481
1.02321,-0.06469292,0.06811282,-0.0006245312,0.006004354,0.001489039,0.008690013,0.008129582,0.00330002
1.024104,-0.06321267,0.06783084,0.0002562283,0.0074631,0.001265316,0.004627302,0.008079786,0.004564465
1.026568,-0.06292906,0.06781114,0.002707855,0.007723326,0.001301354,-0.005990825,0.009202031,0.003172707
1.028374,-0.06252483,0.06372338,0.004500529,0.0081021,-0.002733188,-0.01456993,0.008971427,0.005070461
1.027414,-0.06270657,0.0595523,0.003527653,0.007892637,-0.006853482,-0.01558834,0.008525461,0.00579465
1.023716,-0.06613656,0.0582437,-0.0001843417,0.004432523,-0.00811346,-0.01575741,0.006353543,0.003238895
1.021254,-0.07123935,0.05935488,-0.002659452,-0.0007028338,-0.006955445,-0.01200749,0.004515231,-0.0007683872
1.022218,-0.07434802,0.06153863,-0.001710365,-0.003846341,-0.004726276,-0.009497747,0.006138189,-0.00268544
1.023595,-0.07388712,0.06287678,-0.0003472767,-0.003422206,-0.003343842,-0.004913767,0.006858299,-0.002167645
1.023862,-0.07255821,0.06463003,-9.506241e-05,-0.002131585,-0.001547266,0.002406052,0.008574292,-0.0009991776
1.024303,-0.07104443,0.06395598,0.0003317294,-0.0006572675,-0.002178878,0.00384632,0.009780724,0.001698993
1.024237,-0.06741977,0.06428361,0.0002512953,0.002927008,-0.001809629,0.003984964,0.008579492,0.003356662
1.024921,-0.1688042,-0.07182171,0.001914075,0.01701603,0.02080954,0.02219198,0.1234265,-0.1407101
1.025669,-0.1711997,-0.06814935,0.002475982,0.01302022,0.02372066,0.02214642,0.1296236,-0.1441845
1.02341,-0.1675218,-0.06408747,4.30174e-05,0.01511429,0.02700847,0.02596858,0.1234337,-0.1438052
1.022115,-0.164164,-0.06110212,-0.001414435,0.0169072,0.02920867,0.02305305,0.1112816,-0.145422
1.020336,-0.1677326,-0.06244134,-0.003345066,0.01179472,0.02707476,0.02484895,0.1092439,-0.1453432
1.018652,-0.1703826,-0.06326188,-0.005170152,0.007623927,0.02545143,0.02068251,0.1109811,-0.1438951
1.019581,-0.1638992,-0.062248,-0.004372193,0.01261144,0.02565582,0.009283378,0.1121445,-0.146024
1.020002,-0.1565243,-0.0647431,-0.004071465,0.01851704,0.02234595,0.003103115,0.1137055,-0.1431742
1.020662,-0.154445,-0.06791953,-0.003520949,0.01915512,0.01835085,0.001224768,0.1097602,-0.1373348
1.02108,-0.1540147,-0.06875087,-0.003203336,0.01817309,0.01669842,0.006938544,0.1047547,-0.1339787
1.019108,-0.1562972,-0.07008853,-0.00526553,0.01450804,0.01453875,0.009213171,0.1020822,-0.1291296
1.018969,-0.158525,-0.07240557,-0.005485334,0.01092824,0.0114003,0.009660197,0.1031068,-0.1288059
1.020968,-0.1585375,-0.07458593,-0.003558023,0.00959519,0.00840067,0.01580677,0.1151767,-0.1302826
1.021174,-0.158302,-0.07499982,-0.003414135,0.008542249,0.007171217,0.01764396,0.1273486,-0.1280687
1.021503,-0.157792,-0.07229933,-0.003139123,0.007796744,0.009061389,0.01947693,0.1222659,-0.1281417
1.022721,-0.1562433,-0.06717214,-0.001967025,0.008123399,0.01338488,0.02469933,0.1134473,-0.1281292
1.022008,-0.1522171,-0.06366246,-0.002717589,0.01096163,0.01609862,0.03079465,0.1156311,-0.1282127
1.021292,-0.150287,-0.06540666,-0.003463643,0.01173801,0.01356713,0.03021244,0.1164932,-0.1289533
1.021527,-0.1516911,-0.0669978,-0.003250887,0.009214591,0.01119815,0.02615182,0.1145714,-0.1277121
1.021325,-0.1515718,-0.06590037,-0.003468836,0.008249042,0.01152798,0.03114073,0.1102689,-0.1281157
1.020752,-0.1515159,-0.065157,-0.004050152,0.007254411,0.01151474,0.03109462,0.1016939,-0.1262656
1.019745,-0.1536144,-0.06356701,-0.005059221,0.004139912,0.01235979,0.02864898,0.1078461,-0.1224444
1.020231,-0.1565426,-0.06480388,-0.004568877,0.0002301255,0.01039023,0.03173898,0.116284,-0.1218222
1.02117,-0.157638,-0.06935172,-0.003620462,-0.001812271,0.005122533,0.03242399,0.1117465,-0.1223949
1.020801,-0.1569296,-0.07173774,-0.003973661,-0.002016372,0.002030115,0.03896497,0.1132023,-0.1261434
1.021169,-0.1580436,-0.07280437,-0.003583987,-0.004008117,0.0002713226,0.04265949,0.1123253,-0.1290443
1.022601,-0.1605904,-0.0723064,-0.002125588,-0.007397916,9.212555e-05,0.03825649,0.1064403,-0.1265416
1.023998,-0.1604307,-0.07172914,-0.0006966532,-0.008046431,7.965849e-06,0.03536104,0.1089558,-0.1242688
1.022437,-0.1548278,-0.07232372,-0.002221977,-0.003216839,-0.001231611,0.02802788,0.1109326,-0.1210269
1.018745,-0.1492497,-0.07027611,-0.005873438,0.001622633,0.0001880184,0.02258332,0.1112799,-0.1170921
1.018358,-0.1502922,-0.06785125,-0.006215233,-0.0001241942,0.002002397,0.02443949,0.1088789,-0.1193984
1.022404,-0.1497774,-0.06508652,-0.002121648,-0.0002800263,0.004174501,0.02335339,0.1016454,-0.1222244
1.025943,-0.1438147,-0.06143017,0.001469989,0.005045025,0.007256219,0.01576368,0.09999422,-0.1169672
1.021897,-0.1437557,-0.0633347,-0.002520583,0.004498816,0.004795077,0.008949215,0.1016768,-0.1089643
1.01711,-0.1479265,-0.06784362,-0.007249491,-0.0002458716,-0.0002525076,0.007421821,0.1003554,-0.1033069
1.019997,-0.1498398,-0.06798545,-0.004301331,-0.002702414,-0.000914991,0.004529833,0.1008285,-0.1006274
1.021374,-0.1525581,-0.06529462,-0.002860792,-0.005934029,0.001273301,0.001323008,0.1034787,-0.09913089
1.020991,-0.152655,-0.06357416,-0.00317678,-0.006514861,0.002509355,-0.0004154821,0.102845,-0.09547001
1.023127,-0.1522417,-0.0662091,-0.0009720152,-0.006556545,-0.0005918937,-0.003886424,0.1022556,-0.09606318
1.02218,-0.154564,-0.06923205,-0.001848428,-0.009305569,-0.004063116,-0.004245165,0.1025832,-0.09640009
1.021698,-0.1540282,-0.06623022,-0.002257531,-0.009168511,-0.001491531,-0.002645235,0.09959215,-0.0909901
1.022833,-0.1533344,-0.06323498,-0.001048956,-0.008846018,0.001091479,-0.001756077,0.09654182,-0.09167699
1.02186,-0.1509967,-0.06224654,-0.001945868,-0.00685281,0.001685545,0.003665846,0.0935003,-0.091245
1.02188,-0.1468306,-0.05876568,-0.001848731,-0.003004837,0.004789584,0.01070099,0.09368136,-0.0877909
1.020679,-0.1476583,-0.05870637,-0.00297277,-0.004125293,0.004489237,0.01071594,0.09762867,-0.09074093
1.01875,-0.1477158,-0.06003193,-0.004822916,-0.004450737,0.002820693,0.0108161,0.09521019,-0.09038751
1.020375,-0.146474,-0.05746353,-0.00311858,-0.003453159,0.005062335,0.01775849,0.08976301,-0.08875058
1.021257,-0.1476553,-0.05876991,-0.00215726,-0.004855678,0.003444905,0.02146804,0.08832484,-0.08912139
1.019766,-0.1472219,-0.06271123,-0.003567484,-0.004621367,-0.0007922061,0.0257146,0.08862028,-0.09070721
1.019056,-0.1469637,-0.06429705,-0.004196578,-0.004541048,-0.002658924,0.03427867,0.08693341,-0.09470882
1.019844,-0.147507,-0.06437578,-0.00332712,-0.005241689,-0.003003914,0.03665144,0.0856358,-0.09084926
1.021755,-0.1474162,-0.06253294,-0.001334525,-0.005288546,-0.001412895,0.03834661,0.08727602,-0.08675254
1.02438,-0.148663,-0.06312369,0.001371465,-0.006654008,-0.002241282,0.04083289,0.08590048,-0.0873933
1.025473,-0.1488466,-0.06459719,0.002546525,-0.006938248,-0.003938496,0.03822066,0.08462265,-0.08522918
1.022876,-0.1467835,-0.06266115,3.090892e-05,-0.004958299,-0.002212495,0.03531501,0.08447173,-0.08638981
1.020464,-0.1464802,-0.05947708,-0.002300837,-0.004721441,0.0007749109,0.03025902,0.08126212,-0.08783636
1.020565,-0.1471227,-0.05677865,-0.002120394,-0.005414421,0.00328966,0.02448942,0.07991339,-0.08702244
1.020036,-0.146292,-0.06153383,-0.002569703,-0.00461894,-0.001636723,0.02558781,0.07885471,-0.08606063
1.019149,-0.147125,-0.06696947,-0.003379162,-0.00547285,-0.007231492,0.02866193,0.07800822,-0.07900609
1.019513,-0.1481177,-0.05895157,-0.002937665,-0.006472649,0.0006390302,0.02771804,0.07816496,-0.07169774
1.020707,-0.1473569,-0.05155135,-0.001667175,-0.005705963,0.007903276,0.02634157,0.07682351,-0.07103958
1.021944,-0.1482492,-0.05321229,-0.000354517,-0.006579982,0.006117151,0.02630266,0.07590695,-0.07081928
1.022507,-0.1484746,-0.05368634,0.0002832595,-0.006775313,0.005527946,0.02763405,0.07277581,-0.06902462
1.02227,-0.1489799,-0.05623819,0.0001195841,-0.007239289,0.002870272,0.03019904,0.0694732,-0.06992654
1.02202,-0.1506721,-0.06027576,-5.776581e-05,-0.008879667,-0.001264378,0.02707624,0.06827458,-0.07101119
1.022362,-0.147992,-0.06042137,0.0003550116,-0.006137606,-0.001498741,0.02310991,0.06549329,-0.06892098
1.022416,-0.1460424,-0.06115737,0.0004790212,-0.004116492,-0.002315501,0.02538229,0.06297624,-0.06453317
1.022803,-0.1471435,-0.05480326,0.0009343017,-0.005137101,0.003965559,0.02491007,0.06100911,-0.06154132
1.023148,-0.1472827,-0.04480702,0.001345436,-0.005187521,0.01389599,0.0231851,0.056411,-0.0628717
1.021962,-0.149128,-0.05097365,0.000224568,-0.006936197,0.007670046,0.02426324,0.05286368,-0.06279499
1.021901,-0.1500756,-0.06018045,0.0002260889,-0.007779985,-0.001590295,0.02499313,0.05866039,-0.06396377
1.022444,-0.1490586,-0.06150789,0.0008297655,-0.006652373,-0.002965977,0.02572168,0.06490469,-0.06633429
1.021146,-0.1477397,-0.06467825,-0.0004087832,-0.005216498,-0.006179454,0.02316789,0.06065934,-0.06225678
1.0205,-0.1452554,-0.06390719,-0.0009977729,-0.002609307,-0.005446408,0.01961826,0.05764919,-0.0614688
1.020908,-0.1472803,-0.06179988,-0.0005357147,-0.004505995,-0.003372014,0.01888778,0.05758162,-0.06118753
1.020698,-0.151002,-0.06070377,-0.0006919463,-0.008094606,-0.002303775,0.01921139,0.05351873,-0.05816636
1.019908,-0.150277,-0.05485736,-0.001431405,-0.007232181,0.003519633,0.02097728,0.05013665,-0.06123755
1.01916,-0.1509023,-0.05421135,-0.002129374,-0.007715894,0.004147207,0.0214072,0.04674569,-0.06122812
1.019545,-0.1508946,-0.05984008,-0.001697512,-0.00756281,-0.001495817,0.01956936,0.04425343,-0.05951964
1.020711,-0.1468212,-0.06442606,-0.0004853241,-0.003340624,-0.006092235,0.01731501,0.04369822,-0.05863939
1.022416,-0.1462848,-0.06511828,0.001263935,-0.00265231,-0.006791123,0.01361269,0.04043141,-0.05599437
1.025455,-0.1487729,-0.06427563,0.004345033,-0.004985738,-0.005951339,0.01020683,0.04070338,-0.05730282
1.02808,-0.1505764,-0.0659554,0.007010962,-0.006632397,-0.007630089,0.01010235,0.04515628,-0.05531607
1.027469,-0.1526999,-0.06336552,0.00643814,-0.008597045,-0.005035264,0.01114704,0.04668725,-0.05280946
1.023869,-0.1491614,-0.06188722,0.002875096,-0.004897947,-0.003548084,0.01085199,0.04907833,-0.05255741
1.021172,-0.1433573,-0.06748359,0.0002112379,0.001068189,-0.009131675,0.01231976,0.0523541,-0.04931502
1.021957,-0.1459143,-0.07095333,0.001027838,-0.001325764,-0.01258468,0.01336653,0.05314669,-0.04892489
1.022868,-0.1479274,-0.06978321,0.001968047,-0.00317509,-0.01139371,0.01157456,0.05312317,-0.0476101
1.022256,-0.145562,-0.06268212,0.001382483,-0.0006458348,-0.004267444,0.01131302,0.05096048,-0.04575456
1.023526,-0.1472982,-0.05866828,0.002675819,-0.002218297,-0.0002241063,0.008645364,0.04240885,-0.04449041
1.024108,-0.149363,-0.0621341,0.003279543,-0.004119913,-0.003656313,0.004966474,0.03404609,-0.04133635
1.021246,-0.1502267,-0.06145907,0.000436657,-0.004821158,-0.002943821,0.007563206,0.03815269,-0.04490054
1.019876,-0.1505649,-0.06135963,-0.0009164444,-0.004997816,-0.002803314,0.01121876,0.04111908,-0.04782824
1.01984,-0.1494654,-0.06338085,-0.0009380584,-0.003737907,-0.004780067,0.0142856,0.03388244,-0.04317969
1.019942,-0.1512018,-0.06224604,-0.0008234354,-0.005315038,-0.003597568,0.01650956,0.03123137,-0.04033006
1.022301,-0.1518883,-0.06239555,0.001545654,-0.005843629,-0.003696331,0.01605287,0.03154623,-0.04053041
1.02276,-0.150767,-0.06232409,0.002013296,-0.004565774,-0.003571225,0.01761557,0.03562651,-0.03976175
1.021523,-0.1508302,-0.0602265,0.0007834139,-0.004473773,-0.001417278,0.0186356,0.0425734,-0.04028061
1.021603,-0.1495496,-0.05782099,0.000868276,-0.003039587,0.001047059,0.0187006,0.03990664,-0.045666
1.020563,-0.1498703,-0.05773826,-0.0001678282,-0.003208226,0.001190768,0.01849752,0.03994918,-0.04758698
1.020708,-0.1500583,-0.06052637,-2.156148e-05,-0.00324599,-0.001534544,0.01125917,0.04517778,-0.04299615
1.022195,-0.1478082,-0.06200973,0.001465972,-0.0008475608,-0.00295359,0.004197511,0.04231975,-0.03796491
1.022188,-0.1472665,-0.06191703,0.001457714,-0.0001595984,-0.002795251,0.003130295,0.04051548,-0.03242097
1.022365,-0.1489469,-0.06078123,0.001632078,-0.00169599,-0.001592613,0.002181592,0.04250839,-0.03278191
1.022185,-0.1517236,-0.06166955,0.001447802,-0.004331022,-0.002413053,0.004865223,0.04025005,-0.03664918
1.021904,-0.151162,-0.06406768,0.00116077,-0.003630366,-0.004742405,0.01291674,0.03755075,-0.03762284
1.021561,-0.1472292,-0.06194534,0.0008115241,0.0004390076,-0.002550479,0.01717502,0.03627525,-0.04111879
1.02055,-0.1449168,-0.06181145,-0.0002069447,0.002885338,-0.002346254,0.01417781,0.03539238,-0.0406407
1.021675,-0.144822,-0.06315204,0.0009088678,0.003111194,-0.003615877,0.01204117,0.03508227,-0.0361417
1.022789,-0.1462549,-0.05898079,0.002012558,0.001806152,0.0006268742,0.01154438,0.03091703,-0.03513793
1.021703,-0.1460874,-0.05758903,0.000915348,0.002098139,0.002090476,0.00671577,0.02537808,-0.03371483
1.020528,-0.1457169,-0.05967265,-0.0002717724,0.002589462,7.880662e-05,0.00165577,0.02393919,-0.03220446
1.01992,-0.148321,-0.06348206,-0.0008920013,0.0001024596,-0.003658784,-0.0003826113,0.02475961,-0.02982781
1.021002,-0.1517413,-0.06756042,0.0001756381,-0.003204698,-0.007665531,-0.000867953,0.02617389,-0.02877402
1.022257,-0.1561439,-0.0612946,0.001416281,-0.007497942,-0.00132826,-0.001115123,0.02610658,-0.03081289
1.022098,-0.1582759,-0.0537176,0.001242638,-0.009524178,0.006320002,0.002688825,0.02584356,-0.03134648
1.021987,-0.1562089,-0.05559208,0.001116023,-0.00735458,0.004516336,0.01348334,0.02786117,-0.03393655
1.020485,-0.1544513,-0.05818079,-0.0004018544,-0.005497226,0.001997618,0.01882484,0.02796913,-0.03404248
1.018707,-0.1523165,-0.05840568,-0.00219668,-0.003265179,0.001841591,0.01684482,0.02696136,-0.03087123
1.019246,-0.1503973,-0.05902726,-0.001675049,-0.001251298,0.001287519,0.01706428,0.02810136,-0.0306281
1.018889,-0.1516927,-0.06093796,-0.002049303,-0.002454293,-0.0005571751,0.01725077,0.02758785,-0.02734303
1.017515,-0.1527334,-0.06321809,-0.003440216,-0.003404956,-0.002772892,0.01673032,0.02595645,-0.02643906
1.018372,-0.1514792,-0.06315613,-0.002600489,-0.002063041,-0.002648102,0.01576386,0.02706796,-0.02884441
1.020137,-0.1477426,-0.06288255,-0.0008524111,0.001759055,-0.002313192,0.01356674,0.02987479,-0.02675892
1.020968,-0.1427171,-0.06527884,-3.755351e-05,0.006867686,-0.004649571,0.01201272,0.03245438,-0.02602351
1.020203,-0.143772,-0.06596096,-0.0008175072,0.005893363,-0.005273085,0.01030881,0.0308432,-0.02593683
1.01903,-0.146936,-0.0646591,-0.002006555,0.002807116,-0.003913755,0.008943957,0.02909167,-0.02672335
1.020477,-0.1455734,-0.064832,-0.0005738207,0.004244222,-0.004030153,0.006637015,0.03344186,-0.02891757
1.022203,-0.147188,-0.06127393,0.001138473,0.002700938,-0.0004164492,-0.0001706713,0.03471712,-0.02674456
1.021542,-0.1483626,-0.05560805,0.0004644025,0.001594152,0.005304194,-0.006391634,0.03069161,-0.02557036
1.021103,-0.1461623,-0.05469673,1.20466e-05,0.003858793,0.006269191,-0.001437415,0.02618482,-0.02643385
1.020979,-0.1472256,-0.05616156,-0.0001241407,0.002856203,0.004856644,0.005874382,0.02224564,-0.02593418
1.021269,-0.1461108,-0.05814404,0.0001542539,0.004028161,0.002924741,0.003114473,0.02216611,-0.02497518
1.024152,-0.1448719,-0.06230123,0.003026276,0.005320499,-0.001183774,0.003752106,0.02204598,-0.02352151
1.02615,-0.1479347,-0.06915769,0.005013817,0.002307364,-0.007993477,0.007418004,0.0217024,-0.02389136
1.02458,-0.1491568,-0.07345683,0.003433324,0.001130954,-0.01224752,0.006087855,0.02345245,-0.02415148
1.023486,-0.1502295,-0.07061563,0.002328932,0.0001002332,-0.009362429,0.01075228,0.02333654,-0.02298745
1.022995,-0.1505697,-0.06279264,0.001827705,-0.00020159,-0.001496304,0.01309731,0.025422,-0.02195848
1.021762,-0.1484182,-0.05743913,0.0005844246,0.001984665,0.003899773,0.006726894,0.03012089,-0.02072231
1.023105,-0.1456652,-0.06556144,0.001916588,0.004768962,-0.00418056,0.002111267,0.03154698,-0.02068276
1.024322,-0.1409523,-0.07608786,0.003123396,0.009509759,-0.01466555,-0.001283993,0.03355533,-0.01987092
1.023244,-0.1411569,-0.06983633,0.002033472,0.009329397,-0.00837284,-0.002683555,0.03725889,-0.01549011
1.023284,-0.1465767,-0.05617732,0.002062189,0.003930031,0.005327466,-0.004078867,0.03727266,-0.01041508
1.021994,-0.147809,-0.04634115,0.0007599374,0.002714047,0.01520497,-0.005317679,0.03150697,-0.009584331
1.020411,-0.1472926,-0.04491672,-0.0008348088,0.003242999,0.01667021,-0.002733499,0.02137033,-0.009775266
1.022784,-0.1476842,-0.05380006,0.001525371,0.002860034,0.007826375,-0.002543914,0.01800723,-0.007301485
1.025358,-0.1496607,-0.06130993,0.004085862,0.0008884416,0.0003541313,-0.0003992984,0.02128869,-0.006378664
1.024926,-0.1526192,-0.06569883,0.003640949,-0.002068753,-0.003999243,0.006785721,0.01990459,-0.006505211
1.022729,-0.1512463,-0.06307901,0.001429631,-0.0006977271,-0.001345913,0.01174997,0.02167194,-0.009314067
1.020884,-0.1498486,-0.05437194,-0.0004299665,0.0006949704,0.007392775,0.01275339,0.02521065,-0.01305956
1.020627,-0.1501593,-0.05852018,-0.0007018987,0.0003765872,0.003274182,0.01379891,0.02338855,-0.01253157
1.021841,-0.1485383,-0.06120438,0.0004967665,0.001987326,0.0006175275,0.0192573,0.02199978,-0.01363774
1.022309,-0.1476113,-0.05852332,0.0009485629,0.002901642,0.003323959,0.01867046,0.01793162,-0.01495704
1.020293,-0.1469668,-0.06585813,-0.001083771,0.003531159,-0.003987642,0.0140828,0.01459156,-0.01492927
1.018833,-0.1472029,-0.06535912,-0.002560239,0.003277749,-0.003467438,0.01757089,0.01725179,-0.01382045
1.019369,-0.1486997,-0.06280338,-0.002040044,0.001761387,-0.0008923336,0.01898439,0.02275167,-0.009755464
1.02009,-0.1494617,-0.06423278,-0.001335607,0.0009777424,-0.002303965,0.02014787,0.02663021,-0.009968834
1.021109,-0.1506339,-0.05634203,-0.0003329744,-0.0002180868,0.005603053,0.02072917,0.0206686,-0.0100298
1.022655,-0.151296,-0.05295897,0.001197129,-0.000905664,0.009000844,0.01597187,0.0147728,-0.009308571
1.023009,-0.1534456,-0.05654034,0.001535174,-0.003082275,0.005432423,0.0180413,0.0197502,-0.01187597
1.02344,-0.1566216,-0.06138529,0.001951119,-0.00628665,0.0005984173,0.01835973,0.02513234,-0.01020432
1.025395,-0.1549839,-0.06397528,0.00389143,-0.004678089,-0.001982668,0.01661155,0.02668804,-0.009825312
1.023288,-0.1502714,-0.06039832,0.001768653,4.771233e-06,0.001601246,0.02193198,0.02587012,-0.01056528
1.01941,-0.146305,-0.05882995,-0.002124787,0.003941117,0.003174735,0.02435723,0.01894828,-0.009258188
1.020849,-0.1455942,-0.05585196,-0.0007002461,0.004621705,0.006156004,0.02613672,0.01241825,-0.01111792
1.022046,-0.1487227,-0.0526654,0.0004810516,0.001462667,0.009343882,0.02645646,0.01570625,-0.01068492
1.020439,-0.1505876,-0.05293435,-0.001140919,-0.000433083,0.009074042,0.0241405,0.01914485,-0.007564746
1.019612,-0.1483732,-0.05137228,-0.001982387,0.001750115,0.01063272,0.02285421,0.01627189,-0.002944654
1.019571,-0.1463056,-0.04821899,-0.002038319,0.003786214,0.01377977,0.01847825,0.0159037,-0.001104723
1.020319,-0.1483819,-0.04174931,-0.001303911,0.001678243,0.02023993,0.01923834,0.01467718,-0.004019117
1.021066,-0.150132,-0.04064476,-0.0005711006,-0.0001039606,0.02133107,0.0227236,0.007703672,-0.002045823
1.021195,-0.1489189,-0.04708433,-0.0004545685,0.001076909,0.01487354,0.02184807,0.004074745,-0.002291172
1.021496,-0.1483129,-0.05059222,-0.0001656771,0.001650501,0.0113426,0.02255061,0.00857777,-0.005134325
1.022519,-0.1476112,-0.05235371,0.0008452752,0.002319691,0.009552712,0.02092425,0.01315058,-0.002045306
1.022519,-0.1469835,-0.0514347,0.0008344384,0.00291466,0.01043788,0.01867827,0.009999195,0.001116434
1.0214,-0.1472657,-0.05102576,-0.0002960245,0.002599533,0.01080747,0.01984269,0.005496058,0.00391486
1.020702,-0.1473649,-0.05393277,-0.00100437,0.002467284,0.00785559,0.02006891,0.002191495,0.00180821
1.018953,-0.1480169,-0.05415345,-0.002762878,0.001782002,0.007584588,0.01816675,-0.003921179,-0.003034291
1.019305,-0.1481054,-0.05305171,-0.002420035,0.001660002,0.008630645,0.0128897,-0.00358506,1.66342e-05
1.021977,-0.1475743,-0.05104047,0.0002444229,0.00215737,0.01058095,0.008887089,0.00221478,0.002879836
1.022346,-0.1470692,-0.05125287,0.0006052184,0.002628502,0.01030242,0.007056519,0.003106784,0.003641947
1.022383,-0.1464512,-0.05567075,0.0006348931,0.003212271,0.005813293,0.002722977,0.0005592314,0.004576126
1.022533,-0.147839,-0.05721267,0.0007791317,0.001790067,0.004195168,0.001556498,-0.003127434,0.001994748
1.023791,-0.1512361,-0.05684245,0.00203076,-0.001641695,0.004484482,0.004761921,-0.002481648,0.001265622
1.025896,-0.1531142,-0.0570461,0.004130899,-0.003554588,0.00419557,0.007608606,-0.0003005863,0.002033673
1.024594,-0.1502392,-0.05666713,0.002823469,-0.0007143802,0.004485251,0.007364847,-0.001338883,0.002689278
1.022836,-0.1463128,-0.0561256,0.001060477,0.003177487,0.00493377,0.003419214,0.001868533,0.005590842
1.022065,-0.1468754,-0.05489014,0.0002846456,0.002580625,0.006072764,0.002303329,0.003686502,0.006515194
1.021799,-0.1477091,-0.05365335,1.398681e-05,0.001712934,0.007209875,0.002805659,0.002802697,0.004533401
1.022663,-0.1459224,-0.05248976,0.000873108,0.00346576,0.008270729,0.001781346,0.004461302,0.003103823
1.022104,-0.1466272,-0.05185134,0.0003094222,0.00272713,0.008803465,0.002474067,0.004127335,0.00542295
1.02202,-0.1513651,-0.05054911,0.0002205823,-0.002044375,0.009997113,3.692855e-06,0.003573753,0.008089412
1.022554,-0.155689,-0.04854279,0.0007493688,-0.006401741,0.01189199,-0.003231018,-0.000527905,0.005451689
1.02196,-0.1545356,-0.05294318,0.0001503796,-0.005281427,0.00737726,-0.001695053,-0.004181115,0.002450079
1.022307,-0.1509224,-0.05962383,0.0004917791,-0.001700549,0.0005794686,0.0008750355,-0.0001064118,0.0002161588
1.022312,-0.1499849,-0.05835001,0.0004913957,-0.0007943795,0.001733624,0.003440902,0.002244728,-0.002180752
1.022038,-0.1471865,-0.05475344,0.0002129209,0.001973697,0.005208394,0.001220882,0.004268278,-0.000408658
1.022402,-0.1445091,-0.05264966,0.0005714281,0.004621791,0.00718853,-0.004958176,0.003127436,0.00271233
1.022477,-0.1467392,-0.04698558,0.0006407155,0.002363317,0.01272727,-0.009276412,-0.003651684,0.006579633
1.02401,-0.148745,-0.04023783,0.002168205,0.0003298735,0.01934792,-0.0126474,-0.004954791,0.01212651
1.025626,-0.1504126,-0.04014853,0.003778821,-0.001364758,0.01930803,-0.01064489,-0.006054108,0.01570607
1.025101,-0.1499527,-0.04875467,0.003248773,-0.0009310154,0.0105702,-0.006901573,-0.003538193,0.01745722
1.024678,-0.1455954,-0.05655456,0.002819622,0.003400801,0.002635974,-0.008433294,0.002824514,0.01407508
1.025161,-0.1437252,-0.05695628,0.003295968,0.005246154,0.002097415,-0.009362052,-0.003684783,0.007051676
1.025068,-0.1449084,-0.05752499,0.003195695,0.00403872,0.001389766,-0.009314521,-0.009061037,0.005466558
1.024823,-0.1485457,-0.06008634,0.002942619,0.0003775903,-0.00131217,-0.009955843,-0.004755299,0.005527356
1.024957,-0.1524022,-0.05764095,0.003067354,-0.003502475,0.0009914631,-0.009360498,-0.004190972,0.004925938
1.023914,-0.1534653,-0.05368397,0.002014588,-0.004588798,0.004805954,-0.007551519,-0.002404628,0.008415403
1.021993,-0.1538846,-0.05378151,8.313065e-05,-0.005030559,0.004565519,-0.005004331,0.0004999304,0.01065837
1.020193,-0.151367,-0.05124257,-0.00172809,-0.002534679,0.00696133,-0.00500543,-0.002820879,0.01006123
1.019788,-0.1470958,-0.04915869,-0.00214501,0.001715887,0.00890194,-0.006936804,-0.004846056,0.01134553
1.023829,-0.1465021,-0.05533231,0.00188296,0.002289979,0.002584981,-0.01002285,-0.0007645838,0.01160926
1.027542,-0.1479856,-0.05765904,0.005583074,0.0007878643,0.0001149557,-0.01416553,0.00233237,0.005502931
1.023839,-0.1490704,-0.05641558,0.001865771,-0.0003146972,0.001215438,-0.01616799,0.0007656208,-0.001155558
1.019494,-0.1504272,-0.05934744,-0.002493127,-0.001688366,-0.001858744,-0.01742337,0.0001469031,0.002781241
1.020687,-0.1511899,-0.0588843,-0.001315436,-0.002467099,-0.001536911,-0.01546976,0.001173497,0.006132624
1.020884,-0.1500999,-0.05953546,-0.001134375,-0.001392175,-0.002327964,-0.01156471,0.0005520053,-0.002501819
1.020358,-0.1490263,-0.06031401,-0.001675905,-0.0003327175,-0.003244613,-0.00957217,0.0001652369,-0.007643617
1.022943,-0.1483262,-0.05586904,0.0008934652,0.0003543828,0.001064402,-0.004870609,-0.0007134265,-0.003854663
1.02255,-0.149094,-0.05542196,0.0004848229,-0.0004255292,0.00137796,-0.00181952,-0.005352526,0.0008697997
1.020498,-0.1519193,-0.05645188,-0.001583249,-0.003261893,0.0002170817,0.0008173385,-0.01311769,0.00413114
1.021062,-0.1519217,-0.05699442,-0.00103518,-0.003274357,-0.0004536893,0.005989601,-0.018302,0.003157523
1.020719,-0.1504286,-0.05744222,-0.001394226,-0.001790137,-0.001026847,0.005013234,-0.0181628,0.001353083
1.020718,-0.1517236,-0.05468075,-0.001410865,-0.003092873,0.001612285,0.003192247,-0.01965272,0.001836709
1.021298,-0.1517871,-0.05302745,-0.0008462947,-0.003162813,0.00314636,0.001406019,-0.02276777,0.002792664
1.02179,-0.1479817,-0.05065475,-0.0003691401,0.0006375089,0.005402923,-0.004900002,-0.02199275,0.007127655
1.024439,-0.1460685,-0.05117147,0.002264719,0.002546827,0.004773037,-0.009060627,-0.02015242,0.01126692
1.025504,-0.1465721,-0.0558558,0.003315832,0.002040534,-2.158973e-05,-0.01455649,-0.01569757,0.007107564
1.023586,-0.1446105,-0.05857955,0.001384522,0.004000454,-0.002852804,-0.02154098,-0.01083088,0.002548774
1.021448,-0.1439318,-0.06234799,-0.0007672467,0.004678205,-0.006725721,-0.02463135,-0.01316416,0.007550781
1.020451,-0.1446159,-0.06134184,-0.001777522,0.003993591,-0.005820747,-0.02949925,-0.01667749,0.01489789
1.021911,-0.1437154,-0.05721459,-0.0003312745,0.004893834,-0.001791073,-0.03531062,-0.0190017,0.01898381
1.023635,-0.144854,-0.05740926,0.001380246,0.003754977,-0.002079517,-0.040131,-0.02266494,0.01991379
1.02343,-0.1471338,-0.05583972,0.001162962,0.001474658,-0.00059984,-0.0452188,-0.02296268,0.01782992
1.021782,-0.1491009,-0.05504392,-0.0004978921,-0.000493297,0.0001100224,-0.04234977,-0.01654874,0.01833125
1.020233,-0.1532244,-0.05622816,-0.002058966,-0.004617979,-0.001156241,-0.03601722,-0.007418261,0.01626339
1.020683,-0.1584205,-0.05716266,-0.001620026,-0.009815332,-0.002168878,-0.03257936,-0.007798734,0.00778593
1.021228,-0.1572856,-0.05901439,-0.001086831,-0.008681544,-0.004094833,-0.02230939,-0.01077534,0.004489303
1.020426,-0.1536209,-0.05827,-0.001898631,-0.005017353,-0.00342068,-0.01372768,-0.004996088,0.007628014
1.020083,-0.1571471,-0.05668581,-0.002251744,-0.008543036,-0.001902672,-0.0113973,-0.004830825,0.01015735
1.020431,-0.1575673,-0.05517971,-0.001913855,-0.0089615,-0.0004586868,-0.002237099,-0.00999048,0.008878328
1.02207,-0.1529105,-0.05359853,-0.0002834021,-0.004301415,0.001064393,0.004571999,-0.01434166,0.00697132
1.024667,-0.1490672,-0.05502011,0.002305827,-0.0004530685,-0.0004114099,0.002868703,-0.01990223,0.007296339
1.025571,-0.1441441,-0.05620229,0.003202782,0.004476867,-0.001644058,0.002586099,-0.01783194,0.006067473
1.025842,-0.1470373,-0.05574287,0.003466703,0.001591969,-0.001231448,0.003260098,-0.01406344,0.005988102
1.02644,-0.1508505,-0.05716675,0.004058212,-0.002211553,-0.002698556,0.001920096,-0.01207862,0.006269838
1.025042,-0.1480394,-0.05911638,0.002654632,0.0006103072,-0.004687838,5.652424e-05,-0.007978273,0.005049982
1.021742,-0.1517462,-0.05843538,-0.0006523929,-0.003084593,-0.00404289,-0.001999769,-0.009233619,0.006730045
1.019065,-0.156451,-0.05697212,-0.003335799,-0.007776493,-0.002612057,-0.003703829,-0.008041574,0.008898813
1.019248,-0.1546338,-0.05422269,-0.00315808,-0.005945085,0.0001085764,-0.002174528,-0.003567142,0.01136667
1.020918,-0.1516048,-0.04995966,-0.001494401,-0.00290048,0.004346285,0.0004550951,-0.005201864,0.01047942
1.021841,-0.1495326,-0.05158205,-0.0005768253,-0.0008112843,0.00270178,-0.0001275226,-0.003147977,0.004310044
1.022531,-0.1493775,-0.05713528,0.0001079222,-0.000637651,-0.002870641,-0.001633859,0.004328286,0.001506468
1.022295,-0.148841,-0.05954046,-0.0001336297,-8.143371e-05,-0.005292244,-0.0009319728,0.007910565,0.002364549
1.02196,-0.1486153,-0.06139892,-0.0004725961,0.0001653447,-0.007164317,0.0002856302,0.006360996,0.004182316
1.022441,-0.1476346,-0.06291294,4.122531e-06,0.001167998,-0.008689011,-0.002326134,0.002675021,0.003748041
1.021625,-0.1427235,-0.06271138,-0.0008158114,0.006101998,-0.008494959,-0.007655023,0.0002948998,0.00351394
1.019459,-0.1381566,-0.06236127,-0.00298474,0.0106923,-0.008148982,-0.01376142,0.0005711063,0.008841849
1.018635,-0.1408115,-0.06163545,-0.003811314,0.008060839,-0.00742371,-0.01589318,0.001956327,0.01033617
1.023859,-0.1550818,-0.06043409,0.001409506,-0.006186453,-0.006219189,-0.007706562,0.002383333,0.006659339
1.030368,-0.1662179,-0.06074022,0.007917677,-0.01729989,-0.006518367,-0.002073066,0.004167869,0.005903792
1.028244,-0.1587282,-0.06194816,0.005791605,-0.009787637,-0.007715501,-0.006436587,0.007554763,0.008616012
1.024869,-0.1497746,-0.05655485,0.002415504,-0.0008109363,-0.002307533,-0.01076758,0.01167519,0.008648688
1.022681,-0.1513481,-0.04943908,0.0002258133,-0.002360533,0.004826646,-0.01402846,0.0169164,-0.003130033
1.016069,-0.1461335,-0.04897331,-0.00638799,0.002878633,0.005314229,-0.01528925,0.01457602,-0.01534382
1.016784,-0.1368783,-0.04880669,-0.005674346,0.01215887,0.005505524,-0.01097271,0.007616636,-0.00950848
1.021269,-0.1433271,-0.05381667,-0.001191055,0.005735358,0.0005225711,-0.002302723,0.006545771,0.004876898
1.01847,-0.1520042,-0.05982344,-0.003991452,-0.002916867,-0.00545518,0.005341011,0.007089634,0.01061811
1.019277,-0.1539606,-0.05618291,-0.003184829,-0.004848862,-0.001783795,0.005897681,0.009511375,0.005044495
1.020439,-0.1578112,-0.05652812,-0.002023309,-0.00867531,-0.002096383,0.005227579,0.01038216,-0.002523361
1.018662,-0.1523594,-0.05885414,-0.003799459,-0.003199548,-0.004388092,0.00482571,0.005332575,0.000844773
1.021738,-0.1425649,-0.05772442,-0.0007215828,0.006619073,-0.003222421,-0.002000196,0.002832469,0.007878617
1.022061,-0.1396339,-0.05895606,-0.0003963458,0.009574201,-0.004416511,-0.007770413,0.0009136365,0.008372633
1.021101,-0.1369031,-0.05801704,-0.001353131,0.01232858,-0.003438357,-0.01181568,0.0004249806,0.008986653
1.022739,-0.140087,-0.05784595,0.0002889247,0.009167143,-0.003226582,-0.01958389,0.005531378,0.005517429
1.022143,-0.1463578,-0.05702754,-0.0003025983,0.002917368,-0.002365983,-0.01855473,0.007829004,-0.0002315514
1.022202,-0.1461983,-0.05441653,-0.000238482,0.003096054,0.0002886219,-0.01144899,0.006388574,-0.001481245
1.022075,-0.1456008,-0.05580057,-0.0003590787,0.003710835,-0.001050568,-0.009650983,0.003578761,-0.002397503
1.021051,-0.1464647,-0.05580271,-0.001376476,0.002862204,-0.001006772,-0.00642684,0.0007841725,0.002117732
1.019875,-0.1484266,-0.05521012,-0.002544535,0.0009135832,-0.0003673474,-0.004187863,0.001438427,0.003649923
1.01951,-0.151284,-0.05635885,-0.002901821,-0.001932694,-0.001468477,-0.0009697009,0.003521947,-0.0007847413
1.023875,-0.1520176,-0.0580679,0.001471737,-0.002656935,-0.00312929,0.007912116,0.01007243,-0.002790794
1.02898,-0.1520114,-0.05831534,0.006585842,-0.002643164,-0.003327916,0.007484308,0.02780612,-0.007790122
1.031061,-0.1497712,-0.0483909,0.008676373,-0.0003967186,0.006645816,-0.0003774853,0.04164623,-0.003512715
1.030087,-0.1446824,-0.03872959,0.007712739,0.004696848,0.0163566,-0.002416858,0.03087478,0.006790937
1.027342,-0.1413706,-0.04726387,0.004976721,0.008012139,0.007871326,-0.007968949,0.02352769,0.01095165
1.024885,-0.1384367,-0.05798417,0.002527804,0.0109479,-0.002801006,-0.02251391,0.03649116,0.01971706
1.023292,-0.1381978,-0.05514682,0.0009420167,0.01118677,8.300277e-05,-0.02493774,0.03396444,0.01952036
1.024367,-0.1442325,-0.05622874,0.002022861,0.005149688,-0.0009536025,-0.01462358,0.02951532,0.006585231
1.026312,-0.148333,-0.06162643,0.003973373,0.001044306,-0.006307251,-0.01221078,0.03751222,-0.0009215767
1.027558,-0.1498573,-0.05801283,0.005223802,-0.0004874119,-0.002650765,-0.005547924,0.02953094,-0.002584497
1.024979,-0.1510167,-0.05401806,0.00264748,-0.001656584,0.001385872,0.007696277,0.0116802,-0.0001323816
1.020176,-0.1500077,-0.05099565,-0.002154357,-0.0006595306,0.004449124,0.0142008,-0.01617606,7.441755e-05
1.022152,-0.1505658,-0.05160624,-0.0001782456,-0.001231388,0.003878193,0.02191327,-0.03228486,-0.002008674
1.023229,-0.148089,-0.05582777,0.0008975315,0.001230019,-0.0003050492,0.02598589,-0.01731732,-0.0002310666
1.020198,-0.14373,-0.04994348,-0.002134835,0.005571982,0.005616026,0.0236482,-0.0201307,-0.001027284
1.021038,-0.14368,-0.04488141,-0.001297846,0.005603471,0.01071317,0.02047474,-0.03354746,-0.001847311
1.021101,-0.142685,-0.0444285,-0.001239116,0.006578366,0.01119911,0.01607465,-0.03296604,-0.001786124
1.021546,-0.142134,-0.04096184,-0.000798439,0.007107394,0.01469624,0.01124443,-0.02850143,-0.002403812
1.024039,-0.1400463,-0.04539457,0.001688721,0.009171183,0.01029089,0.0001988158,-0.01630109,0.004007284
1.02451,-0.1361959,-0.05148235,0.002153812,0.01299557,0.004226972,-0.01052682,-0.01865513,0.009399543
1.024948,-0.1391783,-0.04952587,0.00258595,0.009984596,0.006203561,-0.01623138,-0.02714476,0.009327365
1.023339,-0.1418488,-0.04795187,0.0009693693,0.007282714,0.007793824,-0.01734111,-0.02576129,0.01102809
1.021326,-0.1410554,-0.05012791,-0.001050647,0.008041823,0.005630088,-0.01222862,-0.02947965,0.01089031
1.02234,-0.1438806,-0.0515783,-4.47913e-05,0.005179216,0.004187991,-0.01226822,-0.02304466,0.009860862
1.022467,-0.1477711,-0.05167086,7.358167e-05,0.0012483,0.004099702,-0.008473753,-0.01477581,0.01147695
1.022002,-0.1502768,-0.05446312,-0.0004013218,-0.001300705,0.001307765,-0.0005037191,-0.0133821,0.01235017
1.022287,-0.1520549,-0.05488463,-0.0001258882,-0.003124663,0.0008827881,0.000481754,-0.01149275,0.01225973
1.022264,-0.1517072,-0.05192544,-0.0001582412,-0.002824956,0.003834896,0.00865795,-0.01877434,0.01274826
1.021815,-0.1507988,-0.04895875,-0.0006171552,-0.001966357,0.006791039,0.01243412,-0.01822659,0.01269813
1.020433,-0.1513124,-0.04404977,-0.002009648,-0.00253097,0.011686,0.008300733,-0.01017197,0.01093639
1.01931,-0.1495811,-0.04603297,-0.003143075,-0.0008517234,0.009685153,0.01129464,-0.006463111,0.01005143
