accx,accy,accz,body_accx,body_accy,body_accz,body_gyrox,body_gyroy,body_gyroz
0.9969935,-0.132187,0.1086423,-0.009720172,0.01913847,-0.01996956,-0.02281347,0.249554,0.04670162
0.9991084,-0.1376696,0.1098158,-0.00777231,0.01417963,-0.01838732,-0.02823194,0.1990341,0.04831714
1.011287,-0.1409284,0.1099461,0.004233419,0.01142905,-0.01782537,-0.02217297,0.1434277,0.05468008
1.027762,-0.1365196,0.1070632,0.02052956,0.0163294,-0.0202555,-0.01139201,0.1668939,0.04310285
1.037922,-0.1406273,0.1082038,0.03050702,0.0126959,-0.01864288,-0.01436044,0.2115578,0.02668963
1.029572,-0.1412563,0.109827,0.02196831,0.01252288,-0.01653009,-0.02122436,0.2361074,-0.005730457
1.012069,-0.1425098,0.1104508,0.004270664,0.01170654,-0.01540089,-0.02983717,0.2383887,-0.02846964
1.011061,-0.1479504,0.1213132,0.003063072,0.006683872,-0.004018992,-0.03349034,0.216825,-0.02235999
1.014684,-0.1473886,0.1308069,0.006482637,0.007644239,0.006006302,-0.02140129,0.1935782,-0.03519042
1.012179,-0.1528307,0.1318049,0.003769135,0.002581178,0.007545651,0.001735161,0.1780728,-0.03773796
1.011322,-0.1514924,0.1302782,0.00270002,0.004279251,0.00656766,0.01475867,0.150263,-0.02280077
1.004479,-0.1410721,0.1298649,-0.004357006,0.01503994,0.006707865,0.009478343,0.1170393,-0.008628567
1.006159,-0.1362412,0.1300057,-0.002893723,0.02019203,0.007404879,-0.003397874,0.09964769,0.01399435
1.015439,-0.1329258,0.1228081,0.006169653,0.02380886,0.0007641476,-0.02698083,0.09532907,0.009372676
1.019875,-0.1391846,0.1161499,0.01038668,0.01783153,-0.005338325,-0.05760994,0.1133899,-0.01134243
1.020727,-0.1491074,0.1188279,0.0110209,0.008169759,-0.00210704,-0.06600766,0.1352493,-0.01837614
1.013041,-0.1588894,0.1251641,0.003116514,-0.001371554,0.004778754,-0.05523184,0.1316119,-0.00740601
1.012224,-0.1683188,0.1291437,0.002081432,-0.01057981,0.009302877,-0.04656863,0.1172521,0.01749904
1.017829,-0.1635943,0.1263014,0.00746889,-0.005652821,0.006998636,-0.02495215,0.1091961,0.02159339
1.017754,-0.1618595,0.1246041,0.00717641,-0.00373302,0.00583165,-0.002020591,0.09808121,0.0134873
1.010189,-0.1658126,0.1328158,-0.0006042894,-0.007517583,0.01456443,0.001669954,0.08010146,0.01581188
0.9979009,-0.1619818,0.1461255,-0.01310705,-0.003533496,0.0283847,0.01135938,0.07549999,0.02263388
1.003147,-0.1615396,0.1505815,-0.008072823,-0.0029525,0.03333905,0.02569198,0.07380176,0.0343216
1.012485,-0.1594581,0.134444,0.001055666,-0.000745866,0.01768586,0.0362891,0.0636285,0.04125057
1.011551,-0.1514819,0.1145971,-8.374968e-05,0.007342588,-0.001692366,0.0435133,0.06019342,0.04333454
1.01415,-0.1490219,0.1149941,0.002312992,0.009902443,-0.0008429919,0.03055413,0.06259991,0.04308141
1.01242,-0.1525298,0.1253982,0.0003859038,0.006482212,0.009997189,0.01912501,0.06771929,0.03746029
1.014272,-0.1557826,0.1303725,0.002045164,0.003305123,0.01539078,0.02271897,0.06812233,0.03574165
1.018682,-0.1549415,0.1329062,0.006266116,0.004210401,0.01832656,0.0249147,0.0684792,0.0295625
1.012083,-0.1577982,0.1306328,-0.0005171921,0.001406764,0.01643725,0.03469298,0.06990913,0.01742404
1.008069,-0.1633792,0.127289,-0.004711167,-0.004131652,0.01345908,0.0504519,0.05814156,0.008008454
1.007353,-0.1606796,0.1296138,-0.005601424,-0.001399404,0.01613056,0.05957037,0.04873727,-0.002192561
1.011544,-0.1572579,0.1276514,-0.001580461,0.002045917,0.01449549,0.06627632,0.04987866,0.003210855
1.017512,-0.1571202,0.1255506,0.004222684,0.002198695,0.01270244,0.07331645,0.04953797,0.01714399
1.011414,-0.1564874,0.1296909,-0.002033684,0.002838447,0.01713078,0.07495764,0.04347668,0.0151163
1.007885,-0.1582026,0.1298778,-0.005716213,0.0011227,0.01758581,0.07242461,0.03937379,0.01440359
1.012229,-0.1586,0.1233702,-0.001519824,0.0007174775,0.01132634,0.07166263,0.04414439,0.01776509
1.013123,-0.1566848,0.1161818,-0.000768177,0.002618333,0.004366222,0.06688807,0.04539821,0.02055207
1.011241,-0.1551571,0.1185756,-0.002786567,0.004125391,0.006968655,0.05993302,0.03848832,0.0340072
1.009827,-0.1537691,0.1252069,-0.00432986,0.005486803,0.01378951,0.05748536,0.02914044,0.04597874
1.010777,-0.1558729,0.1254334,-0.003504029,0.003350783,0.01418687,0.05763049,0.02252743,0.05627966
1.012592,-0.1581805,0.1265727,-0.001807269,0.001005592,0.01547839,0.06041371,0.02015516,0.0670495
1.014635,-0.1575795,0.1270196,0.0001237239,0.001564122,0.01605924,0.06518515,0.01516753,0.06926306
1.014638,-0.1580241,0.1261139,2.055678e-05,0.00107238,0.01526921,0.07469226,0.005147769,0.0763828
1.008896,-0.1567762,0.1294004,-0.005821105,0.002268982,0.0186534,0.07933875,-0.009753421,0.08278354
1.00428,-0.1535582,0.1307722,-0.01053151,0.005431867,0.02010499,0.06851341,-0.01441587,0.08001144
1.008629,-0.1529141,0.129837,-0.006270925,0.006017237,0.01923174,0.0546491,-0.00241745,0.08120913
1.014531,-0.1530877,0.1273334,-0.0004497448,0.00578146,0.01677253,0.04121194,0.006678167,0.07727835
1.012507,-0.1548171,0.1217142,-0.002549429,0.003986487,0.01118028,0.03122326,0.008879361,0.06581443
1.011594,-0.162101,0.1185747,-0.003531808,-0.003366155,0.008050918,0.03183336,0.008537135,0.05144053
1.014695,-0.1694031,0.1195286,-0.0004942793,-0.01073957,0.008998618,0.03344755,0.01598448,0.03292617
1.014511,-0.1690769,0.1209356,-0.0007353248,-0.01048667,0.01038398,0.03413824,0.0317832,0.02984428
1.015333,-0.1672204,0.1216969,3.484366e-05,-0.00870471,0.01110877,0.03778634,0.03165841,0.03233431
1.014875,-0.1705926,0.1229834,-0.0004691814,-0.01215175,0.01234454,0.0430164,0.02320285,0.02020774
1.012845,-0.1735214,0.1237507,-0.002541034,-0.01515494,0.01304745,0.05251815,0.02262192,0.01190204
1.01436,-0.1737505,0.12338,-0.001062181,-0.01545705,0.01259918,0.06224916,0.0214536,0.007495712
1.014133,-0.1738431,0.1218792,-0.001320902,-0.01562057,0.01100831,0.0678352,0.02285202,-0.001367892
1.014412,-0.1729884,0.1194999,-0.001067989,-0.01483363,0.008526948,0.07089906,0.02616582,-0.008860417
1.015988,-0.1713149,0.1185189,0.0004848879,-0.01322426,0.007432421,0.06060426,0.0227757,-0.01535174
1.014874,-0.1674771,0.1175125,-0.0006474442,-0.009446177,0.006301732,0.0412958,0.01415659,-0.01698248
1.014317,-0.1633561,0.1170881,-0.001219369,-0.005380122,0.005743264,0.03860032,0.002596257,-0.01456859
1.013418,-0.1625819,0.1173379,-0.002129124,-0.00465586,0.005849765,0.04488755,-0.003343899,-0.007373895
1.012022,-0.1617001,0.1150771,-0.003531628,-0.003818915,0.003437405,0.04600171,-0.001537798,0.004657101
1.011789,-0.162381,0.1134634,-0.003769049,-0.004539716,0.00166441,0.05011068,-0.004220575,0.012595
1.012542,-0.1676654,0.1126615,-0.003016036,-0.009858929,0.000696621,0.05279745,-0.009214483,0.01510785
1.013934,-0.1723054,0.1092843,-0.001620954,-0.01452865,-0.002852457,0.05119279,-0.009547987,0.01180272
1.014385,-0.1742301,0.1043936,-0.001164557,-0.01647756,-0.007919771,0.05519063,-0.009546786,0.01016018
1.016739,-0.1759754,0.1052672,0.001198698,-0.01824112,-0.007226603,0.07471038,-0.006722317,0.01275778
1.019939,-0.1765144,0.1140499,0.004411265,-0.01879206,0.00137288,0.1012895,0.001820538,0.01298883
1.019057,-0.1725787,0.1207144,0.003542865,-0.01486134,0.007852343,0.1050629,0.006962856,0.01324032
1.015026,-0.169167,0.126039,-0.0004719747,-0.01144733,0.01299043,0.09395507,-0.00282515,0.00525423
1.01018,-0.1697563,0.1285701,-0.005299981,-0.01202686,0.01533363,0.09518462,-0.02898426,-0.002583326
1.009816,-0.1674794,0.1200598,-0.005644178,-0.00973267,0.006634085,0.09499269,-0.04865403,0.01270586
1.016406,-0.1641545,0.1110399,0.0009674219,-0.006383127,-0.002576338,0.08458452,-0.03547183,0.03360137
1.021376,-0.1663737,0.1088557,0.005960598,-0.008570366,-0.004951858,0.06866135,-0.009650462,0.03516114
1.018746,-0.1735828,0.1098003,0.003355629,-0.01574046,-0.004198674,0.04615396,-0.003916693,0.02500253
1.015303,-0.1814029,0.1105378,-6.188989e-05,-0.02351441,-0.003651893,0.03942587,-0.003779659,0.01582049
1.01522,-0.1834224,0.1116696,-0.0001190297,-0.02548023,-0.002709498,0.05019185,-0.002394084,0.007300968
1.013408,-0.1814657,0.1169197,-0.001903941,-0.02346181,0.00235314,0.05381442,-0.01158899,0.002898103
1.01259,-0.1816632,0.1183641,-0.002695005,-0.02358914,0.003612246,0.05633549,-0.01695749,0.00425419
1.014925,-0.1823638,0.1123458,-0.0003318219,-0.02421073,-0.002588721,0.06178382,-0.01538592,0.004830884
1.015316,-0.1826466,0.1082609,8.780517e-05,-0.02440509,-0.006853415,0.06789504,-0.01042853,0.007715382
1.014761,-0.1863286,0.111566,-0.0004379737,-0.02798911,-0.003724787,0.07954197,-0.004530656,0.0113495
1.011588,-0.1901092,0.1170029,-0.003581706,-0.03166165,0.001539365,0.08447694,-0.008949171,0.01152813
1.007341,-0.1867471,0.1158923,-0.007799631,-0.02818092,0.0002601679,0.07847752,-0.01367429,0.01418621
1.008639,-0.1804597,0.1110169,-0.006471449,-0.02176405,-0.004779643,0.07214839,-0.01719657,0.01471354
1.011491,-0.1771728,0.1074235,-0.003589222,-0.01833665,-0.00853295,0.07145902,-0.02210643,0.01188708
1.013016,-0.1756105,0.109412,-0.002032251,-0.01662283,-0.00669935,0.06904136,-0.01946158,0.01200163
1.0131,-0.1760722,0.1149957,-0.001915467,-0.01692241,-0.001265174,0.06158239,-0.01869632,0.007913672
1.01276,-0.1750098,0.11382,-0.002222816,-0.01568758,-0.002584908,0.05809428,-0.02228047,0.002540235
1.014471,-0.1689198,0.1122999,-0.0004774207,-0.009415312,-0.004243338,0.04522093,-0.02293257,0.004302214
1.014289,-0.1646216,0.1125782,-0.0006246462,-0.004925562,-0.004097419,0.02630709,-0.01944811,0.003830133
1.014215,-0.1647124,0.109019,-0.0006631666,-0.004816267,-0.007783102,0.02277139,-0.01204008,0.0007402237
1.016012,-0.1641296,0.1079678,0.001169385,-0.004025706,-0.008954468,0.01953189,-0.003974033,0.001963297
1.015233,-0.1641538,0.1077914,0.0004259114,-0.003835501,-0.009244469,0.0138392,0.0004089916,0.002614513
1.014939,-0.1691471,0.1060477,0.0001689414,-0.008608544,-0.01109502,0.01587428,-0.006072774,0.001958608
1.015289,-0.1752873,0.1032561,0.000554856,-0.01452325,-0.01398632,0.01628783,-0.01386784,0.002312647
1.013288,-0.1768249,0.1031484,-0.00140992,-0.01583055,-0.0141861,0.01552896,-0.01058117,0.001119273
1.011786,-0.1762157,0.110478,-0.00287638,-0.0149865,-0.006940601,0.0186483,-0.0104857,-0.002247878
1.011506,-0.1764091,0.1127361,-0.003119651,-0.01494065,-0.004758614,0.0220969,-0.01741195,-0.006068957
1.011292,-0.1764318,0.1089055,-0.003298616,-0.01471999,-0.008657097,0.02198963,-0.0200816,-0.00693147
1.011791,-0.1765343,0.1074459,-0.002763678,-0.01457511,-0.01017666,0.02236465,-0.01924915,-0.00564806
1.012158,-0.1772783,0.1043515,-0.002360904,-0.01506809,-0.01332278,0.02398163,-0.01374475,-0.007464227
1.00913,-0.1778971,0.1016089,-0.005352632,-0.01543215,-0.0161088,0.02160347,-0.008788867,-0.01043572
1.005642,-0.1769772,0.1010816,-0.008804729,-0.01425421,-0.01667095,0.02015195,-0.01616826,-0.01159273
1.008529,-0.175891,0.1012594,-0.00588024,-0.01290674,-0.01651923,0.01852842,-0.02392248,-0.01194272
1.013953,-0.1764296,0.1013567,-0.0004189409,-0.01318121,-0.0164388,0.01277666,-0.02060947,-0.01166497
1.01628,-0.176765,0.09918226,0.001945583,-0.01324968,-0.01862077,0.009044351,-0.01666404,-0.01482256
1.016593,-0.1765613,0.09721587,0.002297525,-0.01277659,-0.02058501,0.008245331,-0.01645668,-0.0233761
1.016138,-0.1759667,0.0968601,0.001880672,-0.01191051,-0.02092871,0.006386871,-0.0142169,-0.03204112
1.015836,-0.1756306,0.09697921,0.001617542,-0.01130087,-0.02078729,0.001274486,-0.01051603,-0.03564732
1.01427,-0.1783308,0.09560912,8.978911e-05,-0.01372592,-0.02212455,-4.274064e-05,-0.006861671,-0.03706599
1.01363,-0.180861,0.09362633,-0.0005113559,-0.01597959,-0.02406372,0.00914466,0.002204804,-0.03922506
1.017032,-0.1810863,0.09548488,0.002928212,-0.01592688,-0.0221505,0.02230728,0.01066046,-0.03663907
1.01817,-0.1822904,0.1003893,0.004103623,-0.01685171,-0.01718017,0.03275126,0.006472234,-0.0361065
1.014469,-0.1808317,0.1049623,0.0004389059,-0.01511257,-0.01252998,0.03576478,-0.002644744,-0.03854005
1.0112,-0.1765115,0.1052003,-0.00279429,-0.01051067,-0.01220383,0.03481903,-0.01106402,-0.03147358
1.011909,-0.1740717,0.1030906,-0.002050299,-0.007788163,-0.01421466,0.04024686,-0.01887904,-0.02263758
1.012632,-0.1716074,0.1044387,-0.001293348,-0.005040429,-0.01275739,0.04809582,-0.01622889,-0.01484761
1.010218,-0.1699424,0.1048029,-0.003674375,-0.003091931,-0.01227413,0.04696499,-0.01018912,-0.006314727
1.011072,-0.1685054,0.1041857,-0.00278834,-0.001371942,-0.01276281,0.03509135,-0.01018855,-0.003262649
1.012821,-0.1678419,0.1054115,-0.001007034,-0.0004263166,-0.01139929,0.02105716,-0.007142846,-0.007074382
1.012362,-0.1723274,0.102339,-0.001434143,-0.004631475,-0.01432529,0.01442651,-0.001764747,-0.0174124
1.014723,-0.1756752,0.09551252,0.0009572349,-0.007701002,-0.02099693,0.01600261,0.004879615,-0.01817452
1.015777,-0.1750415,0.09031724,0.002042231,-0.006791612,-0.02602904,0.01468718,0.01498167,-0.01414449
1.015128,-0.1739361,0.09314937,0.001423132,-0.005413095,-0.02302536,0.008680966,0.02096005,-0.01813213
1.015403,-0.1731779,0.102194,0.001726574,-0.00438474,-0.01380064,0.0114657,0.02186115,-0.0142319
1.015051,-0.1734684,0.1052771,0.001403501,-0.004408299,-0.01052917,0.01983641,0.0247051,-0.009930704
1.015323,-0.1712914,0.1084997,0.001702131,-0.001967856,-0.007110304,0.02747952,0.03115052,-0.006071504
1.014318,-0.1674465,0.1146728,0.0007235286,0.002136662,-0.0007337253,0.03159696,0.02796534,0.004969109
1.013468,-0.1651674,0.1124371,-0.0001010414,0.004671196,-0.002759541,0.02615388,0.02009462,0.01101368
1.013898,-0.1624119,0.1083815,0.0003532485,0.007677291,-0.006599887,0.01971736,0.02783517,0.01626255
1.012903,-0.1579115,0.1073957,-0.0006190094,0.01242283,-0.007365595,0.005500444,0.03876533,0.01592956
1.012299,-0.1554733,0.106302,-0.001200957,0.01509983,-0.008235176,-0.01428811,0.04791878,0.01405095
1.0129,-0.1590521,0.1071191,-0.0005797965,0.01175272,-0.007190269,-0.01504733,0.05444897,0.02091498
1.015331,-0.1627362,0.1071784,0.001871166,0.008292514,-0.006900122,-0.01109027,0.04939777,0.0203349
1.016991,-0.1650713,0.1066019,0.00355042,0.006172725,-0.007243072,-0.01248503,0.04712963,0.01910932
1.013374,-0.1693975,0.1069844,-4.853179e-05,0.002053119,-0.006624924,-0.005915319,0.03624904,0.02339655
1.007739,-0.1724197,0.1067374,-0.00566752,-0.000771513,-0.006634584,0.003891638,0.01813443,0.02369108
1.006409,-0.1745761,0.1080408,-0.00698148,-0.002739189,-0.005092526,0.01298163,0.01814111,0.0219617
1.010809,-0.1763873,0.1086467,-0.002566621,-0.004370232,-0.004247134,0.01570876,0.01876441,0.01307638
1.013941,-0.1790844,0.1050323,0.0005806042,-0.006895685,-0.007621689,0.008808901,0.0194454,0.0007504672
1.012297,-0.1804389,0.1048937,-0.001049323,-0.008086374,-0.007520533,0.005511646,0.02293205,-0.004180693
1.011029,-0.1777585,0.1105765,-0.002302807,-0.005249577,-0.001598166,0.009282725,0.01465322,-0.004957488
1.011239,-0.1782831,0.1130703,-0.002079485,-0.005624753,0.001134382,0.01194628,0.009373673,-0.005833729
1.011024,-0.1800148,0.1132241,-0.002280294,-0.007213706,0.00152576,0.0145163,0.01008479,-0.007176155
1.011036,-0.1819025,0.1136376,-0.002254641,-0.008964806,0.002174823,0.02043838,0.009662667,-0.0132916
1.011461,-0.1833453,0.1137646,-0.001815781,-0.01027663,0.002534942,0.02379834,0.00640922,-0.02393192
1.011879,-0.1797651,0.1185567,-0.001384851,-0.00657053,0.007557011,0.02304464,0.001955609,-0.02601143
1.013119,-0.179992,0.1215936,-0.0001310308,-0.006676375,0.01082018,0.02299069,0.00541467,-0.01812111
1.014531,-0.1799896,0.1154251,0.00129498,-0.006557176,0.004873254,0.02447364,0.00670507,-0.00848961
1.015436,-0.1781396,0.1101663,0.002213679,-0.004594305,-0.0001690297,0.02954267,0.001806148,-0.001994643
1.015363,-0.1830663,0.1121703,0.002154974,-0.009411923,0.002045914,0.03452302,-0.001413067,-0.003380901
1.013101,-0.1853798,0.1128573,-9.33965e-05,-0.0116197,0.002938093,0.03011214,-0.001840746,-0.003658734
1.011951,-0.1859792,0.109921,-0.001230586,-0.0121162,0.0002007873,0.02142656,0.0002522909,-0.002901214
1.01262,-0.1867373,0.111042,-0.0005487196,-0.01277375,0.001514665,0.01669494,-0.00201257,-0.0107323
1.012692,-0.1821676,0.1115915,-0.00046355,-0.008105326,0.002250602,0.01193863,-0.003341771,-0.0135405
1.013425,-0.1768219,0.1084493,0.0002815152,-0.002662376,-0.0007116722,0.004799509,0.0001432014,-0.005525335
1.013925,-0.1725329,0.108574,0.0007937957,0.001722546,-0.0004136285,-0.003594212,0.0005373726,-0.004103536
1.013105,-0.1767536,0.1103864,-1.399814e-05,-0.00240369,0.001565604,-0.008851604,0.001467584,-0.01222635
1.012469,-0.1842325,0.113901,-0.0006381474,-0.009789671,0.005240384,-0.006266939,0.001252151,-0.01884311
1.014305,-0.1808054,0.1178659,0.001208945,-0.006270952,0.009358821,-0.003586787,-0.002589406,-0.0192687
1.017108,-0.1777418,0.1191045,0.004022692,-0.003116986,0.01074385,-0.002485831,-0.002260686,-0.008491771
1.016339,-0.1795152,0.1201293,0.003264443,-0.004801088,0.01190767,0.003237589,0.004544334,0.0006458933
1.013513,-0.1792703,0.1185055,0.0004475897,-0.004467848,0.01041502,0.006670753,0.01005246,-0.0111816
1.010995,-0.1791032,0.1158911,-0.002061219,-0.004213364,0.007923679,0.005804805,0.002217548,-0.02572096
1.010592,-0.1794548,0.11466,-0.002455489,-0.004478451,0.0068072,0.006804169,-0.007082366,-0.02994248
1.012551,-0.1810318,0.114118,-0.0004894931,-0.005969787,0.006371307,0.006613323,-0.001341957,-0.03283627
1.012695,-0.1823442,0.1159657,-0.0003376496,-0.007197261,0.008316622,0.006172233,0.0009708443,-0.02753608
1.011612,-0.1811044,0.1182769,-0.001413946,-0.005873196,0.01071689,0.01211565,-0.007573297,-0.01824098
1.009099,-0.1795426,0.1200627,-0.003920464,-0.004227519,0.012583,0.01958487,-0.01590867,-0.02039774
1.005874,-0.1774609,0.117,-0.007138569,-0.002062326,0.009591817,0.01910511,-0.02539461,-0.02135268
1.007679,-0.1741047,0.1138545,-0.00532748,0.001376983,0.00650895,0.01160952,-0.02468775,-0.01303635
1.010526,-0.1739362,0.1187029,-0.002472664,0.00162787,0.01141098,0.00676669,-0.01124286,-0.009187101
1.010474,-0.1813367,0.121438,-0.002517511,-0.005690969,0.01419082,0.009940762,-0.004890425,-0.00800277
1.01109,-0.1881202,0.1234673,-0.001893376,-0.01239372,0.0162558,0.01593271,-0.01001189,-0.008747141
1.01056,-0.1861079,0.1273626,-0.002415223,-0.01030121,0.02017752,0.02122977,-0.02006775,-0.01218167
1.009027,-0.1823121,0.124069,-0.00393852,-0.006425332,0.01690079,0.02540316,-0.0228763,-0.009682687
1.009813,-0.1814806,0.1204017,-0.003142092,-0.005513842,0.01324046,0.02407316,-0.01303692,-0.008210655
1.010013,-0.1809185,0.1214132,-0.002931606,-0.004871614,0.01424904,0.02257852,-0.002870108,-0.0083581
1.009019,-0.179873,0.1212764,-0.003913115,-0.003745871,0.01409932,0.02723207,-0.001208482,-0.01214197
1.007952,-0.1771144,0.1201529,-0.004967833,-0.0009068257,0.01295308,0.03030303,-0.006493382,-0.02525546
1.005512,-0.1720538,0.1199797,-0.007393416,0.004234154,0.01274725,0.03084613,-0.009160449,-0.02951408
1.005636,-0.1694105,0.1158213,-0.007254214,0.006957479,0.008546544,0.02987558,-0.009327954,-0.02203417
1.009623,-0.1712041,0.1113439,-0.003250128,0.005243279,0.004017538,0.02246814,-0.00997055,-0.01706028
1.011893,-0.1720628,0.1176497,-0.0009611689,0.004462721,0.01026269,0.01510388,-0.008798276,-0.01809502
1.0105,-0.1714471,0.1242093,-0.002334358,0.005154914,0.01675321,0.01389804,-0.01483746,-0.01796698
1.008859,-0.1735183,0.123218,-0.003953601,0.003158347,0.01568429,0.01489388,-0.02034796,-0.01431201
1.010014,-0.1784493,0.1248103,-0.002774393,-0.001700319,0.01719066,0.01363996,-0.01450709,-0.01750154
1.011059,-0.1812921,0.1258669,-0.001704999,-0.004472855,0.01815297,0.01122773,-0.008853166,-0.0197847
1.011036,-0.1763397,0.1222064,-0.001701626,0.0005474773,0.01438966,0.009999764,-0.007327168,-0.01826996
1.012377,-0.1708556,0.1203667,-0.0003329839,0.006097399,0.01243894,0.007803079,-0.009176597,-0.02140198
1.012646,-0.172011,0.119196,-3.479579e-05,0.005005543,0.01114892,0.005228968,-0.01393641,-0.01945184
1.01222,-0.1714931,0.1171777,-0.0004307315,0.005584412,0.009003559,0.002117762,-0.01734907,-0.0158401
1.011603,-0.1706776,0.118807,-0.001017265,0.006457949,0.01049838,-0.0005604413,-0.01705135,-0.01251095
1.009902,-0.174195,0.1220742,-0.002686428,0.002995596,0.01362395,-0.003516702,-0.01696429,-0.006155959
1.010386,-0.1736601,0.1243834,-0.002169693,0.003582293,0.01578482,-0.008939895,-0.02053872,-0.009837993
1.011673,-0.1711096,0.1250487,-0.0008492493,0.00618114,0.01629501,-0.005970206,-0.01970682,-0.01491473
1.012587,-0.1714279,0.1236974,9.819829e-05,0.005907715,0.01478217,-0.0006111067,-0.01509587,-0.01456392
1.015337,-0.1730269,0.1245716,0.002882817,0.004349963,0.01548839,-0.005181557,-0.00868737,-0.02316038
1.017574,-0.1761449,0.1253866,0.005154695,0.001269509,0.01612907,-0.008832177,-0.0007218673,-0.03204571
1.016019,-0.175269,0.1238274,0.003634169,0.002179185,0.01438931,-0.01087631,-0.004759762,-0.02958673
1.011555,-0.1730137,0.120261,-0.0007951257,0.004464566,0.01063654,-0.01227595,-0.01251957,-0.02536829
1.008726,-0.1741511,0.1138288,-0.003589273,0.003353544,0.004012157,-0.01181,-0.01002557,-0.02209284
1.010009,-0.1740655,0.1141375,-0.002273263,0.003461922,0.004123701,-0.0160788,-0.007261598,-0.01782672
1.013929,-0.1769925,0.1230419,0.001680312,0.0005541111,0.0128263,-0.01602351,-0.005569655,-0.02157307
1.016266,-0.1805865,0.1295138,0.004050435,-0.003024233,0.01909244,-0.01057745,-0.003684278,-0.03252498
1.01513,-0.1763923,0.1286265,0.002946945,0.001182471,0.01799528,-0.006198279,-0.004503534,-0.04095014
1.013869,-0.1674913,0.1252472,0.001717381,0.0100928,0.0144021,0.003198841,-0.003901516,-0.04736604
1.012186,-0.157937,0.1255435,6.569987e-05,0.01965319,0.01448048,0.007639884,-0.006040436,-0.05101064
1.00857,-0.1529026,0.1242813,-0.003521172,0.02468996,0.01299649,-0.0007274945,-0.01176049,-0.04895907
1.006419,-0.1508535,0.1224478,-0.005642848,0.02673695,0.01093759,-0.009360418,-0.01383283,-0.04286448
1.009477,-0.1497796,0.124009,-0.002557071,0.0278031,0.01226989,-0.01554477,-0.0113929,-0.03337529
1.013603,-0.1549315,0.1217212,0.001597077,0.02263705,0.009749993,-0.02071677,-0.005269368,-0.01954873
1.012648,-0.1587974,0.1198755,0.0006687058,0.01874969,0.007669513,-0.01801604,-0.003516364,-0.006580218
1.01188,-0.1623186,0.1214175,-7.264867e-05,0.01519937,0.008974179,-0.005667305,-0.01118048,-0.004175225
1.013047,-0.1710003,0.1218037,0.001120422,0.006480594,0.00912092,0.007866122,-0.01962937,-0.005729954
1.01244,-0.1726595,0.1232271,0.0005377383,0.004776458,0.01030325,0.0134443,-0.02067885,-0.005907872
1.013149,-0.1726208,0.1232993,0.00127167,0.004762829,0.01013282,0.01277628,-0.01458973,-0.01132564
1.013507,-0.1752974,0.1226429,0.00165251,0.002026764,0.0092326,0.01282165,-0.01191301,-0.01486848
1.011542,-0.1711379,0.1240318,-0.0002903721,0.006120366,0.01037686,0.01385143,-0.01506969,-0.01460936
1.009671,-0.1685874,0.1247497,-0.002139234,0.008598714,0.01084932,0.01172265,-0.01923815,-0.01511374
1.008148,-0.1667346,0.1238005,-0.003641253,0.01037348,0.00965408,0.007618493,-0.02302917,-0.01416549
1.00984,-0.1642612,0.1188549,-0.001929691,0.0127632,0.004462235,0.005624754,-0.02020448,-0.01455104
1.013147,-0.168073,0.1147284,0.001396898,0.008862045,8.950185e-05,0.003739353,-0.01584617,-0.01431345
1.012776,-0.1680593,0.1216623,0.001044267,0.008780839,0.006777629,0.0004137087,-0.01680232,-0.01187069
1.012,-0.168261,0.1298772,0.0002866043,0.008478906,0.01474773,-0.001813321,-0.0178795,-0.006950891
1.012484,-0.1723836,0.1252998,0.0007881021,0.004251,0.009926495,-0.000145983,-0.0198682,0.002834217
1.010653,-0.1732515,0.1203698,-0.001025754,0.003273037,0.004753752,0.008558613,-0.02232702,0.01000156
1.009374,-0.1766843,0.121154,-0.002288871,-0.000274122,0.005296428,0.02424423,-0.02184469,0.01367871
1.011533,-0.1775928,0.1198334,-0.0001148539,-0.001300723,0.00373586,0.04135968,-0.02070232,0.01724733
1.012567,-0.1761354,0.1241035,0.0009347404,3.535478e-05,0.007767736,0.05255295,-0.02413719,0.01425385
1.008988,-0.1783479,0.1268787,-0.002630218,-0.002301078,0.01030681,0.06103688,-0.03887337,0.009404429
1.006142,-0.1755156,0.120713,-0.005461721,0.0004053966,0.003907026,0.07118695,-0.05803858,0.01516426
1.010561,-0.1706544,0.1202091,-0.001029236,0.005139239,0.003171361,0.07350959,-0.05972747,0.0248969
1.015159,-0.1673855,0.1213459,0.003581573,0.008279626,0.004078933,0.0667952,-0.04555386,0.02769557
1.013041,-0.1637787,0.1197823,0.001477227,0.0117569,0.002288754,0.05871971,-0.03851424,0.02486322
1.011611,-0.1635172,0.1186851,5.971281e-05,0.01188767,0.0009680839,0.04895257,-0.03724136,0.01691103
1.012914,-0.1637018,0.1154741,0.001374847,0.01157104,-0.002463099,0.03419435,-0.03423746,0.006164285
1.013067,-0.1620762,0.1163951,0.00154003,0.01306311,-0.001758485,0.01984888,-0.03204501,-0.003372235
1.014961,-0.1600673,0.1177625,0.003445362,0.01493693,-0.0006033938,0.01845252,-0.02306758,-0.007075872
1.017142,-0.1581161,0.1167626,0.005636298,0.01675118,-0.001811032,0.01856783,-0.01429751,-0.00716961
1.014056,-0.1566672,0.1192039,0.002559729,0.0180609,0.0004272906,0.00322793,-0.01896601,-0.01527423
1.010307,-0.1566954,0.12094,-0.001179792,0.01789101,0.001965323,-0.0126271,-0.02356738,-0.02017423
1.012695,-0.1601587,0.1224889,0.001215285,0.0142833,0.003321449,-0.01736615,-0.01829728,-0.01913088
1.017809,-0.1652813,0.1226661,0.006335713,0.009013165,0.003310945,-0.01589612,-0.01261465,-0.03008237
1.019244,-0.1704721,0.1195886,0.007776611,0.003671779,5.09195e-05,-0.005732205,-0.01075115,-0.03907094
1.013619,-0.1714034,0.119539,0.002155428,0.002587227,-0.0001760008,0.01226906,-0.01719082,-0.03535933
1.007211,-0.1655666,0.1213056,-0.004250073,0.008268394,0.001418542,0.0169492,-0.03189784,-0.03255481
1.010699,-0.1617205,0.1226469,-0.0007607666,0.01195692,0.00259314,1.216669e-05,-0.03214898,-0.03055377
1.015819,-0.1603782,0.1216019,0.004359291,0.0131396,0.001386779,-0.01651318,-0.01526914,-0.02231156
1.014569,-0.1574758,0.1172754,0.003107843,0.01588032,-0.003095863,-0.0264123,-0.003513916,-0.01508304
1.01374,-0.157025,0.1173936,0.002276008,0.01616728,-0.003128328,-0.0337353,-0.00495233,-0.01427604
1.012168,-0.1585683,0.1210429,0.0007000875,0.01445781,0.0003757533,-0.03612692,-0.01625419,-0.009989659
1.011673,-0.1601662,0.1201351,0.0001993327,0.01269118,-0.0006716495,-0.03822835,-0.021553,-0.006760031
1.013203,-0.1616746,0.1181738,0.001723437,0.0110114,-0.002767016,-0.03751439,-0.01928627,-0.005883597
1.010005,-0.161893,0.1210236,-0.001482572,0.01061921,-4.553477e-05,-0.0354623,-0.02307939,0.001201752
1.008082,-0.16332,0.124886,-0.003414809,0.009015879,0.003694039,-0.03283189,-0.02587161,0.0002111838
1.008703,-0.1673717,0.1271362,-0.002802848,0.004785577,0.005826944,-0.02708575,-0.02023522,-0.004698381
1.009346,-0.171121,0.1264424,-0.00216986,0.0008557687,0.005020989,-0.0238579,-0.01267826,-0.003631663
1.013103,-0.173917,0.1215947,0.001575804,-0.002122221,6.598643e-05,-0.01221815,-0.01529995,-0.00761308
1.014638,-0.1730602,0.1182882,0.003100503,-0.001448205,-0.003343143,0.004680797,-0.02139337,-0.008036407
1.013834,-0.1687396,0.114803,0.002284785,0.002689313,-0.006926282,0.005918313,-0.02082179,-0.003419465
1.013953,-0.1687587,0.1116489,0.002392709,0.002487305,-0.01017345,-0.0009651201,-0.02180847,-0.004110536
1.014691,-0.1673352,0.1164312,0.003118017,0.003728601,-0.00547892,-0.003067535,-0.01561708,-0.006386676
1.015123,-0.1615226,0.1215233,0.003537149,0.009359809,-0.0004693515,-0.001721698,-0.00764683,-0.009222189
1.011542,-0.1580673,0.1213308,-5.742569e-05,0.01263471,-0.0007389066,-0.002581697,-0.01273639,-0.007750369
1.008666,-0.1513704,0.1202354,-0.002947334,0.01915201,-0.001906003,-0.0065028,-0.01784649,-0.004326781
1.01065,-0.1483689,0.1200744,-0.0009782115,0.02197425,-0.002133599,-0.01083441,-0.02083921,-0.006837142
1.013001,-0.1545945,0.1202644,0.00135723,0.01556935,-0.002005156,-0.01796366,-0.0191654,-0.007862436
1.013559,-0.1593858,0.1198842,0.001900085,0.01059825,-0.002441874,-0.02430678,-0.00859546,-0.00922911
1.013837,-0.1629524,0.1201943,0.002162357,0.006851137,-0.002183333,-0.02314049,-0.001698252,-0.01142205
1.014812,-0.1648963,0.1192157,0.003121556,0.004726039,-0.003208747,-0.01663659,-0.001860054,-0.007447906
1.016266,-0.1685141,0.1175379,0.004558784,0.0009268288,-0.004928606,-0.01222216,-0.002276981,-0.005146262
1.019024,-0.1719239,0.1161576,0.007299313,-0.002664516,-0.006346288,-0.0128653,0.0004662013,-0.00674774
1.018879,-0.1641169,0.1160835,0.007136967,0.00496152,-0.006452943,-0.01384936,0.002666873,-0.01041748
1.015644,-0.1585307,0.1223116,0.003882927,0.01036759,-0.0002526663,-0.0138117,0.006088962,-0.01443945
1.015459,-0.1627434,0.1261304,0.003677918,0.005975682,0.003542989,-0.0168842,0.01086671,-0.01011619
1.014398,-0.1652949,0.1241985,0.002595337,0.003245945,0.001592327,-0.02036087,0.01082565,-0.005018476
1.010335,-0.1653284,0.1248591,-0.001489951,0.0030354,0.002238137,-0.02012209,0.01066147,-0.007189015
1.00837,-0.1655075,0.1225151,-0.003478757,0.002680584,-0.0001170759,-0.02175971,0.009949083,-0.006584462
1.009987,-0.1661777,0.115711,-0.001885592,0.001836386,-0.006928934,-0.02365623,0.009640547,-0.0008442239
1.010449,-0.1666892,0.1142674,-0.001448931,0.001152588,-0.008377033,-0.02240235,0.0127184,0.003721793
1.008996,-0.1655637,0.1228664,-0.002926916,0.002107965,0.0002209817,-0.02498793,0.01246117,0.00560756
1.011028,-0.1630714,0.1331087,-0.0009207628,0.004432515,0.01046558,-0.02932346,0.01215236,0.005720991
1.011647,-0.1628729,0.1314695,-0.0003269532,0.004465645,0.008831475,-0.03180419,0.01096349,0.006051607
1.010521,-0.1680519,0.1266061,-0.001478361,-0.0008761598,0.003975408,-0.02886466,0.007564198,0.005865142
1.011613,-0.1725854,0.1284238,-0.0004117962,-0.005569785,0.005802139,-0.01813593,0.007787355,0.003213532
1.010835,-0.1712987,0.1284568,-0.001215174,-0.004440129,0.005845378,-0.01157076,0.008412395,0.001152916
1.011429,-0.1698889,0.1312855,-0.0006452208,-0.003183748,0.008685202,-0.01293279,0.0108546,0.0005205874
1.013221,-0.1722753,0.1379705,0.001122179,-0.00571973,0.01538161,-0.01505514,0.01375386,-0.000438031
1.013974,-0.1715245,0.1377406,0.001852131,-0.005114195,0.01516281,-0.01286253,0.01386365,-0.001799028
1.014506,-0.1648332,0.1353391,0.002360665,0.001436414,0.01277138,-0.01058885,0.01311647,-0.005057035
1.013279,-0.1583046,0.1343262,0.001111221,0.007828943,0.01176669,-0.01316866,0.006756603,-0.006892185
1.013669,-0.1566973,0.1334674,0.001478059,0.009304723,0.0109139,-0.01444371,-0.002896361,-0.001350489
1.01228,-0.1595935,0.1308948,6.733167e-05,0.006281162,0.008344672,-0.0159898,-0.007539029,0.006868211
1.009269,-0.1604202,0.1265309,-0.002965538,0.005330982,0.003981101,-0.0173124,-0.005459642,0.008139716
1.010439,-0.1610501,0.130456,-0.001816335,0.004581154,0.007903372,-0.01700186,-0.003424988,0.004587444
1.010786,-0.1641711,0.1373609,-0.001490473,0.001343576,0.01480216,-0.01710766,-0.004077489,0.001561766
1.010498,-0.1645853,0.1389579,-0.001798673,0.0008161844,0.01638949,-0.01412656,-0.001394726,-0.004978767
1.012122,-0.1655011,0.139515,-0.0001944494,-0.0002095435,0.01693288,-0.01717215,0.0007999013,-0.01063981
1.013002,-0.1639214,0.1335903,0.0006673643,0.001263559,0.01098984,-0.02178949,0.002728251,-0.007039454
1.012509,-0.1582541,0.1261714,0.0001567282,0.006827611,0.003547743,-0.01965455,0.00499101,-0.001465084
1.011963,-0.1574873,0.1290008,-0.0004062614,0.007494343,0.006349207,-0.02078084,-0.001092062,0.0006526092
1.011952,-0.1626312,0.1310002,-0.0004339293,0.002253302,0.008315894,-0.02137502,-0.007312373,0.0009730468
1.010745,-0.1691857,0.1260997,-0.001656311,-0.004395656,0.003378037,-0.02103599,-0.00696334,-0.0002058428
1.011353,-0.1675233,0.1240896,-0.001062874,-0.00282486,0.001326088,-0.01987553,-0.006807503,0.0003309369
1.014333,-0.1644636,0.1252189,0.001903161,0.0001463073,0.002409315,-0.01587513,-0.003906661,-2.850715e-05
1.015691,-0.1680605,0.1260347,0.003248038,-0.003536024,0.003175261,-0.01835982,0.004285148,-0.003563108
1.015696,-0.1654228,0.1265487,0.003239705,-0.0009805788,0.003635665,-0.02304837,0.008646812,-0.005654687
1.014475,-0.1631674,0.1253882,0.00200748,0.001195865,0.002418374,-0.02593354,0.005441272,-0.006662312
1.013488,-0.1648124,0.124664,0.001008784,-0.0005247604,0.001634184,-0.02606773,0.001204667,-0.00274227
1.012184,-0.16303,0.1252317,-0.0003066459,0.001185179,0.002139051,-0.02394339,-0.001209328,0.006618299
1.010893,-0.1642582,0.1260895,-0.001608876,-0.0001121981,0.002931524,-0.027436,0.001711727,0.009684836
1.011015,-0.1641392,0.1279622,-0.001497952,-5.932507e-05,0.004736516,-0.02810947,0.006016004,0.003990462
1.008151,-0.1633939,0.1300201,-0.004371993,0.0006229909,0.00672458,-0.02427817,-0.001456232,-0.00134383
1.006316,-0.165344,0.1319599,-0.006216933,-0.001387087,0.008592308,-0.02449495,-0.0103148,0.001459593
1.008919,-0.1641702,0.1323583,-0.003622071,-0.0002703032,0.008916537,-0.02176239,-0.01057062,0.006406791
1.010896,-0.1636241,0.1316511,-0.001653803,0.0002217261,0.008132937,-0.01597104,-0.0114487,0.007329337
1.012582,-0.1627915,0.132028,2.552991e-05,0.001003124,0.00843119,-0.01413086,-0.009593419,0.007521665
1.014073,-0.1611629,0.1319967,0.001510548,0.002583305,0.008318786,-0.01359267,-0.00568522,0.003441872
1.013163,-0.161126,0.1316673,0.0005960623,0.002574434,0.007905945,-0.01354816,-0.00849528,0.0003869293
1.010014,-0.1611495,0.1320327,-0.002556407,0.002507636,0.008185497,-0.01567197,-0.01175093,0.003966142
1.008946,-0.1634037,0.1346904,-0.003627684,0.0002123508,0.01075485,-0.01675954,-0.01181875,0.006253553
1.01023,-0.1656162,0.1387833,-0.002345356,-0.002039021,0.01475694,-0.01805068,-0.01188189,0.007184113
1.00954,-0.1674896,0.1375309,-0.003036911,-0.003949183,0.013411,-0.01932082,-0.01090492,0.006149955
1.009644,-0.1695928,0.1324031,-0.002931757,-0.006086963,0.008186646,-0.01615653,-0.00989138,0.003202767
1.009977,-0.1695608,0.1295752,-0.002597326,-0.006087046,0.005259287,-0.01538857,-0.008641012,0.00244846
1.009397,-0.1693099,0.1288324,-0.003175071,-0.00586558,0.00441406,-0.01615489,-0.005474158,0.002909942
1.010175,-0.1684336,0.1309218,-0.002393208,-0.005015986,0.006398352,-0.0126381,-0.0049912,0.003750175
1.010489,-0.1676209,0.1321318,-0.002074138,-0.004226897,0.007500783,-0.01230556,-0.007856817,0.00397894
1.011329,-0.1673838,0.1271838,-0.001227256,-0.004010479,0.002442824,-0.01197695,-0.009376579,0.005503306
1.011418,-0.1674226,0.1233639,-0.001130621,-0.004066766,-0.001489038,-0.008240997,-0.01157067,0.005743562
1.011183,-0.1692364,0.1254454,-0.001355402,-0.00589485,0.0004787403,-0.005952222,-0.01248602,0.003482383
1.014103,-0.1697216,0.1289151,0.001574952,-0.006391171,0.003833413,-0.002612209,-0.007951861,0.004064917
1.015688,-0.1678537,0.1322767,0.003170676,-0.004531007,0.007079092,-0.002033259,-0.00742656,0.00383384
1.013296,-0.1650484,0.1339868,0.0007915024,-0.001730119,0.008672308,-0.0040685,-0.01387464,0.004887768
1.010147,-0.1630358,0.1312724,-0.002344688,0.0002812636,0.005840152,-0.00344916,-0.01843647,0.009841297
1.010665,-0.164507,0.1277849,-0.001812947,-0.001187954,0.002234185,-0.00594777,-0.01888137,0.01103968
1.012586,-0.1678908,0.1283702,0.000122545,-0.004566795,0.002700201,-0.009627923,-0.01747335,0.006231565
1.010928,-0.1695671,0.1299968,-0.001520684,-0.006235306,0.004207211,-0.01192367,-0.019984,-5.842587e-05
1.00997,-0.1660862,0.1319832,-0.002463617,-0.002743696,0.006073688,-0.01750904,-0.03217242,0.001229446
1.009025,-0.1612576,0.1377917,-0.003391864,0.00209833,0.01176201,-0.02099187,-0.07180462,0.006106615
1.006627,-0.1634823,0.1410487,-0.005773912,-0.0001102144,0.01489857,-0.0186712,-0.1463508,0.0053376
1.011493,-0.1707402,0.1330516,-0.0008897494,-0.007349624,0.0067804,-0.01231133,-0.1846926,0.002552711
1.021627,-0.1761151,0.1181839,0.009261714,-0.01270354,-0.008209097,-0.004740616,-0.1236217,-0.001180796
1.023745,-0.1761314,0.1101912,0.01139919,-0.01269618,-0.01632372,-2.378415e-05,-0.02970161,-0.001780667
1.013209,-0.1736447,0.1133213,0.0008811569,-0.01018291,-0.01331493,0.006955212,-0.0004061878,-0.001627165
1.001814,-0.1735606,0.1198101,-0.0104953,-0.01006896,-0.006945862,0.0152474,-0.03918897,-0.004776213
1.00362,-0.1702773,0.12365,-0.008670983,-0.006752214,-0.003223389,0.017335,-0.06782691,0.003144844
1.010853,-0.1649129,0.1227535,-0.001419487,-0.001350856,-0.004234553,0.02020694,-0.03834116,0.01530755
1.012588,-0.1655773,0.1212594,0.0003339208,-0.001974887,-0.005840206,0.02376451,-0.01697276,0.01781726
1.01405,-0.164855,0.1222524,0.001814554,-0.001209046,-0.004955258,0.01594649,-0.03227731,0.02080822
1.015128,-0.1627193,0.1207015,0.002912029,0.0009730987,-0.006610458,0.006828025,-0.02295078,0.02429766
1.015025,-0.164645,0.1192782,0.002827849,-0.0009036256,-0.008133947,0.007457806,-0.01035425,0.02173819
1.015529,-0.1651694,0.1240479,0.003351223,-0.001376718,-0.003460034,0.004540532,-0.01444267,0.01253357
1.013052,-0.1673134,0.1272601,0.0008933002,-0.00346736,-0.000338971,0.0006993486,-0.00888128,0.002070748
1.012265,-0.1716616,0.1209365,0.0001245344,-0.007760383,-0.006749067,0.003526711,-0.01371893,-0.001443619
1.014549,-0.1746247,0.111909,0.002425617,-0.01066641,-0.01585811,-0.0001508122,-0.01208681,-0.009241503
1.015272,-0.1771528,0.1107353,0.003165608,-0.01313539,-0.01710813,-0.003926148,-0.001691694,-0.02075456
1.013751,-0.1749242,0.1177706,0.001661494,-0.0108452,-0.01014332,0.004346623,-0.004300516,-0.0152398
1.010135,-0.1729296,0.1231244,-0.001938696,-0.008786584,-0.004853632,0.01713828,-0.001170732,-0.005668523
1.009002,-0.1775538,0.1207673,-0.003057867,-0.01334393,-0.007268475,0.02724122,-0.005122971,-0.006826467
1.008431,-0.178999,0.1175944,-0.003614557,-0.01471935,-0.01049263,0.02783026,-0.01125751,-0.004126892
1.00807,-0.1707006,0.1161778,-0.003962114,-0.006347865,-0.01195377,0.023302,-0.009780336,0.002995624
1.01175,-0.1618814,0.1100069,-0.0002687497,0.002547605,-0.01816231,0.01902616,-0.008994049,0.009539966
1.012937,-0.162787,0.1045231,0.0009307406,0.001721276,-0.0236766,0.008641986,0.004030958,0.01052191
1.011588,-0.1655391,0.1063177,-0.0004054166,-0.0009490841,-0.02190456,-0.00114382,0.008550049,0.004575078
1.011174,-0.1631139,0.1078802,-0.000806736,0.00155999,-0.02035617,-0.01299787,0.004657205,0.006889667
1.012566,-0.1636132,0.1077197,0.0005970999,0.001146092,-0.02052167,-0.03082543,0.009973267,0.008712793
1.014831,-0.1655937,0.1098447,0.002873726,-0.0007476836,-0.01839239,-0.03375321,0.01335197,0.003627887
1.011959,-0.1678009,0.1128703,1.350236e-05,-0.002867228,-0.01535275,-0.02830297,0.01596416,-0.004383863
1.007284,-0.1735522,0.1178914,-0.004650744,-0.008530141,-0.01030771,-0.02444621,0.01146818,-0.01825049
1.005225,-0.174125,0.1232532,-0.006698979,-0.009013854,-0.004912444,-0.008711045,0.005398924,-0.01325146
1.00785,-0.1728241,0.1230757,-0.004063037,-0.00762303,-0.005047081,0.003405267,0.004035584,0.0005168384
1.013389,-0.1762915,0.1193717,0.001487134,-0.01099948,-0.008699333,0.008858681,-0.003135914,0.0009737148
1.012936,-0.175877,0.1159332,0.001045467,-0.01049297,-0.01207775,0.02149401,-0.007161481,0.006935373
1.011743,-0.1716733,0.1111599,-0.0001368329,-0.006195957,-0.01678267,0.02436764,-0.00596266,0.006314049
1.013314,-0.1688894,0.1095517,0.001445156,-0.003317257,-0.01831438,0.01990473,-0.003660013,-0.0002943713
1.013065,-0.1712695,0.112213,0.001208137,-0.005601385,-0.01556839,0.01913548,-0.0002962043,0.00250044
1.014158,-0.1751762,0.1114135,0.002312027,-0.009410816,-0.01627503,0.008831348,0.007595054,-0.0004207072
1.014241,-0.1706988,0.1121944,0.002405706,-0.004834946,-0.015393,-0.003365729,0.0151016,-0.005308089
1.013163,-0.1676185,0.1152974,0.001338425,-0.001654991,-0.01218068,-0.001367749,0.004823717,-0.01141816
1.013385,-0.1712048,0.1132128,0.00156993,-0.005140696,-0.01414807,0.003689337,-0.00281565,-0.01738138
1.01213,-0.1744035,0.1115203,0.0003243445,-0.008237784,-0.01571543,0.004565117,0.007974673,-0.0140213
1.012246,-0.1800917,0.1102853,0.0004493626,-0.01382348,-0.01681772,0.0182281,0.01225484,-0.01412077
1.012967,-0.1823103,0.110001,0.001179453,-0.01593853,-0.01696181,0.04320463,0.0007144382,-0.01439446
1.012161,-0.1786374,0.1172175,0.0003811249,-0.01216053,-0.009597577,0.0605778,-0.01597232,-0.008179334
1.012765,-0.1761396,0.1249649,0.0009917291,-0.009555887,-0.001695356,0.07293418,-0.02457207,0.001342462
1.013512,-0.1723807,0.1255627,0.001745248,-0.005688186,-0.0009361369,0.07628044,-0.021396,0.01285741
1.013782,-0.1707476,0.1194135,0.002021323,-0.003944429,-0.006918222,0.06378397,-0.01386581,0.01293267
1.012918,-0.170747,0.113598,0.001162166,-0.003831442,-0.0125614,0.05369538,-0.01041158,0.008773832
1.010152,-0.1656137,0.1133113,-0.001598859,0.001415669,-0.01267113,0.05131121,-0.01770059,0.01150198
1.009335,-0.1625736,0.1147868,-0.00241267,0.004570602,-0.01101403,0.0463538,-0.02555614,0.01021717
1.010908,-0.1641172,0.1179718,-0.0008359578,0.003142532,-0.007643176,0.04103185,-0.02291686,0.009581856
1.012382,-0.1657972,0.1221779,0.0006404801,0.001578002,-0.003247317,0.03983611,-0.02247567,0.01290919
1.012803,-0.1690555,0.1231365,0.001063461,-0.001565171,-0.002095487,0.0420833,-0.0299277,0.01097021
1.011841,-0.1713196,0.1216594,0.0001038568,-0.003714758,-0.003376597,0.04703181,-0.03104182,0.00244765
1.009608,-0.168555,0.1212426,-0.002127901,-0.0008365658,-0.003595097,0.05020652,-0.02878393,-0.00842983
1.006718,-0.16476,0.1217822,-0.005016782,0.003071048,-0.002855566,0.04465457,-0.03068385,-0.008755726
1.00733,-0.1644608,0.1215152,-0.004404051,0.003481657,-0.002921382,0.03442417,-0.02936607,-0.0009351551
1.013412,-0.1624974,0.121756,0.001679143,0.005554749,-0.002478767,0.02737922,-0.02703987,0.00170596
1.019659,-0.1589559,0.1193943,0.007926867,0.009203839,-0.00463839,0.01812228,-0.02164057,0.00490438
1.021553,-0.1585469,0.1137932,0.009822039,0.009717804,-0.01003749,-0.000245729,-0.006131547,0.005400903
1.020343,-0.154873,0.1108055,0.008611939,0.01349358,-0.01282348,-0.02399685,0.01218164,0.002607166
1.019274,-0.1529355,0.1107145,0.007541995,0.015529,-0.01271296,-0.04823621,0.0269467,0.004387905
1.016869,-0.1584871,0.1154104,0.005135244,0.0100709,-0.007815699,-0.06825178,0.03734483,-0.001745779
1.014014,-0.1619064,0.1218235,0.002276453,0.006739914,-0.001201539,-0.07608453,0.04221099,-0.008832573
1.015275,-0.1646699,0.1198365,0.003532585,0.004059387,-0.002987926,-0.07353993,0.04307359,-0.004770579
1.015585,-0.1681925,0.1162443,0.003835701,0.0006143274,-0.006380295,-0.06808969,0.0472731,-0.003418866
1.012146,-0.1697678,0.1201816,0.0003887672,-0.0008889788,-0.002244314,-0.05419952,0.05203353,-0.003837542
1.008638,-0.1700973,0.1262226,-0.003129683,-0.001151733,0.003993997,-0.0290672,0.04837634,-0.001126128
1.005938,-0.1675871,0.1298738,-0.005841511,0.001420144,0.00784068,-0.008897809,0.03167413,0.001402823
1.008221,-0.1669333,0.1246978,-0.003571273,0.002130786,0.002857589,0.0003616503,0.006333445,0.008756286
1.013302,-0.1669138,0.1137452,0.001496754,0.002202409,-0.007905217,0.00929622,0.005788625,0.01597854
1.015308,-0.1655943,0.1125342,0.003488774,0.003569359,-0.008929542,0.01053293,0.0258901,0.01063029
1.015843,-0.1655209,0.1149431,0.004009517,0.003685608,-0.00633726,0.004725807,0.02978252,0.004990603
1.015041,-0.1629866,0.1152041,0.003192337,0.006258174,-0.005895843,0.006267824,0.03168368,0.01404812
1.015005,-0.1624595,0.1206698,0.003139917,0.006818939,-0.0002527965,0.0005311217,0.03695315,0.01805905
1.015431,-0.1632358,0.1253488,0.003548283,0.006071597,0.004600388,-0.01238374,0.04011566,0.007893758
1.012918,-0.1616402,0.1262951,0.001017505,0.0076915,0.005717448,-0.01764619,0.04937562,0.001629621
1.010965,-0.1628953,0.127308,-0.0009544001,0.006455848,0.006897083,-0.01979925,0.05129746,0.002195672
1.00995,-0.1632428,0.129837,-0.001988706,0.006122863,0.009588347,-0.01463475,0.04432303,0.002317655
1.010109,-0.1645985,0.1308829,-0.00185049,0.004776819,0.01079156,-0.009140723,0.03208227,0.000251138
1.01351,-0.1689783,0.1287598,0.001530246,0.0004017689,0.00882019,-0.004235682,0.02325336,0.000611341
1.015536,-0.1711074,0.12943,0.003535089,-0.001727149,0.009635982,0.008009207,0.02605231,0.0009805613
1.011978,-0.1738099,0.1291185,-4.465637e-05,-0.004433699,0.00946364,0.01107958,0.02237129,-0.003587417
1.006986,-0.1718798,0.1276755,-0.00505882,-0.002511447,0.008152851,0.01319889,0.01453812,-0.006199316
1.008057,-0.1662433,0.1282693,-0.004009473,0.003113918,0.00887155,0.02001583,0.01117073,-0.006718355
1.010305,-0.1670587,0.1278594,-0.001783506,0.002284169,0.008579175,0.0164775,0.01012331,-0.006055712
1.009548,-0.167281,0.1317836,-0.002562667,0.002044613,0.01261306,0.0109103,0.01483889,-0.007061775
1.011792,-0.1657146,0.135621,-0.0003391293,0.003590927,0.01655212,0.001769556,0.01979025,-0.01587565
1.01391,-0.1658278,0.1347572,0.001757773,0.003454911,0.01578159,-0.01018111,0.02304463,-0.02315781
1.01581,-0.1584599,0.1353742,0.003637683,0.0107974,0.01648287,-0.01206138,0.02253502,-0.02147551
1.018185,-0.1475783,0.1384973,0.005993595,0.02165082,0.01968079,-0.01552225,0.01957096,-0.01203076
1.012656,-0.1463223,0.1433582,0.0004455575,0.02287521,0.02460674,-0.02721083,0.01891772,0.002272652
1.005543,-0.1538139,0.1440051,-0.006686871,0.01534797,0.02530829,-0.04043488,0.009620895,0.01288404
1.006207,-0.1604998,0.1418491,-0.006042447,0.008621884,0.02319587,-0.05286872,-0.004737867,0.006396702
1.009219,-0.1617159,0.1407556,-0.003048596,0.00736074,0.02213423,-0.05224582,-0.006470441,-0.0097947
1.012779,-0.1631344,0.1354631,0.0004937193,0.005892446,0.01686164,-0.04255572,0.001907129,-0.01287095
1.017966,-0.1673555,0.1324245,0.005665005,0.001616872,0.0138307,-0.04202807,0.008699146,-0.00943531
1.016192,-0.1689964,0.1351425,0.003875022,-8.276396e-05,0.01654425,-0.03943769,0.01310077,-0.001674543
1.011244,-0.1689844,0.1350974,-0.001088756,-0.0001334365,0.01648252,-0.03067809,0.0180958,0.009152703
1.013628,-0.1732889,0.1318927,0.001280947,-0.004504054,0.01324927,-0.02051386,0.01982505,0.005079705
1.013145,-0.1791951,0.1297171,0.0007831881,-0.01047923,0.01103332,-0.005762661,0.01205796,0.002960801
1.010979,-0.1791916,0.12949,-0.001396809,-0.01054674,0.01075442,0.004607753,0.0003531408,0.006568663
1.013709,-0.1791488,0.1331903,0.001319059,-0.01057627,0.01439189,0.02306306,5.487959e-05,-0.001580745
1.012206,-0.1828544,0.1398423,-0.0001971779,-0.01435453,0.02097023,0.04220405,0.004142297,-0.01253843
1.011234,-0.1780162,0.1407003,-0.001181006,-0.009588563,0.02174382,0.03807733,0.0005279012,-0.01789623
1.009864,-0.1665589,0.1352383,-0.002563592,0.001797625,0.01618665,0.0293189,-0.0002730589,-0.0107313
1.005759,-0.1608776,0.1319366,-0.006681005,0.007409297,0.01277928,0.01619521,-0.0004077304,-0.00117253
1.010797,-0.1625238,0.1312256,-0.001653272,0.005694827,0.01195211,0.004002554,-0.001673481,-0.003826824
1.016375,-0.1687009,0.125295,0.00391404,-0.0005493878,0.00589549,0.001664778,0.003099904,-0.005427602
1.01533,-0.1732165,0.116965,0.002860229,-0.005130829,-0.00256973,-0.009355747,0.00509369,-0.006550875
1.014187,-0.1741279,0.1219089,0.001708892,-0.006106722,0.00223054,-0.0110705,0.005561083,-0.01188995
1.010854,-0.1729413,0.1296798,-0.001632333,-0.004982876,0.009850364,-0.006062768,0.006799532,-0.01068734
1.007048,-0.1715999,0.1256705,-0.005445996,-0.003702218,0.005683186,-0.01070654,0.004725278,-0.005775168
1.00826,-0.1743896,0.1263734,-0.004241114,-0.006550391,0.006222085,-0.005854551,0.0052489,-0.001508415
1.012035,-0.1754676,0.1302959,-0.0004719791,-0.007684199,0.009974872,0.002360912,0.0053123,0.002273977
1.012212,-0.1717279,0.1304669,-0.0002997024,-0.003997465,0.009970963,0.01341379,-0.0009673065,0.002839114
1.008874,-0.1657816,0.1358205,-0.003642073,0.001898907,0.01514479,0.02590061,-0.01634555,0.01013935
1.006304,-0.1578446,0.137711,-0.006215239,0.009788933,0.01685087,0.02224075,-0.03468539,0.02603596
1.008406,-0.1543291,0.1356878,-0.004115518,0.01326016,0.01463869,0.01616325,-0.03462994,0.03240502
1.013135,-0.1548161,0.1340671,0.0006125683,0.01273091,0.01282447,0.00728738,-0.01485424,0.02768093
1.012802,-0.1573047,0.1287573,0.0002808559,0.01020138,0.007316678,-0.009205561,0.003033184,0.01801578
1.012105,-0.161463,0.1297229,-0.0004145107,0.006003044,0.008080277,-0.01941006,0.007231755,-0.001685345
1.013999,-0.16088,0.1321284,0.001482088,0.006546318,0.01028022,-0.03764619,0.007446856,-0.01962691
1.013722,-0.1598355,0.1284679,0.001209671,0.007551242,0.006410784,-0.06494792,0.0144409,-0.02059507
1.014122,-0.1593087,0.1292108,0.001614416,0.008038422,0.006941932,-0.07869236,0.02082957,-0.0193342
1.013351,-0.156283,0.1311369,0.0008483496,0.011024,0.008653805,-0.08355069,0.02554764,-0.02374873
1.010001,-0.159292,0.1332044,-0.00249507,0.007974097,0.01050486,-0.08235241,0.0296221,-0.02414947
1.004916,-0.1640986,0.1379396,-0.007573832,0.003125662,0.01502184,-0.07399826,0.01602871,-0.02500698
1.00159,-0.1641526,0.1372678,-0.01089191,0.003028573,0.01413006,-0.06730628,-0.005719652,-0.01635303
1.007824,-0.1681536,0.1334564,-0.004649503,-0.001016588,0.01009684,-0.05358092,-0.009558643,0.005244535
1.013768,-0.1723154,0.1309784,0.001304903,-0.005223454,0.00739547,-0.04018195,-0.008073305,0.010263
1.012233,-0.168153,0.1304469,-0.0002186156,-0.001106782,0.006639216,-0.04186757,-0.01265187,0.004964675
1.010404,-0.1653052,0.1311981,-0.002035498,0.001694957,0.007164572,-0.03709997,-0.01539938,0.007756241
1.009306,-0.1688589,0.1298679,-0.003119,-0.001904939,0.005607837,-0.01692615,-0.01912874,0.009351622
1.009545,-0.1695669,0.1301463,-0.002864979,-0.002659107,0.005659368,-0.00314933,-0.01670776,0.01089355
1.010081,-0.1645993,0.1315531,-0.002312957,0.002262493,0.006839317,-0.009294957,-0.003252721,0.01227496
1.009669,-0.1613544,0.1307568,-0.00270693,0.005461699,0.005816345,-0.01658976,0.004104096,0.008793209
1.010654,-0.1642269,0.1283499,-0.001703265,0.002543696,0.00318351,-0.01068536,-0.004037998,0.002458976
1.011462,-0.167553,0.1236664,-0.0008754891,-0.0008276224,-0.001725038,-0.01213235,-0.01540493,-0.003280243
1.010944,-0.1666745,0.1219673,-0.001372597,5.78414e-06,-0.003647778,-0.01477372,-0.01066449,-0.005080335
1.010066,-0.1662455,0.124723,-0.0022282,0.0003900912,-0.001113564,-0.006865557,0.0006149985,-0.008108304
1.009006,-0.167109,0.1277026,-0.003265092,-0.0005176469,0.001647069,-0.002918103,-0.000212362,-0.009582835
1.006964,-0.1664431,0.1293203,-0.005283666,0.0001045745,0.003048895,0.001887425,-0.005658861,-0.004459257
1.00591,-0.1683986,0.1312996,-0.006311614,-0.001894093,0.004815534,0.004401608,-0.0106573,-0.002592639
1.010599,-0.1758402,0.1349214,-0.001597037,-0.009377947,0.008228121,0.008317507,-0.00763926,-0.005942897
1.015522,-0.1824703,0.1326347,0.003354287,-0.01604927,0.005735551,0.02557032,0.002000688,-0.008182818
1.01164,-0.1782369,0.1274369,-0.0004994877,-0.01185516,0.0003353069,0.03504627,0.001688536,-0.007954251
1.007498,-0.1689935,0.1250048,-0.004612433,-0.002648787,-0.002295609,0.03848252,-0.003998103,-0.002616052
1.01032,-0.168497,0.1222309,-0.001759762,-0.002186466,-0.00526446,0.04463629,-0.01003585,0.01141502
1.010383,-0.168163,0.1243003,-0.001665766,-0.001884004,-0.003385584,0.04266583,-0.01026478,0.02428303
1.008727,-0.1614703,0.1268783,-0.003289462,0.004779916,-0.0009935628,0.03805194,-0.009611213,0.0208007
1.010192,-0.1564879,0.1270435,-0.001791587,0.009736088,-0.001009188,0.03281936,-0.02416211,0.01720262
1.008579,-0.1548797,0.1287733,-0.003371262,0.01132016,0.0005448409,0.02868244,-0.03316867,0.03133163
1.006793,-0.1560361,0.1282495,-0.005123173,0.01014104,-0.0001493705,0.02176811,-0.0285842,0.04161419
1.007627,-0.1560286,0.1298976,-0.00425393,0.01012671,0.001333746,0.002569925,-0.02357403,0.03533782
1.009499,-0.157401,0.1329633,-0.002345885,0.008732907,0.004239852,-0.01411048,-0.01500314,0.01185232
1.013242,-0.1632193,0.1359846,0.001433639,0.002893031,0.007106734,-0.01826062,-0.006098899,-0.02317634
1.013977,-0.1647535,0.1385631,0.002206434,0.001337043,0.00953597,-0.01917034,-0.001666938,-0.02981505
1.013069,-0.1638172,0.1328947,0.001336927,0.002251109,0.003722992,-0.02446465,-0.00198283,-0.007538984
1.011913,-0.164127,0.1272612,0.0002186588,0.001918802,-0.002050734,-0.02535624,-0.004346512,0.002644274
1.006571,-0.1655181,0.1256679,-0.005084531,0.0005046693,-0.003779708,-0.01872247,-0.009553762,0.002644161
1.003431,-0.167633,0.1254802,-0.008186404,-0.001633482,-0.004098446,-0.0159106,-0.01616452,0.003481381
1.005085,-0.1663003,0.131548,-0.006492419,-0.0003242671,0.001843105,-0.006366731,-0.01843183,-0.0009981541
1.006748,-0.1653014,0.1351007,-0.004790036,0.0006508985,0.005274351,0.009102292,-0.0270116,-0.003662165
1.009307,-0.1645444,0.1271818,-0.00219084,0.001384206,-0.002761252,0.01803953,-0.03970945,0.008698293
1.013387,-0.1629602,0.1180614,0.001929663,0.002944615,-0.01199364,0.02350099,-0.04059796,0.02457889
1.016073,-0.1633197,0.1194099,0.004657916,0.00256123,-0.01075216,0.01660553,-0.02926231,0.02209042
1.016215,-0.1622776,0.1213432,0.004841539,0.003579313,-0.008920466,0.004451547,-0.01720186,0.01567243
1.014366,-0.1621561,0.1192744,0.003033868,0.003676624,-0.01108495,-0.007208805,-0.01608989,0.01239804
1.011513,-0.1636886,0.1219542,0.0002223127,0.002119492,-0.008494727,-0.02224498,-0.02271603,-0.002453951
1.011935,-0.1661211,0.1206976,0.0006851193,-0.0003378787,-0.009834358,-0.02257185,-0.02993846,-0.01129169
1.01356,-0.1710017,0.1177853,0.002350565,-0.005243775,-0.01282287,-0.01725293,-0.03336251,-0.01391371
1.012243,-0.1724465,0.118915,0.001072517,-0.006713872,-0.01176235,-0.01393089,-0.03294057,-0.02710998
1.014165,-0.1730829,0.1174271,0.003032611,-0.007375233,-0.01331213,-0.003008802,-0.02839464,-0.03230724
1.016442,-0.1777437,0.1201178,0.005347733,-0.01206033,-0.01067566,0.00524066,-0.02152336,-0.0243865
1.014102,-0.1784003,0.1220036,0.003042795,-0.01274003,-0.008836224,0.01506091,-0.02804465,-0.01535649
1.011668,-0.1741369,0.119583,0.000643923,-0.008497801,-0.01129534,0.02322365,-0.03675276,-0.008018558
1.008879,-0.1720023,0.1196015,-0.002112923,-0.006382274,-0.01130734,0.02300518,-0.03274513,-0.00292106
1.00972,-0.1719712,0.1173238,-0.001240978,-0.006367625,-0.01360755,0.02800844,-0.03044698,0.0007781097
1.014377,-0.1723058,0.116929,0.003446348,-0.006715921,-0.01401661,0.02925722,-0.02560125,-0.0009315504
1.015792,-0.1716805,0.1153974,0.004889018,-0.006101368,-0.01555418,0.02091241,-0.01748488,-0.001086305
1.015778,-0.1675083,0.1109597,0.004902047,-0.001936932,-0.01998931,0.01026865,-0.01698273,0.002178028
1.015856,-0.1612432,0.1142461,0.005004282,0.004323452,-0.01669146,-0.006155246,-0.01480892,0.002066656
1.016625,-0.1581644,0.1174303,0.005795938,0.007400276,-0.01348692,-0.01881383,-0.01095375,0.003220692
1.015998,-0.1612531,0.1175772,0.005189745,0.004311988,-0.01331045,-0.01769964,-0.01039466,-0.001168676
1.012545,-0.1654507,0.1185861,0.001754638,0.0001166192,-0.01226293,-0.01346104,-0.008146333,-0.007133591
1.012132,-0.1686017,0.1163438,0.001357017,-0.003030534,-0.01445774,-0.01563334,-0.007416565,-0.007820895
1.012697,-0.1733185,0.1154,0.001934514,-0.007741886,-0.01534498,-0.01497199,-0.00517248,-0.01072983
1.012143,-0.1745151,0.1154263,0.001392008,-0.008931222,-0.01525334,-0.009322512,0.00252993,-0.009047145
1.011846,-0.172758,0.1107954,0.001102896,-0.007165037,-0.01981007,-0.008401442,0.003930385,-0.00706216
1.010618,-0.1712667,0.1078047,-0.0001183043,-0.005662359,-0.02271764,-0.006438361,0.001143358,-0.007134623
1.011441,-0.1667127,0.1099743,0.0007086853,-0.001094663,-0.02045588,-0.00494126,0.001487819,-0.004538097
1.013394,-0.16426,0.1135605,0.002663036,0.001374002,-0.0167682,-0.004993881,0.00116854,-0.00582278
1.014978,-0.1673566,0.1165316,0.004247488,-0.001704577,-0.01368632,-5.937162e-05,0.006366099,-0.004993522
1.015814,-0.1699589,0.1155333,0.0050816,-0.004286863,-0.01456476,0.000871917,0.01340599,-0.005230683
1.014016,-0.1697735,0.1143492,0.003279758,-0.00407953,-0.01562015,0.006396298,0.01208326,-0.006750941
1.01353,-0.1694647,0.1160161,0.00278787,-0.003746959,-0.01381585,0.0197396,0.01364953,-0.0008283381
1.01395,-0.1685057,0.1163497,0.003199425,-0.002762255,-0.01333651,0.0250257,0.01960199,0.00201893
1.012844,-0.1648213,0.1212143,0.002083796,0.0009495894,-0.008318153,0.02845405,0.01741006,0.001309352
1.012331,-0.1634571,0.127437,0.001558434,0.0023429,-0.001934002,0.03043565,0.01291866,0.001071971
1.012345,-0.1646391,0.1244086,0.001558245,0.001191538,-0.004794202,0.02687324,0.01262048,0.0004531157
1.013037,-0.1644077,0.1192698,0.002233519,0.001454596,-0.00975855,0.02506389,0.01177872,0.0005422548
1.014462,-0.1649884,0.1180303,0.003641281,0.0009065114,-0.01081795,0.02227253,0.01423756,5.092711e-05
1.016721,-0.1630361,0.120396,0.005880215,0.00289207,-0.008267015,0.01625304,0.02042022,0.003493064
1.0181,-0.1596916,0.1244762,0.007237789,0.006270155,-0.003996739,0.009609851,0.02535842,0.006909715
1.016433,-0.1611386,0.1241766,0.005548009,0.00485688,-0.004102079,0.001387305,0.02843462,0.00758171
1.013833,-0.1622959,0.1230784,0.002922197,0.003733042,-0.005002368,-0.003246999,0.0259491,0.008148559
1.011667,-0.1631985,0.1260792,0.0007285975,0.002863333,-0.001800529,0.00262143,0.0206025,0.005840559
1.011766,-0.1663124,0.1278938,0.0007983336,-0.0002185018,0.0002174358,0.011094,0.01360568,0.004910732
1.011519,-0.1657237,0.1278251,0.0005200568,0.000401367,0.0003539292,0.01834721,0.005152714,0.005555088
1.008851,-0.163846,0.1279512,-0.002180857,0.002309267,0.0006862411,0.02640627,0.002451418,0.007213457
1.010363,-0.1631362,0.1275081,-0.0007022429,0.00304825,0.0004497937,0.02184875,0.003999841,0.00854622
1.012046,-0.160505,0.127923,0.0009458114,0.005707415,0.001071082,0.009355747,0.008624591,0.003450478
1.009622,-0.1614616,0.1278601,-0.001515008,0.004777375,0.001213771,0.005560153,0.01223527,-0.0008697539
1.009826,-0.1649059,0.127521,-0.001347313,0.001358105,0.001078903,0.002595402,0.01238437,0.0003594414
1.011719,-0.1646207,0.1284222,0.0005076487,0.001666603,0.002182412,-0.002845911,0.01500708,0.0005561448
1.012512,-0.1652881,0.1290301,0.00126342,0.001020746,0.002990296,-0.005603445,0.01573768,-0.00204588
1.011097,-0.1658571,0.1293117,-0.0001897623,0.0004715412,0.003468834,-0.005555506,0.01507126,-0.002024201
1.00863,-0.1644543,0.1270743,-0.002694722,0.001892413,0.001425089,-0.00414738,0.01349369,-0.001248015
1.009757,-0.164881,0.124229,-0.001605062,0.001482064,-0.001230372,-0.006149266,0.01197244,-0.003851203
1.010281,-0.1646113,0.1241588,-0.001119093,0.001766402,-0.00111477,-0.007560246,0.01799607,-0.00285816
1.009149,-0.1652432,0.125746,-0.00228847,0.001147461,0.0006540959,-0.008812589,0.02122857,-0.001161349
1.009995,-0.1669072,0.128696,-0.001479725,-0.0005052051,0.00378128,-0.01196095,0.01790179,-0.001725582
1.010137,-0.1667173,0.1274689,-0.001373628,-0.0003057224,0.002726612,-0.006987216,0.01528428,7.405585e-05
1.0109,-0.1688316,0.1250994,-0.0006455949,-0.0024118,0.0005246592,0.001490444,0.01423184,-0.0007095371
1.011887,-0.1710047,0.1283275,0.0003064434,-0.004578148,0.003915187,0.004765089,0.01510758,-0.001658478
1.011012,-0.1712932,0.1300218,-0.0006022019,-0.004860872,0.005766511,0.00409548,0.01287395,-0.0007404083
1.012433,-0.1723717,0.1305413,0.0007869792,-0.00593444,0.006437391,0.003473222,0.008103094,-0.001271953
1.013257,-0.1717714,0.1312429,0.001579435,-0.005329634,0.007284436,0.006157474,0.004453532,-0.0009335286
1.01074,-0.1688732,0.1298602,-0.0009680436,-0.00242709,0.006040848,0.004465671,0.004201321,-0.002295604
1.009784,-0.166749,0.1306148,-0.001953406,-0.0002985168,0.006928093,-0.001135176,0.007670199,-0.003127272
1.00873,-0.1673446,0.1301092,-0.003036446,-0.0008897091,0.006548323,-0.004074477,0.006816231,0.0002922273
1.006925,-0.1669658,0.1290732,-0.004868084,-0.0005064012,0.0056313,-0.004267128,0.001181417,0.002510308
1.007834,-0.1658432,0.1303204,-0.003985162,0.0006208454,0.006990311,-0.0009107556,-0.003790473,0.0005725577
1.009344,-0.1669095,0.1289752,-0.002500104,-0.0004407232,0.005749678,-6.846097e-05,-0.0008024604,-0.0009543764
1.0119,-0.1648545,0.1281375,3.359599e-05,0.001619125,0.00500929,-0.000739363,0.007981356,0.003652017
1.014794,-0.1637814,0.1270511,0.002906188,0.002697095,0.004012907,-0.0001421103,0.009718637,0.00765235
1.013331,-0.1687475,0.1238855,0.001424254,-0.002264191,0.000930043,-0.001782488,0.008188394,0.005744893
1.011526,-0.1721781,0.12521,-0.000399203,-0.005690109,0.002330266,-0.0006785143,0.00623722,0.006155407
1.012741,-0.1709032,0.1297306,0.0007994192,-0.004410321,0.006919648,0.0002503044,0.003685236,0.009208376
1.012991,-0.1679666,0.1357293,0.001033962,-0.001468633,0.01298022,-0.0007958525,0.005218261,0.00906588
1.012623,-0.1667949,0.1400557,0.0006511381,-0.0002914136,0.01736152,-0.0004823907,0.004881717,0.005093536
1.012931,-0.165655,0.1339666,0.0009455559,0.0008544396,0.01131991,-0.003940936,0.003456214,0.001827909
1.012185,-0.1644229,0.1286747,0.0001874039,0.00209279,0.006067816,-0.007379889,0.002429698,0.005297277
1.011799,-0.1652051,0.1371792,-0.0002100922,0.00131716,0.01460437,-0.005704767,-0.001523417,0.009821669
1.010469,-0.1652947,0.1434264,-0.00155094,0.001234309,0.02087567,9.419399e-05,-0.004718693,0.008406903
1.007652,-0.1668868,0.1393545,-0.004377022,-0.0003510572,0.01681976,0.0051718,-0.00606706,0.006904621
1.008322,-0.1673154,0.1376038,-0.00371625,-0.0007728327,0.01507638,0.002448449,-0.004208903,0.007277434
1.008815,-0.1648506,0.1379047,-0.003230822,0.00169873,0.0153758,-0.0003655481,-0.001440647,0.007016894
1.008054,-0.1655891,0.1360239,-0.00399806,0.0009669517,0.01348456,0.001969143,0.0001698292,0.009032416
1.01057,-0.1662587,0.1332717,-0.001486741,0.0003038736,0.01071284,0.001875266,0.002244756,0.01082517
1.011589,-0.1666076,0.1293832,-0.0004704145,-3.850418e-05,0.006796004,-0.0005524343,0.001210949,0.007864456
1.01139,-0.166684,0.1298107,-0.0006721812,-0.0001087193,0.007186426,-0.003796258,0.0003561352,-0.0002042013
1.012946,-0.1634221,0.1327974,0.0008838008,0.00315934,0.01012765,-0.008611687,0.0006659353,-0.008124062
1.014234,-0.1619069,0.1316265,0.00217154,0.004680252,0.008903347,-0.008311502,-0.0004698477,-0.004683092
1.014367,-0.1627081,0.1317076,0.002306735,0.003884412,0.008923182,-0.003276751,0.001789689,0.001319872
1.012968,-0.1645034,0.1323736,0.0009095552,0.002093745,0.009520367,-0.002736252,0.002827203,-0.002415066
1.012235,-0.1657478,0.1300906,0.0001805951,0.0008532433,0.007161341,-0.007063899,-0.003529206,-0.003755015
1.010909,-0.1638831,0.127711,-0.001142046,0.002721135,0.004698783,-0.01138298,-0.01021615,-0.00336982
1.010523,-0.1617571,0.1218933,-0.001523873,0.004849355,-0.001208358,-0.01087761,-0.009455945,-0.006748956
1.012858,-0.1612667,0.1175652,0.0008165724,0.005340913,-0.005631686,-0.01004434,-0.005383754,-0.005652469
1.012445,-0.1654839,0.1204749,0.0004086744,0.001123834,-0.002822372,-0.01271124,-0.005528443,-0.00690917
1.012323,-0.1726446,0.1223461,0.0002924928,-0.00603806,-0.001055719,-0.006743205,-0.008822377,-0.009341646
1.012735,-0.175029,0.1230653,0.0007115384,-0.008424539,-0.0004445386,0.0005462396,-0.01507891,-0.00370502
1.010943,-0.1734561,0.1257071,-0.001073385,-0.006854331,0.002086299,-0.002128853,-0.01914487,-0.00150229
1.010455,-0.1732468,0.1256217,-0.00155514,-0.006647918,0.001887396,3.402515e-06,-0.01395511,-0.004360846
1.010376,-0.1749651,0.1242034,-0.001626546,-0.008368869,0.0003536386,0.008737578,-0.009109329,-0.004044552
1.012316,-0.1750607,0.1252482,0.0003212093,-0.008466458,0.001281364,0.01638772,-0.007359168,-0.0008977514
1.014264,-0.1735396,0.1255114,0.002277792,-0.006946427,0.001426207,0.02187119,-0.003172837,0.002653023
1.013565,-0.1710326,0.1253398,0.001586765,-0.004439215,0.001135337,0.02205464,-0.003640021,0.0003922397
1.014147,-0.1664611,0.126691,0.002177258,0.0001340078,0.00236671,0.02074126,-0.008316677,-0.004380392
1.014053,-0.1645743,0.1246838,0.002091835,0.002023912,0.0002393753,0.02024062,-0.009175083,-0.004879609
1.014535,-0.1670472,0.1223856,0.002582445,-0.0004444435,-0.002178926,0.01823701,-0.008629559,-0.004325962
1.015922,-0.1689994,0.1230258,0.003976664,-0.002390897,-0.001658455,0.01764934,-0.008756255,-0.003577486
1.015072,-0.1680875,0.1218992,0.003134982,-0.001472045,-0.002904047,0.01777379,-0.008703546,-0.002383639
1.015197,-0.1674853,0.1210042,0.003266866,-0.0008617234,-0.003916804,0.01393766,-0.009068717,-0.001274265
1.01564,-0.16838,0.1216373,0.00371545,-0.00174726,-0.003399993,0.0097885,-0.008144703,-0.001118317
1.01599,-0.1670445,0.1241117,0.004070461,-0.0004015326,-0.001039846,0.007749675,-0.007746726,-0.001210157
1.016719,-0.1659632,0.1278791,0.004804152,0.0006910574,0.002615532,0.003273708,-0.01004821,-0.0005399036
1.014909,-0.1664358,0.1273246,0.002996867,0.0002305746,0.001951245,3.11307e-05,-0.01083976,-0.001425602
1.013331,-0.1666627,0.1251317,0.001419934,1.673934e-05,-0.0003490516,-0.002006268,-0.006953743,7.637526e-05
1.014709,-0.1685086,0.1242448,0.002798531,-0.00181554,-0.001340817,-0.007724216,-0.002833531,0.002824807
1.016289,-0.1683755,0.1233131,0.004377252,-0.001668117,-0.002374739,-0.01096476,-0.006015307,0.001893291
1.016939,-0.166497,0.1259265,0.005024849,0.0002253637,0.0001391214,-0.01189419,-0.01124425,-0.001122952
1.017982,-0.1667308,0.130447,0.006063336,7.171633e-06,0.004563018,-0.01251536,-0.01050653,-0.004836952
1.016821,-0.1662613,0.1325193,0.004896823,0.0004927397,0.006541431,-0.008371107,-0.008509281,-0.00163174
1.014123,-0.1648121,0.1316688,0.002190804,0.001958403,0.005599736,-0.003948308,-0.00717385,0.003095479
1.015074,-0.1644108,0.1269072,0.003132231,0.002376449,0.0007492768,-0.003638466,-0.004039847,-0.0002039225
1.015051,-0.1679544,0.1230228,0.003097119,-0.001150279,-0.003221613,-0.004013098,0.003469339,-0.001065662
1.012971,-0.1727196,0.1226991,0.001004028,-0.005898566,-0.003629385,-0.001047774,0.01027855,-0.0005427936
1.013517,-0.1706388,0.1224607,0.001534354,-0.003800742,-0.003949259,0.001917158,0.004818213,-0.001447928
1.011542,-0.1669276,0.1253125,-0.0004573511,-7.210799e-05,-0.00117609,0.002585772,-0.003893319,0.002239655
1.008816,-0.1667263,0.1302358,-0.003201657,0.0001469548,0.003671591,0.008057983,-0.007330512,0.005414263
1.011666,-0.1662464,0.1311933,-0.0003717878,0.0006448793,0.00455634,0.01680488,-0.01121994,0.006669604
1.014492,-0.1668137,0.1280822,0.002433189,9.573145e-05,0.001375178,0.01930733,-0.008541043,0.007019762
1.013601,-0.1664404,0.1221849,0.001520609,0.0004874545,-0.004589629,0.008617253,-0.002826001,0.005167316
1.011857,-0.1634661,0.1190719,-0.0002459156,0.003480048,-0.007767333,-0.00608429,-0.005690677,0.002541269
1.011101,-0.1627817,0.1218726,-0.001025835,0.004182732,-0.005028532,-0.005368045,-0.005136654,-0.0001887389
1.012649,-0.1656993,0.1225918,0.0004972427,0.001283022,-0.004367991,-0.000312835,0.002903319,-0.0006903864
1.014413,-0.1693331,0.1201429,0.002236374,-0.002333354,-0.006872085,-0.003080373,0.009459373,-0.002218588
1.012057,-0.1673249,0.1205131,-0.000144317,-0.0003082998,-0.006553592,-0.003012027,0.01287407,-0.005208839
1.009077,-0.1633176,0.1208462,-0.003150367,0.003715487,-0.00626831,-0.005443454,0.01122713,-0.003892724
1.0097,-0.1644813,0.1218756,-0.002553795,0.002567671,-0.005282808,-0.009621121,0.01034252,-0.003406745
1.009954,-0.165628,0.1275891,-0.002326235,0.001436151,0.0003909172,-0.003590183,0.01087863,-0.004783018
1.009477,-0.1669119,0.1320072,-0.002829343,0.0001666577,0.004773209,0.003930611,0.008352738,-0.002232217
1.009899,-0.1674319,0.1310231,-0.002432764,-0.0003397502,0.003756981,0.004339153,0.009897837,0.001821963
1.010002,-0.1660865,0.1276746,-0.002355076,0.001018502,0.0003797634,-0.001835405,0.01311999,0.004892001
1.011489,-0.1688968,0.1273654,-0.0008921091,-0.001779798,4.487844e-05,-0.008389218,0.01746564,0.005211721
1.013134,-0.1701979,0.1283422,0.000728603,-0.003069572,0.0009989261,-0.00598839,0.0224949,0.004863537
1.012601,-0.1690374,0.1270393,0.0001724413,-0.001898373,-0.0003240722,0.0005130274,0.01829778,0.006428048
1.012179,-0.1696812,0.1271843,-0.0002716973,-0.00253196,-0.0001965433,0.003900533,0.0136595,0.005477975
1.012659,-0.1685546,0.1266017,0.0001873694,-0.001395487,-0.0007941058,0.002829361,0.01243155,0.005589
1.012572,-0.1659484,0.1277481,7.986184e-05,0.001220281,0.0003395931,-0.003654378,0.007571671,0.007694435
1.012322,-0.1637752,0.1314337,-0.0001901868,0.003402867,0.004014615,-0.007915447,0.002549037,0.005510897
1.012633,-0.1676882,0.1304908,0.0001016787,-0.0005011771,0.003063109,-0.005180323,-0.0004944131,0.001638926
1.012671,-0.1727962,0.1306522,0.0001215754,-0.005600536,0.003217563,-0.002202752,0.003751535,-0.001729007
1.01329,-0.1680396,0.1327318,0.0007229231,-0.0008355846,0.005291626,-0.002094566,0.01063405,-0.001616336
1.014128,-0.1643674,0.1327554,0.001544248,0.002844744,0.005310773,-0.002400668,0.008166571,-0.000610925
1.012818,-0.1656314,0.130304,0.0002182266,0.001588728,0.002855643,-0.003411455,0.006539395,-0.003053207
1.011327,-0.1639073,0.1252143,-0.001287892,0.003320421,-0.002237198,-0.005279052,0.009976924,0.001418553
1.01161,-0.1649488,0.1230481,-0.001019462,0.002286209,-0.004406025,-0.005037066,0.01025432,0.007803323
1.012092,-0.1685284,0.1218479,-0.0005514692,-0.001286726,-0.005608278,-0.003114691,0.01217008,0.005656101
1.011398,-0.1687433,0.1257889,-0.001258949,-0.001495444,-0.001668583,0.0006049789,0.01166847,0.001561137
1.010209,-0.168874,0.1348865,-0.002460115,-0.001620449,0.007428668,0.005725816,0.001537184,-0.003108679
1.010656,-0.1689449,0.1335945,-0.002025348,-0.00168606,0.006136942,0.004295319,-0.005476939,-0.00511594
1.012753,-0.167774,0.1311984,6.078586e-05,-0.0005100915,0.003741561,0.0007797466,-0.001224014,-0.002203594
1.013328,-0.1669574,0.1331811,0.0006256312,0.0003112848,0.005724911,0.002875934,0.004896737,0.00273953
1.011891,-0.1664205,0.1298314,-0.0008202996,0.0008528217,0.002375782,0.001742433,0.003823476,0.007111988
1.012394,-0.1694839,0.1315922,-0.000324708,-0.002206181,0.004136679,-0.002444584,0.002705286,-0.001598611
1.013075,-0.1719137,0.1351357,0.0003481262,-0.004631729,0.007679768,-0.004321047,0.005824738,-0.01307867
1.011769,-0.1685423,0.1310548,-0.0009636743,-0.001256138,0.003597574,-0.004720075,0.006569364,-0.006556869
1.011796,-0.1673396,0.1288161,-0.0009426933,-4.914537e-05,0.001356672,-0.003451458,0.009392517,7.88609e-05
1.01106,-0.1682967,0.1278843,-0.001683693,-0.001001774,0.0004215586,-0.005355329,0.01348422,-0.002589973
1.010019,-0.1683571,0.1292983,-0.002729192,-0.001057535,0.001831245,-0.007264221,0.01434568,-0.003385996
1.009059,-0.1699724,0.1354324,-0.003692338,-0.002668071,0.007959961,-0.00430746,0.01216435,-0.006643852
1.006007,-0.1709907,0.1389141,-0.006746645,-0.003681366,0.01143507,0.001678033,0.005433647,-0.006745514
1.00757,-0.1703024,0.1403411,-0.005185113,-0.002987634,0.01285393,0.009176675,0.003588705,-0.001991863
1.010527,-0.1684313,0.1369387,-0.002227165,-0.001110577,0.009441207,0.006882178,0.003566428,-0.002563565
1.009353,-0.167534,0.1304665,-0.003399574,-0.0002068299,0.002956461,0.002036564,0.0008192869,-0.00129406
1.009776,-0.1667235,0.1294409,-0.002972969,0.0006106333,0.001915722,0.007892445,0.003589923,0.0007153244
1.009758,-0.1658577,0.1275054,-0.002986815,0.001483893,-3.746461e-05,0.01017906,0.00347615,0.0006237152
1.008657,-0.1673459,0.1252994,-0.004080547,3.56541e-06,-0.002263278,0.01016526,-0.000854536,0.001666055
1.00963,-0.1665985,0.1277176,-0.003099583,0.0007590455,0.00013305,0.01221612,-0.003967905,-0.0005026654
1.011685,-0.1667179,0.1282583,-0.001035235,0.0006479404,0.0006501419,0.009242812,-0.006984706,0.0006323849
1.014237,-0.1700246,0.1274675,0.001528737,-0.002650338,-0.0001658261,0.009183049,-0.006380355,0.001858032
1.013507,-0.1699022,0.127889,0.0008108373,-0.002519254,0.0002290237,0.008371011,-0.003473659,-0.002545414
1.009862,-0.1644876,0.1281234,-0.002819379,0.002904138,0.0004356348,0.004845967,0.001385508,-0.004694769
1.007564,-0.1561409,0.1295498,-0.005101745,0.0112598,0.001833059,0.006353579,0.002776016,-0.006286705
1.007975,-0.1559564,0.1311154,-0.004674437,0.01145306,0.003368744,0.005015953,-0.0004793478,-0.005128231
1.010158,-0.1630959,0.1302189,-0.00247309,0.004321495,0.002441297,0.003911342,-0.0006017199,-0.002015866
1.010664,-0.167373,0.1274814,-0.00194783,5.13168e-05,-0.0003280138,0.006362197,-0.00403,-0.000629451
1.011308,-0.1707626,0.1257479,-0.001282792,-0.003332601,-0.002094186,0.003862443,-0.007398459,0.001914243
1.012678,-0.1690492,0.1276024,0.0001089774,-0.001614467,-0.0002730375,0.001626872,-0.004362211,0.001243145
1.01312,-0.1663759,0.1339169,0.0005750068,0.001062595,0.006007719,-6.986785e-05,-0.0007816932,0.001399239
1.014312,-0.1690499,0.1388564,0.001791368,-0.001608435,0.01091283,-0.004005005,0.003443378,0.002574581
1.013076,-0.1681961,0.1344363,0.0005804905,-0.000752424,0.006457686,-0.004246172,0.003602219,5.404423e-05
1.011696,-0.1685185,0.1281819,-0.0007745662,-0.001073173,0.0001671026,-0.004447532,0.001239916,0.0004646626
1.012959,-0.1713868,0.1287579,0.0005150922,-0.003940436,0.0007059428,-0.003401129,0.0001925934,0.00192542
1.011875,-0.1699415,0.1291328,-0.0005418747,-0.002494354,0.001042795,0.001195211,-0.004337049,0.004079455
1.00966,-0.1671438,0.1312476,-0.002729813,0.0003038102,0.003118783,-0.0004727255,-0.004783099,0.007999175
1.00779,-0.1633878,0.1377604,-0.004572574,0.00406017,0.009591921,-0.005278498,-0.002020067,0.008704753
1.008274,-0.1629331,0.1369666,-0.004060872,0.004514995,0.008757546,-0.006140957,-0.004722664,0.00758374
1.011825,-0.1652948,0.1338095,-0.0004814974,0.002152924,0.005558676,-0.002941375,-0.006140842,0.005346565
1.012775,-0.1653929,0.1336011,0.0004975716,0.002054018,0.00530727,0.003289574,-0.004490842,0.002944778
1.011377,-0.1679351,0.129332,-0.000871853,-0.0004896584,0.0009936998,0.004440882,-0.003940057,-0.0008430217
1.008929,-0.168515,0.1290178,-0.00329009,-0.001071561,0.0006337522,0.003955284,-0.001535579,-0.004753064
1.008224,-0.1645648,0.1300442,-0.003964975,0.002875976,0.001613098,0.006160073,0.003000186,-0.004429746
1.012256,-0.1633394,0.1268878,9.675275e-05,0.004098243,-0.001591296,0.004624715,0.005954279,-0.005702785
1.015007,-0.1637638,0.1299888,0.002878326,0.003669983,0.001460918,0.005201859,0.006639748,-0.004328687
1.013937,-0.1641095,0.1320889,0.001838531,0.003319652,0.003511543,0.008062817,0.003426961,0.00199425
1.012043,-0.1639447,0.1311641,-2.499744e-05,0.003478835,0.002536781,0.007637788,-0.003564517,0.002520634
1.010657,-0.1639429,0.1341286,-0.001380233,0.003474149,0.005450621,0.005394522,-0.008217615,0.002974088
1.009346,-0.1659974,0.1337424,-0.002660893,0.001412003,0.005013259,0.0001593703,-0.006383812,0.004675321
1.009594,-0.1670713,0.1331928,-0.002382292,0.0003292716,0.004411794,-0.001662268,-0.002663526,-0.0005126946
1.012159,-0.1666041,0.1329611,0.0002128793,0.0007866705,0.004127562,0.0012228,-0.003138291,-0.004729512
1.012785,-0.1656145,0.1285661,0.0008680929,0.001765476,-0.0003206707,0.003639658,-0.002782233,-0.002336795
1.012473,-0.1649369,0.1244504,0.0005863547,0.002431333,-0.004490294,0.006359484,-0.002438468,-0.0003210073
1.012603,-0.1657732,0.1207383,0.0007453755,0.00158237,-0.008256489,0.005878766,-0.005408783,-0.001705004
1.012229,-0.1666859,0.1199808,0.0004002747,0.0006559481,-0.009067922,0.005399272,-0.00383109,-0.000602465
1.012786,-0.1669507,0.1214095,0.0009861832,0.0003765811,-0.007692354,0.007474306,-0.003186187,0.001171086
1.012388,-0.1655793,0.1253698,0.0006158725,0.001732562,-0.003784013,0.00691866,-0.004522201,-0.002301941
1.012185,-0.1647427,0.1295094,0.0004397028,0.002553035,0.0003052415,0.006579956,-0.003520417,-0.004182888
1.011919,-0.1656383,0.122783,0.0002004323,0.00164041,-0.006469831,0.006102974,-0.006158514,-0.001541899
1.010508,-0.1647947,0.1190644,-0.001184987,0.002466231,-0.01023499,0.00347622,-0.00580513,0.001081301
1.011203,-0.1635852,0.125444,-0.0004646803,0.003657106,-0.003899826,0.003041395,-0.005457215,0.003282101
1.011503,-0.1623606,0.1276217,-0.0001401909,0.004862295,-0.001763837,0.001760205,-0.008969874,0.006356767
1.011717,-0.1608215,0.1274022,9.688654e-05,0.006380978,-0.002022444,-0.0031853,-0.008475116,0.009150497
1.013,-0.161363,0.1277268,0.001403482,0.005817971,-0.001734183,-0.004988817,-0.01105803,0.005243777
1.012488,-0.16371,0.1290771,0.0009129388,0.003448179,-0.000417461,-0.004454542,-0.01393677,-0.002321067
1.012305,-0.1662965,0.1307274,0.000751926,0.0008375281,0.001201794,-0.005140277,-0.01208373,-0.005155996
1.012847,-0.1678224,0.1312553,0.001314476,-0.0007138338,0.001701236,-0.003740542,-0.01201632,-0.005930649
1.013325,-0.1700306,0.1321407,0.001811389,-0.002948563,0.0025606,-0.003883318,-0.01219941,-0.005451839
1.013269,-0.1702569,0.1290452,0.001773875,-0.003202349,-0.0005588463,-0.005429799,-0.01298465,-0.002562462
1.009543,-0.1683459,0.1270365,-0.00193409,-0.001319329,-0.002589534,-0.004951668,-0.0139362,0.002061963
1.005735,-0.1699564,0.1297845,-0.005725672,-0.002958337,0.0001386317,-0.005805325,-0.01210617,0.005800837
1.008631,-0.1700726,0.1304887,-0.002814228,-0.003103116,0.0008248202,-0.00441557,-0.008977783,0.00161257
1.01316,-0.1701301,0.1271869,0.001730147,-0.003189129,-0.002493033,-0.002283513,-0.007325824,-0.003146309
1.012629,-0.1717235,0.1233749,0.001213377,-0.004810626,-0.006319277,-0.003370723,-0.007931331,0.0005274463
1.011631,-0.1683727,0.1252216,0.0002298379,-0.001487492,-0.004484873,-0.002011837,-0.00622317,0.001556873
1.010201,-0.1669413,0.12742,-0.001186969,-8.284974e-05,-0.002296594,0.0003822029,-0.002982056,-0.003248289
1.007569,-0.1671786,0.125653,-0.003806835,-0.0003461924,-0.00407167,0.002449907,-0.003457324,-0.006324535
1.009919,-0.1657883,0.1250053,-0.001443792,0.001018968,-0.004725169,0.006287072,-0.005604714,-0.00890062
1.012194,-0.1671763,0.1245529,0.0008425608,-0.0003933284,-0.005181162,0.008154248,-0.005252395,-0.009276827
1.009887,-0.1665858,0.1255312,-0.001452266,0.0001736602,-0.004203998,0.006407953,-0.005037042,-0.003538026
1.009351,-0.1652708,0.1271008,-0.00197778,0.00146605,-0.002633211,0.003300224,-0.007777712,0.00186092
1.011244,-0.1655582,0.126864,-7.313691e-05,0.001156789,-0.002866327,0.001523886,-0.008047797,-0.000347269
1.013005,-0.1651957,0.1239848,0.001698607,0.001498259,-0.005739443,0.002569506,-0.00412903,-0.003101576
1.013524,-0.1674703,0.1198228,0.002228044,-0.0007967278,-0.009892801,0.005380002,-0.0007879689,0.001638527
1.011969,-0.1701497,0.1247445,0.0006829689,-0.003495818,-0.004959903,0.009058452,-0.001159514,0.006822095
1.010286,-0.1722589,0.130681,-0.0009899964,-0.005624001,0.0009904936,0.01598059,-0.004296263,0.009747398
1.009571,-0.1744857,0.1268186,-0.001695362,-0.007868589,-0.002855351,0.02425434,-0.009001565,0.009022658
1.009805,-0.1724782,0.1255082,-0.00145292,-0.005877684,-0.00414664,0.02645411,-0.01504626,0.0007606774
1.011708,-0.166716,0.1273067,0.0004591945,-0.0001303535,-0.002326662,0.02187262,-0.01146868,-0.002687139
1.013122,-0.161401,0.1275031,0.001881253,0.005171292,-0.002106471,0.0163176,-0.00156772,0.00202202
1.012471,-0.161611,0.12791,0.00123892,0.004949478,-0.001673512,0.01261665,-0.001606825,0.004345573
1.012467,-0.1646296,0.1242556,0.001242096,0.001920188,-0.005299851,0.004692472,-0.00104935,0.002539775
1.013563,-0.1637757,0.1198563,0.00234532,0.00276441,-0.009668878,-0.002688634,0.002761458,0.0002981964
1.014111,-0.1631994,0.1188655,0.002900069,0.003331767,-0.01062722,0.0004591849,0.001293498,-0.0003064113
1.013973,-0.1626364,0.1192631,0.002768126,0.003886379,-0.01019464,-0.003163454,0.002582191,-0.004865734
1.013716,-0.1601323,0.1202876,0.002516661,0.006382413,-0.00913253,-0.01595977,0.005178878,-0.008124432
1.013619,-0.161389,0.1209656,0.00242443,0.005117877,-0.00841396,-0.01969465,0.007051951,-0.002404076
1.012142,-0.1638464,0.1228154,0.0009508604,0.002652402,-0.00652048,-0.02007223,0.01063183,0.0006097608
1.010451,-0.1656681,0.1237188,-0.0007376686,0.0008222967,-0.00557043,-0.01982093,0.01313097,-0.0004883278
1.010832,-0.168031,0.1232548,-0.0003551014,-0.001549406,-0.005984639,-0.01674761,0.01487898,0.001611598
1.010577,-0.168493,0.1250084,-0.0006087007,-0.0020204,-0.004178324,-0.01515403,0.0162732,0.00396037
1.009231,-0.1704283,0.125215,-0.001954657,-0.003964979,-0.003916111,-0.01296047,0.01871646,0.00197572
1.009952,-0.1718739,0.1249004,-0.001233885,-0.0054197,-0.004172262,-0.00993274,0.01537588,-0.0005020683
1.012052,-0.1703769,0.126231,0.0008647919,-0.003931661,-0.002780705,-0.005666398,0.008905244,0.003027603
1.013688,-0.1717365,0.1263681,0.002499023,-0.005299681,-0.002580252,-0.005441731,0.01215964,0.005798516
1.013851,-0.1719982,0.1266151,0.002660091,-0.005568921,-0.002267563,-0.007860493,0.01338771,0.005915483
1.011068,-0.1672157,0.1262869,-0.0001251075,-0.0007931762,-0.002528152,-0.004181003,0.009933141,0.007477148
1.009228,-0.1631099,0.1262199,-0.001967978,0.003307037,-0.002525804,-0.004061688,0.01024236,0.006193865
1.012395,-0.1636778,0.1267356,0.001195256,0.002734459,-0.001939077,-0.006237657,0.008230504,0.00435001
1.014783,-0.1677382,0.1262433,0.003578737,-0.00132974,-0.002358965,-0.003082718,0.008267222,0.003953436
1.012101,-0.1701277,0.1274208,0.0008922001,-0.003722458,-0.001107891,0.002327843,0.01062865,0.003105602
1.009992,-0.1689656,0.1274305,-0.00122159,-0.002562707,-0.001023575,0.0120002,0.008741396,0.002419352
1.011335,-0.1650169,0.1238756,0.0001156318,0.001384507,-0.004503006,0.01465321,0.006558134,0.001760084
1.010963,-0.1623504,0.1204991,-0.0002617182,0.004050329,-0.007803403,0.009623218,0.004200387,0.002904169
1.007949,-0.1639826,0.1212845,-0.00328277,0.002417986,-0.006941102,0.01013815,0.003028387,0.004336545
1.00709,-0.1625433,0.1250926,-0.004147905,0.003857758,-0.003055319,0.008756059,0.003493199,0.004316266
1.010246,-0.1598406,0.1254412,-0.0009985977,0.006561067,-0.002628198,0.00667378,0.002970679,0.003483125
1.014331,-0.1617869,0.1246457,0.003079772,0.004615293,-0.003344464,0.004722023,0.004483225,0.002056107
1.014676,-0.1638826,0.1254492,0.003418475,0.002519901,-0.002461195,-0.003952622,0.006493155,0.00265022
1.014341,-0.1676045,0.1258667,0.003076632,-0.001202264,-0.001963403,-0.006800555,0.008214997,0.003602392
1.014482,-0.1708556,0.1278255,0.003210505,-0.00445391,7.603211e-05,-0.004190257,0.009502439,0.003471757
1.011507,-0.1675595,0.1291119,0.00022839,-0.001158781,0.001443143,-0.004804187,0.006244226,0.00429107
1.011962,-0.1626716,0.129146,0.0006760242,0.003728036,0.00155776,-0.004178933,0.003111433,0.003799215
1.013666,-0.160568,0.1292306,0.002372579,0.005830206,0.001722542,-0.006017993,0.003930294,0.000624585
1.011624,-0.1624148,0.128198,0.0003221323,0.003981683,0.000769403,-0.008049106,0.004397196,-0.00248535
1.012495,-0.1651857,0.1283152,0.001185174,0.00120839,0.000965262,-0.006011019,0.004282869,-0.001728642
1.01187,-0.1636611,0.1288895,0.0005502636,0.002729914,0.001616978,-0.007706711,0.00628871,0.00102348
1.009247,-0.1621224,0.1294007,-0.002081283,0.004264735,0.002204313,-0.008398378,0.006363976,0.002498671
1.009919,-0.1605977,0.1317815,-0.00141932,0.005784615,0.004659713,-0.005953547,0.0004573518,0.007548559
1.009775,-0.1533252,0.1357442,-0.001573395,0.01305131,0.008695104,-0.006134152,-0.008469967,0.01729143
1.010574,-0.148257,0.1402866,-0.0007840186,0.01811207,0.01330809,-0.00186595,-0.02144529,0.0294734
1.011983,-0.1541418,0.1397997,0.000615704,0.01221781,0.01288879,0.004517387,-0.03697138,0.03657806
1.012656,-0.1670199,0.1307084,0.001278831,-0.0006724442,0.003861814,0.009674871,-0.04269071,0.02297276
1.014525,-0.1803431,0.1207485,0.003138222,-0.01401035,-0.006037488,0.02227032,-0.02638617,-0.006789862
1.014078,-0.1853103,0.1191566,0.002680545,-0.0189943,-0.007572405,0.03444127,0.003090285,-0.03795241
1.013436,-0.176372,0.1226732,0.002029556,-0.01007401,-0.004002034,0.03251928,0.01359712,-0.06167286
1.014382,-0.1665209,0.1212763,0.002965157,-0.0002412738,-0.005348,0.01518898,0.006502228,-0.0647322
1.014701,-0.1674678,0.1144827,0.003273724,-0.001206489,-0.01209312,-0.01209918,0.01327233,-0.05172292
1.015481,-0.1686339,0.1098058,0.004042034,-0.002390606,-0.01672343,-0.03774575,0.03114161,-0.04114778
1.015489,-0.1655771,0.1129176,0.00403941,0.0006483475,-0.01356635,-0.05211475,0.03913192,-0.03840571
1.013932,-0.1623604,0.1200523,0.002469464,0.003847506,-0.006386921,-0.05591863,0.03052316,-0.03012454
1.010038,-0.1513585,0.1277333,-0.001437253,0.01483217,0.001338613,-0.05674503,0.01543915,0.001621634
1.00536,-0.1386953,0.1382828,-0.006128581,0.02747771,0.01193252,-0.05717644,-0.001037143,0.04453534
1.006175,-0.1407458,0.1391767,-0.005327964,0.02540832,0.01287016,-0.05103922,-0.02104942,0.07250636
1.009185,-0.1524168,0.1328603,-0.002331329,0.01371622,0.00659646,-0.03467185,-0.02363038,0.07650487
1.010777,-0.1651641,0.1380167,-0.0007539255,0.0009446428,0.01179367,-0.01579685,-0.01310808,0.05989986
1.015663,-0.1787539,0.1361613,0.004119015,-0.01267249,0.009976904,-0.003325563,-0.01213587,0.0317436
1.019138,-0.1878106,0.1200415,0.007579595,-0.02175903,-0.006106889,0.008697899,-0.001657493,-0.002664606
1.0206,-0.1971171,0.1108271,0.009028514,-0.0310968,-0.01528783,0.02320095,0.02134676,-0.03519206
1.0234,-0.205025,0.1117877,0.01181426,-0.03903586,-0.01429583,0.02874468,0.04331942,-0.06858419
1.018845,-0.1983256,0.1165541,0.007243655,-0.03236564,-0.009499266,0.02861305,0.05598869,-0.09927742
1.012746,-0.195548,0.115165,0.001128494,-0.02961358,-0.01085892,0.03019846,0.03673152,-0.09635402
1.010362,-0.1911924,0.1203474,-0.001272296,-0.02527852,-0.005647149,0.02817615,0.009009687,-0.06578683
1.005856,-0.1641395,0.1335268,-0.005797964,0.001759815,0.007561578,0.02769646,-0.0008825787,-0.0192611
1.006133,-0.1443859,0.1318492,-0.005539795,0.02150508,0.005913399,0.02729763,-0.01396858,0.03839792
1.006186,-0.1349434,0.1357911,-0.005507067,0.03094431,0.009884411,0.0193987,-0.03089027,0.06410863
1.003069,-0.1269802,0.1454217,-0.008644475,0.03890787,0.01954311,0.01207548,-0.05059806,0.06873519
1.00744,-0.1336823,0.1402991,-0.004293218,0.0322078,0.01444708,0.00818643,-0.06083044,0.07243888
1.014206,-0.1473881,0.1337645,0.002452525,0.01850371,0.007936668,0.008432184,-0.04064845,0.04618471
1.018368,-0.1692104,0.1236318,0.006596028,-0.003318232,-0.002174606,0.00652789,-0.01633194,0.01111741
1.018149,-0.1878576,0.1148488,0.006359469,-0.02196682,-0.01093897,-0.001382046,0.006330932,-0.01560021
1.01563,-0.1906339,0.1184808,0.003821508,-0.02474542,-0.007290705,-0.0003813518,0.02567588,-0.03813699
1.015161,-0.1901089,0.1227352,0.003335105,-0.02422268,-0.003021863,0.002112295,0.01497049,-0.0373632
1.011232,-0.1831924,0.1235857,-0.0006128008,-0.01730698,-0.00215837,-0.0003219802,-0.001724517,-0.02396353
1.006318,-0.2206299,0.1291114,0.01819971,0.03214389,-0.01952377,0.004348662,0.04680438,-0.09024577
0.9978262,-0.214195,0.1423956,0.009021158,0.03706716,-0.006428177,0.006509972,0.02608672,-0.0955184
0.9942477,-0.2191256,0.1447034,0.00476204,0.0306439,-0.004265329,0.01025657,-0.02236799,-0.1059658
0.995677,-0.2221864,0.1370857,0.005517966,0.02611065,-0.01198661,0.03057753,-0.0787039,-0.1020652
1.003596,-0.2096236,0.1265915,0.01277176,0.03722213,-0.02254536,0.06123052,-0.07929647,-0.10452
1.017416,-0.1943499,0.1175575,0.02593592,0.05106637,-0.03160655,0.07525639,-0.01551667,-0.09912357
1.015978,-0.1817415,0.1227263,0.02385105,0.0622671,-0.02642893,0.04529473,0.02445465,-0.07655541
1.010614,-0.1829052,0.1252442,0.01784869,0.05971709,-0.02386743,-0.004521536,0.004932849,-0.07152331
1.017639,-0.1989623,0.1059795,0.02424494,0.04229421,-0.04305491,-0.03530679,-0.0008477648,-0.08603795
1.020204,-0.2283046,0.08375675,0.02618984,0.01160663,-0.0651676,-0.03888697,0.06223017,-0.1220547
1.018397,-0.2679202,0.07856909,0.02377205,-0.02933305,-0.07021238,-0.01270492,0.1291152,-0.1551076
1.003886,-0.277964,0.09109481,0.008657825,-0.04067702,-0.05751044,0.01955608,0.1265182,-0.1543481
0.9773847,-0.2557231,0.1079969,-0.01843675,-0.01970941,-0.04039857,0.03516129,0.07355155,-0.1239426
0.978317,-0.2379328,0.120261,-0.0180879,-0.003162394,-0.02789153,0.02749099,0.01863014,-0.07352091
0.9964838,-0.2288984,0.1237971,-0.000492969,0.004660494,-0.02408063,0.01477806,-0.007426078,-0.0341148
1.00595,-0.2336579,0.1183038,0.008414253,-0.00127755,-0.02926881,0.02957999,-0.01791924,-0.02166529
1.012928,-0.2457567,0.1176379,0.01484609,-0.01452116,-0.02960104,0.03961738,-0.02387906,-0.04108716
1.006369,-0.2449311,0.1203389,0.007755127,-0.01480553,-0.02653923,0.03644929,-0.0006623425,-0.07355392
0.9913044,-0.2445881,0.122205,-0.007829226,-0.01553638,-0.02428668,0.04280056,0.01400593,-0.06853588
0.9863591,-0.2472081,0.1274479,-0.01328002,-0.01919311,-0.01863344,0.04194376,-0.02758016,-0.0334001
0.9972421,-0.2446751,0.1216812,-0.002888007,-0.0176586,-0.02396743,0.04643482,-0.06000508,-0.007226087
1.016393,-0.2451345,0.1124979,0.01578669,-0.01907734,-0.03269747,0.04362444,-0.02143649,-0.02517775
1.014176,-0.2428298,0.1159474,0.01310871,-0.01769228,-0.02877535,0.02677135,0.009407796,-0.07268744
1.003846,-0.235001,0.1178692,0.002332553,-0.01074277,-0.02636283,0.03145318,-0.03444086,-0.08457123
1.007657,-0.2201694,0.1172791,0.00571245,0.003250139,-0.02644527,0.0433101,-0.07591423,-0.0624092
1.010042,-0.2023698,0.1153514,0.007679897,0.02025091,-0.02784956,0.04976249,-0.07403173,-0.0303115
1.020641,-0.1992767,0.1047931,0.01787463,0.02258393,-0.03786999,0.02706716,-0.0601636,-0.012967
1.028579,-0.1983883,0.09677306,0.02542264,0.02274919,-0.04533829,-0.03049109,-0.01916711,-0.03183584
1.016374,-0.2010266,0.09792971,0.01283957,0.019423,-0.04361657,-0.0749999,0.02937874,-0.04925514
1.008384,-0.2213066,0.1006617,0.004483121,-0.001511405,-0.04030649,-0.109982,0.0382965,-0.05654711
1.004645,-0.2348253,0.09980258,0.0003898071,-0.01565204,-0.04057476,-0.1246113,0.03227886,-0.06204102
1.00135,-0.2447104,0.09867641,-0.003249181,-0.02612689,-0.04109784,-0.1020843,0.05885845,-0.0768331
1.002866,-0.2595042,0.1010533,-0.002064502,-0.04147777,-0.03810603,-0.07617149,0.1073268,-0.1291577
1.001939,-0.2631099,0.1088461,-0.00331223,-0.04560721,-0.02968706,-0.0453235,0.1175113,-0.1833333
1.001581,-0.26674,0.1185783,-0.003978188,-0.04972635,-0.0193182,-0.02114288,0.07128952,-0.2114771
1.002868,-0.2619098,0.1148373,-0.002987772,-0.04534943,-0.02241333,-0.03100586,0.03672485,-0.2204882
1.004233,-0.2393578,0.1052346,-0.001906989,-0.02321394,-0.03136215,-0.04475277,0.08144813,-0.2108946
1.000997,-0.2286988,0.1076862,-0.005414106,-0.01293435,-0.02824957,-0.04923795,0.1371894,-0.1880539
0.9965384,-0.2337215,0.1164587,-0.01013288,-0.01830009,-0.01881005,-0.05932833,0.1237112,-0.1433057
0.9986642,-0.2411022,0.1281711,-0.00825423,-0.02598829,-0.006425643,-0.04916315,0.1064053,-0.1150072
0.9961183,-0.2445563,0.1340175,-0.01103464,-0.02971467,9.617279e-05,-0.01790757,0.07902834,-0.1280747
0.9883389,-0.242071,0.1328335,-0.01903559,-0.0274672,-0.0004106886,0.009309209,-0.01067826,-0.1261158
0.9844532,-0.2325013,0.1337211,-0.02312938,-0.01810103,0.001153662,0.04570436,-0.07935837,-0.1019141
0.9889753,-0.2163117,0.1267133,-0.01880135,-0.002081796,-0.005179541,0.05740851,-0.08756045,-0.0684903
1.004357,-0.2130512,0.1219979,-0.003599027,0.001040335,-0.009224008,0.0216703,-0.07087693,-0.02385235
1.016935,-0.2156798,0.1227805,0.008814098,-0.001696587,-0.007775412,-0.01021342,-0.05016839,-0.01142359
1.013505,-0.2108787,0.1156723,0.005232812,0.003024546,-0.01422353,-0.03539453,-0.03969865,-0.01511653
1.00478,-0.2143326,0.1125624,-0.003631131,-0.0004830508,-0.01668009,-0.06152193,-0.03895773,-0.00322914
1.006283,-0.216912,0.107633,-0.002254018,-0.003091476,-0.02096338,-0.08511895,-0.04506811,-0.02218959
1.01069,-0.2138717,0.1019459,0.002039269,-5.736284e-05,-0.0260119,-0.1097055,-0.03679065,-0.04193525
1.01183,-0.2142687,0.1087518,0.003076531,-0.0004391099,-0.01857505,-0.1104245,-0.01995385,-0.01969858
1.009464,-0.2140681,0.1162627,0.0006192261,-0.0002034479,-0.01044079,-0.1075331,-0.01294337,-0.006422228
1.001853,-0.2179435,0.1224871,-0.007073409,-0.004025517,-0.003601123,-0.1194094,-0.007751159,-0.006010104
1.00448,-0.2239504,0.1234241,-0.004518326,-0.009962142,-0.002057607,-0.1141224,-0.01308735,-0.004320163
1.011708,-0.2284833,0.1200442,0.002647324,-0.01440881,-0.004840586,-0.09981295,-0.01460627,-0.008332986
1.012178,-0.2308748,0.12179,0.003064368,-0.01669906,-0.002508223,-0.08825473,-0.0155973,-0.009166045
1.012885,-0.2234628,0.1232799,0.003725465,-0.009171259,-0.0004428595,-0.06462062,-0.02332816,-0.01557251
1.006323,-0.2166872,0.1245085,-0.002873432,-0.00226613,0.001349572,-0.04114717,-0.0190728,-0.02161407
1.002654,-0.2211592,0.1185505,-0.006572598,-0.006595788,-0.004057045,-0.03263591,-0.02909313,-0.02101656
1.008651,-0.2242332,0.1084348,-0.0005982187,-0.009515901,-0.0136343,-0.03185296,-0.03533384,-0.01677395
1.009803,-0.2216843,0.1106253,0.0005377588,-0.006802177,-0.01091832,-0.02749095,-0.01717764,-0.008075345
1.006714,-0.2244229,0.1157241,-0.002560805,-0.009366031,-0.005306987,-0.01780984,-0.006170572,-0.01159023
1.00246,-0.2299451,0.1132168,-0.006818279,-0.01470411,-0.007314773,-0.01469618,-0.0001724268,-0.02061706
1.004697,-0.2306326,0.1074694,-0.004578895,-0.01519893,-0.01257563,-0.009859818,0.001085441,-0.02907593
1.0062,-0.2272214,0.1047901,-0.003068437,-0.0115867,-0.01478123,0.005515267,0.006261817,-0.04052766
0.9978535,-0.2207034,0.1069928,-0.01140197,-0.004860005,-0.01211751,0.01116053,0.006748114,-0.04265329
0.9947718,-0.2177951,0.1094039,-0.01446503,-0.001736003,-0.009257633,0.01031145,-0.01835961,-0.04315205
0.9977898,-0.2198906,0.1076718,-0.01142288,-0.003609574,-0.01055297,0.01517235,-0.04281968,-0.03860774
1.00242,-0.219707,0.1029973,-0.006762447,-0.003198773,-0.01480244,0.021429,-0.0544576,-0.02619383
1.004542,-0.2203456,0.09942369,-0.004605386,-0.003605803,-0.01796256,0.02728459,-0.04777985,-0.02359917
1.004466,-0.2258696,0.09458976,-0.004640297,-0.008894463,-0.02239387,0.02746031,-0.02775073,-0.01992642
1.0083,-0.2310568,0.0902672,-0.0007599819,-0.01384324,-0.02632395,0.02619285,-0.005892868,-0.01668804
1.007938,-0.2304302,0.09128032,-0.001070559,-0.01297547,-0.02492764,0.03138195,0.0134842,-0.02378592
1.009497,-0.2303754,0.09457805,0.0005437398,-0.01267696,-0.0212551,0.04671672,0.01509513,-0.02563578
1.014552,-0.234919,0.0995126,0.005658483,-0.01697432,-0.01595336,0.0657248,0.01538015,-0.02672546
1.012227,-0.2331882,0.1035974,0.003396845,-0.01499496,-0.01150853,0.06510689,0.00996779,-0.02736906
1.010822,-0.2277777,0.09897643,0.002057692,-0.009333741,-0.01577623,0.0477453,-0.004650525,-0.02190644
1.011532,-0.2250972,0.08844474,0.002834845,-0.00640046,-0.02596118,0.03646639,-0.002930509,-0.02180554
1.010749,-0.222148,0.08520784,0.002122114,-0.003196845,-0.02885725,0.03447386,0.002487181,-0.01815594
1.010529,-0.2236056,0.08616013,0.001972606,-0.004399005,-0.02756919,0.03362603,0.007570669,-0.009102673
1.007597,-0.2246195,0.082307,-0.0008872222,-0.005156979,-0.03109071,0.02636752,0.0004308769,-0.001916764
1.004351,-0.2237637,0.08106655,-0.004061232,-0.004045276,-0.03200279,0.01228005,-0.009167028,0.00659041
1.006441,-0.2304163,0.0817734,-0.001897459,-0.01044236,-0.03096988,-0.006496923,0.01771942,0.003749525
1.012649,-0.2353829,0.07924115,0.004383113,-0.01515418,-0.03317746,-0.02349815,0.04821718,-0.006495944
1.016379,-0.2329438,0.07787709,0.008187171,-0.01246099,-0.03421736,-0.02175677,0.06032966,-0.007639082
1.013205,-0.2298822,0.08212438,0.005085591,-0.009145985,-0.02964559,-0.006756974,0.06349304,0.002037523
1.005985,-0.2293313,0.09065862,-0.002062136,-0.00834248,-0.02078586,0.003460282,0.05513427,0.0118983
1.001543,-0.2329543,0.0980127,-0.006432899,-0.01171391,-0.01310496,0.006721342,0.04371997,-0.006699571
1.00095,-0.2367837,0.104713,-0.006956545,-0.01529256,-0.00607663,-0.00324677,0.02713401,-0.04049068
1.001907,-0.2355416,0.1045045,-0.005929862,-0.01380076,-0.005956376,-0.01475554,0.01767444,-0.04561781
1.006292,-0.2280866,0.09847901,-0.001476059,-0.006096975,-0.01165281,-0.01904758,0.03739101,-0.02500263
1.012313,-0.2188527,0.09761238,0.004612679,0.003384705,-0.01219067,-0.0445586,0.07763364,-0.009377561
1.015286,-0.2143433,0.0937758,0.007651978,0.008140371,-0.01569901,-0.08542664,0.103139,-0.01826759
1.012266,-0.2163682,0.09249109,0.004698195,0.006359344,-0.01665615,-0.1028659,0.09805894,-0.02715331
1.006352,-0.224536,0.09763067,-0.001151563,-0.00156775,-0.01118974,-0.09468379,0.08059511,-0.01696928
1.003144,-0.2363416,0.09790297,-0.004297367,-0.01313618,-0.01059147,-0.08560855,0.05963222,-0.0145834
1.001964,-0.2458828,0.1016613,-0.005415786,-0.02244392,-0.006508317,-0.07642967,0.05354549,-0.01390358
1.004056,-0.2477624,0.1006962,-0.003264899,-0.02409313,-0.007150042,-0.06196508,0.0666924,-0.01069605
1.005766,-0.2490544,0.0941232,-0.001497069,-0.0251572,-0.01340155,-0.05529127,0.06866648,-0.01602323
1.004005,-0.2552419,0.09938214,-0.003200699,-0.03111826,-0.007823211,-0.03852185,0.05445986,-0.008366799
1.003267,-0.2586631,0.1023786,-0.00388335,-0.03431357,-0.004509668,-0.0089418,0.04111539,-0.003350939
1.001056,-0.2592149,0.1042851,-0.006039969,-0.03463912,-0.002288846,0.003361093,0.03971044,-0.01642944
0.9990964,-0.2544748,0.1111843,-0.007945467,-0.0296711,0.004921557,0.01088208,0.03451872,-0.02093949
0.9989929,-0.2434856,0.1087816,-0.007995952,-0.01845165,0.002826108,0.02149571,0.0172784,-0.009278604
0.9997321,-0.2396407,0.1037036,-0.007203908,-0.01437358,-0.001949075,0.02541234,0.01028995,0.007462372
1.002379,-0.2438068,0.100484,-0.004504822,-0.01830359,-0.004871036,0.02420978,0.00999633,0.008338804
1.000592,-0.2450033,0.1001541,-0.006238569,-0.0192611,-0.004908629,0.01192696,0.003126895,-0.00106484
0.9996208,-0.2404589,0.1033409,-0.007156642,-0.01447462,-0.001435111,-0.001877165,-0.005296515,-0.0004268932
1.004492,-0.2383191,0.1028535,-0.002232121,-0.01208987,-0.00164154,-0.005754955,0.0006277261,0.005166793
1.007295,-0.2446061,0.1060693,0.0006248314,-0.01812895,0.001849126,-0.007186215,0.02123719,0.01141905
1.006624,-0.2531712,0.1089076,8.429364e-06,-0.02644343,0.004955951,-0.009198854,0.027987,0.004184495
1.001002,-0.2568414,0.1066793,-0.005559595,-0.02985985,0.002989342,-0.003456248,0.01692377,-0.009038208
0.9931315,-0.254471,0.1088429,-0.01337499,-0.02723222,0.0054074,0.007919088,-0.005081103,-0.003833457
0.9910909,-0.2496531,0.1088741,-0.01536031,-0.02215308,0.005685441,0.00799113,-0.02277095,0.0120437
0.9972486,-0.2466159,0.1068966,-0.009146437,-0.01885041,0.003946753,-0.00271336,-0.006418436,0.03395076
1.004413,-0.2490695,0.1063514,-0.001924182,-0.02103429,0.003632095,-0.01457257,0.01855025,0.04274034
1.003074,-0.2547875,0.1030964,-0.003204171,-0.02647813,0.0005990894,-0.01703699,0.02254906,0.03119768
1.000639,-0.2584813,0.1045779,-0.005579057,-0.02989329,0.002293843,-0.003426988,0.02133953,0.03073004
1.00103,-0.2635739,0.1096444,-0.005126168,-0.03470239,0.007564867,0.00926898,0.02691584,0.03440032
0.9986282,-0.2630741,0.111945,-0.007465204,-0.03391371,0.01006116,0.01388044,0.03440154,0.030445
0.9963634,-0.2531767,0.113032,-0.009665714,-0.02372157,0.0113346,0.01345996,0.0247025,0.02629621
0.9945536,-0.249639,0.1134527,-0.01140958,-0.01988298,0.01193205,0.003296964,0.002557132,0.01640295
0.9979607,-0.2504236,0.1140542,-0.007934775,-0.02036068,0.01270036,-0.01299871,-0.001094772,0.009156839
1.006878,-0.2487429,0.1115871,0.001052089,-0.01836723,0.01038966,-0.02984928,0.02117292,0.003624932
1.009185,-0.2476994,0.1092741,0.003430824,-0.0170055,0.008222539,-0.04479315,0.0434247,-0.0127958
1.007793,-0.2468178,0.1106542,0.00211055,-0.01580045,0.009737717,-0.05165178,0.03698541,-0.02819688
1.007098,-0.2493363,0.1095612,0.001489179,-0.01799078,0.008768994,-0.04173448,0.02896858,-0.03587952
1.00277,-0.2508066,0.111121,-0.00276416,-0.0191285,0.01044227,-0.02982361,0.0410162,-0.04148365
0.9965773,-0.2495673,0.1154343,-0.008882324,-0.01755249,0.01485816,-0.02868112,0.03954021,-0.04155276
0.9927276,-0.2500802,0.1186281,-0.01265684,-0.01772483,0.01814355,-0.01787877,0.0350399,-0.03793496
0.9941777,-0.2473177,0.1237241,-0.0111309,-0.01461827,0.02331973,-0.007962986,0.03986446,-0.03335603
0.995187,-0.2403426,0.1204275,-0.01004473,-0.007295943,0.02009157,-0.01824298,0.03428013,-0.02347041
0.9915122,-0.2333615,0.1154114,-0.01364119,3.473809e-05,0.01513177,-0.02721885,0.02524102,-0.01825018
0.9894016,-0.2332157,0.1200473,-0.01567179,0.0005318542,0.0198115,-0.02708865,-0.005618485,-0.02168215
0.9889577,-0.2349655,0.119267,-0.01603372,-0.0008661917,0.01906256,-0.02703045,-0.05141393,-0.02034847
0.991883,-0.2329329,0.1130864,-0.01302388,0.001517712,0.01290068,-0.02798753,-0.05997217,-0.01697454
1.000855,-0.2396326,0.107279,-0.003965034,-0.004832089,0.007099375,-0.0298308,-0.03872699,-0.01682159
1.0065,-0.2477911,0.1025611,0.00177046,-0.01264271,0.002375387,-0.03234701,-0.02220238,-0.01624979
1.00463,-0.2467689,0.1068718,-7.20791e-06,-0.01127519,0.006668408,-0.0334807,-0.02221109,-0.01651694
1.00287,-0.24285,0.1149592,-0.001672393,-0.007013659,0.01472714,-0.03236538,-0.02632666,-0.01487292
1.005826,-0.2388862,0.1214729,0.00137983,-0.002710196,0.02120142,-0.02832954,-0.02355967,-0.01035144
1.009922,-0.2420387,0.1216932,0.005572552,-0.005526484,0.02137149,-0.01429219,-0.01796195,-0.01018189
1.011319,-0.2472496,0.11376,0.007068157,-0.010405,0.01337741,0.003124033,-0.00198347,-0.0165788
1.003975,-0.2483688,0.1106389,-0.0001784141,-0.01119585,0.01018459,0.006993666,0.009789051,-0.02011424
0.9939375,-0.2527316,0.110061,-0.01011801,-0.01523445,0.00952463,-0.000310404,0.004847191,-0.01993914
1.001605,-0.2567548,0.1080462,-0.002352923,-0.01893733,0.007417841,-0.005018011,0.007827376,-0.02765197
1.010018,-0.2597167,0.1109461,0.006156769,-0.02158275,0.01021634,-0.0001494058,0.02320404,-0.03797633
1.002055,-0.2603457,0.1135514,-0.001709419,-0.0218985,0.01271124,0.007662038,0.0306859,-0.04460448
1.000974,-0.2542267,0.1129019,-0.002695475,-0.01546905,0.01194277,0.01190533,0.0261876,-0.04453014
1.002294,-0.2481749,0.1127951,-0.001280559,-0.00910938,0.0117088,0.008602738,0.02246858,-0.02990708
0.996563,-0.2433677,0.1140192,-0.006918385,-0.003996874,0.01279776,-0.0007993209,0.01762683,-0.01605868
0.9968418,-0.241739,0.1125281,-0.006547309,-0.002065766,0.01116398,-0.002309983,0.009731128,-0.01082165
0.9979982,-0.244599,0.1097929,-0.005299503,-0.004626626,0.008278868,-0.001231664,0.01191374,-0.004660567
0.9988499,-0.2470495,0.111246,-0.004357153,-0.00678157,0.009575222,-0.002489496,0.01449264,-0.0006853093
1.001749,-0.2520175,0.1106215,-0.001368034,-0.01145796,0.008787615,0.001403898,0.007101696,-0.0006173615
1.001597,-0.2545377,0.1093537,-0.001431167,-0.01369044,0.007350721,0.001755879,0.003003723,-0.00092185
1.001437,-0.2525758,0.1128008,-0.001503574,-0.01144475,0.01062331,0.003526199,0.005222432,0.003119307
1.002085,-0.256479,0.1148698,-0.0007683839,-0.01506773,0.01251271,0.008869654,0.009723749,0.002952941
1.002014,-0.260869,0.1149435,-0.0007523898,-0.01918097,0.012402,0.006827198,0.01330352,-0.005935427
1.00039,-0.2585999,0.1154848,-0.002292316,-0.01663825,0.01275428,0.003892458,0.006389285,-0.008672149
0.9996043,-0.2527096,0.1169379,-0.002994133,-0.01047708,0.01401407,-0.001261822,-0.001386436,-0.006826549
1.002186,-0.2461311,0.1165143,-0.0003303557,-0.003630414,0.01339287,-0.008312384,0.005958427,-0.001728778
1.003339,-0.2445703,0.1126537,0.0009036647,-0.001804163,0.00933068,-0.01325949,0.0157448,0.005234185
1.002205,-0.246949,0.1107887,-0.0001504607,-0.003920644,0.007260233,-0.02060286,0.01636944,0.006228765
0.9997906,-0.2482266,0.111085,-0.002487192,-0.004939384,0.007347677,-0.02119682,0.008786254,0.009868126
0.9969097,-0.2490753,0.1111843,-0.005291828,-0.005532932,0.007235245,-0.01504947,-0.002985822,0.0156946
0.997483,-0.24868,0.1109289,-0.00464371,-0.004886289,0.006765509,-0.009460483,-0.00603922,0.01852211
1.001139,-0.24748,0.1099522,-0.0009147187,-0.003438984,0.005572337,-0.004154794,-0.00821259,0.02011257
1.00314,-0.2457728,0.1086909,0.001158479,-0.00148876,0.004092911,-0.005954812,-0.02253343,0.02470075
0.9994611,-0.243476,0.1074866,-0.002449525,0.001046753,0.002669319,-0.01093748,-0.03202153,0.03382921
0.9954485,-0.245045,0.1066757,-0.006392868,-0.0002882837,0.001638315,-0.01226229,-0.02932365,0.0338566
0.997725,-0.2464359,0.1050071,-0.00404841,-0.001450293,-0.0002505011,-0.01346007,-0.02746949,0.02981947
1.000968,-0.2452605,0.104168,-0.0007385611,-5.11476e-05,-0.001309403,-0.0124296,-0.02992235,0.03161292
1.002375,-0.247889,0.1045298,0.0007342618,-0.002461485,-0.001166375,-0.009765443,-0.03237522,0.02729333
1.003515,-0.2485989,0.1046652,0.001938467,-0.002958687,-0.001248168,-0.006807883,-0.03170842,0.02028222
1.002589,-0.2461903,0.1088842,0.001074989,-0.0003430329,0.002755664,-0.003282962,-0.02102546,0.01419216
1.00241,-0.2465241,0.1136322,0.0009577425,-0.0004755813,0.007291074,-0.006233752,-0.001257123,0.005561692
1.003136,-0.2462389,0.1123814,0.001743264,5.171042e-06,0.005830346,-0.0117007,0.004959112,0.001481094
1.001548,-0.248506,0.1082798,0.0002135802,-0.002072409,0.001521571,-0.01350021,-0.003041134,-0.005068218
1.001814,-0.2530842,0.1031166,0.0005356184,-0.006466904,-0.003845827,-0.01521782,-0.005439095,-0.01322706
1.005149,-0.2529533,0.09825328,0.003924647,-0.006158036,-0.008910037,-0.0100595,-0.006890674,-0.01119383
1.007689,-0.2506834,0.09595697,0.006517057,-0.003715838,-0.01140321,-0.002773143,-0.002331306,-0.01322188
1.006643,-0.2496185,0.09468613,0.005521325,-0.002483963,-0.01286619,-0.007042558,0.008428108,-0.02089356
1.003641,-0.2509835,0.09647993,0.002566064,-0.003687241,-0.011259,-0.009923989,0.003908159,-0.02106265
1.001897,-0.2529221,0.1010155,0.0008673437,-0.005469258,-0.006903871,-0.005465776,-0.004374332,-0.02077101
0.9976504,-0.2528686,0.1006183,-0.003337228,-0.005264145,-0.007474701,-0.002951065,-0.007267819,-0.01546414
0.9963625,-0.252934,0.09891245,-0.004585604,-0.005182708,-0.009347061,0.001212863,-0.01072736,-0.005261222
1.00285,-0.2540128,0.1007263,0.001939152,-0.006119275,-0.007692226,0.005399822,-0.0005710365,-0.01072998
1.004911,-0.2563923,0.09975613,0.004034745,-0.008360736,-0.008813626,0.006388599,0.01647969,-0.01843275
1.001348,-0.2583691,0.09864781,0.0005047127,-0.01020352,-0.01006504,0.007836644,0.02010681,-0.01394045
0.9990024,-0.2578173,0.09897418,-0.001810124,-0.009521364,-0.009873379,0.008927329,0.012777,-0.01405667
0.9996026,-0.2574248,0.09856187,-0.001181624,-0.009001647,-0.01041173,0.01574651,0.007907776,-0.01369023
1.00131,-0.2585087,0.1016359,0.0005516737,-0.00996116,-0.007454859,0.02732422,0.01493835,-0.009353905
1.000827,-0.2583459,0.1036922,9.312942e-05,-0.009676412,-0.005506721,0.03168256,0.01944852,-0.01253303
1.001798,-0.2558354,0.1024897,0.001086927,-0.007046147,-0.006808393,0.03366062,0.01022758,-0.01347844
1.002074,-0.2532834,0.1010496,0.001383523,-0.004376261,-0.008338645,0.03740862,0.003598243,-0.01082861
1.002145,-0.2522165,0.0975177,0.001473718,-0.003193261,-0.01195175,0.03559529,0.007268508,-0.01045882
1.004967,-0.2527093,0.09569607,0.00431233,-0.00357174,-0.01384553,0.02861884,0.01978272,-0.0103795
1.003517,-0.2528056,0.1006584,0.002877162,-0.003555513,-0.008946106,0.02042091,0.03452647,-0.01449366
1.002031,-0.2506991,0.1084109,0.001404826,-0.001338202,-0.001247328,0.01392419,0.03520854,-0.01817728
1.001844,-0.2498273,0.1100719,0.001228976,-0.0003573409,0.0003689861,0.009996178,0.02707902,-0.01606923
1.001226,-0.2517847,0.1091836,0.000620422,-0.002207673,-0.0005554831,0.003197615,0.02795043,-0.01129313
1.004268,-0.2532841,0.1117261,0.003669397,-0.003602052,0.001958936,-0.005424896,0.03795949,-0.01064579
1.00458,-0.2520811,0.110452,0.003987236,-0.002296018,0.0006642549,-0.007868038,0.0479751,-0.02071331
1.005267,-0.2505928,0.1077726,0.004678393,-0.0007066597,-0.002028793,-0.008602521,0.04810397,-0.03094691
1.006421,-0.2512416,0.1086804,0.005833993,-0.001256426,-0.001128095,-0.01301952,0.03882643,-0.02949483
1.00251,-0.2496988,0.1097275,0.001921856,0.0003832855,-8.207741e-05,-0.01502942,0.03122095,-0.02012233
1.001468,-0.2467414,0.1135016,0.0008774661,0.003435288,0.003696773,-0.01350606,0.02267208,-0.007782378
1.000473,-0.2474051,0.1194174,-0.000122272,0.002863878,0.009622398,-0.01225938,0.0133426,0.0009836127
0.9990159,-0.249601,0.1214407,-0.001586417,0.0007575696,0.01165989,-0.01118731,0.009380184,-0.001462181
0.9999344,-0.2523737,0.1173942,-0.0006763551,-0.001928324,0.00763117,-0.005055948,0.0006527773,-0.004066093
0.9990795,-0.2546683,0.1121909,-0.001541325,-0.004138811,0.00244851,0.005692331,-0.005229026,0.002117648
1.00157,-0.2550973,0.1094586,0.0009375491,-0.00448637,-0.0002608366,0.009468981,0.006265789,0.001820099
1.004969,-0.2550401,0.1062922,0.004324417,-0.00435025,-0.003402453,0.006407078,0.01783814,-0.006139623
1.005009,-0.2517927,0.1073224,0.004349849,-0.001026143,-0.002345463,0.006352689,0.01576784,-0.01491052
1.002558,-0.2466811,0.1102887,0.001883674,0.004159784,0.0006492235,0.007670781,0.008845637,-0.0225466
0.9986886,-0.2453316,0.1065198,-0.002001744,0.005581347,-0.003089573,0.007348823,0.006226498,-0.01845686
1.001639,-0.2452873,0.1033486,0.0009308412,0.005695163,-0.00622926,0.009971607,0.009259945,-0.01447245
1.00542,-0.2437938,0.1030754,0.004693417,0.007255219,-0.006469329,0.01476793,0.01735342,-0.0169688
1.003508,-0.2433922,0.1086961,0.002761074,0.00772016,-0.0008139113,0.01801267,0.0252645,-0.01580275
1.00323,-0.2428528,0.1197559,0.002462866,0.008319407,0.01028207,0.02201378,0.02399378,-0.01820788
1.001767,-0.2399475,0.1180414,0.0009779519,0.01128069,0.008604962,0.02474361,0.01005915,-0.01631513
0.9969163,-0.235528,0.1154712,-0.003895971,0.01575192,0.006072546,0.02307173,-0.009584179,-0.006297306
0.9940172,-0.232185,0.1201361,-0.00681891,0.01914192,0.01077527,0.01359537,-0.01542685,0.001750885
0.9975256,-0.2359476,0.1133911,-0.003334643,0.01542075,0.004067499,-0.006867857,-0.007995083,0.008039273
1.0042,-0.2446011,0.1068229,0.003315056,0.006802821,-0.002464364,-0.02184008,-0.004965715,0.005470315
1.004307,-0.2498734,0.1060768,0.003398355,0.001559867,-0.00317514,-0.02370133,0.003016257,0.001913194
1.002941,-0.2507809,0.1075641,0.002007022,0.0006757146,-0.001653528,-0.02781486,0.01860598,0.002519054
1.002439,-0.2476719,0.1139672,0.001480302,0.003802148,0.00478299,-0.03401442,0.02102597,-0.001615084
0.9959307,-0.2451076,0.112402,-0.005052398,0.006378302,0.003250271,-0.03733808,0.01287109,0.0003290219
0.9933856,-0.2452278,0.1128422,-0.007622248,0.006264552,0.003721703,-0.03845772,0.01046375,0.00404583
0.9984969,-0.2447008,0.117805,-0.002535393,0.006792623,0.008714319,-0.03462921,0.01044051,0.002166651
1.001123,-0.2478983,0.1145951,6.658233e-05,0.003590827,0.005532647,-0.02657328,0.001876551,0.005179256
0.9991194,-0.2515367,0.1167178,-0.001959647,-5.694637e-05,0.007681494,-0.009904545,-0.01087031,0.01147427
0.9964752,-0.2488977,0.1196568,-0.004626051,0.002567653,0.01064439,0.002570057,-0.01379809,0.02413521
0.9964258,-0.2440735,0.1166498,-0.004696621,0.007372994,0.007658686,-0.005882303,-0.01064979,0.03908182
0.9963416,-0.2406114,0.1156356,-0.004800729,0.01081171,0.006662732,-0.01277878,-0.01546678,0.04104674
0.9979521,-0.2431325,0.1131481,-0.003208777,0.008262679,0.004190485,-0.0115945,-0.01743469,0.03669213
1.001461,-0.2506562,0.1135058,0.000282993,0.000706504,0.004560015,-0.01444079,-0.00484631,0.02486388
1.000008,-0.2530818,0.1155409,-0.001185586,-0.00175587,0.006603697,-0.01426442,0.005775655,0.004394237
0.9996026,-0.2468143,0.1140342,-0.001604581,0.004470766,0.005102237,-0.02069286,0.004995223,-0.0004263213
1.002526,-0.2408932,0.1138457,0.001306545,0.01034739,0.00491556,-0.03271023,0.008008103,0.001653903
1.002965,-0.2452989,0.113628,0.001734833,0.005893549,0.004696254,-0.0341199,0.02145778,-0.008545692
1.002777,-0.2501377,0.1127833,0.001536972,0.001003024,0.003846467,-0.03637328,0.02576182,-0.01033199
1.001555,-0.2482743,0.1113635,0.0003067681,0.002811216,0.002418186,-0.03952993,0.01201622,-0.006695979
1.000124,-0.2514148,0.1095648,-0.001131223,-0.0003875285,0.0006078236,-0.03344316,-0.0004408684,-0.01190876
0.9999137,-0.2556659,0.1106375,-0.001348279,-0.004699619,0.001665667,-0.02383299,0.0006434705,-0.01295822
0.9999761,-0.255735,0.1141523,-0.001291165,-0.004832109,0.005162773,-0.01064404,0.004696198,-0.01176906
1.000976,-0.2588107,0.1176231,-0.0002954916,-0.007972788,0.008612879,0.0006692435,0.002053938,-0.01061957
1.000847,-0.2596877,0.1152216,-0.000427383,-0.008915804,0.006187883,0.003307921,0.001494363,-0.008278273
1.000254,-0.2554778,0.1103124,-0.001022573,-0.004772364,0.001252199,0.01032004,-0.0006573883,-0.008941221
1.000339,-0.2499732,0.1110078,-0.0009397735,0.0006657839,0.001918236,0.02183585,-0.01144532,-0.004191562
1.000932,-0.2456248,0.1114973,-0.0003469633,0.004948237,0.002375698,0.02229743,-0.01323006,0.001692063
1.003225,-0.2449032,0.1117177,0.001946645,0.005604296,0.002561491,0.01803025,-0.007081518,0.001615086
1.003499,-0.2440094,0.1168489,0.002221972,0.006432832,0.007655715,0.01554855,-0.005038239,0.002154165
1.002057,-0.244443,0.1207368,0.0007817268,0.005934205,0.01150419,0.006600059,-0.00750612,0.005408552
1.002933,-0.2468673,0.1185808,0.001659829,0.003444923,0.009306136,-0.0002529968,-0.01123367,0.009502869
1.003098,-0.2499174,0.1140996,0.001827862,0.0003297581,0.004780162,0.001528272,-0.007059194,0.01118928
1.002345,-0.2540269,0.1132956,0.001077712,-0.003844671,0.003928501,-0.001582849,-0.004555171,0.009628106
1.003022,-0.2505643,0.1127947,0.001757954,-0.0004466611,0.003377287,-0.006485033,-0.007980819,0.003381225
1.002818,-0.2463885,0.1065193,0.001556744,0.003665003,-0.002951023,-0.003125377,-0.007893368,-0.002476621
1.002541,-0.249384,0.1014768,0.001282797,0.0006060379,-0.008048622,-0.002685822,-0.007484102,-0.0004813075
1.003046,-0.2485963,0.1056372,0.001790804,0.001330884,-0.003944912,-0.007721096,-0.003572836,0.002360718
1.002621,-0.2461138,0.1118352,0.001369268,0.003751212,0.00219517,-0.009766865,5.965957e-05,0.003421646
1.002766,-0.245847,0.1098859,0.001517062,0.003956502,0.0001870711,-0.01030599,-0.002170269,0.003228204
1.002925,-0.2453938,0.1085531,0.00167755,0.00434893,-0.001205094,-0.01044845,-0.001483276,0.001874936
1.002761,-0.2458385,0.111738,0.001515607,0.003843922,0.00192,-0.0140303,0.002304029,0.00454075
1.003823,-0.2443868,0.1101406,0.002579462,0.005235743,0.0002626002,-0.01941722,0.005975334,0.0039183
1.003853,-0.2436692,0.1102916,0.002610034,0.005893757,0.0003533907,-0.01878657,0.008147333,-0.006010761
1.001538,-0.2447237,0.1128098,0.0002948456,0.004779921,0.002811474,-0.0190926,0.008583767,-0.0150192
0.9990995,-0.242912,0.1121526,-0.002143531,0.006532358,0.002094326,-0.02169426,0.007039589,-0.0128455
1.000001,-0.242607,0.1119283,-0.001242807,0.00677797,0.001810158,-0.021222,0.001373904,-0.00435745
1.002548,-0.2458731,0.1114987,0.001302648,0.003452352,0.001320887,-0.02093908,-0.002175814,-0.001339653
1.002874,-0.2480737,0.1153903,0.0016273,0.001191862,0.005153151,-0.01883121,6.092602e-05,-0.00265494
1.002391,-0.2483037,0.119484,0.001141678,0.0009016928,0.00918765,-0.01615951,0.002937662,-0.005738564
0.9999027,-0.2452724,0.1149383,-0.001349385,0.003872794,0.004582814,-0.01753632,0.002200059,-0.007296512
0.9966728,-0.2418743,0.1102377,-0.004582456,0.007210458,-0.0001769957,-0.01727392,-0.002024211,-0.0009576325
0.9967703,-0.244651,0.1093322,-0.004488242,0.004373191,-0.001141806,-0.01359536,-0.004826518,0.005985574
0.9966405,-0.2473109,0.1111509,-0.004621249,0.001652461,0.0006177129,-0.01103843,-0.007109396,0.008919252
0.995979,-0.2456832,0.117634,-0.005285853,0.003218954,0.007041768,-0.01140408,-0.01009611,0.007430867
0.9985683,-0.247525,0.1228403,-0.002699014,0.001315858,0.01218918,-0.01478861,-0.006259735,0.001936277
1.001948,-0.2505765,0.1194519,0.0006791414,-0.001797088,0.008741768,-0.01748918,-0.002420528,-0.0007282604
1.002437,-0.2508093,0.1159436,0.001166585,-0.002091305,0.00517392,-0.0174289,-0.008743783,-0.001781739
1.00345,-0.2533792,0.1189599,0.002178934,-0.004722353,0.008130043,-0.01588618,-0.01253476,-0.000352673
1.006639,-0.2562202,0.1178735,0.005368098,-0.00762372,0.006982749,-0.01256447,-0.009216338,0.0002728435
1.005646,-0.2522105,0.1137114,0.004374755,-0.003673395,0.002758709,-0.01011224,-0.008599676,-0.005585202
1.002632,-0.2440089,0.110366,0.001361051,0.004470179,-0.0006494745,-0.009893605,-0.009880011,-0.008247467
1.002145,-0.2397282,0.1067017,0.000873561,0.008694171,-0.004377351,-0.01260619,-0.008175423,-0.005381076
1.002118,-0.2402483,0.1092994,0.0008464729,0.008118686,-0.001843627,-0.01844007,0.0005191979,-0.0008053725
1.004761,-0.2423072,0.1104467,0.003488823,0.006005133,-0.0007603577,-0.02098287,0.01163853,9.27351e-06
1.006692,-0.2436989,0.1060859,0.005419641,0.004559354,-0.005185048,-0.02107624,0.01222025,-0.005544108
1.004883,-0.2430332,0.1054386,0.003608663,0.005171368,-0.005895694,-0.02265525,0.005101613,-0.008989489
1.004585,-0.2427796,0.1073625,0.003308917,0.005371553,-0.004034245,-0.02389064,0.002635296,-0.009160794
1.00423,-0.2431342,0.1099792,0.002950201,0.004963701,-0.001478727,-0.02465141,0.00370339,-0.008191365
1.003544,-0.242051,0.1103286,0.002260928,0.005993498,-0.001189039,-0.02283055,0.003457043,-0.00954042
1.003686,-0.2404819,0.1088344,0.002397928,0.007509096,-0.002741344,-0.02007763,0.003316853,-0.01150995
1.002359,-0.2369984,0.1092429,0.001065311,0.0109387,-0.002389081,-0.02032754,0.002208759,-0.008750129
1.002548,-0.2325871,0.10787,0.001246508,0.01529546,-0.003816374,-0.02297433,0.0001633177,-0.007079493
1.003779,-0.2326574,0.1070407,0.002470269,0.01516931,-0.004697954,-0.02789005,-0.001013678,-0.005470228
1.005116,-0.2354573,0.1071052,0.003798236,0.01231206,-0.004683422,-0.03353559,-0.0004638172,-0.004139264
1.007485,-0.2367628,0.1056927,0.0061568,0.01094705,-0.006143368,-0.03908702,0.004508859,-0.005035503
1.005258,-0.2393706,0.1057673,0.003918812,0.008277424,-0.006113444,-0.04165236,0.009237437,-0.002787464
1.00081,-0.2438269,0.1039736,-0.0005416814,0.003756802,-0.00794882,-0.03818132,0.007389559,0.001128164
1.000226,-0.2480255,0.1020526,-0.001139715,-0.0005086455,-0.009908295,-0.03286911,0.002816153,0.004239374
0.9999783,-0.2516671,0.1045388,-0.00140258,-0.004219252,-0.007456928,-0.02729414,-0.0001335898,-0.001048274
0.9997204,-0.2516033,0.1062869,-0.001676409,-0.004226146,-0.00573987,-0.02161855,-0.004277332,-0.008525928
1.000686,-0.2500358,0.1073169,-0.0007269836,-0.002730527,-0.004736944,-0.02069031,-0.007398904,-0.0009994545
1.001441,-0.2500988,0.1104068,1.003971e-05,-0.002866249,-0.001670153,-0.02089829,-8.613457e-05,0.008540731
1.00238,-0.2497002,0.1099574,0.0009316461,-0.002540711,-0.002138539,-0.01378887,0.008127127,0.009698297
1.001523,-0.2501743,0.1052916,5.58863e-05,-0.003087832,-0.006819536,-0.008423971,0.002702615,0.007141088
1.001011,-0.2499464,0.1036892,-0.0004746262,-0.002932622,-0.008433267,-0.01006104,-0.002124043,0.001261359
1.003719,-0.2482192,0.1037444,0.002214318,-0.001277386,-0.008385389,-0.008836684,0.00224997,-0.0001349921
1.004507,-0.2460337,0.1036338,0.002983268,0.0008370283,-0.008499085,-0.01003301,0.001616929,0.001086321
1.002763,-0.2440235,0.107177,0.001219735,0.002777175,-0.004954759,-0.01656633,-0.002645584,-1.442376e-05
1.000759,-0.2485824,0.110394,-0.0008038337,-0.001850632,-0.001732414,-0.02014605,-0.006233175,0.001362731
0.9999807,-0.255423,0.1117292,-0.001601896,-0.008758916,-0.0003876166,-0.01697254,-0.01430253,-0.0009011276
1.003663,-0.2549881,0.1118457,0.002059689,-0.008390094,-0.0002576716,-0.007422194,-0.01750107,-0.01255567
1.007113,-0.2471714,0.1072629,0.005490285,-0.0006373781,-0.004823447,0.0006602509,-0.01481595,-0.02522181
1.006904,-0.2361012,0.103852,0.005260695,0.01037097,-0.008213795,0.005310373,-0.01283421,-0.0243988
1.008361,-0.2311634,0.1033385,0.006696183,0.01524886,-0.008703324,-0.003854462,-0.0004041533,-0.01410352
1.010407,-0.2321835,0.09935358,0.008720506,0.01417026,-0.01266059,-0.02272304,0.02125459,-0.01123794
1.007122,-0.2318118,0.09853633,0.005412863,0.01448433,-0.01344643,-0.0192761,0.02915185,-0.007315102
1.000927,-0.232076,0.1045758,-0.0008055927,0.01416247,-0.00737151,-0.007422224,0.01834363,0.002647613
0.9971824,-0.2330581,0.1086121,-0.004575023,0.01312233,-0.003295497,-0.004187811,0.01297026,0.006925163
0.9969772,-0.2338734,0.107808,-0.004805854,0.01224799,-0.004055907,-0.0008369993,0.01844872,0.004364301
1.000249,-0.2362981,0.1049708,-0.001560288,0.00976275,-0.006845468,-0.00449111,0.02031071,-0.001529992
1.002455,-0.2379097,0.1033799,0.0006199174,0.008088972,-0.008385014,-0.003609001,0.01991014,-0.002361881
1.001738,-0.2369193,0.1019967,-0.000123577,0.009015399,-0.009713043,0.0001802257,0.008935952,-0.001842538
1.005609,-0.2354199,0.09882044,0.003720837,0.01044875,-0.0128304,-0.00117278,-0.001080182,-0.01263121
1.01556,-0.2335652,0.09720372,0.01364446,0.01223512,-0.01438425,0.001830827,0.02785578,-0.03775493
1.019339,-0.2235503,0.1005058,0.01739708,0.0221792,-0.01101511,-0.01220111,0.06169294,-0.06336714
1.00348,-0.2097277,0.1151671,0.001509623,0.03592797,0.003717362,-0.04013984,0.04113487,-0.05454738
0.9831663,-0.2145868,0.1294118,-0.01883341,0.03099094,0.01803709,-0.05278894,-0.01885985,-0.02206265
0.9865758,-0.2420938,0.11591,-0.01545399,0.003400992,0.004613372,-0.04345469,-0.05692937,-0.009773299
1.004149,-0.279428,0.08623707,0.002089446,-0.03402132,-0.02497936,-0.01665752,-0.007479687,-0.02847846
1.012651,-0.3060749,0.07440763,0.01056149,-0.06075998,-0.03672619,0.01630168,0.09009065,-0.06154117
