accx,accy,accz,body_accx,body_accy,body_accz,body_gyrox,body_gyroy,body_gyroz
0.9713168,-0.1783644,-0.2230989,-0.01260671,-0.01445558,0.02051056,0.06850787,-0.04031283,0.002162764
0.990553,-0.1864927,-0.2424162,0.006682091,-0.02269634,0.00213772,0.04625341,0.02194559,0.03052243
0.9941755,-0.1941821,-0.2531869,0.01035252,-0.03048518,-0.007698419,0.04559108,0.1383428,-0.002194181
0.9944562,-0.1866227,-0.2477501,0.01067633,-0.02301165,-0.001338929,0.04907677,0.1300091,-0.002104224
0.991143,-0.1722808,-0.2445772,0.007401017,-0.008741335,0.002743375,0.02638592,0.1475048,0.0119341
0.9808535,-0.1788016,-0.2472688,-0.002855703,-0.01531961,0.0009462715,0.03947669,0.1166449,0.002279288
0.9819491,-0.1817326,-0.2501806,-0.001732417,-0.01829397,-0.001087283,0.04420008,0.09310132,0.01633441
0.9861384,-0.1806772,-0.2495606,0.002479769,-0.01726795,0.0003933502,0.02385775,0.1209013,0.01823565
0.9808944,-0.1877021,-0.2508363,-0.002745805,-0.02430827,-4.014179e-05,0.04185173,0.08880199,0.008275168
0.9831906,-0.181522,-0.2518716,-0.0004353995,-0.01812949,-0.0002529698,0.03452504,0.1032538,0.007029071
0.9824286,-0.1753604,-0.2525977,-0.001186983,-0.01195518,-0.0001768472,0.02374159,0.09888551,0.006538147
0.9807465,-0.1759066,-0.2539454,-0.002862231,-0.01247483,-0.0007433767,0.03469733,0.06408509,0.0112856
0.9864883,-0.1755577,-0.2511704,0.002883269,-0.01208595,0.002790995,0.02242087,0.08303125,0.01516711
0.9854546,-0.1816255,-0.2499937,0.00185018,-0.01810081,0.004704895,0.02810666,0.06851579,0.0185679
0.9846939,-0.1831529,-0.2466199,0.001087265,-0.01956253,0.00879302,0.02774514,0.07569168,0.01912629
0.9829931,-0.1826185,-0.2439198,-0.0006185065,-0.01894996,0.01218386,0.02032756,0.07924737,0.01718252
0.9822104,-0.1850292,-0.2478791,-0.001408765,-0.02127009,0.008891169,0.02864067,0.05904865,0.01682891
0.9851226,-0.1838999,-0.2498258,0.001493707,-0.02003791,0.007586359,0.02220899,0.0731885,0.01608114
0.9831192,-0.1859663,-0.2555162,-0.0005216762,-0.02198926,0.00251268,0.03114251,0.05496019,0.01632172
0.9851457,-0.1852567,-0.2593687,0.001490956,-0.02115254,-0.0007484306,0.03704378,0.05151926,0.01504599
0.9855215,-0.1830553,-0.2555409,0.001851109,-0.01881201,0.003645654,0.03167316,0.05726997,0.01419892
0.9836137,-0.1847239,-0.255358,-7.400727e-05,-0.02032987,0.004369903,0.04123987,0.04036283,0.01425124
0.9866706,-0.1808764,-0.2522993,0.002963994,-0.01632015,0.007945063,0.04220833,0.04499681,0.01468549
0.9863071,-0.1794753,-0.2477764,0.002580075,-0.01474572,0.01295964,0.04197752,0.03662579,0.01678248
0.9877937,-0.181396,-0.2482751,0.004044842,-0.01648243,0.01292782,0.0400925,0.03635604,0.01829265
0.9896716,-0.1797199,-0.2459799,0.005899292,-0.01461213,0.0156648,0.039553,0.03786025,0.02279943
0.9874247,-0.1787635,-0.2434121,0.003627565,-0.01345177,0.01864928,0.04243962,0.02932447,0.02533622
0.9864722,-0.176412,-0.2459876,0.002648553,-0.0108872,0.01646519,0.03756282,0.03559967,0.01965783
0.9858272,-0.175651,-0.252574,0.001975468,-0.00990455,0.01024478,0.03880497,0.0287924,0.01565991
0.9871278,-0.1770315,-0.2577032,0.003246405,-0.01105558,0.005456399,0.03503531,0.03356039,0.01760192
0.9879833,-0.1766251,-0.2552472,0.004070868,-0.01041252,0.00822836,0.03288815,0.04569362,0.0177213
0.9870446,-0.1790598,-0.2513469,0.003099644,-0.01260387,0.01242042,0.03591926,0.04914069,0.01337956
0.9869496,-0.1810232,-0.2538512,0.002970616,-0.01431789,0.01018408,0.03033163,0.05631552,0.01051541
0.9867901,-0.1779664,-0.259723,0.002775741,-0.01100611,0.004556868,0.03044217,0.05219473,0.01074395
0.9886152,-0.1756678,-0.264665,0.004564147,-0.008447322,-0.0001631216,0.02443993,0.0584959,0.01114483
0.9888135,-0.1794895,-0.2661709,0.004724303,-0.01200437,-0.001468906,0.01592812,0.06150028,0.0122244
0.9849526,-0.1851719,-0.2642899,0.0008240272,-0.01741796,0.0005916279,0.01935669,0.0487854,0.01298406
0.9823104,-0.1870458,-0.2616374,-0.001858954,-0.01901918,0.003403795,0.01977812,0.04759608,0.01188818
0.983156,-0.1878354,-0.2587832,-0.001055132,-0.01953246,0.006398891,0.02221636,0.05021928,0.0107749
0.9847951,-0.1873763,-0.2589552,0.0005412558,-0.01879333,0.006349707,0.02718376,0.05651113,0.009055161
0.983566,-0.1856031,-0.2598245,-0.0007310713,-0.01673649,0.005585767,0.02522444,0.05571043,0.00670709
0.982081,-0.1862994,-0.2580443,-0.002259774,-0.01714574,0.007454559,0.02155981,0.0500967,0.007402924
0.9818484,-0.1877807,-0.2608128,-0.002536361,-0.01833652,0.004758543,0.0201608,0.05350467,0.007499656
0.9817039,-0.1874076,-0.2640261,-0.002724723,-0.01766982,0.001602305,0.01795381,0.04906477,0.00591965
0.9822665,-0.1844773,-0.2630673,-0.002205723,-0.01444279,0.002603528,0.01587285,0.04503548,0.006492397
0.9814521,-0.1824135,-0.266621,-0.003063228,-0.01207941,-0.0009214575,0.01686271,0.04282699,0.003408061
0.9800279,-0.1834137,-0.2706858,-0.004529862,-0.01277739,-0.004970598,0.01499192,0.04014366,0.0006806885
0.9792764,-0.1835783,-0.2665591,-0.005322644,-0.01263769,-0.0008400216,0.01265321,0.04326271,0.00322152
0.9809778,-0.1827949,-0.2607381,-0.003661356,-0.01154816,0.004973822,0.01074759,0.03961444,0.004347991
0.9852083,-0.181944,-0.2614648,0.0005304834,-0.01038956,0.004229817,0.005378472,0.03800815,0.006820133
0.9842899,-0.181815,-0.2660197,-0.0004249293,-0.00995187,-0.0003521003,0.003857889,0.03674027,0.008462669
0.9805922,-0.1838507,-0.2689815,-0.00415797,-0.01167808,-0.003349701,0.007293621,0.02903678,0.004616799
0.9807698,-0.1848052,-0.2676399,-0.00401411,-0.01232273,-0.002052099,0.01242137,0.02773894,0.0008959515
0.9809187,-0.1847901,-0.2644653,-0.00389701,-0.01199767,0.001071235,0.01309161,0.02772005,0.000844568
0.9803404,-0.1867183,-0.2652875,-0.004505154,-0.01361598,0.0001912269,0.01175426,0.02973352,0.003318283
0.9815211,-0.1881104,-0.2656031,-0.003352082,-0.01469854,-0.0001882426,0.01423891,0.03103136,0.004321792
0.9824136,-0.1874692,-0.2644299,-0.002484844,-0.01374808,0.0009157753,0.01174564,0.02259746,0.005720478
0.98182,-0.1867658,-0.2678487,-0.003101511,-0.01273593,-0.002577043,0.0111564,0.01550191,0.006892947
0.9818193,-0.1849751,-0.2712276,-0.003122806,-0.01063723,-0.006034057,0.01265745,0.01442769,0.006209474
0.9821496,-0.1830095,-0.2712878,-0.002810656,-0.00836434,-0.0061758,0.009036261,0.01455011,0.009301882
0.9817833,-0.1856619,-0.2688639,-0.00319267,-0.01071054,-0.003836198,0.01020468,0.01232265,0.01167412
0.9818257,-0.188807,-0.2653341,-0.003163594,-0.01355081,-0.00039273,0.009349698,0.01187384,0.01179243
0.9809166,-0.1862388,-0.2634657,-0.0040834,-0.0106792,0.001387771,0.006688395,0.01588603,0.01289879
0.9792785,-0.1829525,-0.2640905,-0.005729671,-0.007091123,0.0006739153,0.008112285,0.02002511,0.01153099
0.9790908,-0.1815495,-0.2663502,-0.005922927,-0.005388167,-0.001675681,0.005846562,0.02240734,0.01123426
0.9800701,-0.1801856,-0.266154,-0.004946525,-0.003726538,-0.001570028,0.006268962,0.01451129,0.01282792
0.980606,-0.1821832,-0.2689713,-0.004410554,-0.005429027,-0.004477972,0.008897997,0.006083492,0.01480198
0.978767,-0.1844769,-0.2748455,-0.006246686,-0.007430565,-0.01044253,0.009451109,0.01005911,0.01860505
0.9772005,-0.1830463,-0.2736825,-0.007807371,-0.005710992,-0.009369049,0.008849201,0.01171963,0.01934646
0.9786596,-0.1834098,-0.2722845,-0.006339365,-0.005789091,-0.008058992,0.003307792,0.009099205,0.02007755
0.9797669,-0.1855336,-0.2711354,-0.00522004,-0.007631069,-0.006995785,0.0006200481,0.004509959,0.02325583
0.979044,-0.187085,-0.2678234,-0.005927667,-0.008904503,-0.003767217,0.002615168,-0.00325972,0.02108205
0.97914,-0.1899855,-0.2699308,-0.00581314,-0.01153092,-0.005955005,0.002199745,-0.001241103,0.0202637
0.9803065,-0.1924056,-0.2711811,-0.004624911,-0.01368074,-0.007282574,-0.003483432,0.007096728,0.02635852
0.9801853,-0.1921688,-0.271461,-0.004721182,-0.01317729,-0.007636313,-0.0105933,0.009853374,0.02828066
0.977745,-0.1910408,-0.2749693,-0.007133342,-0.01178611,-0.01121456,-0.00982658,0.01009452,0.02429799
0.9746232,-0.1914111,-0.275355,-0.01022383,-0.01189652,-0.01166585,-0.008153796,0.01271485,0.02009259
0.9748949,-0.1902684,-0.2748216,-0.009917441,-0.01049704,-0.01119347,-0.006773384,0.0193452,0.01899828
0.9783126,-0.1876574,-0.2751469,-0.006461691,-0.007632214,-0.01157471,-0.0006386105,0.02410671,0.0193797
0.9797903,-0.1887799,-0.2744439,-0.004942403,-0.008504071,-0.01092219,-0.002294232,0.02370381,0.01358037
0.9794526,-0.1912835,-0.2734037,-0.005235008,-0.01075992,-0.00992668,-0.005736396,0.02568993,0.00682736
0.979816,-0.193505,-0.2715955,-0.004823205,-0.01273684,-0.008157061,-0.002889856,0.0266164,0.00678263
0.980831,-0.1941785,-0.2721156,-0.003756597,-0.01316845,-0.008709653,-0.004542744,0.02425681,0.00777217
0.9808855,-0.1931626,-0.2738939,-0.003647369,-0.01191349,-0.01051423,-0.006111918,0.02744863,0.006908382
0.9799258,-0.1959898,-0.274368,-0.004549499,-0.01450404,-0.01100822,-0.00507194,0.03029415,0.005880995
0.9794956,-0.1976275,-0.2750743,-0.004919315,-0.01590722,-0.01172792,-0.005418076,0.02891241,0.002480435
0.9769036,-0.196624,-0.272437,-0.007448243,-0.01467126,-0.009097293,-0.001978935,0.02847621,-0.003890177
0.9736009,-0.1977695,-0.266806,-0.01068538,-0.01558599,-0.00346639,0.001815336,0.0260927,-0.006211852
0.9737424,-0.1970647,-0.2649559,-0.01047553,-0.01465179,-0.001609756,0.003524608,0.02294199,-0.005498151
0.9753542,-0.1971167,-0.2701973,-0.008792531,-0.01447546,-0.006838518,0.00666593,0.01919993,-0.008376217
0.9768482,-0.1986366,-0.277908,-0.007224528,-0.01576802,-0.01453042,0.01128767,0.01518813,-0.009007629
0.9757684,-0.1984111,-0.2792018,-0.008227351,-0.01531587,-0.01579948,0.01677107,0.01755904,-0.0071937
0.9739203,-0.1980452,-0.2773338,-0.009995495,-0.01472382,-0.01390038,0.01937753,0.01867642,-0.006651305
0.9744446,-0.1940218,-0.2769391,-0.009388269,-0.0104746,-0.0134682,0.02344659,0.01228542,-0.004559919
0.9734958,-0.1904619,-0.2737515,-0.01025123,-0.006689131,-0.01023645,0.02938568,0.003712798,-0.003169891
0.9731358,-0.1933135,-0.2706262,-0.01052225,-0.009315536,-0.007060343,0.0268499,-0.008869799,0.00149426
0.973617,-0.1947682,-0.2692998,-0.009948869,-0.01054562,-0.005676772,0.02284112,-0.01783507,0.0111519
0.9706587,-0.1894948,-0.2693467,-0.01281195,-0.005048153,-0.005660299,0.01981353,-0.02277214,0.01489613
0.968756,-0.1836242,-0.274344,-0.01461599,0.001045564,-0.01058837,0.01139943,-0.03705115,0.01767047
0.970617,-0.1832795,-0.2797542,-0.01265295,0.00161214,-0.01592363,0.007996573,-0.04179046,0.02960699
0.9736077,-0.1844755,-0.2821974,-0.009556568,0.0006362112,-0.01828608,0.005778118,-0.03425252,0.03834397
0.9760866,-0.1867793,-0.2848794,-0.006968329,-0.001449819,-0.02088137,-0.00415295,-0.03608497,0.03871955
0.977865,-0.191836,-0.2891687,-0.005077201,-0.006291546,-0.02507758,-0.007862358,-0.03282925,0.04258982
0.979638,-0.1917923,-0.291794,-0.003188091,-0.006035661,-0.02760306,-0.004780897,-0.02679929,0.04522559
0.9822442,-0.1891558,-0.2882599,-0.0004629623,-0.003190099,-0.0239617,-0.005498987,-0.02818638,0.04073922
0.9859935,-0.1904251,-0.2841594,0.003407775,-0.004253319,-0.01974619,-0.006851702,-0.02117892,0.03522282
0.9861002,-0.1906822,-0.2824287,0.003637789,-0.004307722,-0.01789233,-0.008596266,-0.01119641,0.02796428
0.981099,-0.1894788,-0.2815324,-0.001238785,-0.00290494,-0.01686478,-0.01287141,-0.000919295,0.02326695
0.9778732,-0.1886943,-0.2835217,-0.004339191,-0.001924505,-0.01871475,-0.01599732,0.006265124,0.01805687
0.979203,-0.1868351,-0.2829157,-0.002883523,0.0001269714,-0.01796139,-0.0193215,0.002980605,0.006779798
0.9817184,-0.1861943,-0.2824887,-0.0002419836,0.0009561045,-0.01737892,-0.02807304,0.009078396,0.007377424
0.9816364,-0.1864444,-0.2834935,-0.0001978076,0.0008903147,-0.01822041,-0.04249857,0.0212209,0.01233589
0.9792081,-0.1857136,-0.2772959,-0.002500149,0.001801076,-0.01185175,-0.05711787,0.02442952,0.006926291
0.977078,-0.1867352,-0.2731898,-0.004504905,0.0009547378,-0.007567054,-0.06176641,0.02551694,0.007188876
0.9772557,-0.1895721,-0.2752945,-0.004202589,-0.001711619,-0.009486182,-0.05660852,0.02466333,0.004679522
0.9785502,-0.193404,-0.2762956,-0.002784237,-0.005377885,-0.01029523,-0.0528369,0.02483049,-0.005466488
0.9771347,-0.1962045,-0.2765687,-0.004076692,-0.008017509,-0.01037028,-0.04563034,0.02980028,-0.007041557
0.9751412,-0.1958935,-0.2763972,-0.005948112,-0.007550254,-0.009995292,-0.03813006,0.03361345,-0.007425642
0.9723828,-0.1972752,-0.2773905,-0.008585373,-0.008779909,-0.01077996,-0.04297385,0.03283001,-0.008877573
0.9700107,-0.1981371,-0.2777399,-0.01083717,-0.009493791,-0.01091603,-0.04460285,0.03205355,-0.008092116
0.9746543,-0.1963533,-0.2758708,-0.006073884,-0.007565543,-0.008829255,-0.04322104,0.03409465,-0.006965927
0.9781175,-0.197479,-0.2745709,-0.002491525,-0.008550099,-0.007307887,-0.0480625,0.02948007,-0.003721578
0.975642,-0.197566,-0.2755047,-0.004848424,-0.008499001,-0.008016717,-0.04603717,0.02290508,-0.003372959
0.9742915,-0.1971489,-0.2809199,-0.00608096,-0.007946579,-0.01320396,-0.04518715,0.02424117,-0.004237196
0.973398,-0.2004086,-0.2875612,-0.006857066,-0.01107341,-0.01961455,-0.04718655,0.02129164,-0.00541452
0.9732928,-0.2020174,-0.2896534,-0.006845365,-0.01255145,-0.02147329,-0.04089853,0.01029702,-0.009706522
0.9734383,-0.2010336,-0.2828069,-0.006583604,-0.01143871,-0.01439038,-0.03638203,-0.003470965,-0.01726911
0.9706023,-0.1984228,-0.2715564,-0.009303641,-0.008700383,-0.002900711,-0.03223824,-0.01658305,-0.02793758
0.9676879,-0.1960039,-0.2673776,-0.01210243,-0.006155164,0.001519851,-0.02222222,-0.02395542,-0.02944781
0.9679318,-0.1952756,-0.2696062,-0.01174293,-0.005301415,-0.0004653344,-0.01309953,-0.03715035,-0.02470486
0.9704609,-0.1932627,-0.2725632,-0.009098078,-0.003164201,-0.003177882,-0.010171,-0.05173687,-0.02358645
0.9723621,-0.1927751,-0.2757319,-0.007080568,-0.002553255,-0.006101931,-0.01164556,-0.0466576,-0.01931174
0.9737614,-0.196045,-0.283399,-0.005564507,-0.005700871,-0.01352432,-0.008460115,-0.04101898,-0.01695291
0.975644,-0.2008826,-0.2905431,-0.003564765,-0.01041737,-0.02042399,-0.0002890473,-0.0417123,-0.01685365
0.9768415,-0.204196,-0.2874735,-0.002249699,-0.01361059,-0.01711002,0.008682775,-0.03074333,-0.01458861
0.9767969,-0.2029944,-0.2852747,-0.002176558,-0.01228951,-0.01466668,0.01710307,-0.02673955,-0.01600855
0.9774095,-0.2015998,-0.287929,-0.001446233,-0.01077563,-0.01707612,0.0207,-0.02088247,-0.01713499
0.9810855,-0.2015084,-0.2873597,0.002347113,-0.01056495,-0.01626139,0.02356473,0.008006906,-0.02057115
0.9839013,-0.1980658,-0.2867322,0.005279611,-0.007002862,-0.01538793,0.02729455,0.02572297,-0.02621575
0.9827001,-0.1920808,-0.2841841,0.004194138,-0.0008980696,-0.01259316,0.02457434,0.02436162,-0.02809646
0.9792555,-0.1866139,-0.2805173,0.0008636602,0.004688795,-0.008678999,0.0188831,0.02206629,-0.03241596
0.9749457,-0.1854687,-0.2817685,-0.003333836,0.005953644,-0.009682253,0.015339,0.01856786,-0.02999742
0.9743988,-0.1862006,-0.2827022,-0.003770336,0.005340541,-0.0103678,0.01497071,0.01580354,-0.02314221
0.9774101,-0.1827389,-0.2809078,-0.0006507276,0.008919769,-0.008325015,0.02124265,0.01073089,-0.02660513
0.9780932,-0.1839179,-0.2792745,0.0001387322,0.007856282,-0.006443532,0.0263321,0.009354988,-0.02755112
0.9768164,-0.1885418,-0.2770846,-0.001033831,0.003345407,-0.004005862,0.02463127,0.01171028,-0.02590491
0.9756561,-0.1859597,-0.2765936,-0.002092189,0.006037508,-0.003267864,0.02420962,0.007448454,-0.02583109
0.9745371,-0.1858509,-0.2788571,-0.003111472,0.006253059,-0.005285521,0.02295938,0.004481904,-0.01915993
0.9733409,-0.1876423,-0.2804343,-0.004210132,0.004564712,-0.006618421,0.01254628,0.003298149,-0.01632437
0.9731867,-0.1854231,-0.28182,-0.004269095,0.00688299,-0.007761559,-0.002589821,0.002894173,-0.01723307
0.9744104,-0.1842408,-0.2830755,-0.002952125,0.008160145,-0.008776571,-0.008769594,0.004580975,-0.01292953
0.9753197,-0.1821939,-0.2851594,-0.001951488,0.01029724,-0.01062192,-0.007189903,0.003433469,-0.01141753
0.9764976,-0.1833302,-0.2885931,-0.0006843214,0.009246226,-0.01381912,-0.01055396,0.002722367,-0.01410773
0.9760682,-0.1847267,-0.2870727,-0.001026426,0.007929619,-0.01206419,-0.01191381,-0.001917544,-0.01537534
0.9744355,-0.1835032,-0.2847877,-0.00257391,0.009227402,-0.009546412,-0.008546942,-0.008530805,-0.01477075
0.9770702,-0.1859575,-0.2867037,0.000144117,0.006841513,-0.01123138,-0.01134779,-0.007750553,-0.01223459
0.979687,-0.1845306,-0.286253,0.002842029,0.008330859,-0.01055135,-0.0159181,-0.008396035,-0.007356675
0.9787149,-0.1833084,-0.285447,0.001948864,0.009609309,-0.009517562,-0.02099754,-0.01307924,-0.001796057
0.9772442,-0.1836904,-0.2858489,0.0005547662,0.009277147,-0.009693412,-0.0265135,-0.01749938,0.0008619751
0.9747588,-0.1798465,-0.2853008,-0.00185652,0.01316447,-0.008920872,-0.0250875,-0.02541068,0.003947908
0.9737309,-0.1805649,-0.2871413,-0.002812731,0.01248268,-0.01053855,-0.02334976,-0.03216443,0.009939566
0.9750494,-0.1796266,-0.2877357,-0.001424862,0.01345058,-0.01091168,-0.02129016,-0.03094324,0.01037891
0.9771337,-0.1785417,-0.2840476,0.0007264186,0.0145579,-0.007004005,-0.01640043,-0.02807296,0.007852455
0.980726,-0.1822685,-0.2807267,0.004383463,0.01084606,-0.003465101,-0.01864833,-0.02567466,0.006683596
0.9829548,-0.180298,-0.2795532,0.006674498,0.0128238,-0.002075402,-0.02100215,-0.0171951,-0.001266069
0.9835721,-0.1808185,-0.278771,0.007351413,0.01230287,-0.001079132,-0.01976938,-0.006144929,-0.009121986
0.9830669,-0.1834539,-0.2765682,0.006902686,0.009659275,0.001335151,-0.02390296,0.001967262,-0.01178345
0.9802701,-0.1820551,-0.2757588,0.004159081,0.01104206,0.002353222,-0.02841136,0.007115526,-0.0188742
0.9785178,-0.1837872,-0.2781264,0.002456607,0.009286222,0.0001910259,-0.03055674,0.01214597,-0.02573911
0.9789568,-0.1836856,-0.2800485,0.002941726,0.009356499,-0.001529414,-0.03097601,0.01991268,-0.02763808
0.9791661,-0.1826768,-0.281747,0.003193621,0.01032656,-0.003030183,-0.02872455,0.02212563,-0.02895797
0.977325,-0.1838855,-0.2826051,0.001391578,0.00907171,-0.003694644,-0.02542897,0.01868417,-0.0299994
0.9752455,-0.1832468,-0.2815331,-0.0006525068,0.009657249,-0.002433155,-0.02082634,0.01840049,-0.03427342
0.9750493,-0.1847406,-0.2828449,-0.0008166279,0.0081032,-0.003559693,-0.01968542,0.01824858,-0.03788621
0.9747612,-0.1880603,-0.2870342,-0.001075798,0.004716578,-0.007567931,-0.02335373,0.01985777,-0.03438154
0.9748298,-0.1904417,-0.2913519,-0.0009813873,0.002261778,-0.01170871,-0.02787983,0.02266156,-0.03387975
0.9747445,-0.1905265,-0.2908302,-0.001043684,0.002097718,-0.01101392,-0.03154127,0.02196564,-0.03494769
0.9744097,-0.187604,-0.2851458,-0.001358012,0.004935565,-0.005159943,-0.0315521,0.02232856,-0.02748794
0.9754215,-0.1849516,-0.2830146,-0.0003282676,0.007498278,-0.002862535,-0.02556652,0.02214076,-0.0203548
0.9740777,-0.1823742,-0.2833623,-0.001656328,0.009981352,-0.003047217,-0.01616927,0.02015603,-0.01888857
0.9730365,-0.181447,-0.2826893,-0.00268383,0.01080962,-0.002214489,-0.01138627,0.01297283,-0.0170327
0.9751695,-0.183286,-0.2810861,-0.000539058,0.008867215,-0.0004550295,-0.006941883,0.0007807917,-0.0120096
0.9760312,-0.1845205,-0.2749288,0.0003327963,0.007525084,0.005854975,-0.0009052721,-0.002587788,-0.008975583
0.9766207,-0.1848086,-0.2712246,0.0009307664,0.007125035,0.009708115,-0.003329785,-0.003992887,-0.009923545
0.9769447,-0.1831205,-0.2766237,0.001261832,0.008697356,0.00445359,-0.004565778,-0.007479502,-0.007555727
0.9777636,-0.1793057,-0.2852594,0.002086227,0.01239251,-0.00404227,-0.003013147,-0.002663609,-0.006336804
0.9798727,-0.1765981,-0.289972,0.004199365,0.01497679,-0.008619684,-0.007565484,0.001858771,-0.008236455
0.9783842,-0.17709,-0.2896224,0.002713361,0.0143578,-0.008139433,-0.01104981,0.005233446,-0.007701375
0.9773084,-0.179526,-0.2883712,0.001638474,0.0117907,-0.006761704,-0.01539567,0.009667465,-0.008851797
0.9799345,-0.1808951,-0.2828928,0.004263821,0.01028664,-0.00116062,-0.01701259,0.007409454,-0.006363439
0.9809469,-0.180929,-0.2754884,0.005273845,0.01011391,0.006362811,-0.01338245,0.006372277,-0.001306046
0.9796944,-0.1802777,-0.2775592,0.004017211,0.01062264,0.004407121,-0.01472608,0.01438458,-0.003386229
0.9788197,-0.1804092,-0.2838839,0.003136557,0.01034505,-0.001806569,-0.01345925,0.02281064,-0.005178974
0.9800785,-0.1809576,-0.2855408,0.004387493,0.009646931,-0.003356588,-0.01135829,0.02383308,-0.004315037
0.9809486,-0.1802238,-0.2838419,0.005247693,0.01022781,-0.001554892,-0.01371357,0.02384842,-0.00532806
0.9792794,-0.1797163,-0.2807462,0.003566748,0.01057912,0.001639666,-0.01354541,0.02525511,-0.008293993
0.9781115,-0.1761371,-0.2793524,0.002384966,0.01399906,0.003128345,-0.01863816,0.0230485,-0.01177282
0.97845,-0.1710015,-0.2810733,0.002707588,0.01897222,0.00149831,-0.02517824,0.02290945,-0.01303018
0.9794076,-0.1717022,-0.2809882,0.003647252,0.01810597,0.001670233,-0.02387743,0.02562422,-0.01534139
0.9790908,-0.1732394,-0.2804474,0.003310701,0.01639963,0.002293681,-0.02220502,0.03131128,-0.01874533
0.977017,-0.1734094,-0.284334,0.001215118,0.01605691,-0.001514316,-0.02154994,0.0429774,-0.02012815
0.9761768,-0.1773963,-0.2854251,0.0003513435,0.01189344,-0.002530862,-0.02050482,0.04720217,-0.02090545
0.9771585,-0.1806451,-0.282725,0.001307827,0.008464485,0.000239827,-0.01933001,0.04045822,-0.02129024
0.9780718,-0.1788004,-0.2818598,0.002194371,0.01012556,0.001171957,-0.01936055,0.03686494,-0.02134424
0.9769834,-0.1766993,-0.2783438,0.001077728,0.01203977,0.004751063,-0.01901366,0.03735278,-0.01834751
0.9757399,-0.1764025,-0.2742964,-0.0001953094,0.01214659,0.008857823,-0.01272754,0.03267202,-0.01536689
0.9767561,-0.1760637,-0.2785554,0.0007901596,0.01229247,0.004654243,-0.007143292,0.02510959,-0.01708412
0.9770894,-0.1763719,-0.2847311,0.001091643,0.01178853,-0.001470146,-0.008644071,0.02298253,-0.01477251
0.9758055,-0.175482,-0.2803535,-0.0002249787,0.01248006,0.002954605,-0.01205494,0.02109466,-0.008233371
0.9738872,-0.1734895,-0.2723003,-0.002176675,0.01427156,0.01105094,-0.01395721,0.01238282,-0.003890025
0.9737249,-0.1735173,-0.268551,-0.002373006,0.01404021,0.0148391,-0.01611416,0.001033497,-0.001345407
0.9784465,-0.1736386,-0.2678766,0.002314168,0.01371285,0.01554768,-0.01571808,-0.00662271,-0.0001400225
0.9822573,-0.1732139,-0.2709003,0.006090341,0.01392893,0.0125531,-0.01231243,-0.008669271,0.003092416
0.9820949,-0.1719425,-0.2703916,0.005892923,0.01498936,0.01308529,-0.01242868,-0.008969131,0.002185359
0.984588,-0.1701239,-0.2725905,0.008350557,0.01659444,0.01090388,-0.008284968,-0.00692413,-0.00400159
0.9891942,-0.1712821,-0.2793001,0.01292052,0.01522019,0.004205761,0.00117334,-0.0009460131,-0.006656265
0.9896474,-0.1740824,-0.2751849,0.0133363,0.01220143,0.008326353,0.003662906,0.0052716,-0.01546529
0.9878915,-0.1764208,-0.270685,0.01154135,0.009642105,0.01282545,0.006050536,0.009877412,-0.026569
0.9869384,-0.176696,-0.2697571,0.01054723,0.00914371,0.01374642,0.01016629,0.009455379,-0.02605209
0.9839639,-0.1730974,-0.2688135,0.007529305,0.01251712,0.01467675,0.008706803,0.006715369,-0.02521936
0.9820493,-0.1676856,-0.2725874,0.005568895,0.01770194,0.01088303,0.00602053,0.001466761,-0.02681212
0.9825825,-0.163908,-0.2716468,0.006053658,0.02125068,0.0117971,0.001682815,-0.007593985,-0.02260238
0.9799745,-0.1659823,-0.2716381,0.003394777,0.01894552,0.01177246,-0.006293765,-0.006613921,-0.01627797
0.9781556,-0.1699329,-0.2745264,0.00152249,0.01476175,0.008844132,-0.01020997,-0.006592198,-0.007287608
0.9795082,-0.1694298,-0.2724398,0.002819473,0.01502941,0.01088399,-0.007917743,-0.02162342,0.002890437
0.9792898,-0.1692781,-0.2720232,0.002543408,0.01494335,0.01124719,-0.008851884,-0.02964891,0.001285151
0.9791116,-0.1694453,-0.2686006,0.002305689,0.01453615,0.01460996,-0.01223482,-0.02544091,-0.003358353
0.9805619,-0.1672461,-0.2639237,0.003694668,0.01649307,0.01922031,-0.01280872,-0.02341923,0.001138888
0.9829458,-0.1663822,-0.2659512,0.006015657,0.01711252,0.01711942,-0.01551839,-0.02595123,0.001033475
0.9857356,-0.1664602,-0.2704714,0.008741047,0.01678783,0.01251891,-0.01699315,-0.02594445,0.0004250891
0.9866981,-0.1668389,-0.2738754,0.00963741,0.0161602,0.009027656,-0.01584951,-0.02008992,0.004118899
0.9860086,-0.1662655,-0.2731046,0.008879967,0.01648241,0.009704247,-0.01705267,-0.01507158,0.001023416
0.9859153,-0.163634,-0.2736838,0.008716823,0.01886039,0.009024285,-0.01770184,-0.008137413,-0.00153977
0.9856,-0.1620081,-0.274364,0.008329555,0.02023047,0.008236971,-0.02109494,-0.001276798,-0.001106278
0.9824762,-0.1620715,-0.2717691,0.005131623,0.01990887,0.01071885,-0.02603657,-0.005921067,0.001959588
0.9793897,-0.1627956,-0.2708202,0.001968881,0.0189239,0.01154885,-0.02455778,-0.01498151,0.005782349
0.9802579,-0.1616077,-0.2669564,0.002758889,0.0198482,0.01528813,-0.02388149,-0.01931465,0.004741612
0.9811091,-0.1605866,-0.2665672,0.003530102,0.02060298,0.0155473,-0.02715102,-0.02352144,0.007786206
0.9792788,-0.1624156,-0.2679204,0.001618273,0.01850479,0.01405845,-0.0278091,-0.0322939,0.01420769
0.9787736,-0.1628748,-0.2626341,0.00103026,0.01777342,0.01920354,-0.02872272,-0.04038635,0.02405632
0.9794432,-0.1633226,-0.2635028,0.001615885,0.01705055,0.01818796,-0.03020571,-0.04557798,0.03143307
0.9792208,-0.1642636,-0.2651487,0.001308667,0.01583154,0.01638948,-0.02975366,-0.05165928,0.02916402
0.9800553,-0.1641453,-0.2642382,0.00205759,0.01566918,0.0171415,-0.03191055,-0.05159753,0.0305315
0.9814627,-0.1657071,-0.2696129,0.003379055,0.01382411,0.01160258,-0.03532308,-0.04552414,0.02705814
0.982666,-0.1677034,-0.2739907,0.004496083,0.01154226,0.00705487,-0.03838706,-0.04306178,0.0215376
0.983488,-0.1699343,-0.2767833,0.005231535,0.009023646,0.004087113,-0.0440428,-0.03909911,0.02379145
0.9838592,-0.173622,-0.2771066,0.005515893,0.005046627,0.003583894,-0.04847882,-0.03125467,0.01710391
0.987159,-0.1772153,-0.2767375,0.008728586,0.001162938,0.00376897,-0.048147,-0.02427791,0.007930762
0.9889364,-0.1784406,-0.28318,0.01041842,-0.0003532609,-0.002860966,-0.04453005,-0.01054316,0.00130227
0.9856801,-0.1774581,-0.2874468,0.007074012,0.0003389075,-0.007317937,-0.0381166,0.008406604,-0.005565949
0.9843764,-0.176453,-0.2838522,0.005681391,0.001054667,-0.003915211,-0.02640921,0.02043679,-0.006314183
0.9806043,-0.1743928,-0.279768,0.001819633,0.00282743,-2.374827e-05,-0.01773163,0.02439359,-0.007048542
0.9738999,-0.1725718,-0.2796482,-0.004974997,0.004363319,-9.694428e-05,-0.02083472,0.02030065,-0.008192095
0.9761797,-0.1718729,-0.2770235,-0.002785769,0.004779895,0.002335238,-0.0215394,0.01731761,-0.00773679
0.9794929,-0.1704979,-0.2728914,0.0004368938,0.005875617,0.006275597,-0.01895957,0.02113735,-0.008720129
0.9767676,-0.1703139,-0.2763864,-0.002378443,0.005783893,0.002589964,-0.02170517,0.01999924,-0.01041963
0.9761924,-0.1703168,-0.2807675,-0.003042927,0.005508749,-0.00198044,-0.02158011,0.01606263,-0.008666262
0.9767067,-0.1690815,-0.2848444,-0.002616907,0.006475595,-0.006244951,-0.02174087,0.01444345,-0.002406931
0.9780409,-0.1697219,-0.2877533,-0.001369615,0.005570752,-0.009339033,-0.02100542,0.01529725,0.001510991
0.9800753,-0.1725273,-0.282497,0.0005794771,0.002504965,-0.004264816,-0.01466845,0.01916617,0.0004328229
0.9790073,-0.1738876,-0.2799758,-0.0005721007,0.00088868,-0.001922171,-0.01024556,0.01819954,-0.003238125
0.9787293,-0.1720379,-0.2791545,-0.0009319113,0.002486892,-0.001275323,-0.007109585,0.01537167,-0.004459311
0.9787876,-0.1699302,-0.2745582,-0.0009533797,0.004347883,0.003150813,-0.006386461,0.01170898,-0.004262669
0.9781564,-0.1706892,-0.2736132,-0.001662275,0.003347317,0.003929993,-0.00182913,0.003827451,-0.004391857
0.9796197,-0.1714559,-0.2710658,-0.0002745048,0.002344005,0.006315965,0.008320337,0.001564628,-0.002094435
0.9803783,-0.1703718,-0.2690035,0.0004109226,0.003196819,0.008220984,0.007784895,0.003135962,-0.003095696
0.9799066,-0.1701458,-0.2705505,-0.0001315537,0.003196901,0.0065208,0.00433836,0.002234973,-0.003020534
0.9781524,-0.1675871,-0.2645936,-0.001954232,0.005534926,0.01232816,0.005861817,0.001149393,0.002037379
0.9766628,-0.1642972,-0.2596323,-0.003509868,0.008609637,0.01714328,0.005377934,0.001493627,0.006722538
0.9822815,-0.1679902,-0.264744,0.002045367,0.004706602,0.01188826,0.009262542,0.005116007,0.01023959
0.9884364,-0.171964,-0.2667973,0.008139313,0.0005280233,0.009693809,0.01431879,0.007598559,0.007158465
0.9846337,-0.1702802,-0.2662386,0.004278025,0.002012028,0.01011336,0.01584188,0.007162449,0.004423341
0.9808926,-0.1677713,-0.2697804,0.0004803679,0.004326456,0.006434036,0.01994698,0.007017662,0.006303842
0.9824455,-0.165802,-0.2712052,0.001978545,0.006106504,0.004873154,0.02358004,0.00622526,0.004304827
0.9805021,-0.1644853,-0.2717062,-1.770329e-05,0.007238935,0.004237592,0.02753761,0.002255627,0.001744936
0.9805649,-0.1638576,-0.2704739,-6.004615e-06,0.007687364,0.005336703,0.03001139,-0.008867022,-0.001476524
0.9842536,-0.1635252,-0.2661727,0.003633364,0.007845077,0.009506191,0.02606942,-0.01936005,-0.003122402
0.9832392,-0.1639126,-0.2660895,0.002571424,0.007287339,0.009459015,0.02452168,-0.01750464,-0.0003114542
0.9829614,-0.1634759,-0.2701444,0.00224758,0.007557914,0.005274888,0.02419169,-0.01238478,0.001597026
0.9835401,-0.1633725,-0.2754652,0.002781679,0.007498986,-0.0001740937,0.02216709,-0.01223753,0.004485748
0.981058,-0.1646752,-0.2745302,0.0002563924,0.006037784,0.0006339106,0.01945599,-0.01141766,0.00503648
0.9804188,-0.1646912,-0.2704641,-0.0004247562,0.005866699,0.004574393,0.01431388,-0.01518018,0.003650015
0.981485,-0.1649728,-0.2723294,0.0006007364,0.005433466,0.002584885,0.01819108,-0.02442616,0.00534708
0.9832408,-0.1653712,-0.2702164,0.002317241,0.004886639,0.004575332,0.02221751,-0.02596485,0.004950752
0.9838525,-0.1645376,-0.2680289,0.002890806,0.005574966,0.006641767,0.01702676,-0.02493047,0.006332465
0.9828954,-0.1657219,-0.2691191,0.001896695,0.004248394,0.005432152,0.01800321,-0.02723067,0.01014885
0.9835397,-0.1662762,-0.2677368,0.002505067,0.003554819,0.006696323,0.0189061,-0.02744153,0.01009159
0.9842606,-0.1679351,-0.2703014,0.003190943,0.001759589,0.004015046,0.0172885,-0.02621305,0.009560841
0.9875907,-0.1718673,-0.2700973,0.006486744,-0.002305917,0.004103688,0.01754172,-0.01950387,0.007179961
0.991023,-0.1701082,-0.2691292,0.009885435,-0.0006770861,0.004957611,0.01323648,-0.01398744,0.003052572
0.9852296,-0.1686248,-0.2726087,0.004058558,0.000679449,0.001365264,0.009203274,-0.01947337,0.002885159
0.9765597,-0.1686815,-0.2723503,-0.004644707,0.0004992443,0.001512145,0.004973172,-0.022999,0.007142532
0.9752291,-0.1653296,-0.2748656,-0.006008611,0.003731093,-0.001113145,0.004807181,-0.02010955,0.01285513
0.9780195,-0.1661683,-0.2771335,-0.003251057,0.002775747,-0.00348936,0.009290521,-0.01841865,0.01232026
0.979613,-0.1658387,-0.2756126,-0.00168975,0.002992092,-0.002074914,0.007252747,-0.0157518,0.006041629
0.9818712,-0.1629364,-0.2767728,0.0005371574,0.005784439,-0.003339324,0.006806445,-0.01276723,0.003092487
0.9843119,-0.1671567,-0.2753904,0.002947358,0.001457193,-0.002058599,0.007665007,-0.01338672,0.005718081
0.9829399,-0.1719022,-0.2740438,0.001545738,-0.003392059,-0.0008109529,0.00550275,-0.01279994,0.01119943
0.9801004,-0.1746149,-0.2736416,-0.001322524,-0.006205499,-0.0005047689,0.007503703,-0.01167111,0.0142153
0.9785356,-0.1774855,-0.2714046,-0.002915337,-0.009173344,0.001639065,0.01166234,-0.01585541,0.01537926
0.9777627,-0.1759088,-0.2717946,-0.003715292,-0.007690087,0.001158911,0.01921502,-0.02087212,0.01788751
0.9770258,-0.1721564,-0.2708452,-0.00447823,-0.004026867,0.002021053,0.02748273,-0.02585688,0.01889583
0.9762806,-0.1701323,-0.2699944,-0.00524811,-0.002087564,0.002787546,0.03207045,-0.03118313,0.01907014
0.9784143,-0.170436,-0.2765104,-0.0031376,-0.002471566,-0.003810064,0.03456037,-0.03043743,0.01888469
0.9819007,-0.1714051,-0.2831598,0.0003272114,-0.003516361,-0.01053804,0.03164816,-0.02658724,0.01840666
0.9825684,-0.1708397,-0.2797341,0.0009750915,-0.00302215,-0.007187834,0.02851169,-0.02431127,0.01922072
0.9826845,-0.1714924,-0.2716835,0.001072858,-0.003741412,0.0007909418,0.02805029,-0.02424605,0.01821253
0.9835752,-0.1728585,-0.2683222,0.00194674,-0.005169385,0.004084066,0.03059737,-0.03078975,0.01375411
0.9831118,-0.1724567,-0.2692379,0.001467837,-0.004824826,0.003103715,0.0378324,-0.03955632,0.009042452
0.9813761,-0.174149,-0.2730994,-0.0002821035,-0.006569566,-0.0008191615,0.04135576,-0.03960346,0.01062332
0.9800477,-0.1776245,-0.2754267,-0.001623633,-0.01009262,-0.003204669,0.04376042,-0.03455608,0.0169294
0.9805921,-0.1781657,-0.2755033,-0.001091286,-0.01067628,-0.003336299,0.04479157,-0.03121789,0.01973203
0.9817819,-0.1765398,-0.2795885,8.760117e-05,-0.00908743,-0.007473217,0.04177617,-0.02743013,0.0199513
0.981677,-0.1752805,-0.2843056,-2.705705e-05,-0.007859784,-0.01223864,0.04390704,-0.02914651,0.01870884
0.9802326,-0.1760128,-0.2832409,-0.001480264,-0.008617929,-0.01121831,0.04416119,-0.03887465,0.01760674
0.9782055,-0.178527,-0.2758801,-0.003514959,-0.01115224,-0.003897637,0.04228969,-0.04475506,0.01733931
0.9771281,-0.1805465,-0.2725717,-0.004598923,-0.01318593,-0.0006250651,0.04473002,-0.04437957,0.01523184
0.9763601,-0.1827267,-0.2761405,-0.005372184,-0.01537411,-0.004225248,0.04527388,-0.04449987,0.01706051
0.9762375,-0.1854971,-0.2740091,-0.005498631,-0.01814592,-0.002121007,0.04668029,-0.04490392,0.0196733
0.9785385,-0.1852264,-0.2715629,-0.003199788,-0.01786986,0.0003021907,0.04429598,-0.04334419,0.01788981
0.9797749,-0.1829691,-0.2728211,-0.0019639,-0.01559993,-0.0009750471,0.03814711,-0.04486394,0.01761296
0.9790243,-0.183848,-0.272608,-0.002713224,-0.01645862,-0.0007771815,0.0384398,-0.04814092,0.01527686
0.9794725,-0.1862789,-0.2775936,-0.002262041,-0.01886145,-0.00577436,0.03920279,-0.04595259,0.01121231
0.9811762,-0.1879266,-0.284294,-0.0005535987,-0.02047304,-0.01248279,0.04367961,-0.04335756,0.01038414
0.983373,-0.1879575,-0.2850115,0.00164959,-0.02045941,-0.01320452,0.05154774,-0.03915862,0.007866011
0.9838425,-0.1860783,-0.2801196,0.002126934,-0.01852699,-0.008312706,0.05057839,-0.02989017,0.004699103
0.9824262,-0.1875834,-0.2766734,0.000719769,-0.01996986,-0.004862216,0.0515367,-0.02391388,0.002273265
0.9805571,-0.1916754,-0.2823799,-0.001139116,-0.02399055,-0.01056002,0.0581164,-0.01957533,-0.003436176
0.977398,-0.1938186,-0.2860007,-0.004286881,-0.02605293,-0.01416758,0.05729476,-0.01406998,-0.007004037
0.9761061,-0.1936269,-0.2800144,-0.005566559,-0.02577067,-0.008163357,0.05638402,-0.01052506,-0.006549913
0.9767785,-0.191867,-0.2767716,-0.004880669,-0.02391014,-0.004897729,0.06029803,-0.009109872,-0.01350736
0.9761218,-0.1915366,-0.2831983,-0.005522531,-0.02346857,-0.01129675,0.05926433,-0.008200643,-0.02291349
0.9765309,-0.1901445,-0.2887261,-0.005097157,-0.02195476,-0.0167919,0.05772619,-0.0050795,-0.02196105
0.9775527,-0.1889783,-0.2860853,-0.004057608,-0.02065627,-0.01411337,0.05800543,-0.005852943,-0.02203031
0.9777439,-0.1894933,-0.2859335,-0.003846917,-0.02102823,-0.01391836,0.05596106,-0.01246973,-0.02679113
0.9777019,-0.1865878,-0.2884444,-0.003867834,-0.01796927,-0.01638037,0.0557782,-0.01816772,-0.0248966
0.9758008,-0.1867491,-0.2854394,-0.005746092,-0.01796679,-0.01332065,0.05223743,-0.02330311,-0.02217317
0.9745743,-0.1881328,-0.2837439,-0.006947966,-0.01917658,-0.01156437,0.04804392,-0.02627741,-0.02367115
0.9759217,-0.186538,-0.2854561,-0.005574087,-0.01739795,-0.01320973,0.05405516,-0.02424583,-0.02411707
0.9759275,-0.18869,-0.2865521,-0.005539838,-0.01935661,-0.01423275,0.05772108,-0.02066769,-0.02270143
0.9719579,-0.1879916,-0.2878868,-0.009478819,-0.01845563,-0.01548819,0.05096446,-0.01961516,-0.02012041
0.9683639,-0.1862381,-0.2878224,-0.01303996,-0.01649049,-0.0153383,0.04218543,-0.02153338,-0.01740739
0.972115,-0.1884609,-0.2868762,-0.009253506,-0.01849291,-0.01430016,0.03446748,-0.02310794,-0.01569066
0.9772943,-0.187285,-0.2867965,-0.004036055,-0.01708839,-0.0141221,0.02751667,-0.02030439,-0.01422089
0.9763744,-0.1865601,-0.2859401,-0.004914956,-0.01612664,-0.01316097,0.01968605,-0.01559658,-0.01114477
0.9747307,-0.1851029,-0.2861245,-0.006514783,-0.01442507,-0.01323418,0.01129226,-0.01515299,-0.00712669
0.9733011,-0.1802158,-0.2883009,-0.007897785,-0.009286361,-0.01529308,0.006658902,-0.01433949,-0.003324359
0.9720733,-0.1804199,-0.2894521,-0.009076198,-0.00923221,-0.01632057,0.007991345,-0.01001547,-0.0008382324
0.9758332,-0.183766,-0.2902366,-0.005264018,-0.01231417,-0.01697498,0.009503337,-0.005463204,-0.004064505
0.9792683,-0.1853451,-0.2921778,-0.001773661,-0.01362368,-0.0187798,0.002842817,0.0006974042,-0.006741548
0.9778133,-0.1844985,-0.2931508,-0.003170797,-0.01250267,-0.01961003,-0.007690175,0.00547056,-0.004475565
0.9765786,-0.1814795,-0.2905529,-0.004345039,-0.009204819,-0.01686272,-0.01714289,0.006607032,-0.00442547
0.9753854,-0.1794729,-0.2874098,-0.005475528,-0.006915525,-0.01356375,-0.02694534,0.004224967,-0.002150835
0.9720729,-0.1776836,-0.2879667,-0.008722847,-0.004840306,-0.01395831,-0.03205008,0.0006424497,0.003154699
0.9722205,-0.1763836,-0.2879162,-0.008507914,-0.003251754,-0.01373907,-0.03251347,-0.0006186765,0.006088258
0.974727,-0.1794727,-0.2869564,-0.00593161,-0.006050528,-0.01260461,-0.03167296,-0.006303449,0.007925303
0.9734704,-0.1854929,-0.2893417,-0.007116146,-0.0117793,-0.01480928,-0.02944389,-0.01100141,0.006827594
0.9731028,-0.1883832,-0.2919153,-0.007409222,-0.01437734,-0.01719667,-0.029287,-0.005513473,0.005964551
0.9745916,-0.1877038,-0.2926985,-0.005843513,-0.01340514,-0.01778802,-0.0287949,-0.001005982,0.006925344
0.975206,-0.1883967,-0.2885885,-0.005149964,-0.01380492,-0.01348077,-0.02806788,-0.001113371,0.006999017
0.9778349,-0.1875046,-0.2813067,-0.002439726,-0.01261944,-0.005996381,-0.02976972,-0.001678517,0.008442129
0.9785274,-0.1836394,-0.2809266,-0.001663942,-0.00846079,-0.005408831,-0.02966656,-0.005093446,0.007461235
0.9769411,-0.1839824,-0.282876,-0.003165114,-0.008510411,-0.007146431,-0.02982095,-0.008510579,0.002633834
0.9771462,-0.1861208,-0.2819009,-0.002873336,-0.010356,-0.005955782,-0.02893052,-0.007277585,0.002609697
0.9762135,-0.1857373,-0.2842266,-0.003718021,-0.009680419,-0.008062703,-0.02503342,-0.003646237,0.008048581
0.9760018,-0.1863428,-0.2883755,-0.003840615,-0.009994893,-0.01199012,-0.02355916,-0.002283216,0.009110325
0.9768808,-0.1867347,-0.2905506,-0.002871437,-0.01009702,-0.01394117,-0.02203698,-0.004314619,0.004222366
0.9759358,-0.1869984,-0.2906256,-0.003725332,-0.01007229,-0.01378976,-0.02084331,-0.007544834,0.000528873
0.9754809,-0.1884054,-0.2897368,-0.004088436,-0.01119237,-0.01267242,-0.02102774,-0.008747024,0.0009776266
0.9743977,-0.1871969,-0.2884515,-0.005079208,-0.00969876,-0.01115634,-0.01871149,-0.007660681,0.0005499851
0.9719686,-0.1865002,-0.2833411,-0.007415245,-0.008718658,-0.005813224,-0.01765544,-0.005889129,-0.005224352
0.9707453,-0.1856127,-0.2795096,-0.008544881,-0.007549877,-0.001747497,-0.01576031,-0.004159927,-0.008031505
0.9721583,-0.1824696,-0.28477,-0.007037514,-0.004127615,-0.006772502,-0.009323077,-0.005565265,-0.006208575
0.9746699,-0.1857669,-0.2892056,-0.004430714,-0.007148352,-0.01097212,-0.004586259,-0.005518328,-0.005544257
0.973756,-0.1888014,-0.2837899,-0.005248754,-0.009908906,-0.005320064,-0.001401589,0.0005563204,-0.003868462
0.9732118,-0.1842353,-0.2795918,-0.005696271,-0.005071844,-0.0008856412,0.002201452,0.002368369,-0.007083061
0.9765848,-0.1826154,-0.2816213,-0.002226005,-0.003184049,-0.002679242,0.001717354,-0.001695992,-0.01127849
0.9794273,-0.1852744,-0.2808283,0.0007142877,-0.005578444,-0.001651229,-0.0001721171,-0.004056821,-0.006163058
0.9809766,-0.1867589,-0.2798446,0.002361669,-0.006801914,-0.0004339618,0.001495648,-0.00318577,-0.002147098
0.979129,-0.1847287,-0.2828423,0.0006121083,-0.004514426,-0.003199924,0.001980804,-0.001881221,-0.003147381
0.976245,-0.1810472,-0.2858339,-0.002174234,-0.0005794832,-0.005962055,0.0008569613,-0.005530738,-0.004098013
0.9772187,-0.1794242,-0.2894611,-0.001103502,0.001292731,-0.009362162,0.001579578,-0.007319288,-0.004777982
0.9765201,-0.1798522,-0.2905569,-0.001705789,0.001109353,-0.01023348,-0.0004725854,-0.002196819,-0.004531262
0.9753162,-0.182865,-0.2890436,-0.002814334,-0.001663671,-0.008498181,-0.007057059,0.001136278,-0.004908641
0.9752487,-0.1836612,-0.2905009,-0.002787359,-0.002225379,-0.009735804,-0.01375274,0.001120124,-0.006142456
0.9728325,-0.1802088,-0.2905618,-0.005110024,0.001456137,-0.00957957,-0.01362293,0.001253215,-0.006117566
0.9734023,-0.1789626,-0.2892005,-0.004447789,0.002925844,-0.008003297,-0.009088085,0.004492057,-0.004242943
0.9752992,-0.1818046,-0.2903444,-0.002459372,0.0003014655,-0.008934528,-0.01039757,0.008222612,-0.004048691
0.9747123,-0.1855105,-0.2904747,-0.002955632,-0.003193005,-0.008854501,-0.01116708,0.008273761,-0.006287683
0.9755665,-0.184635,-0.2891572,-0.002011785,-0.002112274,-0.007328788,-0.01032075,0.007268575,-0.006618776
0.9770082,-0.1812644,-0.2885711,-0.0004814294,0.001457331,-0.006536743,-0.01374906,0.006281392,-0.005624789
0.9787717,-0.180273,-0.2889362,0.001369522,0.002641513,-0.006698085,-0.01284854,0.006461699,-0.00256684
0.9790811,-0.1801336,-0.2890205,0.001765054,0.002967118,-0.006580951,-0.01194671,0.005662482,0.001753305
0.9768103,-0.1812861,-0.2883593,-0.0004210332,0.001994227,-0.00572068,-0.01382401,0.004337316,0.0008495464
0.9767902,-0.1824291,-0.2872239,-0.0003581888,0.001024007,-0.004388571,-0.0100566,0.005633534,-0.003649326
0.9766565,-0.183421,-0.2855344,-0.0004106201,0.0001981747,-0.002504927,-0.006672954,0.005915025,-0.006378689
0.975417,-0.183869,-0.2858412,-0.00157079,-9.062573e-05,-0.002620224,-0.006024458,0.007115617,-0.005099992
0.9750343,-0.1817671,-0.2861029,-0.001875948,0.002163703,-0.002693263,-0.006158057,0.008438251,-0.0005401975
0.9730408,-0.1817924,-0.2832853,-0.003793725,0.002283991,0.0003099099,-0.006398881,0.007914308,0.001921708
0.9731017,-0.1820763,-0.2820217,-0.003658843,0.00213902,0.001755813,-0.003169009,0.008134058,0.0001758206
0.9742363,-0.1806319,-0.2834928,-0.002452036,0.003715489,0.0004634524,-0.001288926,0.007439297,-0.002000595
0.9720632,-0.1801235,-0.2845382,-0.004554525,0.004349191,-0.0004071438,-0.002873472,0.008506184,-0.003468398
0.9710308,-0.1781357,-0.2865365,-0.005517734,0.006455406,-0.002234602,-0.004617553,0.009988787,-0.006780684
0.9715348,-0.1779991,-0.2899454,-0.004945762,0.006703401,-0.005476834,-0.005184783,0.01038845,-0.007945053
0.9742538,-0.1794686,-0.2894444,-0.00216002,0.005338317,-0.004813291,-0.004341655,0.01216119,-0.006015459
0.9787543,-0.1777825,-0.2859629,0.002406151,0.007121611,-0.001173235,-0.003807687,0.01185008,-0.009476539
0.9783036,-0.1777093,-0.2832891,0.002019933,0.007284739,0.001655091,-0.002876958,0.01287038,-0.01104868
0.9771342,-0.1817968,-0.2797128,0.0009136305,0.003279875,0.00538177,-0.002883789,0.01640686,-0.005194784
0.9791439,-0.1845874,-0.2816682,0.00298494,0.000564609,0.003572234,-0.004340958,0.01807166,-0.003341486
0.9794219,-0.1831319,-0.287604,0.003322922,0.002088413,-0.002222347,-0.004304454,0.01738555,-0.002528499
0.9786623,-0.1815673,-0.2878432,0.002621297,0.003714471,-0.002325167,-0.004196742,0.01260843,-0.00183929
0.9776403,-0.1803241,-0.2889677,0.001655382,0.005012422,-0.00331791,-0.004031677,0.008216668,-0.006055412
0.9764914,-0.1783614,-0.2894578,0.0005603707,0.007023346,-0.003680931,-0.002310907,0.008637686,-0.006924506
0.9769937,-0.1789094,-0.2860322,0.001114285,0.006517137,-0.0001326311,-0.0006940513,0.009784187,-0.005482182
0.9766278,-0.1787475,-0.2859325,0.0007978201,0.006714214,8.541666e-05,-0.0008760393,0.009367194,-0.004866729
0.9756559,-0.177651,-0.285154,-0.0001268375,0.007839528,0.0009778885,-0.0007961832,0.01044773,-0.004761309
0.9756095,-0.180468,-0.2842487,-0.0001283242,0.005044801,0.001992759,0.001401784,0.01244582,-0.007013973
0.9741199,-0.1828954,-0.2843951,-0.001575118,0.002633379,0.001951462,0.001217021,0.01184124,-0.006997152
0.9741562,-0.1810918,-0.2808191,-0.001498147,0.004446881,0.005628003,-0.00244536,0.01197671,-0.006053269
0.977985,-0.1804597,-0.2777397,0.002369265,0.005082903,0.008803354,-0.00382543,0.01181248,-0.00627675
0.9811196,-0.1844154,-0.276081,0.005540505,0.00112539,0.010553,0.001413449,0.009268068,-0.009069515
0.9825175,-0.1870253,-0.2754823,0.006972885,-0.001491744,0.01123738,0.00659599,0.009645837,-0.01332091
0.9817078,-0.1831654,-0.2782065,0.006195236,0.002355901,0.008593048,2.840098e-06,0.01434045,-0.008930759
0.9786989,-0.1759442,-0.2819582,0.003215833,0.009560044,0.004915239,-0.008028766,0.01975233,-0.003137316
0.9772631,-0.171852,-0.282194,0.00180668,0.01363052,0.004747156,-0.006095986,0.01753973,-0.005484012
0.9773744,-0.1736834,-0.2809048,0.001941891,0.01177253,0.006097956,-0.005306753,0.01231508,-0.009025919
0.9773457,-0.1763673,-0.2825498,0.001934462,0.009057181,0.004508403,-0.005479744,0.0130909,-0.008887015
0.9770484,-0.1769275,-0.2811301,0.00165565,0.008460273,0.005977374,-0.002525599,0.01359617,-0.006416657
0.9776432,-0.1791504,-0.2789592,0.002266238,0.006195687,0.008191468,-0.004237578,0.0193577,-0.00692268
0.9782232,-0.1814522,-0.279242,0.00285947,0.003847269,0.007945653,-0.005427109,0.02828582,-0.007929769
0.9764612,-0.1802888,-0.2777177,0.001108215,0.004959238,0.009500823,-0.002712764,0.02546041,-0.00851123
0.9762267,-0.1781788,-0.2800169,0.0008818427,0.007013324,0.007226168,-0.003090119,0.02064354,-0.01096492
0.9776083,-0.1765944,-0.2798006,0.002269216,0.008537425,0.007460738,-0.00333045,0.02018216,-0.007376282
0.9775934,-0.1758985,-0.2748406,0.00225767,0.009168756,0.01243256,-0.001722285,0.01770191,-0.003241529
0.9771632,-0.1769248,-0.2748653,0.001828551,0.008073649,0.01241341,-0.001238564,0.01733523,-0.005064239
0.9759059,-0.1782996,-0.2739831,0.0005700906,0.006625875,0.01329445,-0.000743342,0.01992795,-0.006462116
0.9765736,-0.1791315,-0.2734745,0.001234618,0.005717051,0.0137952,-0.001115683,0.01969515,-0.00673072
0.9786868,-0.1777478,-0.276948,0.003342494,0.007019876,0.01030688,-0.002826938,0.01836687,-0.003078511
0.979252,-0.1750476,-0.2818648,0.003900396,0.009635516,0.005368299,-0.009342594,0.02038383,0.0002157391
0.9793877,-0.1741578,-0.2868232,0.004026905,0.01043717,0.0003814116,-0.02122939,0.02655118,-0.0006347426
0.9779689,-0.1718888,-0.2846223,0.002596812,0.0126143,0.002547241,-0.02470328,0.03355854,0.003310359
0.9775946,-0.1700902,-0.2801723,0.002209144,0.0143173,0.006956319,-0.01585967,0.03058057,0.005672416
0.9789613,-0.1742163,-0.2751838,0.003560611,0.01009175,0.01189813,-0.005653846,0.02110868,0.002695905
0.979211,-0.1780122,-0.2672101,0.003793058,0.006192497,0.01981948,0.0004180349,0.0171762,0.003039765
0.9792328,-0.177663,-0.2682108,0.003795725,0.00643461,0.01876047,-0.0005859575,0.01181964,0.003144592
0.9782472,-0.1760031,-0.2707116,0.002789073,0.007983813,0.01619518,-0.006317128,0.002412354,0.002564912
0.9787089,-0.1742807,-0.2678039,0.003227867,0.009592149,0.0190318,-0.009407753,-0.005644608,0.003319548
0.9815711,-0.1750691,-0.2723193,0.006065154,0.008686386,0.01443862,-0.01076343,-0.005949814,0.003592017
0.9833654,-0.1765578,-0.2783214,0.007832772,0.007077106,0.008351809,-0.01256796,0.001038746,0.006370814
0.9837267,-0.1771518,-0.2795175,0.008165199,0.006359614,0.007064273,-0.01301676,0.004100385,0.008081038
0.9825383,-0.1781034,-0.2802644,0.006945742,0.005281611,0.006219476,-0.01281661,0.01291033,0.004916993
0.9806343,-0.1769061,-0.2802404,0.005008385,0.006350046,0.006139593,-0.0130767,0.02005939,0.0006637335
0.978576,-0.175778,-0.2823153,0.00291435,0.007346832,0.003955113,-0.01281463,0.007817737,0.0001480083
0.9785616,-0.1766306,-0.2818911,0.002861847,0.006360883,0.004264588,-0.01130974,-0.0002496,0.002925022
0.9799932,-0.1764245,-0.2790907,0.004253033,0.006431618,0.006945533,-0.009871063,0.001389347,0.002342276
0.9788127,-0.1758953,-0.2811236,0.003030091,0.006823623,0.004788735,-0.009403355,0.001981795,0.001175955
0.978939,-0.1747269,-0.2801607,0.003111832,0.007853155,0.005623816,-0.009679651,0.003541902,0.002019808
0.9798838,-0.1733501,-0.2762164,0.004010149,0.009089601,0.009436628,-0.009824398,0.002987972,-0.0004341565
0.979565,-0.1752067,-0.2746413,0.003643113,0.007091155,0.01087683,-0.007908375,0.004932671,-0.003784177
0.9810469,-0.1773596,-0.2741855,0.005074893,0.004795127,0.01119448,-0.005118679,0.005041432,-0.006827719
0.9809412,-0.1765524,-0.2754369,0.004917299,0.005457982,0.009801593,-0.002781128,-0.001999225,-0.008977666
0.9809322,-0.1768104,-0.2731567,0.004854672,0.005054657,0.01193723,-0.001852732,-0.006339872,-0.005782737
0.9823062,-0.1779294,-0.2714072,0.006173331,0.003789563,0.01353904,-0.005418912,-0.00247488,-0.001769479
0.9800777,-0.1750994,-0.2746277,0.003887832,0.006472865,0.01016763,-0.009247251,0.003523889,-0.002019226
0.9783399,-0.172592,-0.2754021,0.002091328,0.008833181,0.009239376,-0.007391718,0.00016776,-0.00274639
0.9792818,-0.1756313,-0.2752429,0.002973011,0.005646484,0.009241765,-0.00292384,-0.004446126,-0.001673013
0.979378,-0.1810921,-0.2757829,0.003007532,3.802962e-05,0.008542056,0.002439644,-0.005355321,-0.002264986
0.9786539,-0.18381,-0.2765152,0.002220366,-0.002827473,0.007647556,0.009741731,-0.009099781,-0.004205625
0.9773573,-0.1790214,-0.2766926,0.0008596276,0.001813974,0.007305528,0.01314909,-0.007971823,-0.005813166
0.9759755,-0.1722319,-0.2749045,-0.0005873355,0.0084571,0.008926847,0.01043786,-0.002808288,-0.008514226
0.9765936,-0.1730031,-0.2750075,-3.504238e-05,0.007540475,0.008655105,0.00903387,0.001765208,-0.008402901
0.9796843,-0.1748484,-0.275041,0.002989276,0.005550601,0.008451107,0.01019023,-0.0006806459,-0.00734673
0.982142,-0.1738303,-0.2747725,0.005380131,0.006424955,0.008547395,0.009893379,-0.009942249,-0.01076503
0.9821494,-0.1755224,-0.2753708,0.00532043,0.004590028,0.007775429,0.009932503,-0.01007234,-0.01088192
0.9808732,-0.1763608,-0.274663,0.003976657,0.003609658,0.008308138,0.01231678,-0.008035592,-0.00628283
0.9801395,-0.1759725,-0.2751386,0.003174897,0.003857109,0.007656395,0.01366996,-0.006384283,-0.004506785
0.9805265,-0.1767589,-0.2756479,0.003493458,0.002930993,0.006969892,0.01228226,-0.001202346,-0.003749958
0.9797266,-0.1752523,-0.2773875,0.002624828,0.00429912,0.005052207,0.01001182,-0.002661413,-0.001794154
0.9787332,-0.1752671,-0.2804925,0.001562261,0.004147121,0.001768661,0.004929669,0.0006233113,-0.001431129
0.9792243,-0.178887,-0.2797983,0.001984118,0.0003915973,0.002284022,-0.0008168332,0.01240377,-0.001535432
0.9794437,-0.181449,-0.2777485,0.002134041,-0.002304475,0.004155141,5.418345e-05,0.02142161,0.0006853443
0.980342,-0.1809015,-0.2742027,0.002962904,-0.001889129,0.007522716,0.004413655,0.02320892,0.003180518
0.9826251,-0.1786684,-0.2700694,0.005176637,0.0002140434,0.01147825,0.005833389,0.01144112,0.003826374
0.9840002,-0.1775722,-0.2695097,0.006482331,0.001182701,0.01186084,0.00448755,0.0007640166,0.003286982
0.9831695,-0.1734616,-0.2675411,0.005582231,0.005168303,0.01365272,0.002356892,0.003594591,0.002817432
0.9815457,-0.166665,-0.2643507,0.003888757,0.01184246,0.01666662,0.0007370177,0.001934844,0.004629008
0.9792989,-0.1639685,-0.2661774,0.001572067,0.01441869,0.01466327,-0.002977825,-0.006630695,0.01120964
0.9769559,-0.1650865,-0.2751674,-0.0008408917,0.01318224,0.005496293,-0.007626945,-0.004756391,0.01845342
0.9786042,-0.1723196,-0.2855462,0.0007374084,0.005832017,-0.005059834,-0.007179054,-0.001745708,0.01620848
0.9814284,-0.1809264,-0.2836909,0.003491815,-0.002890839,-0.003381677,-0.005835028,-0.006027363,0.01000699
0.9821972,-0.1803014,-0.2787513,0.004191052,-0.002380714,0.001381501,-0.005203819,-0.004204097,0.008372035
0.9833001,-0.1773875,-0.2835599,0.005224644,0.0004198337,-0.003602303,0.001027884,-0.004731277,0.004948111
0.9810568,-0.1778725,-0.2823748,0.002912206,-0.0001767188,-0.002590621,0.006066833,-0.008859248,0.005632781
0.9780441,-0.1760673,-0.2791906,-0.0001694503,0.001518881,0.0004222807,0.004016442,-0.005995348,0.01076963
0.9812036,-0.1743954,-0.2820258,0.002921341,0.003083157,-0.002581702,0.002933166,-0.005913005,0.0108048
0.9840328,-0.1747159,-0.2797285,0.005682194,0.002657173,-0.0004501702,0.004552718,-0.006430098,0.01351425
0.9826702,-0.1730275,-0.2788842,0.00425149,0.004242197,0.0002315641,0.003978441,-0.007421388,0.01329171
0.9805745,-0.1732597,-0.2744838,0.002087892,0.003908574,0.004472745,0.003462332,-0.01043181,0.009383918
0.9784777,-0.1744221,-0.2659953,-7.659322e-05,0.002646824,0.0128054,0.004382785,-0.01032654,0.01550875
0.9787349,-0.172944,-0.2697841,0.0001132849,0.004027368,0.008864039,0.004758017,-0.01647149,0.01800135
0.9802138,-0.1746823,-0.2729775,0.001525327,0.002193506,0.005521046,0.00868371,-0.02112555,0.01192307
0.9813415,-0.1783887,-0.2724455,0.00258679,-0.001606664,0.005906114,0.01317545,-0.01918337,0.009042639
0.9859211,-0.1813534,-0.2755622,0.007100674,-0.004663154,0.002645104,0.009927979,-0.01691202,0.009078701
0.9886548,-0.1816111,-0.2743699,0.009769097,-0.005010346,0.003695666,0.004631617,-0.009683934,0.007916067
0.9839541,-0.1794358,-0.2711229,0.005003379,-0.002921997,0.006803565,0.00341009,-0.01069962,0.003635061
0.979333,-0.1818911,-0.2692301,0.0003173603,-0.005461443,0.008559679,0.005520916,-0.02123745,0.00463568
0.9786267,-0.1827403,-0.2735646,-0.0004538311,-0.006391754,0.004090926,0.0117319,-0.02547698,0.007171626
0.9791659,-0.1810725,-0.2861367,2.07819e-05,-0.004801727,-0.008613091,0.01827898,-0.02270088,0.002985461
0.9792754,-0.182379,-0.2923535,6.592195e-05,-0.006182363,-0.01495916,0.01967178,-0.01626463,0.001293695
0.978059,-0.1808637,-0.2853664,-0.001214146,-0.0047374,-0.008098105,0.01890505,-0.01603264,-5.820843e-05
0.9775005,-0.1800522,-0.2786663,-0.001835717,-0.003992152,-0.001520108,0.01989423,-0.01815146,-0.0005551313
0.9778436,-0.180937,-0.2819846,-0.001554719,-0.004939103,-0.004956253,0.0192825,-0.01583035,0.002082167
0.9777783,-0.1804288,-0.2826509,-0.001681077,-0.004488749,-0.005735918,0.01850397,-0.01743186,0.0007053748
0.9779822,-0.1816804,-0.278685,-0.001537037,-0.005793944,-0.001878634,0.02241349,-0.01765138,0.001420036
0.9786262,-0.1815874,-0.2813933,-0.0009513712,-0.005749999,-0.004690705,0.02548035,-0.01644093,0.002635231
0.9794579,-0.1792835,-0.2830178,-0.0001765639,-0.00349066,-0.006413932,0.02373925,-0.01483434,0.001612961
0.9793087,-0.1775286,-0.2827827,-0.0003809684,-0.001775792,-0.006272426,0.02173885,-0.009802516,0.003681255
0.9788815,-0.1801192,-0.2838617,-0.0008617567,-0.00440196,-0.007439562,0.01977749,-0.01134672,0.005166153
0.9793511,-0.1845584,-0.2796119,-0.0004440327,-0.008872182,-0.003272405,0.01743363,-0.01327062,0.007259424
0.9791599,-0.1834142,-0.2764748,-0.0006853781,-0.007754453,-0.0002122681,0.0212302,-0.01130249,0.005215719
0.9790455,-0.1827161,-0.2762031,-0.0008479967,-0.007078203,-1.207579e-05,0.02644988,-0.0116815,-0.001776356
0.9786073,-0.1835875,-0.2759808,-0.001332714,-0.007966668,0.0001441869,0.02016327,-0.009541029,-0.002520129
0.9754852,-0.1812017,-0.2777507,-0.004499342,-0.005592962,-0.00168656,0.01178468,-0.007228148,-0.001442784
0.9729049,-0.1800521,-0.2792104,-0.007122009,-0.004450664,-0.003202112,0.01151299,-0.006020051,0.001350612
0.975013,-0.1805114,-0.2818773,-0.005054141,-0.004912393,-0.005919948,0.01181221,-0.005231378,0.005364018
0.9776886,-0.1807231,-0.2827405,-0.002416127,-0.005121753,-0.00682916,0.0114076,-0.006849129,0.003139978
0.9762672,-0.1802075,-0.2827454,-0.003872545,-0.004599187,-0.006875021,0.009715981,-0.006715108,0.002965839
0.9755861,-0.1785724,-0.2845116,-0.004585921,-0.002952611,-0.008677044,0.004831979,-0.007688342,0.004401461
0.9761685,-0.1785371,-0.2822871,-0.004032886,-0.002901471,-0.006483171,-0.00163839,-0.009650518,0.004152058
0.974788,-0.1828016,-0.2816833,-0.00543984,-0.007145945,-0.00590464,-0.007128173,-0.008560404,0.006908897
0.9765401,-0.1877581,-0.2824847,-0.00371115,-0.01207828,-0.006726002,-0.005274701,-0.006053196,0.007637317
0.9785659,-0.1847621,-0.2823571,-0.001705668,-0.009053915,-0.006612998,-0.003693082,-0.001099238,0.006800565
0.9757113,-0.1803504,-0.2851799,-0.004577511,-0.004609467,-0.009444968,-0.007987094,0.001070123,0.007175657
0.97474,-0.1824543,-0.2847976,-0.005562983,-0.006676454,-0.009066494,-0.009106579,0.0001515226,0.007118052
0.9779971,-0.182623,-0.2847331,-0.002316907,-0.006803985,-0.009000399,-0.009339903,0.001046155,0.007173859
0.9810656,-0.183201,-0.2868757,0.0007437241,-0.007336685,-0.0111358,-0.008431108,-0.003456211,0.00579038
0.9808338,-0.1868084,-0.2865749,0.0005070019,-0.0108947,-0.01082216,-0.005312108,-0.007256967,0.003472172
0.9787424,-0.1859335,-0.2862608,-0.001586495,-0.00996628,-0.01048941,-0.006019049,-0.0003991871,0.001685418
0.9773667,-0.1839313,-0.2842902,-0.002961769,-0.007906381,-0.008494373,-0.00472295,0.004651558,0.001632622
0.976179,-0.1831318,-0.2831443,-0.004146516,-0.007045069,-0.007318276,-0.001911156,0.0001096574,0.001515981
0.9778917,-0.182721,-0.2835384,-0.002428301,-0.006568351,-0.007676346,-0.0037868,-0.004004404,-0.0006134137
0.9803078,-0.1827703,-0.2845258,-4.217047e-06,-0.006547804,-0.008622116,-0.006470073,-0.001317815,-0.0003998589
0.978443,-0.1805892,-0.2858385,-0.001858764,-0.00429294,-0.009887643,-0.008944975,0.00210973,0.0006058079
0.9760972,-0.1808914,-0.283715,-0.004192048,-0.004517786,-0.007711548,-0.01038873,0.003271987,0.0009813255
0.9748253,-0.1854883,-0.2832534,-0.005449222,-0.009033973,-0.007192004,-0.009660215,0.0001491282,0.002966782
0.9754906,-0.1888164,-0.2814912,-0.004767117,-0.01227791,-0.005366621,-0.007974238,-0.006207251,0.003090906
0.9783699,-0.1884031,-0.2787325,-0.001868654,-0.01177716,-0.002539865,-0.005038933,-0.003134219,0.002902622
0.9787093,-0.1855653,-0.2808561,-0.001507942,-0.008848543,-0.004590673,-0.00472484,0.004406729,0.004058415
0.9781433,-0.184174,-0.2773249,-0.002050522,-0.00736277,-0.0009824939,-0.006090087,0.006773721,0.003971245
0.9779777,-0.1832962,-0.273725,-0.002190764,-0.006387227,0.002698359,-0.003566899,0.008368449,0.003697077
0.9772658,-0.1813399,-0.2764936,-0.002875424,-0.004329859,1.401773e-05,-0.002528669,0.008041425,2.177074e-05
0.9780775,-0.1797929,-0.2765226,-0.002034699,-0.002678815,7.209099e-05,-0.005125158,0.008109366,-0.005462446
0.9773516,-0.1784088,-0.2789926,-0.002729844,-0.001187976,-0.002308467,-0.005354086,0.006094726,-0.003482982
0.9747127,-0.1777294,-0.2839961,-0.005336437,-0.0003995279,-0.007220405,-0.004993332,0.002967877,0.001492532
0.9739053,-0.178141,-0.2850861,-0.006109775,-0.0007002084,-0.00821693,-0.004933773,0.007879081,0.001955583
0.9766592,-0.181474,-0.286003,-0.003320295,-0.003920755,-0.009038469,-0.003537727,0.01038918,0.0003971371
0.9808274,-0.1847063,-0.2862854,0.000885277,-0.007039425,-0.009223696,-0.003697176,0.009761873,-0.002038178
0.9791747,-0.1836568,-0.2830675,-0.000728515,-0.005875136,-0.005906582,-0.003807174,0.01063711,-0.003344873
0.9761287,-0.1847827,-0.2809081,-0.003734275,-0.006885306,-0.003645982,-0.001674412,0.006991529,-0.002473747
0.9766361,-0.1879701,-0.2815809,-0.003185289,-0.009955942,-0.004215929,-4.201852e-05,0.004118234,-0.003067098
0.9750846,-0.1878454,-0.2795303,-0.004694114,-0.009713578,-0.002060814,-0.0005692022,0.000215016,-0.004180585
0.9746849,-0.187148,-0.2766623,-0.005049813,-0.008897393,0.0009129292,-0.001467859,-0.003682645,-0.003216279
0.9757491,-0.1872198,-0.2776287,-0.003940411,-0.008849109,5.328532e-05,-0.001356515,-0.0007113385,0.001019415
0.9765406,-0.1853258,-0.2781741,-0.00310243,-0.006833993,-0.0003848068,-0.003010384,0.001381131,0.005736621
0.9795282,-0.1813019,-0.2765546,-6.713363e-05,-0.002687649,0.001342277,-0.005926355,0.0008637005,0.003915243
0.9792349,-0.1799725,-0.2765828,-0.0003115642,-0.001234968,0.001421615,-0.006488673,0.001889493,-0.0006340682
0.9768628,-0.1824988,-0.2792415,-0.002633978,-0.003637084,-0.001129951,-0.005811224,0.005483819,-0.001100616
0.976565,-0.1841292,-0.2813477,-0.002881328,-0.005142932,-0.003129672,-0.006161129,0.00867681,0.0007371094
0.9777913,-0.1833398,-0.2802806,-0.001603806,-0.004228689,-0.001957009,-0.007563082,0.007316598,0.003315116
0.9801333,-0.1829163,-0.2780673,0.0007899306,-0.003680108,0.0003609984,-0.008476518,0.005666419,0.003304166
0.979288,-0.183856,-0.2789912,-3.109045e-06,-0.004494735,-0.0004593848,-0.009042546,0.005525185,0.001703772
0.9784942,-0.1839995,-0.2811169,-0.0007442963,-0.004513228,-0.002482845,-0.01189119,0.004514555,0.002540716
0.9797807,-0.1840704,-0.2784326,0.0005948936,-0.004459309,0.0003022626,-0.01519817,0.004114469,0.002173322
0.9790963,-0.1848954,-0.273586,-3.687808e-05,-0.005159784,0.005248109,-0.01347316,0.005412165,0.003501744
0.979942,-0.1871396,-0.2724556,0.0008614064,-0.007279847,0.006475959,-0.01037545,0.005337093,0.005841518
0.9806104,-0.1896415,-0.2762508,0.001581886,-0.009657872,0.002775831,-0.01166164,0.004472798,0.000566164
0.9773061,-0.1863699,-0.2810018,-0.001670703,-0.006262769,-0.001882586,-0.0125354,0.006404464,-0.003918023
0.9737637,-0.1832069,-0.2793683,-0.005161952,-0.00297634,-0.0001592375,-0.01353164,0.006019787,-0.001322657
0.9735447,-0.1860485,-0.2763004,-0.005330363,-0.005694791,0.002995929,-0.01451874,0.0003818936,0.0002386951
0.9775203,-0.1867763,-0.2787217,-0.00130464,-0.006299805,0.0006589318,-0.009086506,-0.004075316,0.0003933803
0.9804191,-0.1858327,-0.2806362,0.00164408,-0.00523374,-0.001174099,-0.005977287,-0.001373391,0.00237982
0.978868,-0.1871524,-0.2816131,0.0001423513,-0.006431273,-0.002072467,-0.00999806,0.003499942,0.002356534
0.9768467,-0.1874484,-0.2825286,-0.001830019,-0.006605483,-0.002912231,-0.01256683,0.002519478,-9.986635e-05
0.976339,-0.1857396,-0.2815129,-0.002289451,-0.004775259,-0.001823584,-0.01174504,0.002566283,-0.0002339556
0.9771297,-0.1840301,-0.2826175,-0.001451155,-0.002944593,-0.002857763,-0.01025417,0.003822547,-0.0001352861
0.9783847,-0.1845789,-0.284792,-0.0001490904,-0.003372767,-0.004964284,-0.009779528,0.000894504,-0.0002555058
0.9786114,-0.1850192,-0.2860257,0.000124045,-0.003693004,-0.00613237,-0.006320434,0.001329648,0.001129531
0.9780399,-0.1831331,-0.2837889,-0.0004017091,-0.001687536,-0.003831961,-0.0005341367,0.004677865,-0.001037793
0.9769203,-0.1813133,-0.2784639,-0.001476438,0.0002507403,0.001554887,-0.0006487488,0.007555804,-0.004741905
0.97584,-0.1802652,-0.278627,-0.002512634,0.001416221,0.001451765,-0.007386507,0.007715931,-0.004675025
0.9767477,-0.1812026,-0.2800754,-0.001561578,0.0005949787,6.150884e-05,-0.01428202,0.002688204,-0.003211911
0.9785356,-0.1828698,-0.2796904,0.0002689706,-0.0009577809,0.0005027157,-0.01252962,-0.0004224071,-0.003405116
0.9793479,-0.1828513,-0.2819843,0.001123175,-0.0008265378,-0.001736923,-0.005531258,-0.001712953,-0.003433124
0.979338,-0.1842385,-0.2823327,0.001154314,-0.002102931,-0.002033055,-0.002635809,-0.002144848,-0.001751552
0.9778032,-0.1852891,-0.2816412,-0.0003404354,-0.003044759,-0.001291029,-0.002410438,-0.0003804921,-0.0006499528
0.9765464,-0.1834886,-0.2823022,-0.001558181,-0.001137479,-0.001903318,-0.002974298,-0.0003686656,-0.0002371217
0.9767051,-0.1829905,-0.2827251,-0.001361398,-0.0005347154,-0.002279251,-0.00205582,-0.0003729389,-0.00155604
0.9779202,-0.1834941,-0.2829651,-0.000109206,-0.00093588,-0.002473755,-0.0004506708,-0.001123356,-0.00172269
0.9796224,-0.1832831,-0.279844,0.001629112,-0.0006245813,0.0006912971,-0.0009578266,-0.001486392,-0.001200176
0.9775468,-0.1833646,-0.2764387,-0.0004113454,-0.0006082556,0.004139005,-0.003631537,0.0008504863,-0.004938375
0.9752288,-0.183301,-0.2777256,-0.002695303,-0.0004491366,0.002893016,-0.009041782,0.002592665,-0.003883666
0.9766924,-0.1829879,-0.2801416,-0.001198631,-4.288991e-05,0.0005161978,-0.01009642,0.004824015,-0.002319247
0.9766344,-0.1815753,-0.2825838,-0.001224493,0.001460222,-0.001888728,-0.009932775,0.004160242,-0.004917313
0.9760311,-0.1799474,-0.2856334,-0.001796545,0.003176032,-0.004902655,-0.01530111,0.0006123451,-0.002080472
0.9766192,-0.1804114,-0.2844623,-0.001178043,0.002797092,-0.003697425,-0.01717689,0.0004973915,-0.001061083
0.9761494,-0.1812825,-0.2819508,-0.00161817,0.002008173,-0.00115321,-0.01637009,0.002815655,0.0001271582
0.9754495,-0.1821418,-0.283984,-0.002289152,0.001227953,-0.00315478,-0.01585462,0.005719501,0.002099294
0.9751598,-0.1843659,-0.2848105,-0.002550592,-0.0009202412,-0.00395084,-0.01390927,0.005844243,-0.0008194795
0.9768016,-0.1865837,-0.2851203,-0.0008809975,-0.003065241,-0.004231002,-0.01331436,0.003487615,0.0009150509
0.9794499,-0.1886408,-0.2871097,0.001794403,-0.00505259,-0.006191418,-0.01226239,0.0001822135,0.001010532
0.9791906,-0.1895524,-0.2858112,0.001561781,-0.005897234,-0.004864464,-0.009152347,-0.003953957,-0.0007682247
0.9768479,-0.1870934,-0.2857872,-0.0007549873,-0.003373704,-0.004812207,-0.002353258,-0.0009116835,0.0005108614
0.9750634,-0.1841151,-0.2867023,-0.002514283,-0.0003332463,-0.005699004,0.001688646,0.004128664,-0.002647302
0.975135,-0.182048,-0.2855998,-0.002418101,0.001793799,-0.004568168,-0.001338202,0.00168703,-0.004540337
0.9778306,-0.1809663,-0.2854501,0.0003015313,0.002933276,-0.004389689,-0.001644442,-0.003293167,-0.004456794
0.979573,-0.1815488,-0.2817213,0.002067373,0.002406272,-0.0006317115,-0.002320109,-0.008474782,-0.003687009
0.9765927,-0.1803716,-0.2778766,-0.0008900336,0.003636468,0.003242589,-0.004435718,-0.007963617,-0.001824031
0.9738739,-0.1799671,-0.2816432,-0.003586663,0.004091366,-0.0004940995,-0.001702028,-0.004618072,-0.002611269
0.976063,-0.1816392,-0.2877552,-0.001375843,0.002467043,-0.006575957,0.002084226,-0.007888924,-0.00199777
0.9780103,-0.1823177,-0.2887825,0.0005926641,0.001833479,-0.00757286,0.00710297,-0.006778894,-0.001795208
0.97693,-0.1855719,-0.2826317,-0.0004668231,-0.001378605,-0.001391267,0.007833826,-0.001003903,-0.001696865
0.9771722,-0.1869309,-0.2771769,-0.0002043279,-0.00269833,0.004094851,-4.358843e-05,0.001592766,-0.0007736191
0.9789897,-0.1836455,-0.2804844,0.001632875,0.0006238629,0.000819046,-0.004266753,0.00297493,-0.002124543
0.9795461,-0.1828875,-0.2839602,0.002208539,0.0014162,-0.002624789,0.000362045,0.001226493,-0.002555739
0.9789368,-0.1830062,-0.2805664,0.001617804,0.001329435,0.0008010255,0.006324503,0.001381488,-0.003776145
0.9781009,-0.1816225,-0.2777912,0.0007998343,0.002742628,0.00360833,0.006500224,0.000721588,-0.003940372
0.9776679,-0.1800819,-0.2775613,0.0003838548,0.004310299,0.003870093,0.002739322,-0.002693832,-0.002457715
0.9774732,-0.1801154,-0.2814906,0.0002053132,0.004301393,-2.771062e-05,-0.000634649,0.0009815838,-0.003441633
0.9769745,-0.1806778,-0.2889672,-0.0002779495,0.003761,-0.007473313,-0.002784748,0.003253183,-0.002318321
0.9761791,-0.1775549,-0.2863289,-0.001058732,0.006903219,-0.004804443,-0.001969599,0.001081103,0.0006463173
0.9757693,-0.1757813,-0.2811741,-0.001454737,0.008693345,0.0003807538,-0.003344843,-0.000896011,0.003677656
0.9749376,-0.1788199,-0.2828325,-0.002273249,0.005668259,-0.001247456,-0.00780909,-0.004716064,0.006328628
0.9729469,-0.1825837,-0.2809434,-0.004251245,0.0019147,0.0006717263,-0.007978104,-0.005063494,0.007046733
0.9737929,-0.1839285,-0.280139,-0.003392993,0.0005769556,0.001505973,-0.00666981,-0.005746534,0.008798921
0.9769775,-0.1813678,-0.2804434,-0.0001964069,0.003141748,0.001231006,-0.005883924,-0.00761214,0.007747688
0.9776232,-0.179701,-0.2797118,0.0004611214,0.004809516,0.001991637,-0.004087257,-0.005335997,0.002836215
0.9752426,-0.1810804,-0.2826346,-0.001907676,0.00342826,-0.0009027488,-0.002748827,-0.005545993,0.002280969
0.9715868,-0.1825291,-0.2818138,-0.005551829,0.001974671,-5.42113e-05,0.002253207,-0.005779402,0.003874099
0.9719065,-0.183712,-0.2815021,-0.005220491,0.0007840874,0.0002845702,0.01079313,-0.004224781,0.002615013
0.9752675,-0.1833791,-0.2824398,-0.001847513,0.001106558,-0.0006266803,0.01354302,-0.005065309,0.003815593
0.9768369,-0.1819369,-0.2794845,-0.0002657946,0.002535881,0.002354281,0.01004869,0.000333557,0.005597979
0.9790135,-0.1810816,-0.2799718,0.001923398,0.003375877,0.001891915,0.008609958,0.006468569,0.002249481
0.9806874,-0.1809695,-0.2808925,0.003610264,0.00347033,0.0009951519,0.008402663,0.002279301,0.0006602473
0.9816886,-0.1814586,-0.2814293,0.004624568,0.002961268,0.0004813777,0.009030418,-0.0001632406,0.0001855287
0.9807436,-0.1816535,-0.2824996,0.003692382,0.002744095,-0.0005668551,0.01327607,0.001305744,-0.002818515
0.9760054,-0.1826661,-0.2809967,-0.001033322,0.001707144,0.0009571661,0.01351642,0.001169774,-0.002534269
0.9760761,-0.1836597,-0.2802316,-0.000950566,0.0006871568,0.001742285,0.01024325,0.004054092,-0.002360487
0.9789455,-0.1814833,-0.2797886,0.001930483,0.002835303,0.002204322,0.007244302,0.00862278,-0.003156717
0.9791515,-0.1796433,-0.2801282,0.002147699,0.00464519,0.001882615,0.002492286,0.01363248,-0.003525742
0.9796252,-0.1807461,-0.2767161,0.002632,0.003510604,0.005311426,0.001908866,0.01504927,-0.007314323
0.978466,-0.1807953,-0.2714396,0.001482693,0.003427768,0.01060329,-0.001000518,0.01314013,-0.007449987
0.9772853,-0.179359,-0.2728762,0.0003112388,0.004828782,0.009180288,-0.009872878,0.01495841,-0.004337363
0.9763046,-0.1762682,-0.2732507,-0.0006610565,0.007882609,0.008817241,-0.01097093,0.01390902,-0.00506324
0.9759942,-0.1722224,-0.2746921,-0.000963649,0.01188947,0.007384946,-0.01305367,0.01046479,-0.004270413
0.9789266,-0.173356,-0.279031,0.001975759,0.010715,0.003052491,-0.02140364,0.007401292,-0.0009580139
0.9793252,-0.177441,-0.277499,0.002380764,0.00658669,0.004588041,-0.02083271,0.001854755,0.0008236684
0.9781255,-0.1807969,-0.271556,0.001186748,0.003184893,0.01053176,-0.01855874,0.002256964,-2.178562e-05
0.9778984,-0.184573,-0.2651792,0.0009645704,-0.0006394176,0.01690623,-0.01908907,0.003141399,-0.001655608
0.9785876,-0.1829619,-0.2725483,0.001657905,0.0009212296,0.009531344,-0.01291666,0.0001503807,-0.001011276
0.9817312,-0.1793969,-0.2891288,0.004804678,0.004433696,-0.007058691,-0.009889614,0.003675118,-0.001908454
0.9818704,-0.180993,-0.2912756,0.004946225,0.002783327,-0.009218551,-0.01512302,0.00934626,-0.002380789
0.9785235,-0.1814819,-0.2846638,0.001600482,0.002238437,-0.002622778,-0.01956807,0.01237499,0.001213285
0.9744225,-0.1836887,-0.2787421,-0.002500475,-2.590435e-05,0.003280371,-0.01706067,0.005628846,0.002164853
0.9722698,-0.188918,-0.2745382,-0.004654162,-0.005314068,0.007463527,-0.007201767,-0.01039344,0.0016506
0.9746542,-0.1887388,-0.2704501,-0.002271674,-0.00519466,0.01152865,0.0003260082,-0.01305321,0.002014739
0.9768795,-0.1880306,-0.2677344,-4.882176e-05,-0.004546639,0.01421884,0.003746388,-0.00573245,0.0006149601
0.9798542,-0.1874142,-0.2751465,0.002922832,-0.003990511,0.006778252,0.008229169,-0.002987231,-0.003322722
0.9818886,-0.1833789,-0.2784903,0.00495369,-1.509888e-05,0.003403048,0.01176686,-0.003179416,-0.008387237
0.9799117,-0.1822416,-0.2756431,0.002972547,0.001062897,0.006215584,0.01485756,-0.00652076,-0.005692579
0.9804342,-0.1819759,-0.2798478,0.00348998,0.001269998,0.001973311,0.02090741,-0.005713377,-0.001946531
0.9810637,-0.1799332,-0.2821366,0.004113545,0.003254867,-0.0003560168,0.02626836,-0.001689791,-0.007815447
0.980054,-0.1804385,-0.2824412,0.003096891,0.002692527,-0.0007037387,0.02370297,-0.001204732,-0.0127692
0.9811819,-0.1821257,-0.2829172,0.004216711,0.0009489287,-0.00122518,0.02101719,0.0005349531,-0.0145925
0.9823445,-0.1828826,-0.282987,0.005370086,0.0001363516,-0.001342369,0.02038029,0.003082278,-0.0146232
0.9827995,-0.1823588,-0.2840631,0.005814424,0.0006052866,-0.002467455,0.01181907,0.006477191,-0.01215838
0.9793216,-0.1772399,-0.2817026,0.002324376,0.005670133,-0.0001572701,0.002849812,0.006944904,-0.01233989
0.9744258,-0.1713893,-0.2817748,-0.002585014,0.0114674,-0.0002807886,-0.005213386,0.002439087,-0.009372424
0.9757711,-0.1734007,-0.2820119,-0.001254737,0.009402988,-0.0005699093,-0.01367895,1.814993e-05,-0.002830576
0.975591,-0.1769049,-0.2795303,-0.001451024,0.005845931,0.00185907,-0.01626729,-0.002787215,0.001244652
0.971315,-0.1760038,-0.2792429,-0.005744104,0.006693892,0.002093545,-0.01868686,-0.002746368,0.003562115
0.9720331,-0.177082,-0.2785925,-0.0050438,0.005562228,0.002690621,-0.01783414,4.439234e-05,0.002412347
0.9749259,-0.1793354,-0.2798979,-0.002169069,0.0032547,0.00133155,-0.01348834,-0.001682639,0.001037201
0.9786843,-0.1815584,-0.2815038,0.001571203,0.0009771602,-0.0003280782,-0.01243406,-0.0002666848,0.0003854412
0.9835013,-0.1849132,-0.2836319,0.006369991,-0.002432699,-0.002509964,-0.01094771,0.003675588,-0.002051063
0.980406,-0.1862391,-0.2860223,0.003256345,-0.003813931,-0.004953974,-0.01128049,0.006037522,-0.002002407
0.9751764,-0.1854214,-0.2831903,-0.001991843,-0.00305157,-0.002175117,-0.01144077,0.006736219,-0.002674165
0.9756957,-0.1826799,-0.2828401,-0.001491276,-0.0003649532,-0.001877389,-0.007254056,0.002087966,-0.003755611
0.9754486,-0.1824247,-0.2842604,-0.001757374,-0.0001641367,-0.003349126,-0.0006307168,-0.001135329,-0.0001398309
0.9775101,-0.1846696,-0.284625,0.0002852965,-0.002462623,-0.003763965,0.006424647,-0.003051822,-0.0006324187
0.9824358,-0.183364,-0.2869949,0.00519217,-0.001209767,-0.006182637,0.005449983,-0.007105497,-0.00454461
0.9824141,-0.1823839,-0.2856711,0.005151555,-0.0002813686,-0.004905977,0.001464285,-0.008166063,-0.002810797
0.981169,-0.1797348,-0.2829026,0.003887525,0.002317095,-0.00218255,0.002596995,-0.007217025,0.0003173108
0.9803606,-0.1763768,-0.2808995,0.003059712,0.005625597,-0.0002225545,0.001160427,-0.006870696,0.002498994
0.9785502,-0.1789011,-0.2777968,0.001229475,0.003052789,0.002839271,0.0009047525,-0.009994808,0.0007773491
0.9782632,-0.1799091,-0.2768477,0.0009222331,0.001997237,0.003749514,0.007285957,-0.01356424,-0.004545583
0.9760051,-0.1811582,-0.2805705,-0.001356549,0.0007013012,-1.020197e-05,0.01210393,-0.01392189,-0.003176406
0.9728287,-0.1822913,-0.2870609,-0.00455399,-0.0004778295,-0.006535819,0.01204412,-0.01578752,-0.001257959
0.9760135,-0.1757367,-0.2865338,-0.001390319,0.006031482,-0.00604203,0.01244828,-0.01933197,-0.002775442
0.9806571,-0.1721194,-0.2811559,0.003232138,0.009604246,-0.0006952699,0.01719159,-0.02184272,-0.001518443
0.9799333,-0.1746946,-0.2808897,0.002487354,0.006984983,-0.0004581167,0.02010663,-0.01896256,-0.004292077
0.9794564,-0.1766146,-0.2838013,0.001989541,0.005020969,-0.003396435,0.01731593,-0.01057555,-0.008259594
0.9803538,-0.1767002,-0.287431,0.002865897,0.004891288,-0.007050669,0.0154963,-0.002188129,-0.006808212
0.9796834,-0.1757505,-0.287519,0.002174335,0.005796727,-0.007160814,0.01663319,0.0003173706,-0.00497611
0.98101,-0.1758097,-0.2882628,0.003479612,0.00569283,-0.007924141,0.01834073,-0.004975247,-0.003569964
0.982436,-0.1747305,-0.2933247,0.004884046,0.006726752,-0.0130026,0.01969727,-0.005344838,-0.0005880037
0.9819596,-0.1740515,-0.2903252,0.004385602,0.007359869,-0.01001647,0.02088662,0.000365421,0.004794908
0.9815499,-0.1729702,-0.286253,0.00395338,0.008394414,-0.005953968,0.02075,0.005779151,0.008898095
0.9800432,-0.1699067,-0.2873011,0.00242358,0.01141005,-0.007007949,0.01217504,0.01832303,0.01113156
0.9787797,-0.172744,-0.2835304,0.00113617,0.008523444,-0.003239281,-0.006744386,0.02767462,0.01281593
0.9781993,-0.1768201,-0.2820297,0.0005312359,0.004396513,-0.001736749,-0.0223338,0.01713976,0.01086016
0.9758712,-0.1764226,-0.2827148,-0.001821927,0.004741348,-0.002416275,-0.02276392,0.001273171,0.009975033
0.9725656,-0.176444,-0.2805862,-0.00515306,0.004665699,-0.000278529,-0.01964086,0.002180033,0.0108533
0.9730466,-0.1763258,-0.2806067,-0.004697773,0.004727965,-0.0002866093,-0.02419398,0.006892962,0.01228007
0.9758519,-0.1763455,-0.278888,-0.001918019,0.00465065,0.001447595,-0.0277109,0.003821113,0.01663571
0.9756151,-0.1767212,-0.2777526,-0.002180051,0.004215751,0.00260123,-0.02942558,0.005954846,0.0177852
0.9764831,-0.177271,-0.2775274,-0.00133674,0.003605171,0.002847177,-0.03331652,0.002163113,0.01741601
0.9772287,-0.1796191,-0.2738648,-0.0006152059,0.001194837,0.00653244,-0.03391239,-0.006200962,0.01831241
0.9766316,-0.1823632,-0.2755683,-0.001235531,-0.001612836,0.004853203,-0.029163,-0.003011925,0.0153716
0.9797703,-0.1852447,-0.2789466,0.001880537,-0.004558833,0.001500399,-0.01688357,-0.001648035,0.01021763
0.9814101,-0.187111,-0.2781385,0.003498526,-0.006490277,0.002334753,-0.001105141,0.001895238,0.005963902
0.9811879,-0.1870174,-0.2795477,0.003255198,-0.00646186,0.0009525077,0.004262931,0.009147647,0.005552221
0.9790779,-0.1851382,-0.2799007,0.001124515,-0.00464756,0.0006267407,0.004433132,0.004383532,0.002844745
0.9746001,-0.1822921,-0.2802851,-0.003373603,-0.001865588,0.0002697966,0.01075574,-0.002156507,-0.006955148
0.9761919,-0.1827618,-0.2835404,-0.0018016,-0.002398203,-0.002957848,0.01389301,-0.0040852,-0.008117901
0.977501,-0.1833365,-0.2846821,-0.000511697,-0.003034618,-0.004071753,0.01482107,-0.007370899,-0.002628066
0.9754283,-0.181097,-0.2863381,-0.002602865,-0.0008551985,-0.005699721,0.01930591,-0.009494801,-0.004174064
0.9776279,-0.1816469,-0.2869802,-0.0004209567,-0.001463576,-0.006313469,0.01942227,-0.01133979,-0.00444602
0.9810651,-0.1823957,-0.2843527,0.002999319,-0.002269083,-0.003657032,0.02185845,-0.01581262,-0.003695939
0.9838728,-0.1834371,-0.2818959,0.0057908,-0.003365256,-0.001170743,0.02745686,-0.01663503,-0.006270261
0.9819736,-0.1882424,-0.2781415,0.003875945,-0.008223232,0.002613919,0.02727765,-0.01428173,-0.005227548
0.9760734,-0.1883507,-0.2780597,-0.002039685,-0.008381794,0.002726506,0.02761987,-0.01558955,-0.003833652
0.9758504,-0.1849025,-0.2799379,-0.002277686,-0.004981119,0.0008793119,0.02805479,-0.01486615,-0.004242402
0.9768657,-0.1834938,-0.274951,-0.001277034,-0.00361704,0.005897306,0.02736362,-0.01308125,-0.003879106
0.9760124,-0.1803023,-0.2730371,-0.002144556,-0.0004669251,0.007841997,0.02898889,-0.01324021,-0.004534075
0.9766666,-0.1798268,-0.278908,-0.001504008,-2.982869e-05,0.002001341,0.0309496,-0.01000327,-0.004780176
0.9762731,-0.1825289,-0.283376,-0.001910402,-0.002767164,-0.002437183,0.03189775,-0.00913624,-0.005497743
0.9763042,-0.1827436,-0.2821803,-0.001891562,-0.00301412,-0.001213061,0.02709421,-0.01291841,-0.007279831
0.9768077,-0.1835386,-0.2774451,-0.001399371,-0.003838479,0.003549814,0.02121769,-0.01769163,-0.006555159
0.9769999,-0.1831493,-0.2773998,-0.001217741,-0.003475438,0.003621867,0.02059175,-0.0201331,-0.003097818
0.9782519,-0.1801171,-0.2805039,2.467781e-05,-0.0004664033,0.0005433787,0.01495964,-0.01269617,0.002150203
0.9774827,-0.178887,-0.2815141,-0.0007532764,0.0007434818,-0.000442453,0.00523173,-0.004382307,0.005700413
0.9756723,-0.1797031,-0.2823972,-0.002571502,-8.989122e-05,-0.001302255,0.003706474,-0.006022365,0.005913469
0.9747599,-0.1812232,-0.2808842,-0.00349074,-0.001624632,0.0002328893,0.004911911,-0.006325736,0.008521674
0.9746246,-0.1806835,-0.2806747,-0.003631854,-0.001097024,0.0004635425,0.001106332,-0.002563993,0.01315503
0.9756026,-0.1799636,-0.2845603,-0.002658536,-0.0003867232,-0.003401998,-0.003204566,-0.003579629,0.01397109
0.9757817,-0.1811011,-0.2855348,-0.002482867,-0.001531487,-0.004357387,-0.007811918,-0.005936686,0.01407853
0.9764508,-0.1803682,-0.27946,-0.001815961,-0.0008036095,0.00173569,-0.01114507,-0.008701642,0.02024746
0.9768389,-0.1800009,-0.2720755,-0.001428739,-0.0004390326,0.009137786,-0.01179091,-0.01114833,0.02717157
0.9760916,-0.1788222,-0.2743443,-0.002175512,0.0007388205,0.006885564,-0.01584861,-0.01108592,0.02477904
0.9774634,-0.1750548,-0.2770873,-0.0008019388,0.004507363,0.004157821,-0.01916142,-0.01510233,0.01929408
0.978198,-0.1758675,-0.2743934,-6.43011e-05,0.003697403,0.006865396,-0.0190765,-0.01415783,0.01863544
0.9772065,-0.1823943,-0.280891,-0.00105156,-0.002825332,0.000379729,-0.02067241,-0.004834178,0.01616719
0.9764377,-0.1879169,-0.2905762,-0.00181497,-0.008342645,-0.009295234,-0.02315192,0.002386444,0.009681732
0.9763817,-0.1851856,-0.293708,-0.001864451,-0.00560471,-0.01241837,-0.0267318,0.009506821,0.002992308
0.9795322,-0.1810419,-0.2927355,0.00129359,-0.001452883,-0.01143806,-0.02684583,0.009915161,-0.002050436
0.9828106,-0.1845922,-0.2895125,0.004580662,-0.004993283,-0.008207403,-0.02285815,0.01125259,-0.00497773
0.9829958,-0.1866895,-0.2896917,0.004775169,-0.007079093,-0.008378875,-0.02369375,0.02081378,-0.009313452
0.9808247,-0.1866186,-0.2879624,0.00261385,-0.006994859,-0.00664105,-0.02412327,0.01941894,-0.01401983
0.9771707,-0.1859958,-0.2836893,-0.001030045,-0.006356704,-0.002358567,-0.02019916,0.01851475,-0.01668026
0.9769292,-0.1813366,-0.2841391,-0.001261386,-0.001680029,-0.002797904,-0.01877486,0.02283534,-0.01905356
0.9777376,-0.1811548,-0.2829236,-0.0004426777,-0.001478642,-0.001570781,-0.01909358,0.0183321,-0.02132869
0.9756809,-0.1813928,-0.2822786,-0.002488921,-0.001694995,-0.0009130425,-0.01928832,0.01647298,-0.02332923
0.9758394,-0.1793165,-0.2865185,-0.002319758,0.0004049139,-0.005139096,-0.01884161,0.01643143,-0.02442204
0.9752141,-0.1828261,-0.2880659,-0.00293411,-0.003079456,-0.006671441,-0.01771499,0.01827242,-0.02775252
0.9721736,-0.1848582,-0.2872204,-0.005963274,-0.005084587,-0.005809628,-0.01683621,0.02452733,-0.03111748
0.9719953,-0.1853127,-0.2886356,-0.006129758,-0.005510444,-0.007207042,-0.01406711,0.02349879,-0.02914027
0.9717227,-0.1849741,-0.2903557,-0.00638972,-0.005141499,-0.008907733,-0.01113774,0.02187969,-0.02920099
0.9717672,-0.1808281,-0.2902809,-0.006331698,-0.0009634016,-0.0088115,-0.009894117,0.02031329,-0.03047299
0.9731516,-0.1805052,-0.2901739,-0.004932418,-0.0006067266,-0.008680947,-0.007948079,0.01694484,-0.02893133
0.9731119,-0.1816334,-0.2893988,-0.004955965,-0.001699618,-0.007879875,-0.005540904,0.02090887,-0.0284037
0.9754911,-0.1828403,-0.2884398,-0.002559146,-0.002869798,-0.006892426,-0.005096002,0.02190837,-0.02552842
0.9775184,-0.184477,-0.289038,-0.0005127545,-0.004468424,-0.007459374,-0.005246431,0.01721437,-0.02290342
0.9755994,-0.1837204,-0.2883724,-0.002411122,-0.003672463,-0.006759833,-0.004494744,0.01600241,-0.02146578
0.9744708,-0.1860275,-0.2861261,-0.003517754,-0.005938973,-0.004476721,-0.006261758,0.01675089,-0.01583815
0.9730608,-0.1861336,-0.2841971,-0.00490446,-0.006002985,-0.00250808,-0.005832633,0.01653481,-0.01305144
0.9712948,-0.1818251,-0.2853381,-0.006645731,-0.001651011,-0.003606731,0.001984007,0.008858608,-0.0144036
0.9715822,-0.1795745,-0.2885651,-0.006332071,0.0006444629,-0.006788882,0.006710154,0.0002969271,-0.01162652
0.97416,-0.1781756,-0.2901717,-0.003726287,0.002089346,-0.008347986,-0.0005590638,0.002680738,-0.006269444
0.9786067,-0.1777775,-0.291904,0.0007500941,0.002534413,-0.01003024,-0.01158633,0.002713068,-0.002824475
0.9786443,-0.1765565,-0.2899899,0.000818933,0.003802992,-0.008063381,-0.01358835,-0.005152666,-0.0004863923
0.9768252,-0.1760106,-0.2845662,-0.0009675234,0.004396717,-0.002584055,-0.01412543,-0.008991703,0.002668585
0.9792383,-0.1768313,-0.282729,0.001479364,0.003623824,-0.0006885866,-0.01760007,-0.01296258,0.009929512
0.9795754,-0.1757949,-0.2806122,0.001851272,0.004707536,0.001489014,-0.01159878,-0.02000676,0.01780398
0.9781851,-0.1757151,-0.2776294,0.0004965269,0.004834007,0.004534672,-0.006010498,-0.01852741,0.01838871
0.9768549,-0.1748151,-0.2764888,-0.0007976364,0.005779493,0.005739793,-0.009115075,-0.01434689,0.01847058
0.9741455,-0.1745371,-0.2745475,-0.0034705,0.006101719,0.007746705,-0.01035853,-0.01613792,0.02139439
0.975588,-0.1754859,-0.2753244,-0.001991121,0.00519547,0.007035942,-0.01115732,-0.01520678,0.02338664
0.9774507,-0.1734716,-0.2801081,-9.110283e-05,0.007250278,0.002318221,-0.01358245,-0.0172161,0.02859052
0.9762859,-0.1725181,-0.2831022,-0.001218331,0.008241959,-0.0006103124,-0.01432407,-0.02310104,0.0304079
0.9784406,-0.17264,-0.2822772,0.0009742412,0.008155676,0.0002795186,-0.01135444,-0.0203786,0.02835954
0.9818209,-0.174584,-0.2812393,0.004392375,0.006244404,0.001381371,-0.00490379,-0.01803988,0.02917105
0.9824222,-0.1775117,-0.2813451,0.005031365,0.003346187,0.001338614,-0.001337393,-0.01681435,0.0266317
0.9816862,-0.1754761,-0.2776914,0.004332637,0.00540809,0.005054126,-0.005176824,-0.01167113,0.02491104
0.980688,-0.1743307,-0.2741032,0.003370922,0.006576362,0.008702612,-0.009077116,-0.01383058,0.0234477
0.979576,-0.1764839,-0.2792434,0.002294432,0.004442527,0.003620964,-0.002600462,-0.01821914,0.01782428
0.978736,-0.1775538,-0.2843078,0.001488704,0.003388519,-0.001386926,0.005190594,-0.017841,0.01767969
0.9791883,-0.1776448,-0.2817735,0.001973997,0.003309946,0.001201552,0.006258278,-0.01447747,0.01727021
0.9795833,-0.1758286,-0.2811542,0.002400613,0.005134964,0.001872916,0.007719852,-0.007111992,0.01109587
0.9796334,-0.17344,-0.2840794,0.002480865,0.007528883,-0.001002623,0.007725708,-0.003844346,0.007851134
0.9800429,-0.1732177,-0.2851421,0.002918934,0.007752912,-0.00201777,0.006864852,-0.0008962811,0.003503306
0.9788742,-0.1742522,-0.2868091,0.001777043,0.006716395,-0.003639459,0.007505251,0.007723161,-0.005342077
0.9774578,-0.1753839,-0.2884177,0.0003857861,0.005578995,-0.005204618,0.005450632,0.008703082,-0.005628205
0.976174,-0.176767,-0.2885649,-0.0008746469,0.004186325,-0.005310126,0.003688101,0.00522506,0.0002309997
0.9742067,-0.1769769,-0.2885348,-0.00282022,0.003963098,-0.005239803,0.004438417,0.005516482,-0.002120994
0.9748302,-0.1769329,-0.2871439,-0.002176505,0.003989973,-0.003809824,0.00789549,0.003630939,-0.003249631
0.9754263,-0.1791395,-0.2880536,-0.001561529,0.001762865,-0.004681428,0.01083768,0.002107798,-0.00130576
0.97345,-0.1791955,-0.2902399,-0.003520154,0.001682807,-0.006830417,0.008064429,-0.00222899,-0.003770397
0.9725516,-0.1760203,-0.2902352,-0.004401899,0.004830846,-0.006788916,0.005532696,-0.009333321,-0.0006175821
0.9725912,-0.1750966,-0.2924592,-0.004346469,0.005724263,-0.008976321,0.00690705,-0.00590725,0.003766606
0.9746679,-0.1782909,-0.2940796,-0.002254531,0.002496705,-0.01056002,0.009656824,-0.002183043,0.003873491
0.9775754,-0.1820903,-0.2941272,0.0006678821,-0.001338789,-0.01057041,0.01645823,-0.004230672,0.004225262
0.9759473,-0.1810679,-0.2944417,-0.0009457279,-0.0003550983,-0.01084682,0.02277946,0.001243207,-0.0008662409
0.9730652,-0.1805106,-0.2901187,-0.003813668,0.0001610891,-0.006484532,0.01558655,0.00424326,-0.006519154
0.9719205,-0.1839307,-0.2858436,-0.004944356,-0.003302069,-0.002168641,0.005789145,-0.001814964,-0.006524576
0.9719421,-0.1834324,-0.2860289,-0.004908889,-0.002848449,-0.002311724,0.01031429,-0.004352645,-0.00538954
0.9735765,-0.1818711,-0.288865,-0.003260448,-0.001333107,-0.005104025,0.01174516,-0.001677535,-0.004367997
0.9741968,-0.1822066,-0.2949011,-0.002625729,-0.001715543,-0.01109498,0.005863352,0.003243193,-0.003270346
0.9751866,-0.1813489,-0.2999634,-0.001621129,-0.0009054071,-0.01611054,0.007136623,0.006375528,-0.0009006661
0.977128,-0.1812821,-0.2990964,0.0003354226,-0.0008866829,-0.01519464,0.006507837,0.005201696,-0.0002558358
0.9764685,-0.1805682,-0.2940019,-0.0003084077,-0.0002209905,-0.01004883,0.004523788,0.003875806,-0.00117605
0.9756368,-0.181523,-0.2926789,-0.001124134,-0.001224102,-0.008671598,0.0057225,0.003400801,0.0009121832
0.9749071,-0.1854966,-0.29362,-0.001837475,-0.005245787,-0.009555532,0.004158682,0.002437428,0.002651136
0.97298,-0.1866932,-0.288969,-0.003747973,-0.006490007,-0.004844181,0.004540046,0.0006806766,0.004597675
0.9733204,-0.1860125,-0.2850102,-0.003390514,-0.005856123,-0.0008221351,0.004110632,-0.0006047895,0.007813286
0.9741554,-0.1849998,-0.2844726,-0.002537894,-0.004888992,-0.0002184128,0.001072771,-0.000901151,0.008492063
0.9731328,-0.1838893,-0.2828259,-0.003542404,-0.003822592,0.001496947,-0.0006142392,-0.001353654,0.006514062
0.9726664,-0.1825647,-0.2830208,-0.003990061,-0.002540346,0.001372734,-0.001891124,-0.001911371,0.003943558
0.9723812,-0.1814183,-0.2867957,-0.004255751,-0.001434378,-0.002329814,-0.0009862511,-0.0002053514,0.005242564
0.9731191,-0.1836088,-0.2894717,-0.003497445,-0.003663396,-0.004932028,-0.003148209,0.005090825,0.007419089
0.9763399,-0.1842124,-0.2887678,-0.0002553893,-0.004303298,-0.004153167,-0.007112199,0.00836769,0.005771973
0.978784,-0.1824713,-0.2890505,0.002210836,-0.002596324,-0.004359617,-0.007530588,0.007970777,0.005747432
0.9795208,-0.1837792,-0.2899526,0.002970367,-0.003936067,-0.005184411,-0.00825641,0.007906018,0.005566572
0.9789845,-0.184503,-0.2902236,0.002457425,-0.004689157,-0.005376998,-0.005681696,0.007759512,0.003118156
0.9770211,-0.1843366,-0.2914625,0.0005175609,-0.004549581,-0.006536458,-0.001132831,0.00489739,0.004010548
0.9756825,-0.184121,-0.292702,-0.0007974689,-0.004358097,-0.007695375,-0.0001012084,-0.0001700838,0.004260699
0.9744619,-0.1818606,-0.2939637,-0.001994401,-0.002119053,-0.008875381,0.0004157668,-0.00110878,0.002716415
0.9734124,-0.1815288,-0.2920695,-0.003020209,-0.001805749,-0.006898304,0.001675131,0.000587021,0.003668832
0.9745188,-0.1823325,-0.2906366,-0.001889986,-0.002625187,-0.005381141,0.002323561,0.0005188277,0.003107449
0.9761901,-0.1819003,-0.2903985,-0.0001947864,-0.002206068,-0.005057409,0.001281691,0.00158557,0.001404981
0.9753348,-0.1827088,-0.2863344,-0.00102612,-0.003025044,-0.0009065479,0.0006586037,0.001976139,8.857083e-05
0.9718129,-0.1827953,-0.2873198,-0.00452391,-0.003119217,-0.001804052,0.0006681879,0.001880636,-0.00273035
0.9704519,-0.1816285,-0.288078,-0.005860562,-0.001957551,-0.002473501,0.001437503,0.0001391018,-0.003813355
0.9737287,-0.1824909,-0.2833431,-0.002559222,-0.002822509,0.002350776,0.004292445,-0.003520045,-0.001742266
0.9770382,-0.1857376,-0.2824157,0.0007753781,-0.006069173,0.003367816,0.004701735,-0.002294366,0.001132014
0.9765978,-0.1883604,-0.2813622,0.0003603364,-0.008689293,0.004510982,0.005757617,-0.002165224,0.003096786
0.974934,-0.1869403,-0.2819658,-0.001277779,-0.007263759,0.003996464,0.01136695,-0.00714707,0.0069219
0.9755397,-0.1853014,-0.2840172,-0.0006460769,-0.005616525,0.002033265,0.01612178,-0.01061452,0.0102787
0.9776595,-0.1874451,-0.284796,0.001499767,-0.007748836,0.001341427,0.0176813,-0.009341329,0.005921084
0.9798904,-0.1889822,-0.2891159,0.003756818,-0.0092714,-0.002892919,0.01687853,-0.001383673,0.001168406
0.9796962,-0.1880992,-0.2893106,0.00358851,-0.008370491,-0.003003594,0.01641468,0.005078774,0.0004648984
0.9779768,-0.1847686,-0.2873392,0.001894701,-0.005018604,-0.0009498161,0.01293627,0.004353188,0.0006486638
0.9777796,-0.1782225,-0.287805,0.001722579,0.001552238,-0.00133476,0.006041489,0.002870575,0.004513189
0.976035,-0.1744038,-0.2867906,2.347408e-06,0.005398965,-0.0002411063,0.0048729,0.0001574934,0.007960502
0.9756421,-0.1752117,-0.2869897,-0.0003670293,0.004621877,-0.0003626753,0.002961523,-0.0003015555,0.009956975
0.9773187,-0.1766482,-0.2862116,0.001332386,0.003218386,0.0004913219,-0.002921583,0.005240298,0.01251197
0.9759427,-0.1801484,-0.2873961,-2.15424e-05,-0.000246921,-0.0006192539,-0.003366064,0.00485445,0.01100185
0.9758594,-0.1838174,-0.2901985,-8.36255e-05,-0.003879558,-0.003349489,-0.002555682,-0.001974382,0.0085692
0.9751514,-0.1854091,-0.2878311,-0.0007711685,-0.005433446,-0.0009117894,-0.001831996,-0.002882455,0.006446487
0.9724987,-0.1898659,-0.2850357,-0.003404273,-0.009850962,0.001952062,0.001593096,0.00373222,0.001447525
0.97407,-0.1926378,-0.282875,-0.001814009,-0.01258197,0.004179333,0.002885178,0.01027256,-0.001357227
0.9760156,-0.1867899,-0.2834331,0.0001499939,-0.006691186,0.003685715,0.001393421,0.008412565,-0.0008105921
0.9773397,-0.1811647,-0.2860238,0.001491896,-0.001021078,0.001157228,-0.0004563218,0.00477849,-0.002094651
0.977664,-0.180469,-0.2850873,0.001833413,-0.0002783251,0.002153496,0.0001492145,0.006414843,-0.003391193
0.9729379,-0.1780823,-0.2875105,-0.002876066,0.002157176,-0.0002125223,0.0006111657,0.003061157,-0.001419799
0.9692007,-0.177199,-0.2906126,-0.006597178,0.003090888,-0.00325983,-0.001011565,-0.002245763,0.0005380766
0.969733,-0.1820296,-0.2888625,-0.006049279,-0.001688114,-0.001457401,0.0006481566,-0.00295249,0.001715149
0.9698946,-0.187257,-0.2913254,-0.005872065,-0.006862978,-0.003870214,0.003934077,-0.004196862,0.002293715
0.9698809,-0.1901129,-0.2958493,-0.005869975,-0.009665371,-0.0083461,0.006487747,-0.00344226,0.002017897
0.9739256,-0.1892936,-0.2959784,-0.001809137,-0.008791466,-0.008428838,0.00693629,-0.003413766,0.005319678
0.9779236,-0.1878961,-0.2958821,0.002205508,-0.007337941,-0.008287615,0.006043674,-0.005488907,0.007524406
0.9756373,-0.1894871,-0.2959099,-6.357355e-05,-0.008871455,-0.00827137,0.008749743,-0.004706455,0.002457013
0.9738581,-0.1891654,-0.295208,-0.001825268,-0.008490574,-0.007526014,0.008863927,-0.002864262,-0.0018661
0.975527,-0.1890455,-0.2941556,-0.0001385902,-0.008309682,-0.006430305,0.007019256,0.0004724176,-0.003371928
0.9749276,-0.1898986,-0.2914993,-0.0007199019,-0.009099743,-0.003730737,0.00715512,0.002240201,-0.005631614
0.9737373,-0.1866185,-0.291068,-0.001891875,-0.005754568,-0.003256091,0.004390548,0.003533574,-0.004357588
0.973638,-0.1853689,-0.2913453,-0.001972592,-0.004437744,-0.003489667,0.00563189,0.005827645,-0.001414634
0.9732384,-0.1877922,-0.2867616,-0.00235332,-0.006791662,0.001137885,0.008557813,0.002890001,-0.001401748
0.9728315,-0.1895096,-0.2822412,-0.002741128,-0.008437684,0.005702334,0.0061011,0.002417587,-0.002661549
0.9718316,-0.1912102,-0.2818553,-0.003721458,-0.01006488,0.006132087,0.005265958,0.006968204,-0.004860302
0.9710578,-0.1921393,-0.2823522,-0.004475271,-0.01091828,0.005678503,0.003339431,0.008427062,-0.005945686
0.9712706,-0.1925278,-0.2817099,-0.0042419,-0.01122861,0.006363254,0.001010524,0.005062447,-0.005552667
0.9725448,-0.1898153,-0.2817894,-0.002946389,-0.008435555,0.006324803,0.002910106,-0.001426666,-0.004864165
0.9751534,-0.1849941,-0.2823237,-0.0003157422,-0.003531115,0.005830088,0.002383044,-0.004627405,0.0001518898
0.9756206,-0.185918,-0.2825245,0.0001741482,-0.0043692,0.005666833,-5.050761e-05,-0.006299982,0.004828608
0.974439,-0.1888276,-0.286467,-0.0009840747,-0.007190664,0.001759728,-0.001144175,-0.005987606,0.001365852
0.975016,-0.1888907,-0.2908129,-0.0003830746,-0.007163395,-0.002552985,-0.00116301,-0.0001276717,-0.00288114
0.9742535,-0.1892761,-0.290528,-0.001121191,-0.007456212,-0.002237122,0.000182859,0.001968675,-0.001856946
0.9730279,-0.1897141,-0.2892999,-0.002321955,-0.007799505,-0.0009801055,0.000658914,0.0007822832,-0.000621484
0.9739667,-0.1903653,-0.2866507,-0.001357929,-0.008353814,0.001696186,0.0008667765,-0.001559241,0.000328528
0.9747542,-0.1906862,-0.2823626,-0.0005447448,-0.008575744,0.006009405,0.001343296,-0.004050751,0.001649835
0.9760276,-0.1898508,-0.281359,0.0007545887,-0.00763924,0.007036159,0.0004397716,-0.001871366,4.198757e-07
0.9768847,-0.1900469,-0.2836103,0.001637878,-0.00773208,0.004805769,-0.002400434,-0.001887519,-0.002671266
0.9760354,-0.1886885,-0.2872734,0.0008148928,-0.006268345,0.001161236,-0.006317075,0.001605605,-0.003650336
0.9750724,-0.1866073,-0.2927279,-0.0001217996,-0.004079913,-0.004277067,-0.007340955,0.007943467,-0.001546243
0.9730722,-0.1875725,-0.296032,-0.002095793,-0.00493598,-0.00756716,-0.005537065,0.002932271,0.001717606
0.9714829,-0.1878219,-0.293703,-0.003659042,-0.005074596,-0.005225923,-0.001872055,-0.0001004479,0.001189786
0.9725919,-0.1871856,-0.2910593,-0.002524074,-0.004326063,-0.002571494,0.00620464,0.004094654,-0.0008870878
0.9745238,-0.1876473,-0.2919391,-0.0005661584,-0.004674202,-0.003441631,0.01209942,0.005455641,-0.003463649
0.9761654,-0.1876799,-0.2921959,0.00110152,-0.00459214,-0.003689689,0.01060726,0.007561965,-0.004734793
0.9769188,-0.1883243,-0.2886549,0.001880855,-0.005120885,-0.0001407092,0.009210944,0.008005884,-0.003523291
0.9762199,-0.1892307,-0.2872149,0.001207764,-0.005910844,0.001306802,0.009559539,0.003260956,-0.005029378
0.9761982,-0.1887771,-0.2900999,0.001211592,-0.005339966,-0.001571264,0.008208287,0.0005587291,-0.005329729
0.9763347,-0.1878014,-0.2890289,0.001373069,-0.004246444,-0.0004938536,0.008950714,0.001273038,-0.005070397
0.9744107,-0.1873278,-0.2878459,-0.000526313,-0.00365446,0.0006950144,0.01051492,0.0003485766,-0.006256068
0.9730601,-0.1874357,-0.2886954,-0.001852993,-0.003643608,-0.000148993,0.008511078,0.002646882,-0.003769864
0.9737341,-0.1875885,-0.2816651,-0.001155513,-0.003677396,0.006886354,0.006605884,0.008466541,-0.002852392
0.9754327,-0.1875012,-0.2742755,0.0005660029,-0.003471131,0.01428023,0.002019003,0.008455962,-0.001399283
0.9787818,-0.1874294,-0.2750675,0.003937464,-0.003280345,0.01349139,-0.003053583,0.005341037,0.001507446
0.9812876,-0.1875665,-0.2804011,0.006464958,-0.003298791,0.008159314,0.003276073,0.002572587,-0.001234015
0.9789634,-0.1873125,-0.286637,0.004161547,-0.002926419,0.0019228,0.0103381,0.003186076,-0.004385166
0.9751815,-0.1865539,-0.2883798,0.0003992061,-0.002050049,0.0001770486,0.008411749,0.007631687,-0.008197134
0.9745115,-0.185919,-0.2873575,-0.0002524321,-0.001297989,0.001194349,0.005594965,0.01032728,-0.01259668
0.9740997,-0.1859403,-0.2867486,-0.0006470715,-0.001202941,0.001796116,0.001091855,0.01728873,-0.01079732
0.9755739,-0.1863366,-0.2871673,0.0008431003,-0.001483993,0.001368438,-0.004502553,0.02362016,-0.008253323
0.9794544,-0.1853284,-0.2879184,0.00473839,-0.0003618029,0.0006063841,-0.006775602,0.02027337,-0.00905842
0.9788274,-0.1824314,-0.2852759,0.004124991,0.002647827,0.003236324,-0.006888405,0.01796738,-0.008442124
0.9781145,-0.1805394,-0.2845663,0.003424143,0.004650737,0.003931556,-0.008295494,0.02123375,-0.008278975
0.9783519,-0.1844513,-0.2877166,0.00367219,0.0008478035,0.0007651491,-0.01201788,0.02296695,-0.01148412
0.9753164,-0.189198,-0.2888548,0.0006456744,-0.003792297,-0.0003907,-0.01124477,0.0209429,-0.0141095
0.9760654,-0.1846573,-0.2855603,0.001402022,0.0008527564,0.002884644,-0.009716005,0.02025216,-0.01632104
0.9771502,-0.1793953,-0.2808503,0.002492521,0.006216597,0.007573961,-0.01406101,0.02016549,-0.01621869
0.9745382,-0.1809659,-0.2822123,-0.0001153711,0.00474505,0.006189821,-0.01632975,0.01917997,-0.01238053
0.9740949,-0.1815935,-0.2831967,-0.0005559987,0.004213528,0.005181562,-0.01567484,0.01985448,-0.008995777
0.9738077,-0.1818717,-0.2783232,-0.0008420962,0.00402815,0.01002935,-0.01409742,0.0173038,-0.005060062
0.9750465,-0.1824486,-0.2768693,0.0003965447,0.003540404,0.01145547,-0.0110873,0.01202127,-0.005881748
0.9769222,-0.1816176,-0.2780153,0.002270835,0.004456956,0.01027951,-0.01028957,0.007532122,-0.009208696
0.9735673,-0.1833968,-0.2785913,-0.001086626,0.002759343,0.009670778,-0.007276514,0.005922898,-0.007927093
0.9712112,-0.1855372,-0.2818404,-0.003446276,0.0006965041,0.006386217,-0.002646981,0.006363664,-0.009506158
0.9733923,-0.1864172,-0.2869837,-0.001269754,-0.0001098808,0.001204497,-0.004110787,0.002110531,-0.01009508
0.9758804,-0.1862848,-0.2887587,0.001213117,9.215547e-05,-0.0006118144,-0.007336686,0.001197879,-0.009646262
0.9786739,-0.1845309,-0.2857985,0.004000684,0.001911809,0.002304588,-0.007986742,0.006818716,-0.01109353
0.9809824,-0.1837943,-0.2846983,0.006302478,0.00271033,0.003358665,-0.008446578,0.008859007,-0.007559135
0.9784219,-0.1830872,-0.2851561,0.00373441,0.003475505,0.002852574,-0.007828289,0.006036549,-0.005981017
0.9746662,-0.1832539,-0.2851696,-2.995983e-05,0.003363112,0.002788822,-0.005074213,0.001965808,-0.003575856
0.9766479,-0.1848693,-0.2858101,0.00194207,0.001797954,0.002096173,-0.002926786,0.003291174,-0.0003511459
0.9779833,-0.1855557,-0.2813792,0.003266728,0.001158034,0.006473197,-0.002734888,0.004871509,-0.004000921
0.9766103,-0.1865329,-0.2759154,0.001881959,0.0002235045,0.01188132,-0.002536296,0.002260151,-0.004391513
0.9784082,-0.1858659,-0.2780817,0.003667052,0.0009293736,0.009657485,-0.001650621,0.001939372,-0.005907726
0.9795595,-0.1838998,-0.2835239,0.004804407,0.002930866,0.004155713,-0.001485351,-0.0012307,-0.007263881
0.9784945,-0.1831957,-0.2869241,0.003724228,0.003666838,0.0006937518,-0.0006035341,-0.003654381,-0.001823684
0.9756077,-0.1829367,-0.2872939,0.0008209952,0.003954151,0.0002603525,0.001801548,-0.0006780697,-0.0005799791
0.9724698,-0.1833155,-0.2840851,-0.002334554,0.003600212,0.003403775,0.001811529,0.001613916,0.001265883
0.9745462,-0.1815864,-0.2805232,-0.0002769093,0.005350595,0.006898793,0.0004974298,0.004135299,0.00100595
0.9768596,-0.1796561,-0.2819709,0.002016828,0.007298586,0.00538274,-0.0004153576,0.003842208,-0.004008431
0.9762505,-0.1814676,-0.2847538,0.001387215,0.005501099,0.00253004,-0.002601683,0.004387393,-0.002144774
0.9764155,-0.184308,-0.2845545,0.001530972,0.002671015,0.002658188,-0.002051595,0.005979415,-0.0008597902
0.9764262,-0.1866095,-0.2846236,0.001519599,0.0003760875,0.002516694,0.000216391,0.0008422769,-0.002029138
0.9763243,-0.1845561,-0.2829773,0.001394913,0.002432467,0.004089595,-5.27218e-06,-0.0005903593,-0.0009854239
0.9764491,-0.1800874,-0.2810211,0.001496296,0.006900757,0.005971377,-0.0009268157,0.001192492,-0.0001241885
0.976348,-0.1802405,-0.282377,0.00137108,0.006743744,0.004540015,-0.003198897,-1.333299e-05,-0.0005634989
0.9762345,-0.1812724,-0.2829707,0.001232907,0.005704543,0.003870062,-0.005830939,0.001655959,-0.001850369
0.9754805,-0.1820715,-0.2833713,0.0004537233,0.004894657,0.003392266,-0.007174885,0.00231679,-0.000224995
0.9749168,-0.1836862,-0.2832899,-0.0001356565,0.003265566,0.003395754,-0.007285578,0.00193399,0.0008926295
0.9757807,-0.18171,-0.2811914,0.0007021034,0.005224084,0.005415587,-0.005490302,0.002868535,0.002969161
0.9768657,-0.1795406,-0.2801985,0.001760662,0.007372251,0.00632919,-0.005489719,0.004542718,0.004685335
0.9765883,-0.1806656,-0.2800044,0.001456604,0.006222766,0.006443191,-0.006207727,0.008188489,-0.0006459465
0.9770067,-0.1812824,-0.2788477,0.001848,0.005578047,0.007519083,-0.00480511,0.008143865,-0.004364777
0.9782972,-0.1819927,-0.2763303,0.00311121,0.004836467,0.009954845,-0.003803401,0.005906724,-0.004426222
0.9776261,-0.1839794,-0.2760262,0.002412581,0.00281509,0.01017621,-0.001640017,0.002464342,-0.001188975
0.9765985,-0.183848,-0.2796715,0.001357128,0.002908681,0.006447084,3.988182e-07,-0.004188452,0.002509759
0.9763701,-0.183609,-0.2840043,0.001100574,0.003106917,0.002029139,-0.001034187,-0.005736365,-0.000831666
0.9763682,-0.1849868,-0.2869515,0.001070228,0.001685441,-0.001004464,-0.0003292128,-0.004587758,-0.00319284
0.9772561,-0.1829249,-0.2839171,0.001929335,0.003701146,0.001942735,0.001932231,-0.003571043,-0.003996137
0.9773556,-0.1799798,-0.2799703,0.001999815,0.006597507,0.005801486,0.003488104,0.002000388,-0.006333732
0.9769684,-0.1805052,-0.2820075,0.001583428,0.006020936,0.003675815,0.00346724,0.003550914,-0.005881718
0.977897,-0.1812674,-0.2809836,0.002482624,0.005205071,0.004610655,0.003052677,0.0001341136,-0.003451654
0.9782913,-0.1830875,-0.2786499,0.00284718,0.003329028,0.006854869,0.004341354,9.394756e-05,0.001204185
0.9785563,-0.1854621,-0.2813212,0.003082176,0.0008963386,0.004093531,0.003498789,0.001597004,0.004363892
0.9803761,-0.1837314,-0.2819248,0.004871649,0.002566742,0.003399476,-0.001042114,0.006720425,0.001836135
0.9805475,-0.1803196,-0.2807952,0.005012305,0.005916467,0.004438296,-0.003453691,0.01137827,-0.0006972503
0.9775941,-0.1784329,-0.2788936,0.002027535,0.007739267,0.006248799,-7.991965e-05,0.003714169,0.001189049
0.9755577,-0.1773099,-0.2750722,-4.077005e-05,0.008796472,0.009978712,0.00372231,-0.004300337,0.001850032
0.9765954,-0.1775871,-0.275833,0.0009645331,0.008451645,0.009125956,0.005298451,-0.001431457,-0.0002396937
0.9789785,-0.1787333,-0.2780669,0.003314717,0.007235763,0.006799403,0.009998511,-0.001568889,0.0001043312
0.9812864,-0.1803969,-0.279808,0.0055893,0.005500398,0.004964961,0.0123856,-0.005556018,-0.0003180972
0.9822324,-0.183589,-0.28847,0.006501402,0.002234582,-0.003791109,0.008987909,-0.002024655,-0.002519213
0.9802215,-0.1840136,-0.2934481,0.004455862,0.001734268,-0.00886364,0.007226058,0.0004420363,-0.003943088
0.9776723,-0.181294,-0.2847126,0.001871226,0.004376462,-0.0002224731,0.004509579,-0.003402718,-0.003891666
0.9765855,-0.1801166,-0.2771984,0.0007482107,0.005474887,0.0071979,0.002382955,-0.004131626,-0.0005796069
0.9747636,-0.1793256,-0.2788662,-0.001110711,0.006185458,0.005436858,0.003467417,-0.002658166,0.002515519
0.9751374,-0.1813551,-0.2800893,-0.0007745138,0.004074195,0.004121144,-1.75422e-05,-0.001728843,0.004473062
0.9774959,-0.1845042,-0.2786027,0.001545992,0.0008419696,0.005515595,-0.003209426,2.137382e-05,0.004410751
0.9762343,-0.1814814,-0.2787824,0.0002460524,0.003780518,0.005244133,-0.002272226,0.0001724142,0.001747482
0.9760356,-0.179655,-0.2775962,8.865997e-06,0.005521691,0.006339053,-0.002305174,-0.0003506378,0.0005007777
0.9777748,-0.1828395,-0.2747127,0.001709409,0.002251017,0.009131605,-0.00136523,0.001155266,-0.001356878
0.97693,-0.1839704,-0.2757803,0.000825976,0.001033171,0.007973159,-0.0003023892,0.002660806,-0.001349176
0.9771279,-0.1830894,-0.277947,0.0009852728,0.001826754,0.005715592,-0.001109378,0.001925917,0.001268574
0.9780201,-0.1822325,-0.2777167,0.001838881,0.002595756,0.005854833,-0.002495799,0.003496161,0.001039799
0.9778177,-0.181987,-0.2768871,0.001598075,0.002753085,0.00659327,-0.00267983,0.005710925,0.001337081
0.9781482,-0.1827848,-0.2762033,0.00189023,0.001867152,0.00718565,-0.002494693,0.003600993,0.002170181
0.9794214,-0.1838131,-0.2783068,0.003125133,0.0007506961,0.004990397,-0.005391565,0.002286303,0.001624832
0.9810798,-0.1844066,-0.2836528,0.004745454,6.917886e-05,-0.0004476894,-0.005196567,-0.0007391557,0.0009018921
0.9796586,-0.1841358,-0.2862092,0.003286021,0.0002524423,-0.003096413,-0.002445702,-0.004375843,-0.00146736
0.9772873,-0.1823182,-0.2794928,0.0008764336,0.001983048,0.003527877,-0.005067164,-0.00214356,-0.003454381
0.9771027,-0.1797794,-0.2722309,0.0006534866,0.004435652,0.01069797,-0.005900512,-0.0004299624,-0.003723175
0.9771719,-0.1811823,-0.2777473,0.0006841972,0.002947234,0.005089975,-0.004243711,0.0001248511,-0.001821173
0.9788028,-0.1840096,-0.2843822,0.002276758,3.523156e-05,-0.001636463,-0.004219383,-0.001075208,0.002008369
0.9798613,-0.1831658,-0.2847187,0.003296881,0.0007951723,-0.002064126,-0.001818776,-0.005470233,0.00306366
0.9786393,-0.183185,-0.2875611,0.002036565,0.0006930624,-0.004997169,-0.001270131,-0.005991814,0.003476362
0.9782495,-0.1836803,-0.2868612,0.001608369,0.000116041,-0.004386999,-0.001329171,-0.003451155,0.005589894
0.9773553,-0.1826044,-0.2844956,0.0006758078,0.001111357,-0.002109773,0.002308246,-0.001021865,0.003202394
0.975678,-0.1817798,-0.2868103,-0.001039768,0.001856787,-0.004511176,0.004340874,0.0002424721,-0.002153823
0.9747715,-0.1803511,-0.2846848,-0.001984359,0.003207625,-0.002470457,0.004373629,-0.001826463,-0.004369665
0.9750389,-0.1819558,-0.2832689,-0.001754812,0.00152644,-0.00113711,0.004042596,-0.005842507,-0.00302
0.9772759,-0.1843741,-0.2852282,0.0004448617,-0.000967027,-0.003176566,0.005241904,-0.007046316,-0.0001486511
0.9792047,-0.1820483,-0.2833169,0.00233698,0.001285162,-0.00134284,0.005851713,-0.002946231,0.0003528615
0.9792396,-0.1803821,-0.2833432,0.00233569,0.00287916,-0.001444125,0.001853909,0.003517499,-0.0004482802
0.9782416,-0.1806518,-0.2826072,0.001302,0.00253883,-0.0007802643,-0.003233628,0.007917754,-0.0003079553
0.977178,-0.1803939,-0.2805949,0.000203293,0.002727489,0.001162608,-0.007079526,0.003641455,0.000236402
0.9769205,-0.1806702,-0.2836903,-8.885758e-05,0.002383363,-0.001999405,-0.003982599,-0.002435891,0.001960733
0.9759513,-0.1800209,-0.2836731,-0.001092087,0.002966236,-0.002045918,0.002563884,0.0006346953,0.001834095
0.9742807,-0.1777811,-0.2816509,-0.002796047,0.005140854,-8.463226e-05,0.002732253,0.002651333,-0.001316556
0.9739293,-0.1762274,-0.2819732,-0.003180055,0.006630534,-0.0004649401,0.002240963,0.002691957,-0.006034884
0.9761506,-0.178661,-0.2797696,-0.0009903676,0.004133802,0.001683428,0.001060212,0.004090761,-0.008511398
0.9797839,-0.1820221,-0.2786955,0.002612374,0.000710541,0.002705168,-0.001562589,-0.0002059074,-0.001655268
0.9797802,-0.1800672,-0.2792536,0.002579123,0.002603984,0.002097129,-0.002718877,-0.002372693,0.004995333
0.9783758,-0.1768853,-0.2792763,0.001146156,0.005725217,0.002027001,-0.004988339,-0.001517484,-0.000150198
0.9795741,-0.1753952,-0.2802574,0.002316699,0.007155243,0.001000739,-0.003725055,-0.003754392,-0.004005028
0.9792366,-0.1743661,-0.2806063,0.001952202,0.008124785,0.0006088781,-0.001614855,-0.002653356,0.0002653671
0.9788043,-0.1765245,-0.2807474,0.001493619,0.005907037,0.0004268263,-0.003120246,0.001808028,0.0008692491
0.9795624,-0.1787901,-0.2804684,0.002226099,0.00358216,0.0006669355,-0.003982699,0.004286735,-0.0008428091
0.9789302,-0.179227,-0.2803907,0.00156873,0.003085918,0.0007076785,-0.004069797,0.001411454,0.0001000387
0.9791772,-0.1796151,-0.2799846,0.001791143,0.002638295,0.001078634,-0.001239124,-0.001806429,-0.001128373
0.9793353,-0.1787658,-0.2758082,0.001924954,0.003428107,0.005221577,0.002782074,0.00018563,-0.002986742
0.9785718,-0.1791711,-0.2725168,0.001137577,0.002963208,0.008481165,0.003210788,0.002043133,-0.00391282
0.9775758,-0.1791702,-0.2740977,0.0001180762,0.002904459,0.006869565,0.001421576,0.004076613,-0.003364087
0.9761171,-0.1767314,-0.2769395,-0.001363802,0.005283598,0.003997942,-0.001395264,0.004911987,-0.0002431231
0.977921,-0.175267,-0.2793335,0.0004173248,0.006688112,0.001574645,-0.003015401,0.003734995,0.001129499
0.9804325,-0.1748387,-0.2827286,0.002906447,0.007056378,-0.001849187,-0.002419415,0.004583937,0.001408732
0.9797442,-0.1768714,-0.2831692,0.002196168,0.004963287,-0.002318154,-0.001607559,0.00117898,0.001384819
0.9793648,-0.1784894,-0.2805666,0.001795084,0.00328436,0.0002568512,-0.0009608246,-0.002708433,0.001359912
0.9785115,-0.1764408,-0.2823131,0.0009204151,0.005271533,-0.001516562,0.001870445,-0.001136101,0.001985301
0.9768502,-0.1751298,-0.2826182,-0.0007620723,0.006520492,-0.001847895,0.005412141,-0.001528005,7.971635e-05
0.9773664,-0.1751522,-0.2808541,-0.0002667978,0.006435524,-0.0001090076,0.004182979,-0.002792065,-4.180812e-05
0.9780585,-0.176742,-0.2827634,0.0004046071,0.004782289,-0.002042753,0.002022366,-0.001841675,0.0001671707
0.9784717,-0.1783603,-0.2810568,0.0007975057,0.003099823,-0.0003594883,0.002484668,-0.0007819551,-0.0007625935
0.978875,-0.1768672,-0.2779291,0.001180883,0.004528047,0.002745829,0.001431916,0.0001133016,0.004000285
0.9781252,-0.1758353,-0.2764038,0.0004114388,0.005494225,0.00424977,-0.001131448,0.0002782132,0.006015527
0.9786726,-0.1764859,-0.2770732,0.0009394868,0.004777112,0.003559667,-0.003018306,-0.001047036,0.001540301
0.9794601,-0.1763922,-0.2808705,0.001707896,0.004803626,-0.0002576499,-0.0002564583,-0.002485076,-0.002280347
0.9790555,-0.1754976,-0.2794276,0.001284554,0.005630162,0.001165732,0.003875663,-0.001855242,-0.002447181
0.9792663,-0.1754636,-0.2799549,0.00147677,0.005595232,0.0006193529,0.0005538785,-0.001832688,0.0007956978
0.9790821,-0.1759632,-0.2836781,0.001274255,0.005025925,-0.003122353,-0.001780616,-0.003603226,-0.0002456915
0.9791553,-0.1759454,-0.2810743,0.001329217,0.00497306,-0.000536541,0.001903655,-0.004487972,-0.001920703
0.9793065,-0.1772475,-0.2792603,0.001462336,0.003599398,0.001260092,0.002239622,-0.002507583,-0.0003718873
0.9789534,-0.1782496,-0.2766168,0.0010912,0.002525029,0.003886808,-0.0001554741,0.006061578,-0.0007914208
0.979351,-0.1767377,-0.2733806,0.001470951,0.003963754,0.00710667,-0.003496943,0.01345436,0.0005961854
0.979098,-0.1760725,-0.2755912,0.001200007,0.004555238,0.004880067,-0.00835321,0.005459368,0.0008259399
0.9789157,-0.1776311,-0.2778841,0.0009998798,0.002922252,0.002571054,-0.00922275,-0.007093643,-0.0001182944
0.9789814,-0.1795611,-0.2841449,0.001047693,0.0009173282,-0.003706025,-0.004118082,-0.006698036,0.001580997
0.9799934,-0.1820648,-0.2918111,0.002041869,-0.001661704,-0.01138853,0.002127017,-0.002131791,0.0007309256
0.982786,-0.183812,-0.2895568,0.004816541,-0.003484463,-0.009150127,0.003356886,-0.0001398196,-0.0007008743
0.9824509,-0.1817327,-0.2870206,0.004463459,-0.001480377,-0.006628971,0.002338336,0.004676339,-0.004527496
0.9809571,-0.1794814,-0.2898256,0.002951287,0.0006960675,-0.009447825,0.003063117,0.006739996,-0.009350503
0.9812818,-0.1806587,-0.2877833,0.003257142,-0.0005553636,-0.007417711,0.003348913,0.004077208,-0.004619631
0.9793098,-0.181005,-0.2838205,0.001265853,-0.0009749928,-0.003465194,0.004916486,-0.001271925,0.001370146
0.97753,-0.1802868,-0.2814006,-0.0005337597,-0.0003290974,-0.001053541,0.00779741,-0.006248497,-0.0008944172
0.9779389,-0.1817869,-0.2771488,-0.0001451746,-0.001900335,0.003192241,0.01018644,-0.0009741423,-0.003202066
0.9778257,-0.1830584,-0.2765022,-0.0002790266,-0.003241531,0.003834639,0.009449049,0.004549926,-0.001684287
0.978651,-0.1827427,-0.2771595,0.0005253301,-0.002993986,0.003174724,0.005904006,-0.001887271,-0.000537442
0.9796109,-0.182321,-0.277003,0.001464087,-0.002638686,0.003329998,0.00593079,-0.00795792,0.0003801989
0.9790594,-0.1813538,-0.279291,0.0008912443,-0.001735909,0.001041904,0.007288262,-0.008527206,0.0003003102
0.9790945,-0.1795067,-0.279163,0.0009047805,4.895684e-05,0.001170616,0.009156778,-0.008734195,-0.003655962
0.9792715,-0.1786224,-0.2805458,0.001060102,0.0008732343,-0.0002106569,0.0105684,-0.004770323,-0.00606659
0.9789093,-0.1802699,-0.2812544,0.0006762071,-0.0008321641,-0.0009169927,0.009979066,0.0003442563,-0.000909263
0.9783225,-0.1807803,-0.2766159,6.744479e-05,-0.001398239,0.00372431,0.01378472,-0.001979969,0.004282693
0.9774779,-0.1782307,-0.2764025,-0.0007990304,0.001097795,0.003941013,0.01436936,-0.005839413,0.00090694
0.9778566,-0.1764196,-0.2782666,-0.0004421772,0.002857716,0.00208051,0.01129493,-0.007833025,-0.002504508
0.9790725,-0.1763843,-0.2794324,0.0007519352,0.002843798,0.0009183998,0.01283301,-0.01116996,-0.0006816776
0.9800166,-0.1784391,-0.2797592,0.001674364,0.0007417977,0.000595327,0.01176989,-0.01062268,-0.001475708
0.9798683,-0.1808259,-0.2772917,0.001504593,-0.001690374,0.003066486,0.01117585,-0.006801641,-0.002403285
0.9779746,-0.1807271,-0.277968,-0.0004104779,-0.001635141,0.002393698,0.01315713,-0.00416231,-0.001670526
0.977212,-0.1800884,-0.2781092,-0.001194277,-0.001037992,0.002255716,0.01170156,-0.002239038,-0.002541287
0.9778838,-0.1789553,-0.2781444,-0.0005434234,5.546835e-05,0.002223308,0.01130386,-0.0008479514,-0.0004548791
0.9769237,-0.1779463,-0.2799356,-0.001524251,0.001026794,0.0004344604,0.01131616,0.001672919,0.002526732
0.9759224,-0.1782109,-0.2778811,-0.002545792,0.0007263214,0.002490686,0.008928621,0.002431969,0.003222545
0.9768164,-0.1761408,-0.2779405,-0.001671504,0.002762458,0.002432513,0.006731516,-0.001154275,0.00315539
0.9783127,-0.1712205,-0.2807447,-0.0001943577,0.007650324,-0.0003711118,0.001157778,-0.004568201,0.002284248
0.9795696,-0.1683527,-0.2823128,0.001044211,0.01048704,-0.001939348,-0.008201173,-0.004525891,0.002515788
0.9796199,-0.1701293,-0.2809469,0.001076682,0.00868029,-0.0005740426,-0.01212857,-0.002756076,0.001589503
0.9796585,-0.1717923,-0.2758529,0.001098267,0.006987613,0.004518817,-0.01338893,-0.002051729,0.0002281032
0.9808083,-0.1712694,-0.2748998,0.002231475,0.007480867,0.005470188,-0.02150504,-0.0007663106,0.001747032
0.9795351,-0.1741228,-0.2787752,0.0009422001,0.004597531,0.001592298,-0.02686785,-0.001363419,0.002783208
0.9766503,-0.177898,-0.2826553,-0.001958178,0.000792068,-0.002291024,-0.0234007,-0.004076938,0.003680741
0.9762167,-0.177118,-0.2826223,-0.002406824,0.001541403,-0.002261982,-0.02264584,-0.003481583,0.006208248
0.9772635,-0.1782005,-0.2792429,-0.001374606,0.0004277342,0.001112891,-0.02284274,-0.004387193,0.009189818
0.9779841,-0.1821723,-0.277223,-0.0006678913,-0.003575546,0.003127671,-0.01680487,-0.006643025,0.009915125
0.9770015,-0.1817107,-0.274026,-0.001663727,-0.003145531,0.006318924,-0.01136675,-0.007790354,0.007873406
0.97577,-0.1812423,-0.2742861,-0.002907599,-0.002708533,0.006052326,-0.007413921,-0.008616396,0.006256443
0.9765406,-0.1833356,-0.2773188,-0.002148551,-0.004833017,0.003012187,0.0002113782,-0.003192737,0.003853356
0.9765696,-0.1837295,-0.2758162,-0.002130097,-0.00525739,0.004506285,0.009658922,0.001786695,0.003228661
0.9761174,-0.1836596,-0.2769621,-0.002591943,-0.005217153,0.003350566,0.01592393,0.001632219,0.004234241
0.9764069,-0.1800253,-0.2802831,-0.00231082,-0.0016113,1.853625e-05,0.01591185,0.002492694,0.0002762252
0.9754342,-0.1762914,-0.2842072,-0.003290837,0.002095421,-0.003917826,0.01472333,-0.0006381595,-0.0008828496
0.974851,-0.1782514,-0.288476,-0.003880116,0.0001095498,-0.008199915,0.01453777,-0.008628766,0.004598018
0.9759005,-0.1771228,-0.2874977,-0.002835257,0.001213461,-0.007235531,0.01222502,-0.01214233,0.007681675
0.9765781,-0.1758687,-0.2886952,-0.002160978,0.002444102,-0.008447108,0.01392396,-0.009705494,0.006491125
0.9753927,-0.1797667,-0.2886809,-0.003348099,-0.001476224,-0.008446553,0.01830663,-0.008674415,0.002705177
0.9735708,-0.1811547,-0.2806508,-0.005170303,-0.002885545,-0.0004293963,0.01730932,-0.01013704,-0.0001802427
0.9739503,-0.1806996,-0.2755971,-0.004789302,-0.002450608,0.004612187,0.01585393,-0.01196156,0.0003711422
0.9763929,-0.1803326,-0.2754817,-0.002343656,-0.002102579,0.004716201,0.01570989,-0.01448976,0.001684679
0.9785586,-0.1804339,-0.2754438,-0.0001730146,-0.002221541,0.004743295,0.01507395,-0.01209133,0.003189443
0.9781344,-0.1809732,-0.274565,-0.0005904917,-0.002777139,0.005611687,0.01579776,-0.008275244,0.006623708
0.9778211,-0.1804897,-0.2744532,-0.0008955922,-0.002308477,0.005713061,0.01393535,-0.008765276,0.009353033
0.9816918,-0.1825126,-0.2738555,0.002984857,-0.004344774,0.006300071,0.009748401,-0.006111773,0.007511014
0.984373,-0.1829667,-0.2710966,0.005677084,-0.004810535,0.009047794,0.006198082,-0.003076444,0.005354158
0.9819426,-0.1776281,-0.2723233,0.003258674,0.0005181542,0.007809164,0.002578964,-0.00429627,0.003704929
0.9785254,-0.1724589,-0.2738848,-0.000145889,0.005679072,0.006234523,-0.0005216324,-0.002461575,0.001172964
0.9771092,-0.17283,-0.2737825,-0.001548918,0.005301242,0.006322368,-0.003400863,0.000706222,0.001939863
0.9779185,-0.17574,-0.2777491,-0.0007259023,0.002385547,0.002339675,-0.00444071,-0.0006151358,0.001499236
0.9786133,-0.1748329,-0.2802309,-1.710012e-05,0.003287923,-0.0001597851,-0.004770578,-0.002081507,0.000671488
0.977457,-0.1750157,-0.280244,-0.001158931,0.00310116,-0.0001920414,-0.006480011,-0.001235114,0.004521614
0.9759609,-0.1777956,-0.2803303,-0.002640303,0.0003176236,-0.0002989529,-0.008541138,-0.0002805659,0.007013045
0.9748098,-0.1796775,-0.2793187,-0.003776144,-0.001567447,0.0006908557,-0.01106244,0.001383522,0.007174699
0.970566,-0.1824833,-0.2773408,-0.008004224,-0.004375975,0.002645955,-0.010523,0.002686341,0.007074196
0.9649823,-0.1821644,-0.276114,-0.01357146,-0.004059332,0.003848838,-0.008103756,0.002920232,0.009160296
0.9680596,-0.1815676,-0.2801408,-0.01047657,-0.003464083,-0.0002028382,-0.008027399,0.003271516,0.01164762
0.9747855,-0.1832533,-0.2834528,-0.003731459,-0.005150533,-0.003540674,-0.008731413,0.002705934,0.007435872
0.9754893,-0.1824916,-0.2817867,-0.003006615,-0.004388548,-0.001901122,-0.007602504,0.003123074,0.003171168
0.976594,-0.1825763,-0.2810066,-0.001879126,-0.004471783,-0.0011481,-0.003274156,0.004913889,0.002886477
0.9771166,-0.1826144,-0.2791839,-0.001331939,-0.004507162,0.0006472127,-0.0003539582,0.004593421,0.001119283
0.9754542,-0.1817036,-0.2751951,-0.002968168,-0.003592153,0.00460839,-0.002018233,0.0002395774,8.749604e-05
0.9768926,-0.1826607,-0.2743274,-0.001501955,-0.004543534,0.005448241,-0.006367407,-0.006836049,0.00119772
0.9766895,-0.1854438,-0.2778255,-0.001675826,-0.007319171,0.001921957,-0.009083779,-0.007439409,0.001725747
0.9767274,-0.1878679,-0.2811864,-0.001607264,-0.009734125,-0.001467656,-0.008192343,-0.001056532,0.001709222
0.9786797,-0.1833423,-0.2824482,0.0003770051,-0.00519726,-0.00275847,-0.008749091,0.001475016,0.001442003
0.9774892,-0.1786639,-0.2823205,-0.0007804052,-0.0005054431,-0.002659932,-0.008088348,0.0003006698,0.0008375056
0.97742,-0.1824402,-0.2809949,-0.0008156018,-0.004265998,-0.00136344,-0.002470547,-0.0009864834,0.003005453
0.977271,-0.184442,-0.2802166,-0.0009297296,-0.006249926,-0.0006141007,0.003178342,-0.001622085,0.00557572
0.9757356,-0.1809949,-0.2781475,-0.002429402,-0.002782795,0.00142641,0.00374157,-0.001427469,0.002814974
0.9765287,-0.1801056,-0.2780366,-0.001599986,-0.001871255,0.001509159,0.0009454349,-0.0005485836,-0.0001414002
0.9765308,-0.182652,-0.2827038,-0.001560966,-0.00439326,-0.003185808,0.002339268,0.002521072,-0.0009671221
0.9761922,-0.1834154,-0.285275,-0.001862028,-0.005130238,-0.005784341,0.00531356,0.003569864,-0.003108767
0.9765382,-0.1806693,-0.2843499,-0.001477974,-0.002355547,-0.00488573,0.006457596,0.001558706,-0.003665281
0.9764781,-0.1786343,-0.2797144,-0.001499568,-0.0002899799,-0.0002757991,0.005171303,-0.001887826,-0.001842728
0.9775077,-0.1816466,-0.2767863,-0.0004311069,-0.003269797,0.002627823,0.00106601,-0.005382655,-0.0007789677
0.9789259,-0.184866,-0.2785923,0.001026248,-0.006455037,0.0007984689,0.001862993,-0.0009779056,-0.001291995
0.978824,-0.1829809,-0.2759482,0.0009635944,-0.004533802,0.003420078,0.00227701,0.003435484,-0.001334194
