accx,accy,accz,body_accx,body_accy,body_accz,body_gyrox,body_gyroy,body_gyroz
1.027352,0.02989051,0.05734116,0.004055857,-0.0096173,0.001707288,0.0275281,-0.02643045,0.01536228
1.028211,0.03267951,0.05749196,0.004936482,-0.006681016,0.001623761,0.02241544,-0.01512461,0.01521264
1.029562,0.03102512,0.05879823,0.006308253,-0.008180331,0.00269792,0.02949568,-0.0006481697,0.01436675
1.028278,0.02763089,0.05971499,0.005041637,-0.01141227,0.003385155,0.02130923,0.002252211,0.01791219
1.027287,0.02659711,0.0642217,0.004065502,-0.01227699,0.007665184,0.02924165,0.001358812,0.01500369
1.027875,0.02189982,0.07093804,0.004666873,-0.0167988,0.01415779,0.04210386,0.005193626,0.007433485
1.0282,0.0277775,0.07235388,0.005001643,-0.01073947,0.01535268,0.03745962,0.0001171699,0.006269733
1.029561,0.03695747,0.07308016,0.006369245,-0.00137198,0.01586048,0.04775875,-0.008418952,0.0009676698
1.031176,0.02734655,0.07605064,0.007988907,-0.01079006,0.01861456,0.08141809,-0.007464884,0.001352981
1.03179,0.02264811,0.07826735,0.008604688,-0.01529084,0.02061649,0.1252503,0.001084464,0.01304492
1.031752,0.03212829,0.08321114,0.008564795,-0.005608517,0.02534656,0.1438,0.01736141,0.02274638
1.031468,0.03723721,0.0835515,0.008275301,-0.0002933785,0.02547359,0.1286615,0.02575914,0.03538558
1.027519,0.03830421,0.0798411,0.004316672,0.000983252,0.02154957,0.1135916,0.0122008,0.04136167
1.018207,0.03812864,0.08303033,-0.005007137,0.001019928,0.02452425,0.08829649,-0.008914916,0.02860475
1.006388,0.03838725,0.08339685,-0.01684269,0.00149259,0.02467472,0.06160054,-0.02505902,0.01407614
1.000821,0.04049104,0.08101241,-0.02242746,0.003811429,0.02207221,0.04985407,-0.03434156,0.01412726
1.015019,0.04598128,0.07734633,-0.008248841,0.00951688,0.01818561,0.01776379,-0.02784359,0.0186583
1.031169,0.05003949,0.06561484,0.007880922,0.01378951,0.006230932,-0.02359063,-0.01208309,0.01073857
1.025955,0.03792413,0.06252006,0.002647143,0.00188678,0.002910489,-0.04505292,-0.02051017,-0.004183115
1.023581,0.02150893,0.06409861,0.0002517639,-0.01431833,0.004261366,-0.04922048,-0.03427169,-0.01881956
1.031591,0.02149574,0.05331863,0.008240844,-0.01412411,-0.006747672,-0.04253181,-0.02313796,-0.01916015
1.023729,0.02589948,0.04776151,0.0003574201,-0.009515421,-0.01253438,-0.04481891,-0.0124882,-0.01023752
1.002703,0.02382749,0.0606197,-0.020691,-0.01138467,9.469521e-05,-0.05160202,-0.01021378,-0.01732269
0.9892052,0.02434785,0.07327221,-0.03421038,-0.0106636,0.01251936,-0.05548042,-0.03328368,-0.01674486
1.005128,0.02416706,0.06689605,-0.01830774,-0.01064557,0.005916962,-0.05825822,-0.06646674,-0.00937884
1.034087,0.01980878,0.0613236,0.01063294,-0.01480675,0.0001200117,-0.04431008,-0.06339459,-0.01385407
1.031796,0.01954822,0.06770713,0.008326268,-0.01487168,0.006281046,-0.02859031,-0.05931339,-0.007350644
1.025465,0.0161981,0.06525611,0.001982597,-0.0180273,0.003609798,-0.01478802,-0.06289064,0.004793285
1.036034,0.0110169,0.06442631,0.01254014,-0.02301472,0.00256228,0.01582683,-0.04953281,0.01838038
1.032414,0.01731976,0.07195185,0.008909829,-0.01651827,0.009872791,0.03524258,-0.02331514,0.02189451
1.022583,0.02519238,0.07719853,-0.0009308764,-0.008451823,0.01490717,0.02236868,0.00108451,0.006913995
1.014703,0.02678935,0.08389542,-0.008819621,-0.006660675,0.02139423,0.003911696,-0.008347219,-0.000461628
1.017386,0.02731491,0.08143756,-0.006144657,-0.005940699,0.01872854,-0.01113977,-0.01850088,-0.01857646
1.033891,0.02473138,0.0727913,0.01035285,-0.00832977,0.009875909,-0.02671877,-0.004648229,-0.03550185
1.034671,0.02259312,0.07056845,0.01112575,-0.01027369,0.007447887,-0.0195144,0.001142317,-0.02859712
1.025504,0.0318439,0.07166293,0.001952635,-0.0008288005,0.008338343,-0.010651,0.008603837,-0.03152605
1.013133,0.04256464,0.07707805,-0.01042399,0.01008552,0.01355062,-0.0231243,0.007018211,-0.03431052
1.005942,0.03827242,0.07626289,-0.0176207,0.005985679,0.0125337,-0.0228609,-0.00723348,-0.03161442
1.019206,0.02923763,0.06956947,-0.004361854,-0.002858643,0.005639498,-0.01899867,-0.004464179,-0.02872555
1.027212,0.02249065,0.06762589,0.003641146,-0.009417504,0.00349612,-0.0128214,-0.007343185,-0.01842179
1.028177,0.01662236,0.06638946,0.004603316,-0.01510009,0.002061081,0.005979388,-0.01255391,-0.02363296
1.027442,0.01921546,0.06631839,0.003866963,-0.01232345,0.001792902,0.009982452,0.0007776228,-0.03077164
1.021632,0.02023948,0.06329119,-0.001942911,-0.01111775,-0.001429584,0.01723784,0.002798624,-0.03075631
1.022573,0.01601405,0.06328094,-0.001001796,-0.01516305,-0.001632874,0.02890496,-0.005746989,-0.03708944
1.022329,0.01654393,0.07031108,-0.001245534,-0.01445431,0.005206826,0.03326476,-0.009407498,-0.02944973
1.023645,0.0117218,0.07114511,7.186786e-05,-0.01909847,0.005853254,0.05304575,-0.008734825,-0.01288272
1.026366,0.007285822,0.07200192,0.002795749,-0.02335689,0.006525371,0.07604443,-0.004958415,-0.002041243
1.023145,0.01927228,0.07561141,-0.0004225399,-0.01119277,0.009953028,0.08823918,-0.01403111,0.01349846
1.02354,0.03476933,0.07901606,-2.420937e-05,0.004482328,0.01317857,0.08102843,-0.02368628,0.03175222
1.021827,0.04355294,0.08035655,-0.001734274,0.01344405,0.01434235,0.05666741,-0.02886319,0.03497991
1.017206,0.05236495,0.075859,-0.00635134,0.02243332,0.009670172,0.02505937,-0.04472796,0.02461487
1.014747,0.06335989,0.07620731,-0.008805759,0.03360332,0.00984564,-0.02935652,-0.05697278,0.02172951
1.016223,0.06627606,0.0775528,-0.007324058,0.0366906,0.01101988,-0.0867086,-0.06532363,0.01246757
1.021309,0.05884572,0.07980708,-0.002231572,0.02942554,0.01310429,-0.121917,-0.06947473,-0.01337034
1.021559,0.04986414,0.08262644,-0.001972865,0.02060177,0.0157549,-0.1353359,-0.06259841,-0.03665423
1.02478,0.03672527,0.07390684,0.001257501,0.007612096,0.006867388,-0.1333073,-0.05394703,-0.05468468
1.028252,0.02755881,0.07109521,0.004739429,-0.001414301,0.003888519,-0.1333766,-0.04257738,-0.0577763
1.024545,0.02848886,0.0728066,0.001044953,-0.0003532953,0.005433416,-0.1254799,-0.03539348,-0.05400457
1.024703,0.02257073,0.06791978,0.001214696,-0.006149233,0.0003810299,-0.1062548,-0.03302829,-0.05423696
1.025405,0.01420102,0.06644361,0.001929411,-0.014405,-0.001259539,-0.08216095,-0.02516975,-0.04174932
1.024615,0.01222776,0.06361578,0.001153072,-0.01627177,-0.004250217,-0.0464645,-0.0212742,-0.03293101
1.025345,0.01116319,0.06225654,0.001897132,-0.01723631,-0.005770278,-0.008828216,-0.02270541,-0.02874156
1.024739,0.01617132,0.0600704,0.001305221,-0.01213358,-0.008114667,0.01954035,-0.02115507,-0.01477759
1.025118,0.02395803,0.05555335,0.0016978,-0.004256886,-0.01278678,0.02044077,-0.02134408,-0.007885769
1.024695,0.02645247,0.05956191,0.001288912,-0.001676543,-0.008929382,0.008444631,-0.02623584,-0.005963107
1.02302,0.02730761,0.06363189,-0.0003727554,-0.000739316,-0.005006036,0.006693598,-0.02906323,-0.003731136
1.021932,0.02989279,0.06658724,-0.001447465,0.001924246,-0.002192363,-0.006486806,-0.02718969,-0.004934613
1.022142,0.0330135,0.06699137,-0.001224324,0.005119646,-0.0019247,-0.01475953,-0.02541123,-0.007986123
1.024542,0.03241986,0.06520939,0.001188591,0.004596906,-0.003837823,-0.01297155,-0.02626129,-0.01026176
1.025356,0.03105296,0.06809352,0.002014851,0.003296966,-0.00107939,-0.02088567,-0.02599646,-0.01359715
1.025008,0.03171493,0.0662256,0.001679242,0.004021851,-0.003067496,-0.01596757,-0.02278209,-0.02221514
1.025167,0.02845663,0.06581668,0.001850048,0.0008223736,-0.003591027,-0.006684544,-0.02019404,-0.02246939
1.025742,0.02489278,0.06704783,0.002436646,-0.002686715,-0.002468854,-0.000761308,-0.01738493,-0.01825845
1.026716,0.02635411,0.06453992,0.003422118,-0.001174518,-0.005080052,0.009174468,-0.01558808,-0.01756838
1.025272,0.02704709,0.06931899,0.00198733,-0.0004343605,-0.0003985334,0.004884703,-0.01911007,-0.01201351
1.023601,0.02590713,0.07212391,0.0003257941,-0.001530622,0.002314529,0.001116434,-0.0234119,-0.01260384
1.023519,0.02715371,0.06937194,0.0002522141,-0.0002436441,-0.0005237834,0.003055631,-0.02465449,-0.01489411
1.02351,0.03074206,0.06828232,0.0002507543,0.003381936,-0.001694389,-0.0003310867,-0.02464453,-0.01148421
1.023787,0.03542691,0.06753503,0.0005344115,0.008100889,-0.002517449,0.0003538571,-0.02485766,-0.0114757
1.023515,0.03715181,0.06845485,0.0002688322,0.00985661,-0.001668256,-0.008464712,-0.02500808,-0.00957658
1.023746,0.0338445,0.0682998,0.0005047251,0.006576573,-0.00188887,-0.02144648,-0.02586588,-0.009082346
1.024474,0.03206324,0.06910453,0.001237011,0.004818827,-0.001144723,-0.02010194,-0.0274381,-0.01172995
1.024388,0.03197636,0.06911914,0.001154285,0.004751593,-0.001185849,-0.01728069,-0.02715554,-0.009003879
1.024455,0.03033962,0.06542587,0.001224076,0.003130604,-0.004930103,-0.0140582,-0.02791305,-0.0037724
1.025113,0.03233889,0.06534898,0.001884942,0.00514177,-0.005053291,-0.008842946,-0.02986544,-0.0003687303
1.026069,0.03643172,0.06577578,0.002841457,0.009242625,-0.004668067,-0.009911053,-0.02883201,-0.004953508
1.02561,0.03742362,0.06493197,0.002382676,0.01023857,-0.00554871,-0.01336776,-0.02788745,-0.01145819
1.024672,0.03721244,0.06654373,0.001444417,0.01002727,-0.003969036,-0.01475908,-0.02865209,-0.007735824
1.025008,0.03545912,0.06811507,0.001779052,0.008269454,-0.00242505,-0.01969669,-0.02841964,-0.006174645
1.023985,0.03259664,0.06895622,0.0007527127,0.00539798,-0.001606633,-0.02793011,-0.02617008,-0.01092855
1.019629,0.03305648,0.06883467,-0.003606822,0.005844311,-0.001746447,-0.03110272,-0.02147622,-0.01437178
1.015384,0.03547682,0.06780235,-0.007855509,0.008246669,-0.002792731,-0.03340853,-0.01790937,-0.02050002
1.018131,0.03455175,0.06779,-0.005113848,0.007299168,-0.002814914,-0.03588693,-0.02038228,-0.02106368
1.023115,0.03139884,0.0683735,-0.0001339826,0.004119382,-0.002237256,-0.036118,-0.02185491,-0.01585193
1.022262,0.03024465,0.06797049,-0.0009922125,0.002933996,-0.002642241,-0.04004722,-0.01642991,-0.01884401
1.022015,0.03122571,0.06843156,-0.001243579,0.003879713,-0.002179447,-0.04074877,-0.01439758,-0.02390796
1.023789,0.03179575,0.07099218,0.000525543,0.004410474,0.000386436,-0.03804803,-0.01981005,-0.02592929
1.024374,0.02848197,0.07231438,0.00110603,0.001053697,0.00171721,-0.03914604,-0.02444008,-0.02445468
1.025547,0.02465883,0.06918557,0.002274778,-0.002815884,-0.001399997,-0.03641014,-0.02319842,-0.01866362
1.024995,0.02562012,0.06350803,0.001718817,-0.001904086,-0.007063134,-0.03053496,-0.02061353,-0.01741517
1.0248,0.02639053,0.06299708,0.001519727,-0.00118578,-0.007556903,-0.02669216,-0.01963913,-0.01687483
1.026341,0.02610024,0.06631028,0.003055739,-0.001530346,-0.004223678,-0.02317485,-0.01533006,-0.01483303
1.02674,0.02776741,0.06558797,0.003450823,8.072944e-05,-0.004923076,-0.02121874,-0.01488221,-0.01682021
1.028306,0.02830143,0.06460707,0.005011859,0.0005571528,-0.005878192,-0.0182819,-0.01864228,-0.01446063
1.029508,0.0294002,0.0656703,0.006208149,0.001597102,-0.00478632,-0.01387313,-0.01812469,-0.01060452
1.028324,0.03058518,0.0654544,0.005017834,0.002722194,-0.004970716,-0.01143561,-0.02060469,-0.01063384
1.026641,0.02700856,0.06614098,0.003328196,-0.0009151989,-0.004249837,-0.008672096,-0.01993791,-0.008495319
1.023905,0.02394351,0.06821061,0.0005834673,-0.004041698,-0.002143163,-0.008238299,-0.01465177,-0.01125703
1.020598,0.02678352,0.06925799,-0.002732881,-0.001263507,-0.001056151,-0.009257801,-0.01605518,-0.01688957
1.020428,0.02980688,0.06937989,-0.002912263,0.001697944,-0.0008922174,-0.007489128,-0.01656513,-0.01450054
1.024386,0.02846993,0.06866569,0.001034318,0.0002991985,-0.001562214,-0.00848806,-0.01716293,-0.009590938
1.026754,0.02800604,0.06763105,0.003390983,-0.0002262444,-0.002550697,-0.008144701,-0.01705912,-0.006696269
1.026066,0.02975047,0.06763522,0.002690486,0.001457001,-0.002498571,-0.004561015,-0.01046045,-0.010506
1.024695,0.02943298,0.06655751,0.001307247,0.001078812,-0.003526661,-0.0009705231,-0.007021826,-0.01722223
1.023222,0.0302584,0.06485223,-0.0001794158,0.001844078,-0.005180755,0.00591959,-0.006527035,-0.01472515
1.025475,0.03378247,0.06691271,0.002060009,0.005308572,-0.003067569,0.006641306,-0.007171572,-0.0137291
1.028158,0.03571557,0.06964566,0.00472768,0.00718261,-0.0002804558,0.002608269,-0.0079691,-0.01684687
1.026726,0.03606311,0.07058631,0.003280386,0.007471401,0.0007156437,0.001745965,-0.006616559,-0.01449468
1.025123,0.03773028,0.07267251,0.001661231,0.00907992,0.002858341,-0.003327121,-0.007190547,-0.01426675
1.024493,0.03945045,0.07292994,0.001013835,0.01074124,0.003172977,-0.009507642,-0.00756174,-0.0141337
1.024179,0.03663693,0.0709079,0.0006822526,0.007868384,0.001208533,-0.01480237,-0.01063222,-0.01018905
1.023498,0.03229835,0.06976977,-1.715677e-05,0.003469713,0.0001280921,-0.01987609,-0.01451514,-0.009065268
1.023447,0.03125685,0.06719378,-8.802188e-05,0.002367298,-0.002390313,-0.01900638,-0.01147475,-0.01165928
1.024889,0.03098181,0.06543508,0.001334498,0.002030559,-0.004091621,-0.01740588,-0.006434519,-0.0163129
1.02476,0.03034292,0.06572574,0.001184766,0.001329301,-0.00374375,-0.01822122,-0.003140647,-0.01684624
1.023215,0.02950773,0.06576607,-0.0003809465,0.0004312197,-0.003646351,-0.01689546,-0.003876013,-0.01559909
1.021718,0.02891124,0.07071905,-0.001898765,-0.0002285389,0.001363584,-0.01414512,-0.005899098,-0.01706583
1.021869,0.02905273,0.07571554,-0.001769407,-0.0001504883,0.006416773,-0.01205142,-0.004838587,-0.01576182
1.02281,0.02826232,0.07324448,-0.000850121,-0.001004327,0.004001892,-0.0110467,-0.004651454,-0.01525172
1.021912,0.0275123,0.07153803,-0.00176936,-0.001817546,0.002350732,-0.0140372,-0.005864323,-0.01544901
1.021948,0.02804864,0.0734022,-0.001754137,-0.001343958,0.004269047,-0.02082592,-0.01020433,-0.0146774
1.021856,0.0297007,0.07459483,-0.001867108,0.0002460048,0.00551442,-0.02478842,-0.01547382,-0.01655449
1.020915,0.0314611,0.07370456,-0.002828707,0.001945106,0.0046752,-0.02282979,-0.01375198,-0.01612836
1.021687,0.03242205,0.07199609,-0.002076504,0.002845608,0.003015826,-0.01823476,-0.01123177,-0.01420715
1.020906,0.0336135,0.07248932,-0.002876952,0.003977447,0.003556019,-0.0160925,-0.01452255,-0.01242171
1.021291,0.03351202,0.07336653,-0.002509598,0.00381712,0.004477873,-0.01668398,-0.01754263,-0.008136909
1.026707,0.03168756,0.07451766,0.002888891,0.001934519,0.005671186,-0.01699325,-0.01827311,-0.003272417
1.030496,0.0300036,0.07569077,0.006660789,0.0001930755,0.006883803,-0.01696366,-0.01733995,0.0003367182
1.028361,0.02864862,0.07327938,0.004510055,-0.001218678,0.004509033,-0.01767171,-0.01328188,-0.001528782
1.024783,0.02894775,0.06755788,0.0009167852,-0.0009754783,-0.001178878,-0.0186625,-0.01056266,-0.007490594
1.024727,0.02961964,0.06114026,0.0008456959,-0.0003585561,-0.007565868,-0.01573272,-0.01042932,-0.01352338
1.024597,0.0290895,0.06229844,0.0007013279,-0.0009425722,-0.006379702,-0.01028365,-0.009502946,-0.01829474
1.021125,0.03000574,0.0708494,-0.00278528,-7.901913e-05,0.002196975,-0.005709762,-0.008528047,-0.01604921
1.018743,0.03124881,0.07530279,-0.00518161,0.001112623,0.006673996,-0.001891301,-0.007263196,-0.01082131
1.020413,0.03131549,0.07590834,-0.003525844,0.001129175,0.007301001,-0.006847737,-0.006083942,-0.009899341
1.024462,0.03211575,0.07483044,0.0005107785,0.001880572,0.006242152,-0.01434904,-0.007459928,-0.0108857
1.025777,0.03220824,0.07146318,0.001813115,0.001925447,0.002891334,-0.01082775,-0.00815268,-0.01312739
1.024708,0.03162076,0.06803509,0.0007328146,0.001291547,-0.0005229973,-0.00727766,-0.005633191,-0.01406124
1.024878,0.03174,0.06736572,0.0008913997,0.001365521,-0.001181206,-0.007402448,-0.005030559,-0.01310932
1.024096,0.03020306,0.07250335,9.930233e-05,-0.0002155723,0.003965136,-0.005626072,-0.005942183,-0.01327892
1.022777,0.02918237,0.07481525,-0.001229097,-0.001279253,0.006283342,-0.008994932,-0.007199484,-0.01014033
1.020931,0.03285477,0.07210568,-0.003084151,0.002351328,0.003577632,-0.01363211,-0.01345493,-0.006745305
1.019186,0.03704383,0.07248866,-0.004838132,0.00649972,0.003961957,-0.01516386,-0.01769613,-0.008020182
1.021892,0.03624416,0.07388859,-0.002139747,0.00566037,0.005360656,-0.01939675,-0.01480238,-0.008469855
1.024723,0.03340046,0.075624,0.0006839053,0.002777729,0.007092214,-0.02281756,-0.01273799,-0.009318593
1.022828,0.03225212,0.07540546,-0.00121609,0.001591041,0.006867088,-0.02622291,-0.01277359,-0.01176634
1.021237,0.03139851,0.07521718,-0.002812082,0.000699599,0.006669356,-0.03003512,-0.01057731,-0.01170832
1.022612,0.03098752,0.08103366,-0.001441569,0.0002513005,0.01247336,-0.02434237,-0.006314279,-0.01095289
1.02281,0.03134764,0.08407303,-0.001246461,0.0005746726,0.01549698,-0.01460329,-0.001962553,-0.01180178
1.023507,0.03368901,0.07904462,-0.0005515876,0.002879874,0.01044916,-0.01003234,0.0005489862,-0.01329677
1.025603,0.03787865,0.07043273,0.001543553,0.00703386,0.001813931,-0.006629078,-0.001273982,-0.01467467
1.023299,0.03835715,0.06677063,-0.0007603445,0.00747704,-0.001875406,-0.00578728,-0.002156881,-0.0154578
1.020921,0.03864642,0.07011617,-0.003137452,0.007731053,0.001439265,-0.01018106,0.001073327,-0.01535878
1.02182,0.04167222,0.07332928,-0.002236961,0.01072134,0.004618209,-0.01724022,0.00128544,-0.01541665
1.021821,0.04173033,0.07528241,-0.002233303,0.01074331,0.006534048,-0.02396118,-0.0002903376,-0.01455817
1.023013,0.04162096,0.07154657,-0.001037063,0.01059681,0.002757882,-0.0228698,-0.003289061,-0.01286952
1.023982,0.04175523,0.06591284,-6.430735e-05,0.01069256,-0.002919062,-0.02145862,-0.00889931,-0.01241599
1.021617,0.03998296,0.06800842,-0.002423408,0.008880047,-0.0008693054,-0.02855954,-0.01137671,-0.01194147
1.020448,0.03839838,0.06996301,-0.00358642,0.007253261,0.001037227,-0.02918628,-0.01255067,-0.01388773
1.022873,0.03586743,0.06943292,-0.001153918,0.004677973,0.0004571487,-0.02516163,-0.01410673,-0.01612321
1.025131,0.0356212,0.07100437,0.001112873,0.004385233,0.001976922,-0.0221258,-0.01514651,-0.01242239
1.024536,0.03669765,0.07161113,0.0005270983,0.005413035,0.002530512,-0.01573532,-0.01430363,-0.009289984
1.023631,0.03518259,0.07127732,-0.0003683589,0.00384723,0.002142191,-0.02000696,-0.009353761,-0.0105945
1.023633,0.03353957,0.07244171,-0.0003555652,0.00215144,0.003250842,-0.02574751,-0.005999793,-0.01048955
1.022764,0.03215966,0.07235979,-0.001212806,0.0007168719,0.003112063,-0.02332317,-0.01010992,-0.008823559
1.022369,0.03580831,0.06985125,-0.001596649,0.004309153,0.0005456388,-0.03278793,-0.01798714,-0.008993089
1.022598,0.04116708,0.06947876,-0.001354786,0.009609938,0.0001143725,-0.04276688,-0.01971419,-0.008082479
1.022213,0.03821346,0.07123156,-0.001727006,0.006596691,0.001807706,-0.03657256,-0.01764554,-0.003464774
1.024333,0.03400729,0.07290855,0.0004071006,0.002329179,0.003424663,-0.02963,-0.01691768,-0.0008431792
1.027696,0.03231818,0.07354092,0.003783945,0.0005770542,0.003996533,-0.02573112,-0.01266771,-0.00476088
1.027783,0.03095556,0.0732026,0.003886186,-0.000850053,0.003597256,-0.0141678,-0.009620345,-0.009152241
1.025611,0.03237984,0.07316575,0.001728599,0.0005085495,0.003499005,-0.003603814,-0.008656128,-0.00587451
1.022388,0.0322435,0.06892642,-0.001480355,0.0003056078,-0.0008021387,-0.0010078,-0.006908796,-0.002606373
1.020736,0.03147688,0.06401977,-0.003117307,-0.0005283075,-0.005770831,0.005190755,-0.007506269,-0.004879319
1.021821,0.03336274,0.06537059,-0.002018092,0.001289801,-0.004481986,0.01128345,-0.006813742,-0.001712928
1.022391,0.0336395,0.06761759,-0.00143394,0.001498546,-0.0022965,0.01170992,-0.006241751,0.00388636
1.02237,0.0350006,0.06834181,-0.00143997,0.002791502,-0.001633021,0.009433441,-0.006118996,0.004248474
1.021382,0.03965981,0.06822747,-0.002413491,0.007382488,-0.001807095,0.002553435,-0.005105309,0.002398671
1.018575,0.04252315,0.0690115,-0.005205619,0.01017745,-0.001081627,-0.003229486,-0.007385605,-0.00167762
1.015805,0.04040735,0.07484332,-0.007959866,0.007992916,0.004692932,-0.005508107,-0.01069542,-0.003842856
1.016719,0.03700589,0.08145231,-0.007030542,0.004522144,0.01124587,-0.00401796,-0.01457273,-0.001392004
1.02118,0.03730995,0.08141938,-0.002552867,0.004756202,0.01115782,-0.004588813,-0.01603681,0.001465313
1.023142,0.03630869,0.07673041,-0.0005733771,0.003684245,0.006414216,-0.01442952,-0.0150594,0.001973126
1.023377,0.03462707,0.0733448,-0.0003193993,0.001931272,0.002974144,-0.02045373,-0.01794613,0.002543079
1.024791,0.03508166,0.07123128,0.001114377,0.002313934,0.0008062211,-0.01687313,-0.01697876,0.004726458
1.02596,0.03173138,0.0711341,0.002302992,-0.001108708,0.000654708,-0.007235346,-0.01162102,0.002838526
1.025992,0.03092534,0.07004547,0.002356162,-0.001987331,-0.0004880625,0.001820298,-0.007800827,0.0009703589
1.024495,0.03322623,0.06643003,0.0008799848,0.0002410129,-0.004157323,0.005039783,-0.002589225,0.00217238
1.024794,0.03241151,0.06903704,0.001200049,-0.0006459802,-0.001603581,0.01124411,-0.0005840251,-0.0001367242
1.025519,0.0343111,0.06944859,0.001946776,0.001181809,-0.001244516,0.01534378,-0.000896368,-0.005110206
1.024557,0.03447192,0.06105523,0.001005569,0.001271433,-0.009689351,0.007916651,-0.0005637176,-0.009643292
1.024818,0.0314913,0.05882445,0.001287989,-0.001779657,-0.01197023,-0.001543971,-0.004449213,-0.006642134
1.022957,0.03243625,0.06841202,-0.0005526638,-0.0009043059,-0.002430907,-0.002506356,-0.007482625,-0.00145145
1.019624,0.03488368,0.0790726,-0.003865232,0.001474575,0.008183585,-0.001617066,-0.007377687,-0.005263725
1.019332,0.03791422,0.07516264,-0.004137133,0.004437678,0.004229579,-0.00985684,-0.008752615,-0.009121244
1.021236,0.03912549,0.06909109,-0.002212891,0.005582593,-0.001884209,-0.02055595,-0.01086639,-0.01170497
1.023029,0.03774502,0.0732297,-0.000399529,0.004136723,0.002213858,-0.02505469,-0.01325155,-0.01319362
1.022235,0.0356961,0.06779576,-0.001173639,0.002023235,-0.003258977,-0.02345793,-0.01541604,-0.01112067
1.021788,0.03216551,0.06331871,-0.001600628,-0.001571115,-0.007773183,-0.02123815,-0.01477408,-0.01053364
1.02263,0.03250309,0.07140927,-0.0007395804,-0.001296406,0.0002821165,-0.01984448,-0.01162674,-0.005142077
1.022587,0.03380071,0.07518895,-0.0007625627,-6.061247e-05,0.004028536,-0.01671563,-0.01068941,-0.0008792833
1.024842,0.03187457,0.07519876,0.00151312,-0.002047392,0.004006967,-0.01564517,-0.01115916,-0.007373609
1.027386,0.03378912,0.07186122,0.004076928,-0.0001921618,0.00063973,-0.01394728,-0.01040549,-0.01180696
1.025996,0.03598714,0.06880951,0.002706491,0.001947945,-0.002440147,-0.01179399,-0.01089417,-0.009107616
1.023187,0.03538552,0.0704827,-8.383102e-05,0.00128986,-0.0007936019,-0.0100673,-0.0106134,-0.007337661
1.022059,0.03475811,0.07063936,-0.001192817,0.0006074078,-0.0006620585,-0.007004271,-0.01026818,-0.007430783
1.024288,0.03166052,0.07306056,0.001053946,-0.002543775,0.00173556,-0.01079148,-0.0107304,-0.002636022
1.028051,0.03115552,0.0758173,0.004834061,-0.003100847,0.004470153,-0.01369514,-0.008601451,0.001859676
1.02709,0.0324803,0.07539568,0.003889635,-0.00182646,0.004027643,-0.008365335,-0.007116143,-0.001441325
1.022108,0.0296658,0.07462433,-0.001075684,-0.004689504,0.00323642,-0.005501007,-0.007859601,-0.005083947
1.021178,0.02860179,0.07478139,-0.001991047,-0.005800044,0.003374423,-0.006470198,-0.009626387,-0.007280807
1.023269,0.02933205,0.07579183,0.0001141686,-0.005114064,0.004366428,-0.005880301,-0.01030313,-0.00684063
1.023939,0.02910123,0.07537892,0.0007975088,-0.005386676,0.003935505,-0.002455801,-0.007473688,-0.00325206
1.025253,0.02967358,0.07672682,0.002123989,-0.004853437,0.005265634,-0.001899118,-0.004809382,-0.003412813
1.025184,0.03076229,0.07690665,0.002065801,-0.003800979,0.005427723,-0.002419053,-0.004800712,-0.003447171
1.022629,0.03259029,0.07553295,-0.0004781738,-0.002006257,0.004036083,0.00337673,-0.004919614,-0.002406109
1.022219,0.03222826,0.07704865,-0.0008787321,-0.002398576,0.005533471,0.007040524,-0.002602927,-0.002591193
1.024011,0.03131359,0.07566994,0.0009224188,-0.003340537,0.004135897,0.003701911,-0.002128923,-0.001527514
1.025585,0.03276184,0.07324624,0.002504327,-0.001916583,0.001692654,0.001145151,-0.003924026,-0.003958531
1.025474,0.03363394,0.07105845,0.002400998,-0.001065819,-0.0005154025,0.001064513,-0.002768684,-0.006918121
1.025149,0.03506791,0.06969512,0.002081654,0.0003496903,-0.001899648,-0.0007404317,-0.003161673,-0.004887135
1.025891,0.03578909,0.07150267,0.002828862,0.00105516,-0.0001135296,-0.001693356,-0.002991323,-0.0042786
1.023874,0.03671948,0.06981335,0.0008165043,0.001972394,-0.001824638,-0.0008566752,0.002061826,-0.006726415
1.021941,0.03896248,0.06995894,-0.001113676,0.004204561,-0.001701043,-0.004587035,0.004978305,-0.008779143
1.02377,0.03378803,0.07626627,0.0007177918,-0.0009786748,0.004584184,-0.006549114,0.003824605,-0.01015951
1.025713,0.02703245,0.07985679,0.002661594,-0.007741128,0.008152473,-0.00246679,0.0007334325,-0.01142345
1.027638,0.02928174,0.07554923,0.004586515,-0.005496738,0.00382237,0.00181055,0.0002339904,-0.01240767
1.026938,0.03292395,0.06949388,0.003885986,-0.001857327,-0.002256009,0.01044281,0.003918147,-0.01221657
1.022717,0.03616911,0.07235752,-0.0003371278,0.001387184,0.0005841327,0.01671582,0.005990338,-0.01210044
1.020818,0.04060516,0.07453966,-0.002240477,0.005824579,0.002742394,0.008926205,0.003541373,-0.01305718
1.021419,0.03934278,0.07126006,-0.001643865,0.004565245,-0.0005614143,-0.0008608369,-0.0005133222,-0.01347754
1.022998,0.03759828,0.07160175,-6.947289e-05,0.002825134,-0.0002442238,-0.006782749,0.0002234758,-0.0130185
1.023921,0.03977756,0.06990128,0.0008470167,0.005009802,-0.001969374,-0.01503515,0.001094532,-0.01228772
1.023587,0.03812203,0.06971952,0.0005066355,0.003360391,-0.002175867,-0.01512622,-0.001494723,-0.01127062
1.023865,0.03475384,0.07399127,0.0007770283,-1.212523e-06,0.002071244,-0.009254614,0.0003522114,-0.009925942
1.023991,0.03312236,0.07499601,0.0008945742,-0.001625761,0.003051486,-0.01098682,0.004052237,-0.008974957
1.023753,0.03353131,0.07708433,0.0006477302,-0.001209589,0.005115401,-0.008347251,0.006356336,-0.01055661
1.022411,0.03675386,0.07849434,-0.0007025677,0.002020506,0.006500943,-0.004417032,0.006220258,-0.01260218
1.021608,0.03674176,0.07676584,-0.001515851,0.002016191,0.0047477,-0.008341378,0.003431061,-0.01054588
1.021903,0.03719716,0.07379977,-0.001231005,0.002479492,0.001756435,-0.006292654,0.003219067,-0.00861196
1.021563,0.03978643,0.06833345,-0.001580895,0.005076629,-0.003735553,-0.005567565,0.001429502,-0.01006313
1.024191,0.03656232,0.06688671,0.001036061,0.001860145,-0.005208308,-0.007910629,-0.0002458959,-0.009897552
1.025899,0.0335032,0.06879062,0.00273378,-0.001191717,-0.003330472,-0.004147188,0.002008116,-0.008364254
1.023663,0.03405666,0.06933134,0.0004871969,-0.0006314206,-0.002815609,-0.0008707712,0.003000283,-0.006955827
1.023122,0.03494795,0.07165422,-6.481439e-05,0.0002663374,-0.0005181433,0.005969597,0.006063688,-0.003742732
1.022819,0.03610429,0.0751281,-0.0003790063,0.001428769,0.002930853,0.008429659,0.00840994,-0.0009355918
1.021785,0.03647903,0.07737919,-0.001424464,0.001809208,0.005157571,0.002987712,0.005721932,-0.0001039884
1.021248,0.0391355,0.07776006,-0.001972295,0.004470901,0.005514414,0.003594525,0.003298177,0.0002199191
1.021009,0.04208268,0.07591898,-0.002223258,0.007422676,0.003649446,0.003349547,0.00116153,0.0003612561
1.022568,0.04138773,0.07317529,-0.0006743374,0.006731437,0.0008818376,0.002310997,0.002242002,-0.002306852
1.023675,0.03884943,0.07226783,0.0004217785,0.004195678,-4.961205e-05,0.001720275,0.006856956,-0.008438752
1.021169,0.03674176,0.07259699,-0.002094003,0.002089192,0.0002555101,-0.002978547,0.008569182,-0.01047573
1.018161,0.03826394,0.07296558,-0.005111968,0.003611111,0.0006000678,-0.003953746,0.007369573,-0.005299101
1.019682,0.03954166,0.07547551,-0.003600975,0.004887056,0.003086,-0.004725528,0.005661278,-0.001563284
1.022021,0.03766966,0.07816695,-0.001270483,0.003011686,0.005753436,-0.004981167,0.005773912,-0.003661348
1.022102,0.03749729,0.0795996,-0.001196781,0.002834281,0.007161916,0.0001371098,0.004251035,-0.005017073
1.022443,0.03957818,0.07913498,-0.0008625428,0.004908434,0.006672722,0.002454141,-0.001777962,-0.002944733
1.02116,0.0417655,0.07585168,-0.002150974,0.007087233,0.003364218,-0.001939025,-0.005730732,-0.00191558
1.020511,0.04227334,0.07367489,-0.002805292,0.007584627,0.001161461,-0.01010697,-0.006729494,-0.001088736
1.022067,0.04224195,0.07137832,-0.001252985,0.007540669,-0.001161831,-0.01513381,-0.007087925,-0.0005112198
1.02232,0.04321704,0.06884671,-0.001003368,0.008500867,-0.003720794,-0.01579042,-0.007479138,-0.001394803
1.022533,0.04236975,0.07124612,-0.0007922577,0.007636157,-0.001349158,-0.01321798,-0.008541686,-0.001474842
1.022839,0.04104617,0.07514419,-0.0004873542,0.006292456,0.00252093,-0.007973047,-0.006534013,-0.005192212
1.022894,0.04157537,0.0755393,-0.0004321582,0.006798723,0.002887909,-0.006781822,-0.002356324,-0.008855189
1.022311,0.04100454,0.0746375,-0.001014327,0.006202069,0.001957819,-0.003109037,-0.000797726,-0.003515886
1.021644,0.03975134,0.07505728,-0.001678716,0.00492012,0.00234911,0.003294639,-0.003094274,0.00200952
1.022667,0.0402823,0.07515294,-0.0006534899,0.005419394,0.00241605,0.003149623,-0.005022902,0.001004776
1.02221,0.04053255,0.07477697,-0.001106633,0.005635043,0.002011113,0.005423205,-0.005109874,-0.0009735416
1.021875,0.04022159,0.07517444,-0.001437362,0.005286601,0.00237936,0.007856589,-0.008168513,-0.001162417
1.022673,0.04107831,0.07494157,-0.0006333971,0.006102978,0.002116974,0.004986962,-0.007958789,0.0001334548
1.021913,0.04127955,0.07493544,-0.001387349,0.006261037,0.002081038,0.002752904,-0.004965287,0.003051742
1.022449,0.04070695,0.07532282,-0.0008440749,0.005642433,0.002438308,-0.001018468,-0.007035544,0.003807189
1.023836,0.04065857,0.0759153,0.0005506524,0.005545251,0.003000357,-0.001021564,-0.006427755,0.0008943253
1.026267,0.03948299,0.07766092,0.002989362,0.004318116,0.004715187,0.0009784329,-0.006070499,0.002418482
1.028612,0.03786503,0.07813618,0.005343204,0.002645959,0.005159215,-0.002620562,-0.007881952,0.005102529
1.025794,0.03702762,0.07725962,0.002535153,0.001751862,0.004250841,-0.002921023,-0.004278598,0.002905105
1.023007,0.03479672,0.07599337,-0.0002423887,-0.0005379995,0.002952117,-0.002128551,-0.0009799214,0.004730797
1.023806,0.03316339,0.07448959,0.0005655319,-0.002232251,0.001415139,-0.003007095,0.0007755571,0.00659806
1.024625,0.03443355,0.07424539,0.001393523,-0.001024613,0.001137044,0.0008442386,-0.0004168648,0.00442648
1.025007,0.03495762,0.07271133,0.001784761,-0.0005643125,-0.0004315225,0.005196115,-0.001955283,0.005496535
1.024057,0.03481924,0.06983531,0.000843494,-0.0007674061,-0.003342524,0.007808593,0.001231897,0.004757976
1.022253,0.03571314,0.07060872,-0.0009529604,6.113604e-05,-0.002604362,0.006919724,0.000951602,0.003033728
1.021928,0.03641924,0.07290933,-0.001269133,0.0007014559,-0.00033903,0.002314204,0.0007705436,0.004505173
1.02236,0.03721648,0.07381743,-0.0008299213,0.001432691,0.0005339405,0.001097975,0.0002956501,0.003743939
1.02224,0.03775341,0.07609025,-0.0009427048,0.001903533,0.002771858,0.005358048,-0.002707165,0.001432536
1.022143,0.03847316,0.07812771,-0.001031717,0.002557217,0.004774621,0.0102853,-0.001042514,0.0001501155
1.02247,0.03917759,0.07904438,-0.0006980147,0.003195653,0.005656707,0.007228311,-0.0009014331,0.001214928
1.023265,0.03883583,0.0790552,0.0001043333,0.002788029,0.005632879,0.001779843,0.0002808488,0.001204074
1.024589,0.03869174,0.07692431,0.001435356,0.002578209,0.003467099,0.0011642,0.002681675,-0.001399651
1.024698,0.03801258,0.07721633,0.001550983,0.001833487,0.003723874,-0.00203157,0.0009399094,-0.001876558
1.023737,0.03701845,0.07626795,0.0005967677,0.0007740233,0.002739818,-0.0005662472,0.002544366,-0.00275056
1.023299,0.03656875,0.07119282,0.0001655554,0.0002593225,-0.002371414,0.006855344,0.004206773,-0.00208735
1.022129,0.03630492,0.07099038,-0.0009992301,-6.906991e-05,-0.002610283,0.009857864,0.00456741,-0.0005600717
1.021433,0.03813252,0.07298875,-0.001688499,0.001694544,-0.0006484503,0.01248807,0.004992323,-0.0009787984
1.021636,0.04153229,0.07472302,-0.00148041,0.00503097,0.001049355,0.01138295,0.002933026,0.001807657
1.019664,0.04329618,0.08185598,-0.003446965,0.006732109,0.008145964,0.006237735,-0.0004189405,0.00184986
1.018709,0.04271778,0.08750984,-0.004396193,0.006091399,0.01376342,0.002009999,-0.005464378,7.531749e-05
1.020305,0.04102917,0.08150447,-0.002794903,0.004340748,0.007721214,-0.002410592,-0.004728709,0.0008945609
1.021134,0.03893282,0.07302681,-0.001959903,0.002182532,-0.0007940379,-0.001857814,-0.002910637,0.0002629752
1.022556,0.03757718,0.07456606,-0.0005310473,0.0007651731,0.0007067985,-0.004570278,-0.005249619,0.003605772
1.022942,0.03570794,0.07416299,-0.0001386903,-0.001165552,0.0002645924,-0.01067809,-0.00191788,0.007061079
1.022432,0.03241143,0.06981025,-0.0006410717,-0.004523141,-0.004127829,-0.006276035,-0.0002194053,0.006604798
1.024195,0.03354756,0.07297118,0.001129243,-0.003447422,-0.0010069,-0.001396288,-0.001309747,0.006323793
1.023866,0.03631134,0.07407349,0.0008075949,-0.0007430908,5.533015e-05,0.002471333,0.0003353359,0.002313556
1.022816,0.03511411,0.07175732,-0.000233377,-0.001998609,-0.002300832,0.0131778,0.0004753714,2.687477e-05
1.02322,0.03639393,0.07202705,0.0001787117,-0.0007757412,-0.002070843,0.01881658,0.001321369,0.003125085
1.021787,0.03869141,0.07217464,-0.001245973,0.001466213,-0.001962559,0.01293559,0.001114086,0.004076645
1.022315,0.03867381,0.07243772,-0.0007098885,0.00139457,-0.001738154,0.00267108,0.0007688839,0.003486231
1.024179,0.0393905,0.07077914,0.001163516,0.002058658,-0.003434618,-0.004036625,0.0002623012,0.00413023
1.023356,0.03796669,0.06985512,0.0003488769,0.0005836648,-0.004395549,-0.007550423,-0.003031138,0.004382622
1.022011,0.03505347,0.07018443,-0.0009875644,-0.002379345,-0.004101959,-0.00974549,-0.00213098,0.004026023
1.021719,0.03276403,0.06881816,-0.001270526,-0.004717083,-0.005502509,-0.006788875,0.0002942846,0.003888703
1.022603,0.03298942,0.06540995,-0.0003771239,-0.004538314,-0.008943316,-0.003124479,0.0003873589,0.002512536
1.022318,0.03700436,0.06087837,-0.0006529623,-0.0005681152,-0.01350543,-0.003775144,0.00161686,0.0001871787
1.021438,0.03824931,0.06498378,-0.001524675,0.0006340824,-0.009428046,-0.004777951,0.002550061,-0.000657334
1.020862,0.03819492,0.07265099,-0.002090911,0.0005389296,-0.001785943,-0.00490786,-0.002234733,0.001275913
1.019438,0.03935733,0.07315024,-0.003506061,0.001662502,-0.001308699,-0.005515715,-0.008270671,0.005310172
1.022673,0.03869254,0.06888658,-0.0002614576,0.0009607052,-0.005591284,-0.003501748,-0.002667025,0.005327643
1.026652,0.03893199,0.0647425,0.003728125,0.001164909,-0.009751172,-6.448119e-07,0.003073323,0.002949115
1.023819,0.03897307,0.07460297,0.0009047654,0.00117239,9.673637e-05,-0.000782344,9.951257e-05,0.004979472
1.021718,0.03868036,0.08920019,-0.001186091,0.0008476431,0.01468457,-0.001176311,0.001218403,0.00594098
1.022857,0.03898934,0.08695541,-3.700666e-05,0.001126086,0.01243306,0.0004941374,0.0008753897,0.005640385
1.024069,0.03721434,0.07650274,0.001185259,-0.0006780287,0.001975613,-0.0001209724,-0.002857541,0.006847215
1.026393,0.03466103,0.06692074,0.003518565,-0.003259045,-0.007609671,0.001234414,-0.001025312,0.005569535
1.026835,0.03318254,0.06435193,0.003970345,-0.00476376,-0.01018028,0.002243381,0.0003120091,0.006162956
1.025058,0.03659246,0.06956877,0.002202352,-0.001378458,-0.004963486,-0.0008078601,-0.0008912807,0.007179173
1.02478,0.04075405,0.07107165,0.001933339,0.002760214,-0.003458659,-0.002793365,-0.001869132,0.004952685
1.024924,0.03876777,0.07221227,0.002085511,0.0007526308,-0.002314012,-0.002259739,-0.003114705,0.005027429
1.023879,0.03812457,0.07313193,0.001047837,8.963486e-05,-0.001388251,-6.932739e-05,-0.002317943,0.004865956
1.02267,0.03960922,0.07030329,-0.0001539215,0.001555888,-0.004208765,0.002057822,-0.0006567946,0.0050318
1.022883,0.03772825,0.07102277,6.450818e-05,-0.0003421523,-0.00347916,0.003363612,0.0001738896,0.00841036
1.024867,0.03428328,0.07206513,0.00205427,-0.003802915,-0.002424663,0.004587156,0.0002469529,0.008592678
1.025365,0.03142112,0.07194481,0.002555954,-0.006679534,-0.002530868,0.005169297,-0.001454586,0.003658277
1.023783,0.03384319,0.07284103,0.0009780032,-0.004270417,-0.001618605,0.005231037,-0.001199626,-0.001650089
1.023369,0.0380507,0.0712304,0.0005667395,-7.41888e-05,-0.003211336,0.004597667,0.001841303,-0.001254912
1.023825,0.03599184,0.06955252,0.001024027,-0.002142599,-0.004869491,0.005161916,0.003304119,0.001290425
1.024536,0.0351363,0.06762317,0.00173687,-0.003005978,-0.006777281,0.006082679,0.003517278,0.0007590009
1.024935,0.03712521,0.06774147,0.002136262,-0.001023189,-0.006635471,0.005355309,0.003088032,0.002534796
1.023242,0.03549609,0.07175942,0.000441703,-0.002656712,-0.002591981,0.00544135,0.002558146,0.004166824
1.021908,0.03500735,0.07261988,-0.0008937845,-0.003148133,-0.001703922,0.004959264,0.002246902,0.002850739
1.023867,0.0355599,0.07260186,0.00106327,-0.002596526,-0.001692364,0.004803763,0.001344784,0.003377883
1.025965,0.03672696,0.07407393,0.003157949,-0.001428667,-0.0001889024,0.00714587,0.00162772,0.003585947
1.024978,0.04003334,0.07556215,0.002166993,0.00188023,0.001332369,0.007329232,0.001259634,0.002930467
1.024336,0.03826566,0.077078,0.001520371,0.0001166437,0.002882673,0.004001508,0.0001764795,0.003218797
1.024564,0.03660965,0.07550915,0.001742841,-0.00153384,0.001349402,-0.001000132,0.001780653,0.001702326
1.02318,0.03999058,0.07301804,0.0003524764,0.001853938,-0.001105265,-0.007711888,0.003478713,-0.0002905122
1.023011,0.04129579,0.07182545,0.0001763279,0.003167181,-0.002260729,-0.01332118,0.0006975565,0.000218553
1.02231,0.0428531,0.07375717,-0.0005333133,0.004733482,-0.0002912878,-0.01465585,-0.01028372,0.0007807339
1.020118,0.04453435,0.07653538,-0.002734273,0.006424365,0.002525137,-0.02203212,-0.01973147,-0.0008514694
1.02158,0.04093193,0.07543962,-0.001280893,0.00283191,0.001467899,-0.03773103,-0.01253267,-0.004910197
1.023073,0.03646389,0.07707996,0.0002024095,-0.001626087,0.003146853,-0.0385211,-0.002359386,-0.01104613
1.021519,0.03693217,0.08068738,-0.001362207,-0.00114778,0.006792711,-0.02625225,-0.0007297963,-0.01387011
1.0207,0.03859024,0.08118144,-0.002190733,0.0005202999,0.007324697,-0.0167246,0.004147718,-0.01306144
1.020947,0.0379217,0.07708002,-0.00195437,-0.0001382388,0.003260309,-0.004165011,0.00541667,-0.01505133
1.022337,0.03902717,0.06938256,-0.0005741537,0.0009771884,-0.004401287,0.001562595,-0.0005238105,-0.01564602
1.022935,0.03949809,0.06971052,1.36006e-05,0.001457964,-0.004038618,-1.770094e-05,-0.002803521,-0.01331189
1.021638,0.03816574,0.07212125,-0.001293852,0.0001353018,-0.001594203,0.004425379,-0.009546051,-0.0119044
1.022429,0.03925936,0.06803416,-0.0005124816,0.001238392,-0.005648479,0.004441265,-0.01470878,-0.005461025
1.023519,0.03898576,0.06761027,0.0005684002,0.0009739827,-0.006040244,0.003108671,-0.01076672,0.0006647456
1.023402,0.03848069,0.06838635,0.0004425493,0.0004777719,-0.0052325,0.000495091,-0.01173476,-0.0004088901
1.023986,0.03827942,0.06862755,0.001017109,0.0002849965,-0.004959861,-0.01275003,-0.01144922,0.001724814
1.023625,0.03216018,0.07268934,0.0006473274,-0.005826094,-0.0008666784,-0.01707033,-0.006214219,0.005768196
1.024337,0.02342259,0.07520179,0.001351476,-0.01455568,0.001677159,-0.003231707,-0.002191314,0.00508216
1.025638,0.01905311,0.0732361,0.002643634,-0.01891681,-0.0002572017,0.0200606,0.003583216,0.004712167
1.024772,0.01998641,0.06903223,0.001770248,-0.01797404,-0.004429893,0.04092387,0.009959622,0.005067059
1.024928,0.02013933,0.06740195,0.001917924,-0.01780973,-0.006029085,0.04931863,0.01813608,0.0036638
1.024488,0.02014845,0.06802338,0.001469433,-0.01778653,-0.005376514,0.05640985,0.02174426,0.002007669
1.021034,0.02647214,0.06844206,-0.001992811,-0.01144543,-0.004926429,0.0627267,0.02105745,0.002303212
1.01762,0.03391518,0.07007113,-0.00541559,-0.003981237,-0.003265548,0.05536482,0.02164205,0.007561326
1.017458,0.03772197,0.07107595,-0.005586646,-0.000149457,-0.002228407,0.03581109,0.01628274,0.01317817
1.020376,0.03655465,0.07026254,-0.002676407,-0.00128815,-0.003008976,0.0114504,0.01613511,0.007847893
1.023171,0.03382833,0.06721288,0.0001116472,-0.003982457,-0.006025228,-0.00308691,0.02017902,-0.001399271
1.025634,0.03560766,0.06752412,0.002567519,-0.002167946,-0.005679914,-0.001279134,0.01800305,-0.002657057
1.024862,0.03658923,0.07288485,0.001788939,-0.001148213,-0.0002843485,-8.270894e-05,0.02072553,-0.003744972
1.022246,0.03849194,0.07183944,-0.0008321346,0.000795389,-0.001294141,-0.003083387,0.02095449,-0.004617474
1.023109,0.04474412,0.06960742,2.5264e-05,0.007090867,-0.003489835,-0.0001692671,0.01829075,-0.002414998
1.019627,0.05153903,0.07436167,-0.003461777,0.01393095,0.001301386,0.001265924,0.01955822,-0.003329088
1.014497,0.05824738,0.07611488,-0.008596095,0.02068555,0.00309211,-0.002013656,0.01269532,-0.003077038
1.016748,0.06018676,0.07573056,-0.006349099,0.02267117,0.002745601,-0.00913049,0.005946537,-0.003153879
1.016998,0.06120772,0.08220923,-0.006101704,0.02373718,0.009262083,-0.02160393,0.007514732,-0.004688049
1.013053,0.06314516,0.09122853,-0.0100485,0.02571721,0.01831873,-0.02781432,0.00608183,-0.00242629
1.011219,0.06168464,0.09414009,-0.01188203,0.02429566,0.02126641,-0.03227271,-0.004928548,-0.0009639233
1.012096,0.06236235,0.09357361,-0.01100235,0.02500757,0.02073384,-0.03971794,-0.01614151,0.001596336
1.016226,0.05855592,0.09534723,-0.006867004,0.02122957,0.02253817,-0.03782654,-0.0132854,0.003982404
1.020367,0.04808532,0.09232306,-0.002718108,0.01078085,0.01954055,-0.03382723,-0.008424797,0.00256901
1.022037,0.04089007,0.08546024,-0.001038302,0.003600549,0.01269932,-0.02921029,-0.008304285,0.002641052
1.023183,0.03719502,0.08702803,0.0001214625,-8.644445e-05,0.01428317,-0.01816792,-0.001144606,0.000432068
1.023673,0.03412218,0.08893594,0.0006272858,-0.003157766,0.01620123,-0.008489486,0.004639169,-0.001203552
1.022253,0.02953715,0.08634883,-0.0007747057,-0.007747231,0.01361799,0.004399929,0.008187533,0.001144246
1.021392,0.03324962,0.0876674,-0.00161591,-0.004044488,0.01493384,0.01574301,0.01547955,0.0008016281
1.022392,0.04205986,0.08608853,-0.0005938845,0.004751364,0.01334539,0.01518957,0.01637341,0.002565742
1.020578,0.04334687,0.08066635,-0.002384448,0.006019702,0.007906625,0.01276725,0.0122866,0.00631613
1.018346,0.0489888,0.07814713,-0.004591584,0.01163879,0.005363809,0.003660587,0.005572991,0.005605045
1.01975,0.05438225,0.0776453,-0.003160572,0.01700511,0.004831587,-0.01576475,-0.00321665,0.002535136
1.019676,0.05272828,0.07801327,-0.00320516,0.0153194,0.005162655,-0.03124535,-0.005169491,4.669347e-05
1.01905,0.05146193,0.07477073,-0.003801896,0.01401633,0.001877028,-0.0444341,-0.006067527,-0.0003899668
1.019763,0.0458818,0.07059346,-0.003056472,0.008394263,-0.002349078,-0.0577466,-0.01209959,-0.003322879
1.019295,0.04418709,0.07144885,-0.00349147,0.006652276,-0.001547753,-0.0642371,-0.01710394,-0.007820773
1.020499,0.04569754,0.07489964,-0.002252265,0.008110221,0.001844336,-0.06817615,-0.01549327,-0.005537992
1.024932,0.04306146,0.07584574,0.002216897,0.00541655,0.002727573,-0.07745786,-0.00994623,-0.004486647
1.028531,0.04340455,0.0737415,0.005853341,0.005697135,0.0005567192,-0.08747291,-0.009235916,-0.01172824
1.024816,0.03684533,0.07535366,0.002176156,-0.0009292275,0.002098857,-0.0908488,-0.01121195,-0.0165032
1.018906,0.02811304,0.07579347,-0.003694329,-0.009732836,0.002465603,-0.08651178,-0.01600962,-0.01443458
1.02075,0.03017783,0.07372468,-0.001810736,-0.007742822,0.0003210426,-0.07372984,-0.02601374,-0.007075212
1.022408,0.0301755,0.07592069,-0.0001139618,-0.007822551,0.002438884,-0.05269736,-0.03208135,0.003120914
1.022513,0.02881273,0.07489707,3.138494e-05,-0.009264504,0.001335003,-0.03170079,-0.03096058,0.01018792
1.025902,0.03142296,0.07345347,0.003460902,-0.006734472,-0.0001906365,-0.02982232,-0.02375667,0.01845087
1.023694,0.03083041,0.07152162,0.001292499,-0.007407533,-0.002205982,-0.03658776,-0.01629668,0.02273083
1.020545,0.02984433,0.06587225,-0.001816119,-0.008473807,-0.007939882,-0.02889504,-0.0143386,0.0149144
1.022842,0.0308643,0.06783428,0.0005203361,-0.007533123,-0.006062873,-0.02349673,-0.01329171,0.009666083
1.022991,0.02964639,0.06881416,0.0007078175,-0.008828833,-0.005167909,-0.01601713,-0.01044101,0.006172224
1.024355,0.02891808,0.06423047,0.002110877,-0.009632934,-0.009835865,-0.0007260794,-0.004578298,-6.74207e-05
1.027481,0.03160115,0.06410034,0.005274282,-0.007023119,-0.01004903,-0.001054613,0.001949876,0.0004595825
1.025271,0.034441,0.06634679,0.003101434,-0.004253575,-0.007883777,-0.002710587,0.00354288,-0.001340772
1.022262,0.03604958,0.06874122,0.0001282934,-0.002712072,-0.005568167,0.0005001391,-0.000927928,-0.004816159
1.022062,0.03531733,0.06670142,-3.690821e-05,-0.003508014,-0.007683994,1.297303e-05,-0.006283873,-0.001369091
1.022503,0.03308438,0.06370973,0.0004375195,-0.005801162,-0.01074855,0.005098908,-0.00660443,0.00219624
1.024097,0.03225203,0.06580998,0.002063852,-0.006690072,-0.008717552,0.01521496,-0.003076247,0.00684593
1.025043,0.03154037,0.0659213,0.003040757,-0.007454431,-0.008671495,0.02755239,0.00151865,0.00872822
1.022414,0.03079393,0.06613404,0.0004405601,-0.008249489,-0.008519657,0.02856715,0.001899877,0.006807201
1.02042,0.02961909,0.0676313,-0.001525821,-0.009468632,-0.007078658,0.02873722,0.001113886,0.008398314
1.024266,0.02857552,0.06654909,0.002347277,-0.01055191,-0.008212276,0.04263343,0.004309413,0.005294703
1.027948,0.02973025,0.06808181,0.006053614,-0.009432021,-0.00672591,0.04153225,0.005899351,0.002566609
1.025127,0.03196167,0.0703413,0.00325655,-0.007230346,-0.004507601,0.03533676,0.009556395,0.006167083
1.022105,0.03725636,0.07075916,0.0002563556,-0.001960178,-0.004125716,0.03769949,0.01143105,0.00236033
1.022287,0.04334264,0.07235601,0.0004577752,0.00410671,-0.002559685,0.03070647,0.008666162,-0.001855764
1.022036,0.04390263,0.07004632,0.0002242862,0.00465207,-0.004895147,0.02717789,0.0107232,0.001062772
1.022253,0.04288595,0.06689078,0.0004580888,0.003625049,-0.00807147,0.02830746,0.0102388,0.005786879
1.022426,0.04488403,0.07095908,0.0006453215,0.00561657,-0.004018994,0.02620024,0.007880433,0.01346038
1.02192,0.04657648,0.07334306,0.0001524129,0.007305732,-0.001645896,0.02231487,0.006768912,0.01381521
1.022616,0.04603571,0.06999704,0.0008598396,0.006764393,-0.004998013,0.01047328,0.002526148,0.009490935
1.023094,0.04637465,0.06868724,0.001348355,0.007104943,-0.006309256,0.00110918,0.002372497,0.01162429
1.023726,0.0472225,0.06901441,0.001988831,0.007956051,-0.005978932,-0.003277742,0.0007963142,0.01069102
1.023777,0.04444122,0.06683853,0.00204724,0.005179165,-0.008147091,-0.006995525,-0.003446469,0.009173698
1.022311,0.04046205,0.06336334,0.0005865829,0.001205137,-0.01160995,-0.0081709,-0.002748412,0.007833536
1.022666,0.03830931,0.06362754,0.0009459002,-0.00094195,-0.01132869,-0.01024679,-0.003553476,0.002321127
1.024893,0.03535599,0.06710933,0.003175781,-0.003889178,-0.007824945,-0.0055897,-0.00407896,0.002005633
1.026793,0.03363294,0.07045735,0.005077297,-0.005605625,-0.00445002,0.0002670829,-0.00256823,0.001823276
1.024912,0.03526937,0.07342192,0.003196127,-0.003961917,-0.001453707,-0.001235274,-0.003357302,0.0007419631
1.021353,0.03607618,0.07168654,-0.000364609,-0.003146984,-0.003152765,0.0001464523,-0.002525182,0.002622038
1.022154,0.03678727,0.0667777,0.0004327622,-0.002426843,-0.008020954,0.004700768,0.001506209,0.000258483
1.022684,0.03821347,0.06460487,0.0009575317,-0.0009905874,-0.01014896,0.009929766,0.004506315,-0.001971246
1.021732,0.03664438,0.06467373,1.180145e-07,-0.00254864,-0.01003107,0.01208608,0.002246995,-0.0025647
1.022884,0.03362831,0.06591236,0.001144421,-0.005552656,-0.00873916,0.01355815,-0.0004603652,-0.001364777
1.023958,0.03127044,0.06530341,0.002209695,-0.00789736,-0.009290537,0.02205901,0.001079809,0.001128152
1.025567,0.03176895,0.06469906,0.003809237,-0.007384357,-0.009833014,0.02707969,0.0007255798,-0.002630798
1.02636,0.03550789,0.06593306,0.004590652,-0.003629378,-0.008532846,0.02773788,-0.0001921377,-0.005062132
1.025481,0.03701855,0.0649544,0.003699686,-0.002101012,-0.009441047,0.02937593,0.001190041,-0.004748109
1.024143,0.03782883,0.06549771,0.002347675,-0.001271369,-0.008823044,0.03052527,0.0007069407,-0.005556892
1.021289,0.03928795,0.06770044,-0.0005218657,0.0002087013,-0.006541437,0.0364789,0.0006508283,-0.004364285
1.021658,0.03802318,0.07005442,-0.0001693374,-0.001033678,-0.00410452,0.03952579,0.001501974,-0.005210622
1.022714,0.03739543,0.07561443,0.0008691549,-0.001637725,0.001542198,0.03369768,0.001239341,-0.005019803
1.018915,0.03929857,0.07907967,-0.002948098,0.0002903216,0.005097477,0.02840138,0.001608779,-0.003907807
1.017745,0.04080433,0.07800271,-0.004138081,0.001822056,0.00411326,0.02717479,0.001573494,-0.003482624
1.020893,0.03936621,0.07599882,-0.001010153,0.0004107996,0.002204175,0.02905147,0.002071438,0.001963889
1.023106,0.03718507,0.07533209,0.001182544,-0.001742766,0.001633737,0.03248662,0.004128624,0.006514489
1.022583,0.03770404,0.07475463,0.0006390909,-0.001195609,0.001153568,0.03846709,0.006444947,0.006871277
1.02127,0.03843792,0.07286681,-0.0006947488,-0.0004330006,-0.0006363598,0.0426201,0.01016051,0.005626678
1.021752,0.03938503,0.07299495,-0.0002342923,0.0005433032,-0.000410051,0.0391961,0.01301858,0.003946872
1.020891,0.04098808,0.07420772,-0.001115629,0.002175883,0.0009008688,0.03626525,0.01054781,0.003000254
1.0211,0.04180387,0.07640946,-0.0009279778,0.00302138,0.00320045,0.03514872,0.005183368,0.002051521
1.023232,0.04227229,0.0787297,0.001182915,0.003519458,0.005617882,0.03066126,0.004147809,0.002090315
1.021961,0.04220341,0.07772332,-0.0001084677,0.00347994,0.004707595,0.02565992,0.00559975,0.0001783525
1.021715,0.04382434,0.0774997,-0.0003756415,0.005129689,0.004578547,0.02027913,0.004462725,-0.003042712
1.021519,0.046202,0.07854344,-0.0005915025,0.007535358,0.005714932,0.01002691,0.004138515,-0.006654622
1.018322,0.04741675,0.08033927,-0.003808931,0.008776946,0.007601092,-0.002507197,0.004041075,-0.01062427
1.017777,0.04734846,0.08230551,-0.004373093,0.008733953,0.00965492,-0.00594512,0.003961602,-0.006648037
1.01937,0.04398727,0.07949602,-0.002799363,0.005396117,0.00692982,-0.004157784,0.007761117,-0.00253799
1.021575,0.04219312,0.07713392,-0.0006118047,0.003623119,0.004648511,-0.004780886,0.01043646,-0.006741856
1.022733,0.0436187,0.08130758,0.0005284612,0.005067478,0.008899053,-0.003214382,0.006447576,-0.009830258
1.021159,0.04485855,0.08386458,-0.001061431,0.006323614,0.01152872,-0.01240522,0.001300132,-0.01016859
1.020452,0.04640766,0.07698915,-0.001783658,0.007886355,0.004721403,-0.02678261,0.00255976,-0.007111483
1.020863,0.04598809,0.07088803,-0.0013871,0.007477572,-0.001316385,-0.02244744,0.004135859,-0.002356189
1.020789,0.04539618,0.07381935,-0.001474406,0.006893381,0.001673513,-0.01867849,0.002249605,-0.003976255
1.019869,0.045118,0.07603423,-0.002406395,0.006619691,0.003942329,-0.02206159,0.002946999,-0.006792253
1.019637,0.04015103,0.07613937,-0.002649549,0.001653897,0.004096842,-0.01756878,0.002219188,-0.008436295
1.022176,0.03493248,0.07929282,-0.0001200046,-0.003566763,0.007295069,-0.01671726,7.987222e-05,-0.01233975
1.024494,0.03532933,0.08177224,0.002189567,-0.00317502,0.009814573,-0.01553098,-0.0002908041,-0.01108465
1.02388,0.0381754,0.08322873,0.001567212,-0.0003367287,0.01130627,-0.008294181,-0.002253137,-0.006421207
1.023006,0.04117864,0.08215292,0.0006867125,0.002656369,0.01026051,-0.005369746,-0.002640336,-0.004374234
1.023547,0.04602545,0.07776121,0.00122198,0.007490796,0.005893482,-0.001697182,-0.001963325,-0.001925659
1.021983,0.04754011,0.07845136,-0.0003464779,0.008990782,0.006602819,-0.001217854,-0.002641717,-0.00260403
1.020067,0.0460504,0.08016344,-0.002267111,0.007483913,0.008328594,-0.010363,-0.004147921,-0.003328713
1.02186,0.04739136,0.07636949,-0.000477545,0.00880504,0.004542843,-0.01495262,-0.005623245,0.0004114471
1.0228,0.04325527,0.07457561,0.000459207,0.004646301,0.002751732,-0.006058063,-0.001729566,0.001375812
1.02216,0.03676494,0.07350327,-0.0001830203,-0.001869546,0.001676912,0.00750576,0.002335853,0.00109186
1.02311,0.03642902,0.07181418,0.0007652024,-0.002233646,-1.96203e-05,0.01374559,0.0009851241,0.001137438
1.023945,0.03630912,0.07269011,0.001599244,-0.002384082,0.0008442076,0.01630026,0.002300917,0.0004235014
1.023521,0.0393008,0.07201334,0.001174242,0.0005750925,0.0001510394,0.01704817,0.006663526,-0.0002108128
1.022131,0.04435294,0.07182316,-0.0002154629,0.005592977,-5.949913e-05,0.01154899,0.007022,-0.002781888
1.020282,0.04591357,0.07181434,-0.002064212,0.007117672,-9.231599e-05,0.009949626,0.004881743,-0.002131596
1.018855,0.0462653,0.07064199,-0.003490757,0.007431729,-0.001291951,0.009071162,0.003018248,0.0007745989
1.019617,0.04544789,0.07361086,-0.002728263,0.006574769,0.001646678,0.002267189,0.0001044595,0.001625407
1.022079,0.04554916,0.07594037,-0.0002645899,0.006634491,0.003943252,0.0004768042,-0.000343673,0.00256818
1.0244,0.04429978,0.07385747,0.002058218,0.005341485,0.001824899,0.001890935,0.001269636,0.0005201869
1.026478,0.04226413,0.07210065,0.004138728,0.003260114,3.026222e-05,0.004023501,0.0009894911,-0.002181364
1.025634,0.04412248,0.07241126,0.003298246,0.005070684,0.0003009096,0.008280933,0.00244194,-0.001418831
1.023242,0.04512064,0.0745255,0.0009093276,0.006019042,0.002373276,0.01123711,0.003483954,5.759557e-05
1.022625,0.04500352,0.07724266,0.0002949038,0.00585011,0.0050468,0.01388716,0.00252736,0.001922926
1.021616,0.04535084,0.0778244,-0.0007109164,0.0061436,0.005583233,0.01310072,0.003074006,0.003832272
1.020324,0.04554452,0.07354877,-0.002000178,0.006281414,0.00126062,0.01011404,0.002070979,0.003418811
1.019178,0.04767172,0.06811171,-0.003142337,0.008350674,-0.004224972,0.004419039,-0.0009749471,0.002357498
1.019346,0.04941906,0.06721614,-0.002971846,0.01003792,-0.005170332,-0.008153924,-0.002582153,0.003970126
1.021394,0.04867203,0.07014,-0.0009202464,0.009228514,-0.002297097,-0.01541144,0.002809512,0.004286941
1.02117,0.04795547,0.07715928,-0.001140847,0.008447159,0.004671063,-0.01122943,0.009633491,0.001462244
1.020696,0.04789361,0.08441188,-0.001609944,0.008317954,0.01187212,-0.006710388,0.004473112,-0.001414913
1.022861,0.04605995,0.08186591,0.0005594338,0.006414361,0.00927402,-0.006027861,-0.001454177,-0.003920958
1.024547,0.04498275,0.07388007,0.002249958,0.005264645,0.001235176,-0.002895228,-0.0002570916,-0.004260579
1.024924,0.04540438,0.07204936,0.002632461,0.005611242,-0.0006494682,0.001235603,-0.001220573,-0.00352294
1.024317,0.04404771,0.07369247,0.002030818,0.004177132,0.000938911,0.001239923,0.001126691,-0.0008023162
1.023401,0.04419552,0.07416099,0.001119623,0.004245231,0.00135209,0.000531087,0.006154288,0.002820299
1.02431,0.04438707,0.07451381,0.002033888,0.004354954,0.001649109,0.0003812753,0.005039546,0.001434601
1.025644,0.04139819,0.07488853,0.003372931,0.001282309,0.001967675,0.0006240104,0.00273709,0.0005108514
1.024564,0.03976099,0.075107,0.002297357,-0.000440368,0.002129712,0.001778817,0.002225383,-0.0003169384
1.022729,0.04093887,0.07263006,0.0004657757,0.0006506512,-0.0004038283,0.004636375,0.003689077,-0.00267602
1.021153,0.04236974,0.06965387,-0.001106823,0.001993583,-0.003436663,0.009027478,0.005798234,0.002431746
1.020139,0.04165787,0.06956448,-0.00211687,0.001192954,-0.003582495,0.009269934,0.002988193,0.008839325
1.021479,0.04174967,0.07167722,-0.0007746608,0.001195403,-0.001525709,0.008478489,-0.0001113764,0.007944217
1.022811,0.0448253,0.07671152,0.0005601379,0.004181305,0.003453358,0.00874598,0.001171286,0.002082105
1.023734,0.04643503,0.07793135,0.001485028,0.005701039,0.004618706,0.004158842,0.001739054,-0.002421254
1.024192,0.04605423,0.07214017,0.00194465,0.005230014,-0.00122623,0.001248801,0.0001861246,0.002050863
1.023054,0.04514964,0.06872752,0.0008081562,0.004234968,-0.004691878,0.007111789,-0.002228435,0.007667706
1.023178,0.04439545,0.07497035,0.0009335007,0.003390115,0.001498881,0.01445902,-0.006360719,0.006399328
1.021264,0.04461148,0.08465909,-0.0009799618,0.003515338,0.01113654,0.01529029,-0.009177693,0.006072057
1.01831,0.04580565,0.08614317,-0.003934234,0.004618615,0.01257031,0.01531695,-0.00605839,0.007932442
1.020384,0.04663146,0.08520981,-0.001860148,0.005353497,0.01158694,0.0179153,-0.0001866568,0.00608821
1.021468,0.04531161,0.08376315,-0.0007760339,0.003942687,0.01009009,0.01571906,0.004217265,0.001518441
1.019554,0.04567079,0.07502505,-0.002690496,0.004210892,0.001301259,0.01392866,0.006908981,-0.000789495
1.01952,0.04556692,0.0702566,-0.002724195,0.00401606,-0.003518564,0.01502559,0.004632922,-0.0002271713
1.021634,0.04073809,0.0739677,-0.000610773,-0.0009036374,0.0001406969,0.01250239,0.00221458,-0.003227569
1.024296,0.03798301,0.07606065,0.002051914,-0.003749328,0.002181556,0.01274942,0.005354288,-0.008269638
1.023704,0.03976321,0.07247043,0.001461157,-0.002059158,-0.001460861,0.01427345,0.00587899,-0.007694199
1.020587,0.04328343,0.06882307,-0.001655083,0.001371914,-0.005160352,0.01111053,0.003017327,-0.008839242
1.020385,0.04565075,0.06998809,-0.00185614,0.003651164,-0.004047129,0.005994955,0.001395206,-0.01267596
1.022579,0.04676412,0.0708135,0.0003389008,0.004677588,-0.003272839,-0.00642365,-0.0001464244,-0.008308544
1.024214,0.04782055,0.07149888,0.00197514,0.005648165,-0.002637634,-0.01742229,-0.0008640373,-0.004145503
1.025233,0.0456259,0.07538275,0.002994884,0.003368638,0.00119722,-0.01164249,-0.001456945,-0.006131461
1.024414,0.04356147,0.07901061,0.002177054,0.001220279,0.004777279,-0.00405732,-0.0004869697,-0.005415682
1.022855,0.04259726,0.08060376,0.0006195269,0.000173103,0.006323753,-0.004540017,0.003451665,-0.00435482
1.02355,0.0410592,0.08159508,0.001315373,-0.00144683,0.007269292,-0.003586085,0.006257657,-0.006468905
1.022878,0.04196688,0.08155898,0.0006445479,-0.0006197639,0.007188048,-0.005735011,0.005763199,-0.007441129
1.020623,0.0422791,0.07725492,-0.001609558,-0.0003867318,0.002839193,-0.01363647,0.004772162,-0.005144743
1.020899,0.04174961,0.0744026,-0.001333325,-0.0009938406,-5.771382e-05,-0.01593564,0.006395166,0.001189168
1.021812,0.0414853,0.07929391,-0.0004202856,-0.001334049,0.004789216,-0.009428357,0.006737361,0.005857527
1.022423,0.04148424,0.08394694,0.0001905393,-0.001409156,0.00939798,-0.003555935,0.005619201,0.0003599431
1.022432,0.04266782,0.08132988,0.0002002358,-0.0002976383,0.006736583,-0.007598555,0.005866147,-0.005034895
1.021893,0.04394086,0.07711275,-0.0003393446,0.0009054006,0.002474809,-0.0140449,0.003780871,-0.002080641
1.022415,0.04565671,0.079337,0.0001824975,0.002553355,0.004653986,-0.01462649,0.0006315351,-0.004740743
1.022246,0.04108549,0.08458685,1.290469e-05,-0.002083692,0.00985823,-0.0140955,-0.002289121,-0.01018099
1.022046,0.03475134,0.08577822,-0.0001871021,-0.00848152,0.01100327,-0.01208931,-0.00254106,-0.007024008
1.022789,0.03777939,0.08190618,0.0005558932,-0.005514764,0.007083859,-0.009078869,0.001223555,-0.003017735
1.023689,0.03957549,0.07809893,0.001455128,-0.003777271,0.003227985,-0.0007529364,0.001689261,-0.0007713199
1.024679,0.03862282,0.07771961,0.002445054,-0.004785622,0.002798725,0.01154517,0.002570954,-0.0008884457
1.023627,0.04242058,0.07695798,0.001392523,-0.001040467,0.001985882,0.009732224,0.005557233,-0.00373942
1.022783,0.04637236,0.07624734,0.0005468604,0.002861804,0.001222883,0.005844953,0.005042631,-0.003624483
1.023428,0.04993975,0.07566008,0.00119059,0.006382667,0.0005822462,0.008958874,0.004816218,-0.002532175
1.022936,0.05209533,0.07855272,0.0006969019,0.008494373,0.003420645,0.003454614,0.004165149,0.001282064
1.024572,0.04970102,0.08437345,0.002331278,0.006058435,0.009186346,0.0008945292,0.003252873,0.006834357
1.02686,0.04720396,0.08185408,0.004616763,0.003521591,0.006611074,0.003663344,0.004003793,0.004630255
1.025314,0.04726502,0.07895584,0.003067504,0.003544413,0.003655912,0.002548461,0.003398896,0.0009752348
1.021913,0.04718798,0.07768946,-0.0003368805,0.003430501,0.00233155,0.004674304,0.003583734,0.001464409
1.018465,0.04723675,0.07139134,-0.003788389,0.003443562,-0.004025496,0.005972097,0.003796212,0.0005519853
1.019501,0.0487428,0.0722249,-0.002757752,0.004914901,-0.003251559,0.009174171,0.003146344,0.003030517
1.022393,0.05031891,0.07777097,0.0001294163,0.006457102,0.002234525,0.01582921,0.00135636,0.007244974
1.020523,0.05146461,0.07932531,-0.001745693,0.007569432,0.003728725,0.01452126,-0.006909021,0.006114676
1.021217,0.05138172,0.07720233,-0.001057177,0.007453411,0.001545519,0.005449672,-0.01403913,0.005274265
1.023739,0.05120807,0.07329196,0.001459483,0.007246561,-0.002425089,-0.004862458,-0.00834224,0.001951382
1.023439,0.05172565,0.07526841,0.001153838,0.007730595,-0.0005087335,-0.00281806,0.0008353903,-0.002072546
1.02498,0.05111669,0.07787357,0.002689185,0.007087464,0.002036677,0.002288768,0.001084506,0.0004661796
1.022922,0.0514125,0.07727936,0.0006251351,0.007348243,0.001383161,-0.003573687,-0.002113334,0.001171488
1.019305,0.05109282,0.07842106,-0.002997469,0.006992454,0.002466065,-0.001831713,-0.006319451,0.004039225
1.02196,0.04834625,0.07757942,-0.0003488921,0.004208526,0.001566161,0.0004854347,-0.01232007,0.01002826
1.02272,0.04687882,0.07741181,0.0004051054,0.002702395,0.001340833,-0.003366116,-0.01178601,0.008477788
1.019909,0.04805497,0.0784212,-0.002412453,0.003838499,0.002293102,-0.0005509425,-0.009830239,0.007362171
1.019003,0.0511689,0.07724492,-0.003324175,0.00691106,0.001060307,-0.000741801,-0.01138723,0.008608264
1.019534,0.05235941,0.07795351,-0.00279835,0.008058799,0.001713024,-0.002297846,-0.01031334,0.006356365
1.020779,0.05277599,0.07833542,-0.001559377,0.008431056,0.002039728,-0.007095883,-0.01053765,0.00461533
1.022229,0.05421097,0.07914577,-0.0001141117,0.009819981,0.002795536,-0.01898286,-0.01157384,0.004596061
1.024313,0.05001815,0.08080173,0.001965066,0.005579169,0.004397585,-0.02108113,-0.01107131,0.004623972
1.02563,0.0434683,0.07678345,0.003278364,-0.001020682,0.0003259901,-0.0181754,-0.0111975,0.004520744
1.024942,0.04192976,0.07276579,0.002587173,-0.002611084,-0.003744389,-0.01574158,-0.0063078,0.00585277
1.024437,0.04311351,0.07386367,0.002077789,-0.001480719,-0.002698475,-0.01076602,0.002969081,0.008745563
1.023386,0.04239211,0.07435749,0.001023386,-0.002256696,-0.00225564,-0.009322118,0.008203057,0.01177118
1.022174,0.04002722,0.07338406,-0.0001917836,-0.004676975,-0.003278859,-0.002300292,0.006266971,0.01331173
1.024632,0.04079655,0.07530023,0.00226216,-0.003963486,-0.001411099,0.01268572,0.004190047,0.01175995
1.027515,0.0441013,0.07783883,0.005140934,-0.0007146461,0.001080596,0.01986997,0.004645512,0.009673105
1.025583,0.04669776,0.07752587,0.003205596,0.001826094,0.0007222749,0.02039596,-0.001447617,0.008649041
1.023819,0.04661213,0.07799634,0.001436913,0.00168508,0.001148914,0.02092431,-0.007880216,0.008730803
1.02441,0.04580891,0.07779148,0.002022255,0.0008268506,0.0009017047,0.01568607,-0.00760001,0.008930471
1.022354,0.04770572,0.0749311,-3.935206e-05,0.002669091,-0.001999559,0.00774962,-0.009031735,0.008396826
1.020755,0.04635611,0.0709113,-0.001644639,0.001265373,-0.006058722,0.002095056,-0.01108701,0.009635015
1.021917,0.04241044,0.07029017,-0.0004895763,-0.002733899,-0.006717497,-0.001451173,-0.01217828,0.01061737
1.022315,0.03983648,0.07987391,-9.862271e-05,-0.005360786,0.002830523,0.002495183,-0.01251341,0.01301277
1.021827,0.03503848,0.08437165,-0.0005935498,-0.01021073,0.007294505,0.01369663,-0.008413439,0.01730122
1.019475,0.03272859,0.07970041,-0.002953456,-0.01257112,0.002591246,0.02559936,-0.005255697,0.01570722
1.017472,0.03431387,0.08334714,-0.004964354,-0.01103431,0.006207413,0.02551622,-0.003277909,0.01342146
1.020283,0.03708186,0.08646852,-0.002160439,-0.00831219,0.009299372,0.01882169,-0.0006015817,0.01309235
1.024502,0.04222569,0.08619971,0.002051284,-0.00321123,0.009001914,0.02090596,-0.003776245,0.01132067
1.025048,0.04444942,0.08480641,0.002590132,-0.001027173,0.007580328,0.01469788,-0.008188902,0.01354891
1.021316,0.04440128,0.07515117,-0.001148633,-0.001111753,-0.002103168,0.004921136,-0.007627063,0.01543213
1.018277,0.04611583,0.07379792,-0.00419416,0.0005695046,-0.003484703,0.006324755,-0.007239534,0.01327406
1.020336,0.04765631,0.08024886,-0.002141568,0.002079708,0.002938047,0.002758121,-0.006388871,0.009126563
1.022574,0.04864637,0.0817312,8.969127e-05,0.003042299,0.004392346,-0.0009616867,-0.002789148,0.003016868
1.021052,0.04515035,0.08287994,-0.001437659,-0.0004785968,0.005513114,-0.003414003,-0.001523512,0.00124048
1.019526,0.0376649,0.08196579,-0.00296813,-0.007986464,0.004570896,-0.007961073,-0.003330173,0.0009581594
1.019682,0.0347271,0.08431247,-0.00281626,-0.01094414,0.006889219,-0.004000999,-0.004411068,-0.001043932
1.021104,0.03697832,0.08781627,-0.001398112,-0.00870994,0.01036415,0.004097552,-0.004721914,0.002692373
1.022957,0.03844066,0.08336185,0.0004523935,-0.007261456,0.005880065,0.0131304,-0.006267763,0.008800782
1.022376,0.0372064,0.07528376,-0.0001309751,-0.008506169,-0.002228693,0.01502434,-0.006437388,0.01081037
1.021517,0.03717226,0.06690812,-0.0009913233,-0.008547148,-0.01063592,0.01063285,-0.001748302,0.009435863
1.021734,0.03909089,0.06952607,-0.0007743462,-0.00663158,-0.008050045,0.007671008,0.002690146,0.005945264
1.020297,0.04288496,0.07492585,-0.002211601,-0.002836686,-0.002682315,-0.0009886353,0.0008602267,0.004087528
1.019652,0.04925046,0.06735655,-0.00285556,0.003533452,-0.01028323,-0.004951466,-0.005458412,0.004260607
1.020018,0.05007006,0.06479484,-0.002488077,0.004361221,-0.01287567,-0.008930501,-0.01016468,0.002434103
1.021154,0.04686801,0.06823621,-0.001349283,0.001170436,-0.009463585,-0.02720186,-0.008921431,0.001930781
1.024447,0.04656012,0.06795266,0.001947044,0.0008765338,-0.009774454,-0.04268349,-0.004688424,0.004338724
1.024224,0.04104362,0.07002929,0.001727349,-0.004623536,-0.007722728,-0.04247095,-0.0008792952,0.003966646
1.022082,0.0326847,0.06935068,-0.0004097465,-0.01296367,-0.008423491,-0.02941164,0.002464348,0.003291932
1.023937,0.02966224,0.0659918,0.001450856,-0.01596476,-0.01180145,-0.01470936,0.002510205,0.003037347
1.025155,0.02807729,0.06502588,0.002674843,-0.01752529,-0.01278303,0.00024687,0.002823664,-0.002099735
1.024683,0.02682512,0.06496154,0.002208184,-0.01874945,-0.0128592,0.01735679,0.01065808,-0.006074943
1.024906,0.02683725,0.06700336,0.002437206,-0.01870511,-0.01082498,0.031259,0.0200132,-0.003373499
1.023035,0.03175974,0.0690718,0.0005727034,-0.01374569,-0.008759613,0.04523607,0.02226827,-0.0004492145
1.02057,0.04096148,0.07148214,-0.001886292,-0.004501952,-0.006347619,0.0461842,0.01670925,-0.0001912033
1.020594,0.04549973,0.07417235,-0.00185562,8.333327e-05,-0.003651006,0.02982297,0.008848427,0.003679159
1.021193,0.04650419,0.07626844,-0.001251321,0.001139558,-0.001543848,0.01895558,0.004383503,0.00890313
1.021693,0.04695809,0.07983261,-0.0007445117,0.001649455,0.002035797,0.01786734,0.001732403,0.00781433
1.022816,0.04436222,0.07744622,0.0003845059,-0.0008866976,-0.0003310472,0.01453871,0.001599841,0.005249429
1.024143,0.04030421,0.072739,0.001717518,-0.004881703,-0.005014987,0.003290241,0.001270768,0.002164633
1.025346,0.03897297,0.07541269,0.002926995,-0.006146895,-0.002314526,-0.003963613,-0.003658544,-0.002384225
1.025289,0.03893493,0.07582423,0.002876495,-0.006116008,-0.001872879,-0.002652839,-0.006868285,-0.0002509294
1.024643,0.0360196,0.07395841,0.002236071,-0.008959609,-0.003705457,0.0003638322,-0.006175291,0.003539994
1.024919,0.03598087,0.07560286,0.002517489,-0.008923793,-0.002024802,0.01069477,-0.0007737704,0.002392149
1.023725,0.04045322,0.07499081,0.001328706,-0.004374099,-0.002597866,0.01977472,0.005506834,0.001784941
1.020785,0.04332848,0.07407103,-0.001607057,-0.001418778,-0.003476053,0.01820701,0.004747245,0.0001378939
1.020451,0.04645747,0.07262938,-0.001937045,0.001792738,-0.004873639,0.01164196,0.003630306,-0.003361418
1.023015,0.04947453,0.06861139,0.0006307041,0.004894363,-0.008845155,-0.0002984102,0.003245845,-0.002088902
1.024628,0.0488513,0.06802705,0.002246486,0.00435721,-0.009380574,-0.01371741,-0.001924604,0.002131908
1.024391,0.04563327,0.06845875,0.00201147,0.001226229,-0.00889737,-0.02112848,-0.007063841,0.004177693
1.022635,0.04189947,0.06758273,0.0002583845,-0.002419984,-0.009719165,-0.02158871,-0.007858355,0.004184677
1.020473,0.03757166,0.06827751,-0.001902523,-0.006659912,-0.008967294,-0.02317289,-0.007706225,0.002073921
1.022959,0.03350347,0.0686738,0.0005850196,-0.01063995,-0.008510951,-0.02568079,-0.008996914,3.712648e-05
1.026769,0.03093635,0.07119673,0.004395044,-0.01311846,-0.005924937,-0.01971311,-0.006460637,0.0002787051
1.024834,0.0278887,0.07703732,0.002460018,-0.01607673,-1.828449e-05,-0.01029384,-0.003123862,0.001854505
1.02401,0.03206587,0.07996049,0.001635414,-0.01180901,0.002973663,8.612281e-05,-0.003341246,0.00493532
1.024828,0.04193606,0.07975516,0.002452571,-0.001846766,0.002839424,0.009496491,-0.002861972,0.006554677
1.02199,0.04304554,0.08154779,-0.0003877854,-0.0006437324,0.004704942,0.01089433,-0.002444834,0.00525047
1.02176,0.04356688,0.08309014,-0.0006197076,-2.758977e-05,0.006321434,0.005210991,0.001277623,0.002919615
1.022571,0.04405178,0.07687795,0.0001876476,0.0005530495,0.0001841253,-0.003302038,0.006865086,-0.00256521
1.021306,0.03765495,0.06826059,-0.001080913,-0.005747404,-0.008357974,-0.005792881,0.007693705,-0.007728476
1.022522,0.03629425,0.06868379,0.0001304115,-0.007011272,-0.007859212,-0.007413752,0.01055521,-0.01000971
1.024067,0.03571769,0.07242799,0.001669821,-0.007490527,-0.004039029,-0.01192299,0.01537035,-0.01632428
1.02388,0.0333172,0.07229164,0.001477989,-0.009793183,-0.004098902,-0.008364923,0.01438496,-0.02127813
1.023124,0.0355287,0.07135085,0.0007160409,-0.007483176,-0.004962732,-0.004461973,0.01026778,-0.01679114
1.022695,0.03508527,0.06871349,0.0002812075,-0.00782733,-0.007522649,-0.002089608,0.006675682,-0.01200715
1.022074,0.03611325,0.0681764,-0.0003465417,-0.006699216,-0.007981727,0.0007806732,0.0007387928,-0.007863283
1.021064,0.03967264,0.07453179,-0.001364358,-0.003038832,-0.00154768,-0.002300135,-0.004933909,0.003807829
1.021818,0.03883398,0.07993054,-0.0006176479,-0.003775707,0.003930325,-0.002363864,-0.006857964,0.01298306
1.022556,0.03857219,0.08224895,0.0001126911,-0.003935057,0.006328289,-0.003711362,-0.009900068,0.01207729
1.023305,0.03782193,0.08264723,0.0008536921,-0.004582358,0.006805959,-0.008988449,-0.009539789,0.01017568
1.025048,0.03523104,0.07802431,0.002589341,-0.007069848,0.002261743,-0.007114374,-0.003463267,0.003961969
1.026054,0.03482101,0.07494288,0.00358625,-0.007376052,-0.0007420294,-0.005621704,0.001254653,-0.007744398
1.026404,0.03847151,0.07526275,0.003927917,-0.003621282,-0.0003457597,-0.003868297,0.0036837,-0.009750419
1.024206,0.04635328,0.07540718,0.001721246,0.0043651,-0.0001262933,0.001150314,0.00227202,-0.00569247
1.021064,0.05063359,0.07708029,-0.001430128,0.008750043,0.001620381,-0.0002035202,0.001609039,-0.003119662
1.020541,0.04863439,0.07704706,-0.001964036,0.006854933,0.00165911,-0.005224668,0.000766842,0.002094456
1.022072,0.04758673,0.07842061,-0.0004433928,0.005910205,0.003102845,-0.01049169,-0.005150559,0.0002067749
1.024382,0.04753163,0.08099069,0.001856119,0.005956343,0.005741152,-0.01495667,-0.00613109,-0.008660808
1.024549,0.04348793,0.07514777,0.002012102,0.002011734,-3.573905e-05,-0.0142186,-0.003521618,-0.008750299
1.023328,0.03998563,0.06989966,0.0007797745,-0.00139391,-0.005220136,-0.01146409,-0.001501952,-0.002884913
1.023219,0.04152495,0.07298499,0.0006592721,0.0002394944,-0.002073332,-0.005622329,0.001670652,-0.001839826
1.02327,0.04013389,0.07668732,0.0006990385,-0.00106012,0.001688356,0.003852763,0.002432523,-0.004252662
1.023419,0.03588968,0.0775516,0.0008352354,-0.005215516,0.00260989,0.004269549,0.002495732,-0.003359884
1.0231,0.03569002,0.07457715,0.0005041944,-0.005328901,-0.0003094744,0.001469964,0.0001523938,-0.002195719
1.020305,0.0363341,0.07075623,-0.002303273,-0.004600879,-0.004077512,0.006225147,-0.002998139,-0.001834168
1.017249,0.03609205,0.07177449,-0.005371918,-0.004761133,-0.00300846,0.007065243,-0.00346592,0.003029397
1.018375,0.03680146,0.07244951,-0.004258384,-0.003971895,-0.002284571,0.006853243,-0.003656747,0.002811055
1.020528,0.03965475,0.06709491,-0.002117578,-0.001040629,-0.007592049,0.0058828,-0.002161309,-0.0003855656
1.022045,0.04266163,0.06483952,-0.0006119535,0.002042424,-0.009801786,-0.0007374988,-0.002812356,0.001133122
1.02502,0.04111707,0.07077302,0.002351596,0.0005721493,-0.003823747,0.001570149,-0.003999582,-0.00306932
1.025971,0.0399215,0.07541602,0.00329198,-0.0005511154,0.0008629465,0.004121646,-0.002849433,-0.004767634
1.025486,0.04418622,0.07318334,0.002796956,0.00378383,-0.001326818,0.001683494,-0.00383238,-0.0003791963
1.02413,0.04668026,0.07115891,0.001431045,0.006345862,-0.003309116,0.005711927,-0.004272518,-0.001115658
1.023247,0.04310755,0.07553522,0.0005385108,0.002838674,0.001108567,0.006802984,-0.003937574,0.00118869
1.026773,0.040494,0.07714096,0.004054842,0.0002879853,0.002754883,0.007986253,-0.0009556058,0.00522097
1.027951,0.04264601,0.07304938,0.005223531,0.002500089,-0.001297003,0.01241701,0.003198511,0.002674212
1.023917,0.04372303,0.0717711,0.001179341,0.003634377,-0.002536531,0.01079359,0.001980815,-0.0001197303
1.02012,0.0417671,0.07320776,-0.002627864,0.001732805,-0.001062051,0.00538152,-8.504082e-05,-0.0004092197
1.019912,0.04111436,0.07609063,-0.002846142,0.001131464,0.00185774,-0.0007169343,-0.004175269,0.001773541
1.02123,0.04081942,0.07685841,-0.001539105,0.0008849245,0.002661492,-0.0002509621,-0.009311197,0.007436673
1.020929,0.03903003,0.07398289,-0.001850191,-0.0008589974,-0.000179097,0.004663925,-0.008677613,0.01075048
1.024184,0.03904462,0.069642,0.001394669,-0.0008018023,-0.00448618,0.006916347,-0.007754111,0.008428255
1.026233,0.04171747,0.06497219,0.003433966,0.001910911,-0.009123155,0.009473447,-0.007200081,0.005001928
1.022318,0.04390288,0.06707405,-0.0004913718,0.004133474,-0.006989167,0.005874081,-0.003369564,0.001886337
1.02171,0.04331641,0.07024671,-0.001108275,0.003581414,-0.003784738,0.0007802916,-0.0004447875,-0.001733299
1.022858,0.04226383,0.07020133,2.914749e-05,0.002560423,-0.003798484,0.003415956,0.001236107,-0.00571956
1.023462,0.04197067,0.07479896,0.0006238875,0.002295997,0.0008307511,0.003624033,0.002191546,-0.005130621
1.023984,0.03861775,0.07676267,0.001136699,-0.00103103,0.002826019,0.002371199,-0.001455515,0.00253666
1.021672,0.03534259,0.07579191,-0.001184494,-0.004283006,0.001886625,0.005041511,-0.003665685,0.006604047
1.021698,0.03606344,0.078558,-0.001167905,-0.003541459,0.004683695,0.005840274,0.001901537,0.003775927
1.022913,0.03690248,0.07792513,3.864889e-05,-0.002683893,0.00408119,0.004580955,0.007547035,-0.002374063
1.021886,0.0385917,0.07513236,-0.0009972626,-0.0009780572,0.00131794,0.0004136445,0.007897117,-0.007031718
1.022168,0.04065263,0.07462178,-0.0007233343,0.00109775,0.0008358822,-0.007643262,0.005447907,-0.002914208
1.023177,0.03754311,0.07299188,0.0002774383,-0.001998509,-0.0007665718,-0.01106933,0.00509354,0.0004897375
1.025583,0.03233485,0.07122393,0.002676765,-0.007194979,-0.002508146,-0.006337037,0.00640064,-0.003007797
1.028588,0.03011332,0.06951128,0.005674312,-0.009405888,-0.004195389,-0.001881437,0.007035088,-0.005136414
1.026114,0.02886265,0.06681101,0.003192515,-0.01064663,-0.006871044,-0.0009906777,0.009875832,-0.005825047
1.021549,0.02880684,0.06560677,-0.001379628,-0.0106927,-0.00805119,0.002959464,0.01028919,-0.00714563
1.021244,0.03063747,0.06627712,-0.00169283,-0.008851979,-0.007356925,0.007130994,0.009244506,-0.006264964
1.021801,0.03088328,0.06830238,-0.00114293,-0.008595296,-0.005307619,0.007868168,0.0107637,-0.002709505
1.02209,0.03177228,0.06892795,-0.0008614611,-0.007694266,-0.004657613,0.01353012,0.008690748,-0.0005301404
1.022733,0.03533744,0.06751528,-0.0002265322,-0.004115625,-0.006045263,0.02053182,0.008486677,-0.002825368
1.02186,0.03770883,0.06914594,-0.001106736,-0.00172917,-0.004388856,0.0214328,0.01003796,-0.008867583
1.022189,0.03885088,0.07147203,-0.0007847552,-0.0005704457,-0.002036171,0.01879495,0.007589938,-0.01274109
1.022388,0.04165972,0.07260192,-0.0005927768,0.002256572,-0.0008787813,0.01445096,0.009115807,-0.00989191
1.020917,0.04589683,0.0752445,-0.002070777,0.006513124,0.001792114,0.01238913,0.01005489,-0.007093916
1.021175,0.04622337,0.07546388,-0.001819221,0.006860038,0.002040479,0.005786856,0.007674894,-0.006493798
1.022507,0.04471335,0.07431639,-0.0004930417,0.005370869,0.000922435,-0.005067792,0.008666735,-0.002648784
1.02416,0.04607538,0.07494327,0.001154358,0.00675384,0.001579036,-0.00367464,0.008341815,-0.0004400227
1.024014,0.04323972,0.07542059,0.001003209,0.003938815,0.002086169,-0.003715678,0.008338716,-0.004241134
1.02327,0.04011369,0.07551492,0.0002547305,0.0008328473,0.002210231,-0.01143874,0.009885914,-0.006042982
1.02582,0.04218117,0.07262863,0.002800235,0.002919654,-0.0006465674,-0.006116153,0.009925268,-0.003032388
1.026258,0.041819,0.07070811,0.003234433,0.002575949,-0.00253795,0.000613724,0.01114361,-0.001445439
1.022665,0.04076509,0.07312791,-0.0003622756,0.001539536,-8.934745e-05,0.001008152,0.01068798,-0.001493354
1.020296,0.03932739,0.07180535,-0.002735247,0.0001182966,-0.001383439,0.01090395,0.01082468,-0.001332946
1.023003,0.03644355,0.06879801,-3.24815e-05,-0.002750132,-0.004362635,0.02079172,0.01246919,-0.00117892
1.026244,0.03908717,0.06960788,0.003205098,-9.207211e-05,-0.003524845,0.01805638,0.01092468,-0.001593044
1.022163,0.04722294,0.07540234,-0.0008799514,0.008057209,0.002297372,0.00679474,0.01050263,-0.003115959
1.019166,0.0546171,0.08352303,-0.003880759,0.01546374,0.0104456,-0.004523599,0.009723854,-0.002814722
1.021454,0.05379306,0.08128625,-0.001595219,0.01465042,0.008235796,-0.007749773,0.008675768,-0.001786214
1.020978,0.0477648,0.07592776,-0.002075187,0.008630648,0.002903277,-0.008746964,0.01079731,-0.00243393
1.020445,0.04295513,0.07703312,-0.002610646,0.003826781,0.004033317,-0.0100018,0.01026145,-0.003311766
1.021507,0.03705555,0.07426297,-0.001551245,-0.002069807,0.00128638,-0.006227229,0.00970172,-0.006179584
1.022467,0.03739972,0.074062,-0.0005926353,-0.001725357,0.001107055,-0.004934511,0.0114026,-0.01336464
1.024001,0.04149712,0.07637509,0.0009407808,0.00236986,0.003440207,-0.005999736,0.01081909,-0.02192027
1.022975,0.03924846,0.07282292,-8.623429e-05,0.0001167157,-9.354216e-05,-0.00177113,0.01005835,-0.02321763
1.021471,0.039933,0.0728013,-0.001590441,0.0007946242,-9.836276e-05,0.003050819,0.008969228,-0.01940519
1.022736,0.03992145,0.07318215,-0.0003249678,0.0007744294,0.0002976975,0.00620262,0.008125187,-0.0205201
1.024251,0.03733745,0.07248923,0.001191302,-0.001820076,-0.0003815229,0.008237979,0.00798839,-0.01986015
1.025246,0.04220371,0.07510023,0.002186629,0.003033973,0.00224172,0.005013972,0.003977639,-0.01507857
1.025002,0.04435145,0.07655234,0.00194416,0.005167882,0.003704649,-0.0013127,0.0007559684,-0.0136691
1.022665,0.04494397,0.07855016,-0.0003902242,0.005744936,0.005711758,-0.006912011,0.001425237,-0.0132707
1.020833,0.04724103,0.07698908,-0.002220757,0.008024777,0.004158327,-0.01271722,0.0009971295,-0.01443605
1.020937,0.04507444,0.07436855,-0.002114088,0.005839044,0.001543665,-0.01537314,-0.0003566184,-0.01458246
1.022629,0.04684417,0.07668394,-0.000420368,0.007587539,0.003863078,-0.01454713,-0.002375689,-0.01069077
1.02433,0.04843157,0.07722578,0.001283249,0.009151466,0.004407067,-0.01505006,-0.003124757,-0.009403194
1.023675,0.04786856,0.07750265,0.000630805,0.008562537,0.004684147,-0.01215225,-0.001480008,-0.01104944
1.023198,0.04878915,0.07549902,0.0001569506,0.009454572,0.002678699,-0.006266181,-0.001022446,-0.01354624
1.023776,0.04394884,0.07259351,0.000738372,0.004582899,-0.0002306663,-0.002526934,0.001521565,-0.01355883
1.022259,0.04152901,0.07658424,-0.0007755974,0.002128848,0.003754218,0.003870318,0.005563566,-0.01281824
1.020058,0.04514174,0.07972159,-0.002972599,0.005704571,0.006883772,0.007338793,0.004839657,-0.01383589
1.019341,0.05021873,0.08132755,-0.003686433,0.01074183,0.008479893,0.001844056,0.003408637,-0.006986739
1.021061,0.05632727,0.08504346,-0.001962663,0.01680776,0.01218369,-0.003764106,0.003386044,0.0001072988
1.023157,0.05583893,0.08523212,0.0001384988,0.0162736,0.01235763,-0.004787177,0.0003976798,-0.002377239
1.022208,0.05329138,0.08197702,-0.0008058053,0.01367657,0.009084847,-0.006256168,-0.001997546,-0.00390302
1.02176,0.05477723,0.07935523,-0.001249176,0.01510892,0.006442151,-0.01283285,-0.003156934,-0.003822023
1.021939,0.05433233,0.07763893,-0.001064532,0.01460614,0.004701597,-0.02079438,-0.008857079,-0.008309433
1.01849,0.05456047,0.07548997,-0.004507024,0.01477177,0.002525052,-0.02656519,-0.01524859,-0.01430969
1.01619,0.05677904,0.07483137,-0.006801266,0.01692293,0.001835657,-0.0255749,-0.01825445,-0.01647574
1.02003,0.05714251,0.07585646,-0.002953457,0.01721379,0.002826931,-0.0219362,-0.01833547,-0.0171257
1.023955,0.0585639,0.07670131,0.0009792383,0.01855709,0.00363512,-0.0269282,-0.01560608,-0.01982106
1.022322,0.05904068,0.07663455,-0.0006441385,0.01894999,0.003529017,-0.02996663,-0.01359886,-0.01881742
1.021614,0.05699926,0.07595057,-0.001342842,0.01681858,0.002803124,-0.02962714,-0.01148126,-0.01203705
1.024783,0.05580196,0.07663458,0.001837429,0.015525,0.003442779,-0.02869386,-0.005776405,-0.007729049
1.025231,0.0526765,0.07666027,0.002296611,0.01229683,0.003421829,-0.01983729,0.002670786,-0.009467549
1.023926,0.05148038,0.07694106,0.001003537,0.0109916,0.003653787,-0.01547784,0.007832764,-0.009426614
1.023484,0.05272813,0.07789891,0.0005736464,0.01212398,0.004560741,-0.01356167,0.007402067,-0.006618374
1.023136,0.04986861,0.07478882,0.0002370376,0.009143029,0.001397774,-0.0105997,0.009219073,-0.007262717
1.022901,0.04951495,0.07133878,1.50863e-05,0.008662091,-0.002106956,-0.0102849,0.01095458,-0.00756646
1.020761,0.05194367,0.06996449,-0.002112428,0.01095798,-0.003537465,-0.004508505,0.008349179,-0.005840097
1.019373,0.05301147,0.06827468,-0.003488051,0.01188764,-0.00528462,-0.009947986,0.005430325,-0.004362266
1.019626,0.05458599,0.06903067,-0.003221831,0.01331889,-0.004586646,-0.02188465,0.0003771897,0.0009759167
1.019485,0.05215667,0.0752705,-0.00334921,0.01074131,0.001594911,-0.02178124,-0.001296087,0.008506045
1.021427,0.04812429,0.08158137,-0.001393977,0.006555865,0.007847461,-0.02361618,0.001582546,0.009959669
1.022826,0.04658192,0.079241,2.024168e-05,0.004855932,0.0054487,-0.01851195,0.0007924673,0.006749956
1.022175,0.04527371,0.07470012,-0.0006165334,0.003386126,0.0008492582,-0.001997002,0.003605131,0.006656412
1.021759,0.04539395,0.07444484,-0.001017308,0.003341226,0.0005352367,0.007287155,0.009769818,0.008335528
1.020788,0.0442387,0.07486863,-0.001972919,0.002017843,0.0009002205,0.008350707,0.00992865,0.01001844
1.020802,0.04131201,0.07955061,-0.001943111,-0.001079424,0.005523407,0.007590034,0.006992828,0.01373524
1.022448,0.04127873,0.08405251,-0.0002803905,-0.001285107,0.009966518,0.01625752,0.00483917,0.01567728
1.022848,0.0424062,0.08168701,0.0001358005,-0.0003312179,0.00754202,0.02863289,0.008039965,0.01687854
1.021726,0.04349423,0.0812093,-0.0009693027,0.0005826361,0.007004865,0.02833531,0.01260133,0.01891425
1.022344,0.04581259,0.08199352,-0.0003337811,0.002726727,0.007728996,0.02390717,0.01202502,0.01866147
1.023574,0.04628904,0.07802868,0.0009132686,0.003029231,0.003703275,0.02448618,0.01326117,0.01857013
1.023226,0.0445202,0.07540176,0.0005833149,0.001087087,0.001014636,0.02989408,0.01264819,0.0157555
1.02303,0.04490459,0.07749177,0.0004047744,0.001299152,0.00304216,0.03482343,0.006212179,0.01095654
1.021529,0.04815171,0.08040006,-0.001077951,0.004375221,0.005887276,0.02962886,0.002557816,0.01150742
1.020059,0.05084025,0.08093452,-0.002530076,0.006894199,0.006357877,0.01975987,0.00085524,0.01215489
1.019716,0.04959406,0.08040811,-0.002855917,0.005480025,0.005766858,0.01699322,-0.002494176,0.01169659
1.019856,0.04800402,0.08077909,-0.002697618,0.003723646,0.006072398,0.02150781,-0.004863555,0.01334204
1.022466,0.05158268,0.08194698,-6.978574e-05,0.007137678,0.007173935,0.02502961,-0.001830298,0.01339659
1.022688,0.05403298,0.08491578,0.0001702083,0.009425072,0.01007537,0.02194846,0.002218776,0.01022129
1.021606,0.05279855,0.08653853,-0.000893674,0.008029391,0.01162954,0.01783937,-0.0004278586,0.00413126
1.022707,0.05438165,0.08344752,0.0002260677,0.009452762,0.008468498,0.0172012,-0.003843662,0.00219787
1.022015,0.05653759,0.08071981,-0.0004478091,0.01145035,0.005669106,0.01596157,-0.005695081,0.004970145
1.02213,0.05669049,0.08207007,-0.0003149426,0.01144609,0.006945957,0.01324799,-0.006956547,0.002120475
1.022526,0.05810003,0.08348022,9.981461e-05,0.01269941,0.008280949,0.006945859,-0.005747782,-0.001009643
1.02186,0.06069524,0.08311237,-0.0005481089,0.01513906,0.007836136,-0.002427771,-0.007184618,-0.0003659609
1.022495,0.06146922,0.08366599,0.0001054275,0.01575781,0.00831093,-0.006809834,-0.01076833,-0.006216267
1.022129,0.05954789,0.08432418,-0.0002426675,0.0136812,0.008888351,-0.008752663,-0.01496482,-0.01573217
1.022129,0.05669378,0.08470139,-0.000224714,0.01067147,0.009182763,-0.008604172,-0.01803778,-0.01936555
1.022616,0.0545513,0.08459012,0.0002799422,0.008372845,0.008986592,-0.006524255,-0.0156938,-0.01546981
1.022878,0.05412568,0.08098954,0.0005588223,0.00779051,0.005298941,-0.01634559,-0.01315782,-0.009659489
1.023697,0.05267832,0.07618202,0.001394915,0.006185921,0.0004022438,-0.03229118,-0.0115217,-0.01019671
1.021525,0.05069678,0.07404031,-0.0007595915,0.004046753,-0.001830514,-0.0373901,-0.01044035,-0.007158538
1.017867,0.05337954,0.07571986,-0.004401495,0.006571646,-0.0002434976,-0.03257608,-0.0142021,0.005934334
1.015756,0.05615619,0.07744919,-0.006496447,0.009190355,0.001392202,-0.02740636,-0.02371715,0.01853316
1.015535,0.05370891,0.07502426,-0.006700801,0.006585101,-0.001127129,-0.02620067,-0.0332381,0.02761515
1.018841,0.04654897,0.07173839,-0.003379146,-0.0007327354,-0.004507827,-0.01416944,-0.02364588,0.02539169
1.024085,0.03546736,0.06682379,0.001881636,-0.01197185,-0.009517234,0.02748138,0.007119377,0.01850615
1.03096,0.02262771,0.05946407,0.008774332,-0.02496782,-0.01697108,0.09300702,0.03436101,0.01625484
1.03702,0.01115484,0.05449334,0.01485139,-0.03659456,-0.02203437,0.144305,0.04100762,-7.19309e-05
1.031531,0.01509819,0.05632687,0.009379027,-0.03280087,-0.02029076,0.1514071,0.03584498,-0.01837094
1.022102,0.0344669,0.06479158,-3.407444e-05,-0.01357595,-0.01191225,0.1363636,0.03888519,-0.01652023
1.024706,0.04982046,0.07180272,0.00258347,0.001640801,-0.004982833,0.1209075,0.0348129,-0.001844131
1.022636,0.06512303,0.07850741,0.0005259994,0.01681374,0.001644946,0.09489485,0.01579216,0.01473188
1.011565,0.07460867,0.08494524,-0.01053304,0.02617633,0.008010645,0.05499492,0.008749053,0.01956203
1.011843,0.07032766,0.090895,-0.01024508,0.02177772,0.01389265,0.01367823,0.003066822,0.0196555
1.014314,0.07153561,0.1027094,-0.007764388,0.02287225,0.02564292,-0.01962528,-0.007402377,0.01946159
1.013668,0.06942894,0.1033391,-0.008400549,0.0206552,0.02621107,-0.05624394,-0.01278791,0.01007528
1.016494,0.06328086,0.09808813,-0.005564941,0.01439878,0.02089991,-0.09917961,-0.0247507,0.003946345
1.016618,0.06440527,0.1039186,-0.005429636,0.01541611,0.0266703,-0.1346652,-0.03620933,-0.0004461199
1.017444,0.05752887,0.1031135,-0.004591851,0.008433321,0.02580413,-0.1537308,-0.04829219,-0.003667017
1.01999,0.0471962,0.1018934,-0.002033782,-0.002005331,0.02452099,-0.1449167,-0.05228521,0.0004562786
1.023755,0.03481927,0.1001693,0.0017445,-0.01448772,0.02273081,-0.1217371,-0.03443511,-0.003213054
1.026886,0.02703539,0.09049234,0.004890862,-0.02237587,0.01298406,-0.1020491,-0.02407866,-0.006595944
1.023828,0.03406486,0.09315756,0.001847714,-0.01544846,0.01557519,-0.08596208,-0.01929121,-0.00334658
1.022932,0.03294297,0.09360059,0.0009671965,-0.01666914,0.01593958,-0.0868471,-0.01446419,-0.005242486
1.022527,0.03180439,0.08605699,0.0005782936,-0.01790234,0.008312599,-0.09167199,-0.02111393,-0.004970971
1.02132,0.03710646,0.08554619,-0.0006117579,-0.01268989,0.007713624,-0.08717337,-0.01949534,-0.00471048
1.02388,0.03482774,0.08084817,0.001964209,-0.01505258,0.002922791,-0.08796276,-0.008094572,-0.007203424
1.022715,0.03933993,0.07631802,0.0008157226,-0.01061814,-0.00170446,-0.08692519,0.003955654,-0.008482049
1.021671,0.04657276,0.07551568,-0.0002119078,-0.003456498,-0.002607682,-0.09199475,0.006702286,-0.01480462
1.022622,0.0465383,0.07312865,0.0007554661,-0.003555463,-0.005098713,-0.1069764,0.0007738467,-0.01972798
1.022592,0.04636138,0.06975147,0.0007412068,-0.003790295,-0.008582297,-0.106798,0.005492462,-0.01891543
1.026068,0.04541519,0.05949515,0.00423317,-0.004787918,-0.01894654,-0.09194182,0.008089445,-0.01629759
1.028406,0.0416101,0.05380073,0.006586056,-0.008638055,-0.02474928,-0.06858747,0.008022942,-0.01092261
1.02577,0.03791964,0.05880777,0.003965527,-0.01236715,-0.01984962,-0.04894571,0.009975997,-0.005641835
1.020516,0.04368596,0.06349688,-0.001274899,-0.006632928,-0.01526561,-0.0429193,-0.0005640386,-0.001869208
1.016299,0.05286207,0.0687757,-0.00547989,0.002517642,-0.0100886,-0.03867882,-0.0131328,0.00241367
1.015236,0.05548814,0.07107715,-0.006530089,0.00512444,-0.007884941,-0.04023736,-0.0234572,0.00902592
1.018475,0.05734769,0.06738009,-0.003279494,0.006970441,-0.01167531,-0.04531039,-0.02577202,0.01192526
1.026549,0.05408663,0.06569463,0.004805338,0.0037009,-0.0134491,-0.0445735,-0.01974096,0.008674275
1.030412,0.04357501,0.0653817,0.008679303,-0.006814668,-0.0138449,-0.03909273,-0.01638224,0.006478102
1.028513,0.03423455,0.06487819,0.006791239,-0.01615475,-0.01442529,-0.02500031,-0.002940328,0.0006118403
1.026346,0.0312843,0.06641094,0.004633502,-0.01910006,-0.01296293,-0.008759544,0.003396514,-0.003537925
1.024337,0.03509433,0.06645088,0.0026319,-0.01528006,-0.01298646,0.007919429,-0.005852178,0.004927784
1.025728,0.03655787,0.06756463,0.004030245,-0.01380104,-0.01192893,0.026105,-0.004227216,0.01288337
1.027195,0.03562784,0.07410216,0.005502637,-0.01470975,-0.005440131,0.04185996,1.048433e-05,0.01525277
1.025555,0.03791658,0.07741285,0.003865818,-0.01239359,-0.002170668,0.067813,0.003220667,0.02016157
1.023638,0.04013748,0.07202614,0.001951657,-0.01013903,-0.007591251,0.08834021,0.007368453,0.02455936
1.021564,0.04457279,0.06788157,-0.0001227915,-0.005663782,-0.01176248,0.07821029,0.005179823,0.01847104
1.022171,0.04920015,0.07376453,0.0004825892,-0.0009903792,-0.005899001,0.06851027,0.005464515,0.005936554
1.024635,0.04886394,0.08082821,0.002943633,-0.001274813,0.001152292,0.0705437,0.005865134,0.001425325
1.024906,0.04875192,0.08030113,0.003210562,-0.001329792,0.00061962,0.06381782,0.005855853,-0.001055633
1.023133,0.05118668,0.07689138,0.001431072,0.001166786,-0.002789399,0.06222609,0.008751505,-0.004354781
1.020303,0.05599755,0.07423993,-0.001406558,0.0060437,-0.00543419,0.05597401,0.009855591,-0.0008166007
1.018538,0.06102007,0.07658004,-0.003180616,0.01113581,-0.003081758,0.03147761,0.009931897,0.002001743
1.018125,0.06074818,0.0814185,-0.003603416,0.0109362,0.001774418,0.01280785,0.003121275,0.005751186
1.018799,0.05500093,0.0815115,-0.002940318,0.005263015,0.001890121,0.00105268,-0.00678479,0.01017221
1.021051,0.04832067,0.08195877,-0.0007005639,-0.001342106,0.002364605,-0.002213283,-0.0105691,0.00831204
1.021971,0.04784399,0.08224729,0.0002071933,-0.001742974,0.002684329,0.0004351721,-0.01457353,0.007888938
1.021058,0.05221957,0.08008769,-0.0007190103,0.002708819,0.0005594308,-0.00490918,-0.01836692,0.008513239
1.01994,0.05328531,0.07888208,-0.001849779,0.003850923,-0.0006083858,-0.008237073,-0.01951132,0.008443918
1.018889,0.05075071,0.07709961,-0.002913515,0.001392475,-0.002350319,-0.01818123,-0.0213049,0.01107554
1.019487,0.04560988,0.0778589,-0.002328411,-0.00367269,-0.001547988,-0.03051383,-0.02129866,0.01324121
1.019786,0.04133348,0.08026616,-0.002042732,-0.007874018,0.0009045829,-0.02256629,-0.01894669,0.01163907
1.019398,0.04365181,0.08089002,-0.002442838,-0.005481128,0.001575766,-0.01303667,-0.01535012,0.006125855
1.021451,0.04850294,0.08272954,-0.0004030015,-0.0005558154,0.003464283,-0.01334676,-0.01145467,0.003613388
1.022807,0.05095089,0.08311849,0.0009413699,0.001965896,0.003903519,-0.01663322,-0.01353425,0.005305562
1.022032,0.05137068,0.08070354,0.0001549923,0.002458867,0.001539737,-0.02545813,-0.01858767,0.006117195
1.020651,0.0515882,0.07942527,-0.001236255,0.002748719,0.0003131943,-0.0311397,-0.01941308,0.004924793
1.017715,0.05587754,0.08400142,-0.004183037,0.007109247,0.004941363,-0.02839356,-0.02119493,0.003157616
1.014976,0.06510666,0.08878055,-0.00693187,0.016408,0.009772446,-0.03277805,-0.02527972,0.003504646
1.015468,0.07315384,0.08072756,-0.006447867,0.02452253,0.00177093,-0.05712023,-0.03107063,0.002561623
1.019477,0.07347955,0.07084209,-0.002446661,0.0249123,-0.008063872,-0.09947919,-0.04031574,0.001228632
1.022597,0.06790836,0.0698148,0.0006673303,0.01940075,-0.009041265,-0.1415358,-0.04978436,-0.0007273318
1.021925,0.05935202,0.06307784,-1.003798e-05,0.01089871,-0.01572874,-0.1590082,-0.06062678,-0.006355163
1.02198,0.04534049,0.05085129,4.129918e-05,-0.003064354,-0.02790563,-0.1576023,-0.07100506,-0.006687966
1.027015,0.03059029,0.0489566,0.005073828,-0.0177718,-0.02974952,-0.1507741,-0.07508259,-0.002152628
1.03271,0.01356757,0.05301938,0.01076657,-0.0347566,-0.02563366,-0.1191445,-0.06778579,0.006603414
1.034401,-0.0055225,0.05189588,0.01245584,-0.05381199,-0.02670068,-0.04721194,-0.04737945,0.01938601
1.036175,-0.009526068,0.05419212,0.0142282,-0.05778174,-0.02434359,0.03539599,-0.02524533,0.02084293
1.036107,-0.007954968,0.06238542,0.01415801,-0.05617499,-0.0160843,0.09400219,-0.007764872,0.02182946
1.032555,-0.007121803,0.06358407,0.01060226,-0.05530165,-0.01481403,0.1454067,0.00906891,0.03251942
1.0328,0.0140514,0.06040889,0.01084133,-0.03408144,-0.01791169,0.1872165,0.02388957,0.0321843
1.031987,0.04031538,0.06071844,0.01002053,-0.007762112,-0.01751852,0.1841509,0.02960472,0.03015331
1.027393,0.04940525,0.06288973,0.005415492,0.001391863,-0.01525728,0.1610668,0.02882236,0.03685211
1.023712,0.05160584,0.06462829,0.001720265,0.003664809,-0.01342233,0.1355602,0.03141646,0.03389534
1.019309,0.05495726,0.06562708,-0.002699289,0.007095957,-0.01232069,0.1048176,0.02750392,0.02582641
1.019017,0.05668681,0.06680324,-0.003010565,0.008911576,-0.01103529,0.08757033,0.01772069,0.0173005
1.020642,0.05896138,0.06741847,-0.001406848,0.01127744,-0.0103046,0.06520735,0.01710104,0.0106197
1.01929,0.05991627,0.06840117,-0.00278239,0.01232772,-0.009200433,0.04423648,0.01293998,0.01391351
1.023034,0.04941753,0.06839331,0.0009368752,0.001927373,-0.009081088,0.04402136,0.00484919,0.01435833
1.026724,0.04073275,0.06741275,0.004600168,-0.006656803,-0.009928975,0.04445428,0.004388151,0.0152615
1.024663,0.04284125,0.06852483,0.00251235,-0.004445879,-0.008679033,0.05105907,0.0006436108,0.01783106
1.024629,0.04251216,0.06801161,0.002449441,-0.004670913,-0.009049472,0.05558073,-0.004148665,0.01466496
1.02541,0.0414423,0.06770877,0.003200313,-0.005635227,-0.009204911,0.04697126,-0.001575395,0.01731785
1.024806,0.0424252,0.06857128,0.002564926,-0.004545427,-0.00819065,0.03683164,0.001827992,0.0141683
1.02501,0.04752493,0.0681639,0.002736287,0.0006623736,-0.00844221,0.01877139,0.003841394,0.005122294
1.025052,0.05380364,0.07090232,0.002744053,0.007050034,-0.005544202,-1.448271e-05,0.0042477,0.005172513
1.02497,0.05233506,0.0724511,0.002627433,0.005690735,-0.003832425,-0.01151787,0.0008690427,0.000850041
1.024279,0.04705136,0.06740009,0.001900438,0.0005160965,-0.008717442,-0.01876079,-0.006119318,-0.003919581
1.021443,0.0399716,0.05905802,-0.0009724881,-0.006455237,-0.0168908,-0.02297436,-0.01334713,0.003616587
1.018539,0.03659508,0.05484006,-0.003914989,-0.009724085,-0.02093734,-0.02347279,-0.01129026,0.01059386
1.020048,0.03678581,0.05811145,-0.002444364,-0.009426297,-0.01749157,-0.02214557,-0.005789985,0.00533196
1.022893,0.03461253,0.05942246,0.0003622508,-0.01149289,-0.01600299,-0.03087037,-0.009803756,0.0009405763
1.022317,0.03683487,0.05763335,-0.0002520673,-0.009163992,-0.01761112,-0.03862381,-0.01106156,0.004816955
1.022869,0.0389405,0.05843854,0.0002611097,-0.006951689,-0.01662143,-0.04049449,-0.009134399,0.003431611
1.024264,0.03167882,0.05857065,0.001617328,-0.01410642,-0.01630121,-0.03687785,-0.01173402,0.001578705
1.023402,0.0239044,0.05823583,0.000716242,-0.02177331,-0.01644419,-0.01869312,-0.007847974,0.003046531
1.023525,0.02686904,0.05919116,0.0008008675,-0.01870003,-0.01529327,-0.009996733,-0.00521725,0.002432757
1.023803,0.03356561,0.05928938,0.001041035,-0.01189316,-0.01499571,-0.0128718,-0.006862432,0.0043473
1.02361,0.03611155,0.05950581,0.0008105298,-0.009234864,-0.01457621,-0.01091478,-0.005328311,0.004064127
1.024619,0.03646128,0.06244439,0.001782105,-0.008770612,-0.01143091,-0.009041276,-0.007156098,0.002856596
1.024877,0.03198205,0.06402826,0.002002152,-0.0131331,-0.009636841,-0.006538741,-0.007086741,0.003387462
1.023295,0.02907344,0.05854396,0.0003832268,-0.01592266,-0.01490769,-0.004175777,-0.004946482,0.0003805756
1.022072,0.03123038,0.05330745,-0.0008760848,-0.01364415,-0.01992765,0.004738798,-0.001794574,-0.001006645
1.02471,0.03146779,0.05524389,0.001725899,-0.0132824,-0.01777152,0.01592898,0.005414094,-0.000158824
1.027553,0.03191016,0.055804,0.004533713,-0.01271276,-0.01698848,0.01828347,0.00561444,-0.0005041391
1.025105,0.03129174,0.05429918,0.002050665,-0.01320088,-0.01826704,0.02130932,0.004272404,-0.001734568
1.022328,0.03025973,0.06057902,-0.0007616373,-0.01409945,-0.01175762,0.02507753,0.005807527,-0.00237788
1.022116,0.0325596,0.06754189,-0.001008367,-0.01166291,-0.004561987,0.02609057,0.001375337,0.0001172851
1.022045,0.03373389,0.06651609,-0.001114025,-0.01034867,-0.00535225,0.02588856,-0.002473595,0.00434307
1.022736,0.03255941,0.06588322,-0.0004560208,-0.01137997,-0.005747341,0.02752247,-0.001768757,0.00987547
1.024046,0.0313395,0.06777693,0.0008209686,-0.01245351,-0.003614154,0.02903774,0.002354078,0.01200088
1.025357,0.03196262,0.06824931,0.002099861,-0.01168084,-0.002901158,0.02789679,0.008334062,0.005172765
1.025413,0.03250618,0.06971158,0.00212337,-0.01098461,-0.001197693,0.03151514,0.00871858,-0.002749104
1.02431,0.03258379,0.07008411,0.0009894265,-0.01075125,-0.0005839887,0.03140143,0.007360686,-0.0007010836
1.024094,0.0347338,0.06875153,0.0007430272,-0.008442515,-0.001676008,0.02739882,0.008129628,0.009051962
1.022658,0.03549141,0.06948386,-0.0007234947,-0.007523354,-0.0007042827,0.02533763,0.005847191,0.0114045
1.021467,0.03618106,0.06829054,-0.001943788,-0.006669568,-0.001659892,0.01840084,0.004747171,0.006892685
1.022795,0.03804431,0.0646191,-0.0006445771,-0.004639859,-0.005095751,0.01534727,0.005453153,0.007834807
1.023148,0.03675297,0.06316317,-0.0003193064,-0.005762752,-0.006318523,0.01283318,0.005120261,0.006761023
1.023599,0.03470377,0.06296359,0.0001038279,-0.007641827,-0.006287584,0.00977717,0.007564681,0.002018122
1.024222,0.03269169,0.06364576,0.0007013331,-0.009482332,-0.005377645,0.0162235,0.007714643,0.00170101
1.024082,0.02984571,0.06491311,0.0005358842,-0.01215542,-0.00388541,0.01927165,0.00629569,0.0007878936
1.025239,0.03113741,0.06557267,0.001667834,-0.01068954,-0.003004013,0.01967857,0.007738418,0.001338652
1.024361,0.0352833,0.06527925,0.0007655068,-0.006368209,-0.003078856,0.02215648,0.007063505,0.004967628
1.023012,0.03682932,0.06401,-0.0006061325,-0.00464563,-0.004132966,0.01984563,0.006258626,0.008407596
1.024772,0.03754921,0.06330372,0.001130908,-0.003748311,-0.004627703,0.01776113,0.004124859,0.01240927
1.025391,0.03656853,0.05992778,0.001727848,-0.004551002,-0.007795769,0.01566913,0.0009023693,0.01017246
1.025032,0.0323626,0.05255918,0.001347923,-0.008578678,-0.01496011,0.01459464,0.003014757,0.005047741
1.025898,0.03037519,0.04925534,0.002192942,-0.01038773,-0.01806302,0.01763679,0.005615621,0.002864288
1.026306,0.03074146,0.05623869,0.002581616,-0.009843028,-0.0108816,0.02022031,0.006547841,0.001264474
1.024569,0.03228242,0.06449908,0.0008248758,-0.008123553,-0.002425669,0.02194722,0.006914184,0.002650261
1.021912,0.03417904,0.06214617,-0.001851608,-0.006048394,-0.004585525,0.01902525,0.00489003,0.002390401
1.022217,0.03324121,0.05942114,-0.001565177,-0.006807746,-0.007120073,0.01177038,0.002408251,0.0003940962
1.024745,0.03337869,0.06296839,0.0009437185,-0.006492008,-0.003385,0.009317691,0.001006236,0.0007441845
1.027151,0.03547445,0.06549437,0.003332324,-0.00421835,-0.00067392,0.01325134,0.005972482,0.0005473083
1.027994,0.037143,0.0678851,0.004157732,-0.002372456,0.001898991,0.01604522,0.0150509,-0.0006552129
1.024824,0.03997549,0.06382862,0.0009707015,0.0006365427,-0.001978527,0.008935382,0.01568735,-0.003036873
1.021569,0.04201614,0.05732104,-0.002301345,0.002852476,-0.008310531,-0.002012482,0.01264062,-0.00326258
1.02235,0.04042371,0.06331984,-0.001537676,0.001433673,-0.002139606,-0.007196874,0.0126668,-0.003248742
1.024357,0.03769959,0.06793105,0.0004533425,-0.001118935,0.00264028,-0.009621933,0.009131415,-0.004669351
1.025391,0.03786571,0.06425369,0.001471099,-0.0007837368,-0.0008720226,-0.008536325,0.005752376,-0.00459328
1.025171,0.03527196,0.06408635,0.001234893,-0.003211091,-0.0008781276,-0.00717917,0.007285719,-0.007652018
1.024526,0.02981994,0.06156453,0.0005747578,-0.008499506,-0.003242655,-0.01212781,0.008068265,-0.009276411
1.024225,0.03164024,0.05763675,0.0002582117,-0.006518381,-0.007017118,-0.01579873,0.007179658,-0.008053704
1.023606,0.03293011,0.06423963,-0.0003748036,-0.005070338,-0.0002648048,-0.0151426,0.007934016,-0.008221682
1.024222,0.02908178,0.07114145,0.000226597,-0.008763073,0.006782553,-0.01341645,0.01027117,-0.006736462
1.025253,0.02838083,0.0680229,0.001243063,-0.009310866,0.003805425,-0.007899682,0.01176357,-0.007303826
1.023198,0.02662997,0.06661784,-0.0008257248,-0.0109108,0.002537356,-0.002291091,0.012028,-0.008307565
1.021352,0.02416931,0.06908514,-0.002685591,-0.01322247,0.005136973,-0.005082948,0.01062636,-0.009261183
1.022338,0.02585467,0.06689612,-0.001712714,-0.01138974,0.003075373,-0.01143175,0.006398366,-0.01180967
1.022494,0.02702294,0.06587375,-0.001569094,-0.01007538,0.002175344,-0.01346136,0.002987179,-0.009630797
1.021956,0.02612473,0.06840202,-0.002119089,-0.01082852,0.004820756,-0.01524615,0.004186903,-0.007255868
1.022319,0.02470768,0.07169605,-0.001767573,-0.0121013,0.008226555,-0.01097005,0.006600523,-0.006791679
1.023163,0.02228026,0.07608568,-0.000933974,-0.01438497,0.01272233,0.003667768,0.008845554,-0.006178255
1.02659,0.02006648,0.07322633,0.002482945,-0.01645519,0.009963121,0.01462805,0.01553765,-0.007565604
1.029886,0.02197081,0.06840841,0.005769986,-0.0144071,0.005238964,0.02165627,0.02072322,-0.006950567
1.025763,0.02593941,0.07035168,0.001637985,-0.0102942,0.007269414,0.0267196,0.02012965,-0.004907561
1.019655,0.02697874,0.06621788,-0.004477242,-0.009109827,0.003216113,0.02654056,0.02070646,-0.003858751
1.020778,0.02740052,0.06015438,-0.003362443,-0.008542164,-0.002773518,0.02980573,0.02110365,-0.003429655
1.023417,0.02807887,0.064328,-0.0007306925,-0.007717116,0.00146756,0.03655242,0.02304255,-0.004122189
1.023577,0.02866637,0.06698412,-0.0005775169,-0.006982131,0.004184964,0.04277294,0.02676297,-0.00482059
1.023996,0.02989688,0.06452345,-0.0001639593,-0.005603431,0.001779609,0.04575952,0.0251373,-0.008731501
1.023368,0.03141588,0.06475031,-0.0007978475,-0.003935699,0.002055943,0.03840046,0.02424911,-0.01392922
1.023483,0.03508377,0.06402361,-0.000686764,-0.0001187247,0.001373059,0.02969993,0.02473593,-0.01463614
1.024177,0.03763703,0.06172065,2.474375e-06,0.002583625,-0.0008915269,0.03124898,0.02066097,-0.01665228
1.024118,0.03801851,0.06345147,-5.958498e-05,0.003113749,0.0008724959,0.03162004,0.01636664,-0.02104675
1.025452,0.04091936,0.06582454,0.001271522,0.006162274,0.00327384,0.0252576,0.01380033,-0.02285093
1.02466,0.04310411,0.06607284,0.0004771177,0.008493142,0.003545677,0.02098143,0.009307814,-0.02625163
1.02166,0.04296518,0.06731755,-0.002523808,0.008498143,0.004809297,0.009983802,0.003136476,-0.03131121
1.019532,0.0438055,0.06863683,-0.004653739,0.009479521,0.006142917,-0.003988665,0.004151175,-0.03358861
1.018688,0.04323853,0.07015865,-0.005498106,0.009050107,0.007674516,-0.002415369,0.01009642,-0.03246266
1.020234,0.04141743,0.07260984,-0.003951918,0.007362471,0.01013087,0.003151761,0.01211411,-0.02993796
1.021361,0.04264389,0.0741283,-0.00282382,0.008717808,0.01164974,0.003361699,0.01562999,-0.03279161
1.022296,0.04623544,0.07563104,-0.00188653,0.01243318,0.01314791,-0.002082892,0.01548902,-0.03481449
1.022551,0.04931299,0.07938201,-0.001628516,0.01562896,0.01688907,-0.01350437,0.007383497,-0.02642098
1.019789,0.04734576,0.08613892,-0.004385323,0.01377377,0.02363052,-0.02107392,0.002463932,-0.01847211
1.019035,0.04227645,0.08912252,-0.00513373,0.008809742,0.02659241,-0.03057937,0.0005545252,-0.0164175
1.019589,0.04274363,0.08477056,-0.004572819,0.009375046,0.0222118,-0.03590165,-0.001179487,-0.01579663
1.019308,0.04408121,0.08194471,-0.004844759,0.01080334,0.01934972,-0.02760858,-0.0037189,-0.01676032
1.020022,0.0441622,0.08118304,-0.004120455,0.0109674,0.01854377,-0.02633983,-0.003680127,-0.01879576
1.02103,0.04681312,0.07809066,-0.003100787,0.0136935,0.01539881,-0.0290087,0.003987677,-0.02206733
1.022817,0.04563852,0.07562233,-0.001299648,0.01258594,0.01286948,-0.02550146,0.009769702,-0.02833024
1.022581,0.04244101,0.07530554,-0.001520937,0.009447092,0.0124833,-0.0252107,0.01200425,-0.03553361
1.021717,0.03872197,0.07423609,-0.002367809,0.005778227,0.0113362,-0.02420232,0.01362291,-0.0330555
1.023582,0.03418751,0.07054537,-0.0004837664,0.00128556,0.007559786,-0.02054101,0.01348136,-0.0239692
1.02329,0.03597406,0.07142595,-0.0007559472,0.003105787,0.008346961,-0.01367752,0.01465614,-0.01931656
1.020778,0.03810001,0.07736503,-0.003247586,0.005257644,0.01418525,-0.003792308,0.01355833,-0.01250953
1.019324,0.04071716,0.07937776,-0.004678417,0.007893209,0.01609006,0.0003452782,0.0117099,-0.008705865
1.021616,0.050075,0.07854671,-0.002363348,0.01726207,0.015144,-0.001029604,0.008416815,-0.01013246
1.025739,0.05256339,0.07452365,0.001785477,0.01975394,0.01099891,-0.007047947,0.0006798254,-0.006505791
1.026262,0.04390916,0.06976066,0.00233385,0.01109537,0.006107084,-0.01395559,9.476079e-05,-0.008520865
1.02705,0.0376175,0.07122991,0.003149694,0.004791366,0.007441048,-0.01577081,0.007466119,-0.01814338
1.02535,0.03827281,0.07153852,0.001477149,0.005426491,0.007608373,-0.00873252,0.01505464,-0.02600951
1.019792,0.04078228,0.06672615,-0.004052868,0.007908237,0.002649209,0.005681472,0.01954425,-0.02696531
1.020001,0.04396967,0.06551113,-0.003814768,0.01106062,0.001282413,0.00867912,0.02126793,-0.01828286
1.019192,0.0484215,0.07331343,-0.004594745,0.01547027,0.00892857,0.004519088,0.0226099,-0.0113597
1.015503,0.04742747,0.08091895,-0.008254672,0.0144269,0.016374,0.007374046,0.01543867,-0.006450128
1.017792,0.04345033,0.07816916,-0.005934975,0.01039318,0.01346031,0.007143064,0.005120115,-0.0008843598
1.020854,0.04370664,0.07583456,-0.002841471,0.01058569,0.01095801,0.008659509,0.005499111,-0.002384398
1.024607,0.04168053,0.07756219,0.0009430445,0.00848872,0.01251423,0.01231021,0.009472243,-0.004509105
1.027558,0.04168025,0.07301813,0.003928098,0.008410731,0.007795186,0.00916344,0.01274203,-0.004369392
1.025655,0.04743784,0.06879207,0.002058052,0.01408399,0.003390825,0.008740252,0.01637381,-0.005843476
1.026102,0.04749264,0.0710359,0.002539364,0.01404797,0.00545344,0.01149832,0.01651214,-0.005221467
1.025121,0.04555579,0.07682186,0.001593357,0.01201384,0.01105568,0.01380816,0.0136434,-0.003382207
1.022497,0.04444552,0.08450601,-0.0009965033,0.01079993,0.01855384,0.01730686,0.009375699,-0.003717581
1.024868,0.04276474,0.08389045,0.001408612,0.009009264,0.01774995,0.02109572,0.006684577,-0.001516425
1.02516,0.04524973,0.07600625,0.001734597,0.01137837,0.009674942,0.02443331,0.007523749,0.005896
1.022879,0.04610054,0.07279415,-0.0005131053,0.01210751,0.006269568,0.02262914,0.007882139,0.01045237
1.021857,0.04746439,0.07135691,-0.00150196,0.01334406,0.004636841,0.01985059,0.005719339,0.008617768
1.021698,0.05187383,0.07099632,-0.001628864,0.01762063,0.004078948,0.02109836,0.005043905,0.00484974
1.021856,0.05237353,0.07408546,-0.001438516,0.01798187,0.006969385,0.01886421,0.006419986,0.0007289346
1.020483,0.05252015,0.07734287,-0.002780599,0.01798435,0.01002703,0.01242685,0.00651165,-0.003215861
1.021491,0.05402605,0.07924439,-0.001741333,0.01934028,0.01172792,0.007460278,0.005494309,-0.002999838
1.023076,0.05588007,0.07838734,-0.0001255497,0.02103837,0.01066945,0.007421683,0.003234288,-0.0007147326
1.022019,0.05587869,0.07809994,-0.001152282,0.02087492,0.01017988,0.009775351,0.001490443,-0.002766297
1.023087,0.05182163,0.07877108,-5.362125e-05,0.01664952,0.01064816,0.007697848,0.001943896,-0.003703614
1.023754,0.04989795,0.07931506,0.0006421927,0.01455116,0.01098866,0.005066072,0.001348009,-0.003453025
1.021681,0.04982251,0.07952592,-0.001401202,0.01429483,0.01099547,0.003943511,-0.00052294,-0.004645126
1.02008,0.04985438,0.07682372,-0.002973833,0.01413978,0.008088682,0.002439871,-0.003215601,-0.001840697
1.019751,0.05058491,0.07685098,-0.003274535,0.01467758,0.007910951,0.004867182,-0.007236677,-0.0003543133
1.019618,0.05035119,0.07560266,-0.003379716,0.01424551,0.006457386,0.005778458,-0.01027646,0.001872687
1.01962,0.0506844,0.07162801,-0.003350039,0.01437497,0.002277491,0.004092836,-0.009271526,0.006749465
1.022263,0.04914359,0.07271814,-0.0006793063,0.01262522,0.003162669,0.004431231,-0.004966412,0.00579842
1.024425,0.04765866,0.07229734,0.001509886,0.01092644,0.002537619,0.002748916,-0.00331709,0.005278182
1.02271,0.04914968,0.0736724,-0.000177509,0.012199,0.003709469,0.002252744,-0.004524458,0.006526489
1.021593,0.04859791,0.07571079,-0.001267778,0.01142449,0.00554599,0.003428488,-0.004619104,0.005103563
1.022349,0.04829334,0.07067645,-0.0004841297,0.01089324,0.000311401,0.006336928,-0.00485062,0.003111228
1.022073,0.04918519,0.06886087,-0.0007344088,0.01155478,-0.001702528,0.01196523,-0.005773299,0.001031161
1.020216,0.04921836,0.07107061,-0.002564623,0.01135431,0.0003111764,0.01016358,-0.006496893,0.003217661
1.019126,0.05018984,0.07326329,-0.003628709,0.01208913,0.002310504,0.004744384,-0.007397053,0.007498476
1.020248,0.04875889,0.07368005,-0.002480831,0.01041877,0.002536872,0.001386282,-0.008633806,0.008076694
1.021335,0.04526765,0.07373294,-0.001368053,0.006685655,0.002402531,-0.00289894,-0.01021758,0.007970782
1.021403,0.04345919,0.07536007,-0.001274052,0.004633269,0.003845736,-0.002143989,-0.01055235,0.008211241
1.023211,0.04263071,0.07020902,0.0005597837,0.003559324,-0.001485806,0.001241787,-0.006764188,0.006955514
1.025874,0.04246043,0.0670421,0.003249134,0.003142601,-0.004829547,0.002187443,-0.002487652,0.004113969
1.02424,0.04327122,0.07291453,0.001639696,0.003706531,0.000870017,0.001626297,-0.00535578,0.001598607
1.021819,0.04522517,0.07642344,-0.0007558232,0.005413709,0.004210275,-0.002170688,-0.008714501,0.002788403
1.0231,0.04645824,0.07448968,0.0005495103,0.006400538,0.002112144,-0.004573891,-0.005339593,0.004390381
1.02306,0.04633534,0.07169503,0.0005337022,0.006032273,-0.0008425716,-0.003808595,-0.003479511,0.001652335
1.021825,0.04565409,0.07196613,-0.0006772874,0.005106828,-0.0007271579,-0.003474902,-0.001949963,-2.483228e-05
1.022543,0.04381298,0.07161536,6.345862e-05,0.003023,-0.001229093,-0.002374666,0.002244793,0.0008148306
1.024118,0.04317544,0.07261568,0.001660803,0.002144566,-0.000375303,-0.001837688,0.001488321,-4.211355e-05
1.025536,0.04366547,0.07532327,0.003100805,0.002395912,0.002190496,-0.004284658,-1.663848e-05,0.0002315963
1.024793,0.04448048,0.07330172,0.002379005,0.002974803,3.190512e-05,-0.006355862,0.0007459787,0.001857289
1.02284,0.04652248,0.07369961,0.0004458659,0.004783575,0.0002974839,-0.002623792,-0.001053297,0.002144931
1.021917,0.04581783,0.07405201,-0.000458602,0.003848813,0.0005223038,0.001321713,-0.002485264,2.322956e-05
1.021988,0.043192,0.07215898,-0.0003690377,0.0009962034,-0.001493577,-0.00266681,-0.00371987,-0.003643888
1.022521,0.04204331,0.07238133,0.0001807926,-0.0003756797,-0.001389327,-0.006191334,-0.004795681,-0.002838992
1.022154,0.04117978,0.07087694,-0.0001699737,-0.001458496,-0.003007018,-0.005198843,-0.001169822,0.0007257042
1.022418,0.04150466,0.0738732,0.0001092441,-0.001348623,-0.0001192052,-0.00543132,0.002575485,1.479468e-05
1.024247,0.04112199,0.0752813,0.001952691,-0.001941692,0.001185317,-0.005138744,0.001406368,-0.002884362
1.025205,0.0396103,0.07130988,0.002924864,-0.003658834,-0.002884874,-0.001585664,-0.0002013437,-0.004078475
1.024339,0.04036877,0.07168484,0.002070973,-0.003100521,-0.002603908,0.007293774,-0.0008037073,-0.004415963
1.022848,0.0416191,0.07149188,0.0005915063,-0.002044738,-0.002886047,0.01581708,-0.003982482,-0.007424208
1.022664,0.04529818,0.0806391,0.0004183613,0.001445648,0.006176777,0.01349612,-0.006162701,-0.01420892
1.022363,0.05046819,0.09378254,0.0001264487,0.0064329,0.01924032,0.008056793,-0.0033637,-0.0197474
1.021734,0.04885274,0.08596151,-0.0004938029,0.00464052,0.01134325,0.008656642,5.701841e-05,-0.02082795
1.022737,0.04547628,0.07637835,0.0005168451,0.0010928,0.001687174,0.01151911,0.0009936295,-0.01830935
1.023147,0.04642295,0.07814527,0.0009325159,0.001873762,0.003383895,0.01450129,0.000515398,-0.01148788
1.023752,0.04750638,0.07664981,0.001543446,0.00279699,0.001820748,0.01255701,-0.0002401097,-0.003679921
1.024976,0.04877624,0.07615956,0.002772068,0.003912056,0.001265217,0.005138588,0.001058356,-0.0008542996
1.024843,0.04798604,0.07877132,0.002643256,0.002972355,0.003813992,-0.001357745,0.005924585,0.0003475745
1.024851,0.04403313,0.07890376,0.002652955,-0.00112489,0.003885615,-0.00629894,0.00894277,0.004789175
1.030982,-0.01525143,0.03386929,0.003086348,-0.02561833,-0.02166282,0.02018254,0.05615163,-0.02024071
1.029086,-0.01251948,0.03147752,0.001133708,-0.02192272,-0.02328005,0.01630582,0.054945,-0.02470551
1.02857,-0.008178214,0.0277539,0.0005623452,-0.01663134,-0.02623475,0.01577996,0.05843163,-0.02376263
1.027593,-0.006502461,0.0288301,-0.0004670997,-0.01401963,-0.02439569,0.01144605,0.05756983,-0.02296886
1.024466,-0.008272249,0.02983652,-0.003643838,-0.01486834,-0.02263285,0.007515547,0.05457151,-0.01756911
1.025281,-0.01102707,0.02660976,-0.002876384,-0.01671761,-0.02510999,0.0152357,0.05065178,-0.01452876
1.026929,-0.009479003,0.02636785,-0.001274186,-0.01428009,-0.02460939,0.02571372,0.04700686,-0.01551615
1.028191,-0.008074199,0.02863217,-5.479143e-05,-0.01200242,-0.02160994,0.02512982,0.04782678,-0.01732024
1.028343,-0.009084532,0.03160701,5.744977e-05,-0.01215696,-0.01790766,0.01637056,0.04628721,-0.02345304
1.028037,-0.008853509,0.03377634,-0.000285845,-0.01108769,-0.015019,0.0120129,0.04652498,-0.02269167
1.029668,-0.01101831,0.03281956,0.00131071,-0.01243221,-0.01526505,0.01798181,0.04722513,-0.02314426
1.028179,-0.01147162,0.0315863,-0.0002110687,-0.01208353,-0.0157967,0.03042254,0.0486517,-0.02919694
1.025599,-0.008657349,0.03117908,-0.00282146,-0.008485831,-0.0155119,0.03790532,0.0545922,-0.02592558
1.023796,-0.007451376,0.03548856,-0.004652961,-0.006515261,-0.01052042,0.03601448,0.05852713,-0.02524148
1.021443,-0.004498603,0.04082191,-0.007032335,-0.002817067,-0.004515577,0.02812834,0.05860992,-0.02875192
1.022891,-0.001715497,0.03737999,-0.005607191,0.0006918685,-0.007297153,0.01402226,0.05134452,-0.02864852
1.024535,-0.001583374,0.03425672,-0.003984112,0.001529738,-0.009771872,0.003127411,0.04388794,-0.03118134
1.023988,-0.00209111,0.03685028,-0.004549179,0.001707155,-0.00654208,0.005652383,0.04659839,-0.02993245
1.027204,-0.004144143,0.03639871,-0.001347496,0.000318232,-0.006370158,0.01227956,0.04956172,-0.02531098
1.031471,-0.007095195,0.03543739,0.002906877,-0.001990079,-0.006721178,0.01833863,0.04869987,-0.02312076
1.030858,-0.007657467,0.03751855,0.002284541,-0.001931152,-0.004043281,0.0274498,0.04897978,-0.02230123
1.028786,-0.005183412,0.04044877,0.0002058948,0.001142488,-0.0005302902,0.02757994,0.04843693,-0.02501739
1.028321,-0.004223675,0.04385925,-0.0002648632,0.002680135,0.003448528,0.02211495,0.04739388,-0.02546959
1.027507,-0.003416406,0.0421422,-0.00108096,0.004043544,0.002284814,0.02541185,0.0482978,-0.02368308
1.027561,-0.0023149,0.03770364,-0.001028555,0.005679303,-0.001615915,0.02437432,0.04867555,-0.02464922
1.027809,-0.004967501,0.0370986,-0.000779705,0.003538967,-0.001699003,0.02138146,0.04974293,-0.0258024
1.025383,-0.006165416,0.03470053,-0.003203205,0.002831301,-0.003591223,0.02406309,0.05152307,-0.02742609
1.022669,-0.00540229,0.03509475,-0.005912468,0.004062728,-0.002707318,0.02163099,0.04891593,-0.02410734
1.02183,-0.005230011,0.03951085,-0.006745502,0.004681488,0.00218225,0.02213487,0.04640026,-0.01828521
1.023257,-0.003636378,0.03759801,-0.00531025,0.006699912,0.0007265616,0.02383589,0.04727897,-0.01911682
1.025152,-0.002792535,0.0383227,-0.003404752,0.00794697,0.001891966,0.02217543,0.04694765,-0.01969396
1.025598,-0.004220579,0.04167662,-0.002947334,0.00690067,0.005670069,0.02426636,0.04506837,-0.01909795
1.027639,-0.005400935,0.03795724,-0.0008914038,0.006080731,0.002358198,0.02378079,0.04229713,-0.02053403
1.029163,-0.0004174386,0.03677101,0.0006490286,0.0114035,0.001562727,0.02506727,0.03923372,-0.02061038
1.024897,0.005191613,0.03886276,-0.003598771,0.0173308,0.004028483,0.02685258,0.03789939,-0.0204107
1.020368,0.002766564,0.03935217,-0.008107471,0.01520293,0.0048752,0.02260501,0.03771884,-0.01838328
1.021917,0.001713651,0.04068946,-0.006536448,0.01442605,0.006553092,0.01979141,0.03634966,-0.01492116
1.023374,0.003480815,0.04103687,-0.005055223,0.01644809,0.007224393,0.01752445,0.03325121,-0.01367561
1.021988,0.001109692,0.04034484,-0.006415125,0.01431073,0.006839534,0.01684886,0.03066201,-0.01210076
1.024879,-0.001999092,0.04058188,-0.003495698,0.01141473,0.007367025,0.01671735,0.03100617,-0.01005829
1.027963,-0.004198295,0.04398714,-0.000380795,0.009407611,0.01104605,0.01579014,0.0332104,-0.01119088
1.026946,-0.004812869,0.04666022,-0.001365605,0.008964844,0.01397616,0.01677902,0.03509936,-0.01396585
1.027968,-0.003722656,0.0431337,-0.0003087912,0.01020709,0.01068989,0.0134874,0.03462706,-0.01472608
1.02914,-0.00416542,0.04051359,0.0008997409,0.00989712,0.008293163,0.009680352,0.03120214,-0.01302125
1.028455,-0.004462143,0.04262795,0.0002521596,0.009714466,0.01061415,0.005944103,0.02877047,-0.01123013
1.026619,-0.003664539,0.04404174,-0.001544793,0.01060795,0.01221794,-0.003523904,0.02571152,-0.01167062
1.023107,-0.003433296,0.04365756,-0.005017055,0.01091741,0.01200725,-0.009087351,0.02294905,-0.01147646
1.022978,-0.002379376,0.04359307,-0.005105114,0.01203241,0.01209985,-0.005073695,0.02531292,-0.01080568
1.024499,-0.001582522,0.04051616,-0.003542142,0.01287367,0.009163784,-0.0009304,0.02539844,-0.01422622
1.024546,-0.001539944,0.03561297,-0.003450979,0.01294445,0.004385465,-0.002585839,0.02316373,-0.0177072
1.026972,-0.001047102,0.03729102,-0.0009806079,0.01344971,0.006172864,0.002266673,0.02287786,-0.01731642
1.028891,-0.001559332,0.0398561,0.0009830952,0.01293456,0.008832265,0.01355057,0.02174731,-0.01552095
1.027884,-0.001508808,0.03982551,2.287684e-05,0.01296726,0.008881431,0.0148023,0.02065748,-0.01432544
1.02709,-0.001269372,0.04385978,-0.0007243019,0.01317444,0.01298126,0.01231118,0.02006498,-0.01387015
1.026729,-0.002922081,0.04475247,-0.001037629,0.0114755,0.0139256,0.01177174,0.0260566,-0.01411035
1.0266,-0.005245944,0.04127924,-0.001119356,0.009091968,0.01049033,0.008988792,0.0334866,-0.01658637
1.025246,-0.008824098,0.0406052,-0.002425665,0.005441319,0.00984083,0.009138339,0.02880662,-0.01771223
1.023874,-0.01038224,0.03610639,-0.003749789,0.003798604,0.005353528,0.0113627,0.02404566,-0.01566635
1.025586,-0.007548363,0.0299169,-0.001988643,0.006536669,-0.0008369137,0.01322996,0.02458036,-0.01408616
1.025337,-0.004915004,0.03450848,-0.002189695,0.009063753,0.003741963,0.01947041,0.01976186,-0.008742645
1.024885,-0.003529868,0.04249376,-0.002592334,0.01033281,0.01170353,0.02811726,0.01588315,0.0004282901
1.028554,-0.002453417,0.04455081,0.001124906,0.01128392,0.01372633,0.02775776,0.01646843,0.005874588
1.028428,-0.002526741,0.04397354,0.001047487,0.01107646,0.01310453,0.02160638,0.01489875,0.006130628
