accx,accy,accz,body_accx,body_accy,body_accz,body_gyrox,body_gyroy,body_gyroz
1.007219,-0.1800543,-0.1661687,-0.02644771,-0.02867515,0.07813957,0.1355239,0.1091104,-0.06990804
1.009422,-0.185623,-0.1792569,-0.024112,-0.03501907,0.06120214,0.1326798,0.1622367,-0.05978528
1.006344,-0.1946834,-0.1907638,-0.02702659,-0.04478993,0.04589158,0.1497494,0.1882435,-0.05020402
1.004144,-0.2066367,-0.1833866,-0.02903299,-0.05738937,0.04951502,0.2055719,0.1734182,-0.03975265
1.001644,-0.2096902,-0.1719459,-0.03131063,-0.06102507,0.0572558,0.2271679,0.2318096,-0.03308718
1.004412,-0.2062316,-0.1768135,-0.02829259,-0.05808491,0.04874559,0.1825067,0.2611967,-0.03039332
1.013664,-0.2047123,-0.1684913,-0.01876411,-0.05702034,0.0534858,0.125114,0.2585007,-0.04988503
1.009712,-0.1924118,-0.1511149,-0.02241387,-0.04511142,0.06734323,0.1308067,0.2577676,-0.07437435
1.002759,-0.1785532,-0.1586754,-0.02904258,-0.03158211,0.05632891,0.1516459,0.1758127,-0.07602711
1.000062,-0.1749291,-0.1691228,-0.03139251,-0.02822669,0.04249465,0.1449534,0.1189443,-0.0782422
1.002882,-0.1728238,-0.1730823,-0.02820351,-0.0263314,0.03521694,0.1542635,0.1604465,-0.07995219
1.011318,-0.172574,-0.1791406,-0.01937944,-0.02623526,0.02591122,0.1488989,0.2024189,-0.07272742
1.009476,-0.1706755,-0.181126,-0.02081445,-0.02443643,0.02075132,0.1297893,0.2119646,-0.06871269
1.011574,-0.166744,-0.1909359,-0.01829125,-0.02055298,0.007842072,0.1018221,0.1943314,-0.06261707
1.028597,-0.1689469,-0.2136506,-0.0008282026,-0.02275467,-0.01789442,0.01251827,0.1954561,-0.0522552
1.038778,-0.1724465,-0.2270737,0.009807851,-0.02620615,-0.03425879,-0.09426899,0.2470236,-0.04815979
1.028437,-0.1723426,-0.20556,-6.723592e-05,-0.02600972,-0.01560262,-0.134246,0.2843534,-0.04358073
1.006333,-0.170514,-0.1674412,-0.02169587,-0.02404616,0.01974504,-0.04503297,0.2244953,-0.009597124
0.9949836,-0.1643305,-0.1555613,-0.03256144,-0.01768756,0.02894164,0.09657,0.1063301,0.04530095
0.9873147,-0.1606692,-0.1628213,-0.03973922,-0.01381327,0.019086,0.1193893,0.02686772,0.06062526
0.9781651,-0.1786688,-0.1694374,-0.04839035,-0.03156445,0.009961546,0.05500883,-0.02349604,0.01594067
0.9914579,-0.2056157,-0.1832421,-0.0345914,-0.05822934,-0.00626428,-0.002625488,0.0187509,-0.04033121
1.010629,-0.2112771,-0.1996216,-0.01490681,-0.06357609,-0.02497742,-0.02331076,0.146332,-0.07278435
1.018539,-0.2061422,-0.2038631,-0.006475547,-0.05809416,-0.03146443,0.02733258,0.2071512,-0.08434644
1.02999,-0.2020185,-0.2084352,0.00550154,-0.05359148,-0.03819268,0.1059444,0.2339168,-0.08613506
1.035644,-0.1930791,-0.2259369,0.01168622,-0.04424146,-0.05775988,0.148681,0.2147745,-0.09157862
1.025761,-0.1931331,-0.2289445,0.00233567,-0.04385407,-0.06274082,0.1305906,0.1555896,-0.09095439
1.012863,-0.1945741,-0.2110734,-0.01003027,-0.04482412,-0.04674936,0.08989302,0.1835585,-0.07857192
1.003153,-0.1826578,-0.197462,-0.01920895,-0.03240837,-0.0349227,0.07911528,0.2169353,-0.0753008
0.9988416,-0.1780735,-0.1848658,-0.02299147,-0.02729777,-0.02401638,0.07014265,0.2103783,-0.07329651
1.003862,-0.1754307,-0.178455,-0.01744409,-0.0241036,-0.0192011,0.04619334,0.2008025,-0.06462286
1.004592,-0.1657883,-0.1889081,-0.01618997,-0.01388667,-0.03115677,0.009619514,0.1852977,-0.06246945
0.9998759,-0.1677454,-0.1965718,-0.02038466,-0.01524852,-0.04023124,-0.009154257,0.1954663,-0.06192364
1.002757,-0.1715475,-0.1927262,-0.01698552,-0.01843674,-0.03770562,0.00160494,0.1910819,-0.05994873
1.001587,-0.1712254,-0.1882033,-0.01763978,-0.01748435,-0.03441302,-0.0200159,0.1867309,-0.05951742
1.001515,-0.1741609,-0.187481,-0.01720061,-0.01977525,-0.03483259,-0.03557585,0.1923117,-0.05664212
1.004873,-0.1739522,-0.1859986,-0.01333583,-0.01890946,-0.03440518,-0.02743928,0.1764774,-0.05221814
0.9992254,-0.175149,-0.1880038,-0.01847977,-0.0194383,-0.03738003,-0.04321435,0.1799537,-0.0498963
1.00035,-0.1780677,-0.192827,-0.01685637,-0.02167987,-0.04308916,-0.04184508,0.1758899,-0.05104975
1.004553,-0.1797222,-0.1916249,-0.0121592,-0.02264949,-0.04269094,-0.0371187,0.1659592,-0.0538558
1.005328,-0.182774,-0.1936918,-0.01089512,-0.02500997,-0.0454813,-0.04137015,0.1661366,-0.0550527
1.007174,-0.1810365,-0.1951593,-0.008564214,-0.02257581,-0.04759319,-0.03156791,0.1631082,-0.05677541
1.004117,-0.1767378,-0.1913035,-0.01114279,-0.01757633,-0.04430454,-0.03416558,0.1804921,-0.06263814
1.005616,-0.1757265,-0.1920257,-0.009171581,-0.01586121,-0.04551827,-0.03071178,0.185331,-0.06747956
1.005623,-0.1752815,-0.1887993,-0.008698944,-0.01471064,-0.0427095,-0.02601615,0.185346,-0.06586391
1.00151,-0.173677,-0.1840257,-0.0123527,-0.01240006,-0.03828175,-0.03439252,0.1889703,-0.0645026
1.000648,-0.1713606,-0.184748,-0.01276167,-0.009378518,-0.03928025,-0.03771952,0.1708117,-0.06596543
0.9947044,-0.1706804,-0.185345,-0.01826038,-0.007995145,-0.04008606,-0.04585463,0.1545567,-0.06078162
0.9945572,-0.1738802,-0.1884357,-0.0179692,-0.01049525,-0.0433204,-0.04286073,0.1282806,-0.05028938
0.997099,-0.1813166,-0.1902701,-0.01499574,-0.01723653,-0.04523537,-0.03339719,0.1022581,-0.03938829
0.9919703,-0.1890832,-0.1851913,-0.01969945,-0.02431325,-0.04017645,-0.02856443,0.09221682,-0.02788786
0.9920063,-0.191363,-0.1806504,-0.01924465,-0.02590906,-0.03559664,-0.006463872,0.07824337,-0.02560874
0.9980174,-0.1907293,-0.1876718,-0.01282089,-0.02459745,-0.04252289,0.01349568,0.05890438,-0.03005328
1.008837,-0.1919081,-0.2007871,-0.001594277,-0.02510441,-0.05548898,0.02367781,0.04322134,-0.02969927
1.015175,-0.1943917,-0.205291,0.005144037,-0.02692249,-0.05979135,0.03327717,0.06041729,-0.02919958
1.007605,-0.2027661,-0.2046316,-0.002032564,-0.03463764,-0.0588796,0.03315666,0.07655787,-0.03385362
1.003885,-0.2106552,-0.2086824,-0.005367416,-0.0418733,-0.06262851,0.04348169,0.06647436,-0.04706619
1.01062,-0.1960326,-0.2230261,0.001745438,-0.02660284,-0.07662213,0.06819304,0.08906097,-0.06076134
1.013292,-0.1749403,-0.2359064,0.004787719,-0.004867916,-0.08910482,0.08387916,0.1334966,-0.0623183
1.005989,-0.1748317,-0.2268618,-0.002154719,-0.00412248,-0.07961553,0.09151977,0.1530027,-0.06476811
0.9999208,-0.1706674,-0.2147359,-0.007871286,0.0006718663,-0.06699832,0.07352573,0.1442175,-0.0702201
1.001923,-0.1514647,-0.2181581,-0.005526384,0.02049674,-0.06988345,0.04009252,0.1227613,-0.06213474
1.002452,-0.1448664,-0.2183917,-0.004665085,0.02770744,-0.06953539,0.03455386,0.09564804,-0.04995729
1.001622,-0.1565478,-0.2171651,-0.005170433,0.01662673,-0.06768388,0.01299758,0.06634278,-0.03650337
1.005186,-0.177581,-0.2230196,-0.001291724,-0.003819229,-0.07287135,-0.04609262,0.06245492,-0.01384906
1.00653,-0.1906732,-0.2212445,0.0003572292,-0.01633859,-0.07038844,-0.08216124,0.0735154,-0.00720188
1.002848,-0.1849791,-0.2176465,-0.003028807,-0.01008628,-0.06604319,-0.06120419,0.1035778,-0.01309655
0.9949241,-0.1770939,-0.2153151,-0.01066554,-0.001657305,-0.06292634,-0.02096737,0.1456065,-0.005944259
0.9877858,-0.1752884,-0.2109833,-0.01752599,0.0006772982,-0.05777267,-0.04567715,0.1056921,-0.01279964
0.9971303,-0.1806505,-0.2295657,-0.007912287,-0.004170593,-0.07549823,-0.1163351,0.05029001,-0.04636624
1.00991,-0.1895753,-0.253276,0.005128099,-0.01259625,-0.09831808,-0.170979,0.07899554,-0.07550111
1.00383,-0.1884585,-0.2478156,-0.0006984025,-0.01099522,-0.09193416,-0.1710588,0.0840163,-0.07420212
1.000081,-0.1857919,-0.2442978,-0.004202202,-0.007859103,-0.08746009,-0.07373836,0.07441349,-0.05572988
1.003401,-0.1885453,-0.2534928,-0.000646447,-0.01015735,-0.09566614,0.02730277,0.1265273,-0.0473111
0.9983868,-0.1865724,-0.2476017,-0.005431729,-0.007743275,-0.08875383,0.07190133,0.1739244,-0.02695918
0.9987342,-0.1824055,-0.2324084,-0.004863829,-0.003149143,-0.07250764,0.105648,0.1938466,-0.005832185
0.9975459,-0.1806411,-0.2165791,-0.005839385,-0.0009712605,-0.05559489,0.0873223,0.1556019,-0.01450926
0.9853946,-0.1831658,-0.2044613,-0.01778545,-0.003096275,-0.04236498,0.0001850166,0.05122948,-0.01866791
0.9827612,-0.1871605,-0.2058812,-0.02022036,-0.006704792,-0.04264636,-0.05716667,-0.01658858,-0.0119937
0.9923344,-0.1792217,-0.206569,-0.01045477,0.001606483,-0.04217229,0.0006734317,-0.04716053,-0.003329844
1.003349,-0.1657344,-0.2126736,0.0007464303,0.01545271,-0.04709404,0.1591404,-0.08232626,0.02457393
1.005032,-0.1630712,-0.2354088,0.002611698,0.01846089,-0.06862796,0.3328164,-0.07745357,0.07445806
1.001212,-0.1702602,-0.2414396,-0.001032138,0.01160223,-0.07344065,0.3421095,-0.02947047,0.1030271
1.00519,-0.1783256,-0.2210854,0.003117387,0.003851928,-0.05185258,0.1999171,-0.01098839,0.05239674
1.00358,-0.1772804,-0.1915762,0.001671839,0.0051969,-0.02109528,0.1392458,-0.03590277,-0.01455901
0.9895327,-0.1751837,-0.1767011,-0.01221546,0.007577889,-0.004960445,0.1217047,-0.07135283,-0.0180253
0.9817952,-0.181529,-0.200405,-0.01979871,0.001501513,-0.02739619,0.1457657,-0.1146842,0.007148976
0.9994674,-0.1874375,-0.2286901,-0.001977202,-0.004153168,-0.05440777,0.2484558,-0.1065128,0.01929489
1.022076,-0.1906214,-0.2307836,0.02077621,-0.007097951,-0.05522427,0.2522735,-0.05692822,-0.001762213
1.010319,-0.185099,-0.2287986,0.009158955,-0.001350495,-0.05195984,0.1967054,-0.02560413,-0.02731032
0.990881,-0.1772704,-0.2333172,-0.010144,0.006689596,-0.05519757,0.1243728,0.01177651,-0.01815013
0.9853852,-0.1852196,-0.2385485,-0.01551062,-0.001061281,-0.05914726,0.06217796,-0.009873005,-0.004516964
0.9824679,-0.1951894,-0.2460285,-0.0183035,-0.01084553,-0.06534559,0.08925653,-0.03431753,0.00967278
1.001361,-0.1984254,-0.2549158,0.0007095687,-0.01390803,-0.07295135,0.1132839,0.07889683,0.0246644
1.019108,-0.1991705,-0.2538499,0.01857358,-0.0144908,-0.07060415,0.1772282,0.2310649,0.01284094
1.014161,-0.1964981,-0.2409694,0.01373886,-0.01166599,-0.05644241,0.2504244,0.312462,-0.0020336
1.011561,-0.1969149,-0.2327565,0.01124615,-0.01193951,-0.04694854,0.2319517,0.2912009,-0.02028592
1.002679,-0.1949886,-0.2330029,0.002466202,-0.0098782,-0.04591519,0.1671261,0.243438,-0.06748246
0.9919995,-0.1893705,-0.2253858,-0.008116393,-0.004132424,-0.03702035,0.04835396,0.206002,-0.09599303
0.9978593,-0.1833968,-0.2148516,-0.002165573,0.00196207,-0.02521184,0.01106836,0.09238637,-0.07165949
1.00564,-0.1732591,-0.2299191,0.005700679,0.01221374,-0.03900998,0.08455894,0.05955695,-0.03176827
1.006267,-0.1727248,-0.2516695,0.006408909,0.01285528,-0.05949705,0.106146,0.1209711,-0.006363864
1.004331,-0.1783138,-0.2447012,0.004548138,0.007366154,-0.05127224,0.09163575,0.1014091,-0.005661804
1.001451,-0.1775114,-0.2322441,0.001739188,0.008261063,-0.03756562,0.0754075,0.1079164,-0.01639376
0.9943119,-0.181118,-0.2272121,-0.005334974,0.004739344,-0.0312918,0.06975931,0.1148184,-0.009225418
0.9912062,-0.1822536,-0.2210942,-0.008380286,0.003681007,-0.02394083,0.06352572,0.07186387,-0.006084801
0.9948138,-0.1786144,-0.2222937,-0.00471685,0.007389994,-0.02391714,0.04125805,0.09027146,-0.01439962
0.99487,-0.1814108,-0.2232168,-0.004608632,0.004655851,-0.02362841,0.04022972,0.09185283,-0.007799083
0.9955603,-0.1813196,-0.2287048,-0.003869926,0.00480195,-0.02791704,0.03047251,0.07814532,-0.00733955
0.9979276,-0.1812433,-0.2378322,-0.00145747,0.00492593,-0.0358587,0.01650467,0.09662824,-0.005546148
1.000207,-0.1856428,-0.2295005,0.0008637367,0.0005670753,-0.02635547,0.02012006,0.08716514,0.009823769
1.004278,-0.1866172,-0.2174513,0.004974907,-0.0003735058,-0.01314981,0.01609934,0.08303268,0.01319522
1.005915,-0.1894108,-0.2090507,0.006648081,-0.003139746,-0.003608667,0.003800269,0.07137168,0.0156031
0.9981334,-0.1899415,-0.2084509,-0.001100216,-0.003648968,-0.001885788,-0.01255822,0.0388703,0.01745904
0.9849848,-0.1865544,-0.2188653,-0.01421827,-0.0002459208,-0.01119612,-0.01556975,0.0260903,0.02100626
0.9819795,-0.1878775,-0.2184355,-0.01719554,-0.001557999,-0.009682546,-0.012821,0.02031984,0.02965912
0.9817412,-0.1876624,-0.2208375,-0.01740746,-0.001336394,-0.01102206,-0.02034838,0.02463811,0.02443648
0.9860109,-0.1878212,-0.2324497,-0.01311205,-0.001492887,-0.02159389,-0.02826902,0.02973789,0.02245366
1.00225,-0.193701,-0.2358569,0.003152991,-0.0073743,-0.02398319,-0.0332065,0.04325914,0.019174
1.0032,-0.2007235,-0.231083,0.004128568,-0.01440152,-0.01821396,-0.01435508,0.081646,0.004230709
0.9987759,-0.2046636,-0.2171915,-0.0002698735,-0.01834883,-0.003349814,0.01369364,0.1097282,-0.006142892
1.002712,-0.199962,-0.2156385,0.003691672,-0.01365583,-0.0008471562,0.01766051,0.1081954,-0.009745786
0.9912616,-0.1938281,-0.2232685,-0.007733347,-0.007531222,-0.00755138,0.02660505,0.08602858,0.001315804
0.9833608,-0.1948217,-0.2213705,-0.01560896,-0.008533907,-0.004751918,0.0416326,0.07684452,0.008705249
0.9914882,-0.2036655,-0.2258659,-0.007456102,-0.0173863,-0.008370631,0.02661222,0.07281822,0.00212825
0.9949126,-0.2168204,-0.2268949,-0.004005588,-0.03054841,-0.008548028,0.01845815,0.05966246,0.001344996
0.9947419,-0.218733,-0.2249014,-0.004149221,-0.03246577,-0.005727949,0.04866963,0.04944431,0.0003321734
0.9892987,-0.2140887,-0.227291,-0.009564249,-0.02782252,-0.00731625,0.06425449,0.02575295,-0.001848703
0.9817852,-0.2099169,-0.2212557,-0.01704837,-0.02364665,-0.0005048479,0.04046731,0.04364764,-0.00112979
0.9846028,-0.1995166,-0.2203705,-0.0141995,-0.01323633,0.001131127,0.01825742,0.07890737,0.001524262
0.9883976,-0.2009341,-0.2205996,-0.01037124,-0.0146373,0.001627187,0.02448067,0.04992858,0.00356859
0.9878516,-0.2099166,-0.2099547,-0.01088106,-0.02359653,0.0129715,0.02937452,0.03844848,0.001977149
0.9889553,-0.2142927,-0.1965667,-0.009738294,-0.02794211,0.02703256,0.02191416,0.04302463,0.009134967
0.9875785,-0.2320854,-0.186383,-0.01107285,-0.04569616,0.03786208,0.05167327,0.01691171,0.01804925
0.9860061,-0.2418604,-0.1893252,-0.0125996,-0.05542335,0.03553699,0.1052923,0.007791696,0.01610863
0.9926768,-0.2279129,-0.2066098,-0.005879578,-0.04141712,0.01883956,0.1157593,0.007044978,0.005629258
0.9981836,-0.2058695,-0.2244982,-0.0003200204,-0.01930275,0.001507707,0.09210293,0.008092277,-0.0061672
0.9964458,-0.1744281,-0.2281855,-0.00200161,0.01222218,-0.001653758,0.06955335,0.01797827,-0.00252674
0.9988127,-0.1649348,-0.2496188,0.0004246855,0.02181077,-0.02259094,-9.884456e-05,0.06312698,0.002370048
1.007621,-0.1840878,-0.2914619,0.00929486,0.002763129,-0.06396609,-0.1050523,0.1387654,-0.004876958
1.009412,-0.1893086,-0.2761183,0.01115042,-0.002343862,-0.04817982,-0.1320249,0.1362279,-0.007820327
0.9943656,-0.1943903,-0.2291561,-0.003830941,-0.007304358,-0.000797449,-0.1185786,0.0405858,-0.008859448
0.9759687,-0.2074264,-0.2107695,-0.02216139,-0.02021222,0.01798865,-0.1025974,-0.08234404,0.0008945897
0.9753032,-0.2012848,-0.2042565,-0.02275903,-0.01393581,0.02488071,-0.05079142,-0.1367743,0.02315627
0.9910493,-0.1911516,-0.2312626,-0.006943137,-0.003661221,-0.001767188,-0.05758876,-0.02270938,0.02765849
1.007275,-0.1908107,-0.2687596,0.009354543,-0.003172772,-0.03892654,-0.09718917,0.1203805,0.02547333
1.013076,-0.1938646,-0.2723945,0.01522963,-0.006073489,-0.04224298,-0.05187313,0.1581675,0.04726003
1.006702,-0.1980058,-0.2666281,0.008930788,-0.01005654,-0.03617493,0.1107207,0.2243746,0.1107957
0.9899225,-0.1917164,-0.2488673,-0.007772938,-0.003604304,-0.01812695,0.2862204,0.2955967,0.1956685
0.9607039,-0.1839207,-0.233536,-0.03691566,0.004358198,-0.002521413,0.1894515,0.1766225,0.2165633
0.9285264,-0.1912477,-0.2319673,-0.06901605,-0.002798495,-0.0006905858,-0.05181342,-0.05570641,0.1802598
0.926381,-0.2026871,-0.2136801,-0.07108086,-0.01406484,0.01784694,-0.1268511,-0.1788109,0.165525
0.9653361,-0.2118918,-0.1977941,-0.03203894,-0.02309399,0.03397103,-0.1538933,-0.1448208,0.1489103
1.003809,-0.2148063,-0.2096053,0.006528673,-0.02583009,0.02238472,-0.1179364,-0.09334708,0.1293928
1.004533,-0.207723,-0.2208694,0.007355786,-0.01856519,0.01133147,-0.06568344,-0.1039288,0.121324
0.9940608,-0.1957627,-0.1995838,-0.003006817,-0.006419697,0.03281329,-0.1985354,-0.1426393,0.07510069
1.003606,-0.1737345,-0.196746,0.006654124,0.01579702,0.03583182,-0.3128549,-0.3348468,0.04541923
1.01433,-0.1661157,-0.2631713,0.01749924,0.02360673,-0.03042879,-0.3026875,-0.5087601,0.07337273
1.027343,-0.1947413,-0.315725,0.03063684,-0.004826976,-0.08283282,-0.2243641,-0.2115958,0.08333667
1.042702,-0.2189041,-0.2796975,0.04612295,-0.02879779,-0.04666768,-0.1172324,0.2172131,0.06522773
1.039045,-0.2184516,-0.2365329,0.04259166,-0.02815305,-0.00337444,-0.04967211,0.3083465,0.03331837
1.036578,-0.2100183,-0.2573654,0.04024816,-0.01952654,-0.02408517,0.06631588,0.2953943,0.003138505
1.025969,-0.2004103,-0.2582464,0.02975703,-0.009723789,-0.02485021,0.09626396,0.2218094,0.02685443
0.9792487,-0.1954671,-0.2409613,-0.01685157,-0.004584046,-0.007453875,-0.1138328,-0.003354944,0.06058549
0.9442608,-0.1961411,-0.2613246,-0.05173476,-0.005060196,-0.0277095,-0.3065382,-0.1269305,0.04126475
0.9751303,-0.1993878,-0.2403311,-0.0207657,-0.008107867,-0.006611133,-0.1754567,-0.003222122,0.02592325
1.017807,-0.2006254,-0.2181584,0.02200693,-0.009145612,0.01566409,0.05961365,0.190213,0.03067879
1.003255,-0.1997142,-0.2372371,0.007547034,-0.008033928,-0.00331435,0.0095344,0.2119362,0.01199668
0.9988592,-0.1895016,-0.2289568,0.003239985,0.002379567,0.005063413,-0.02918085,0.08206057,-0.001890663
1.019516,-0.176376,-0.2290757,0.0239811,0.0157059,0.005039018,-0.003378372,-0.004753856,-0.01046697
1.005485,-0.1997746,-0.2319607,0.01002927,-0.007492781,0.002245376,-0.09507313,0.07179497,-0.02224879
0.993047,-0.2385129,-0.2191148,-0.002335059,-0.04603246,0.01517921,-0.01814058,0.161027,-0.02780798
0.9725418,-0.2439049,-0.2184306,-0.02277184,-0.05122627,0.01594742,0.01231246,0.03198093,-0.05491219
0.9472769,-0.2293093,-0.2120068,-0.04797285,-0.03643122,0.02245053,-0.1313267,-0.1526916,-0.07132497
0.9578754,-0.2141406,-0.2019463,-0.03731313,-0.02106038,0.03258484,-0.1373767,-0.4225456,-0.06812212
0.9603903,-0.2105789,-0.1916725,-0.03473768,-0.01729308,0.04292563,0.06723356,-0.9969117,-0.04239585
0.9718089,-0.2189489,-0.2260449,-0.02325743,-0.02545364,0.008612012,0.3056211,-1.350965,0.008690123
0.9936851,-0.2223919,-0.3036647,-0.001317392,-0.02868297,-0.0689574,0.153968,-1.030302,-0.02421866
0.9818238,-0.2190026,-0.331928,-0.01311217,-0.02507548,-0.09717683,-0.0434082,-0.6741899,-0.09454251
0.9628009,-0.2115171,-0.3281421,-0.03206563,-0.01736694,-0.09334956,0.08985662,-0.7708818,-0.0981333
0.944218,-0.2063965,-0.3502046,-0.05057537,-0.01201814,-0.115368,0.08953815,-0.6656721,-0.07760735
0.9497408,-0.2075558,-0.3841441,-0.0449741,-0.01294426,-0.1492556,0.08140988,-0.2600368,-0.03568725
0.9693896,-0.2144324,-0.3835269,-0.02524009,-0.01958319,-0.1485727,0.1820413,-0.09150846,0.0002859137
0.9522793,-0.2251749,-0.3604023,-0.04225698,-0.03008346,-0.1253623,0.1817936,0.1552593,0.02372532
0.9494585,-0.2304477,-0.3599334,-0.04497532,-0.03510918,-0.1247824,0.2450987,0.4253267,0.03450352
0.9661245,-0.2320271,-0.346871,-0.02819668,-0.03643614,-0.1115792,0.2578511,0.4924969,0.002483695
0.9638796,-0.2325727,-0.3275329,-0.03031778,-0.03672306,-0.09206707,0.175002,0.6493982,0.01105487
0.9642022,-0.2326908,-0.3213645,-0.02985994,-0.03657566,-0.08568907,0.1496933,0.6583395,0.01896073
0.961915,-0.2357397,-0.3002637,-0.03199999,-0.03935154,-0.06434165,0.1376374,0.6122481,-0.02208546
0.9697062,-0.2362881,-0.2835026,-0.02404948,-0.03961868,-0.04729654,0.1401058,0.681264,-0.05074158
0.9855595,-0.2324446,-0.2604598,-0.008024783,-0.03548514,-0.02393293,0.09876184,0.586956,-0.109769
0.9784261,-0.2236195,-0.2420836,-0.01497497,-0.02636067,-0.005200718,0.06141933,0.4723519,-0.131184
0.9756981,-0.2137624,-0.255125,-0.01750871,-0.01619483,-0.01785363,0.06286283,0.3231385,-0.09033273
0.9800887,-0.2084139,-0.257486,-0.01291327,-0.01052865,-0.01979631,0.03085058,0.1695866,-0.07815402
0.9791638,-0.2024324,-0.2506815,-0.01362334,-0.004221339,-0.01254611,0.05458234,0.1431004,-0.06485797
0.9848328,-0.1996314,-0.2424563,-0.007730222,-0.001087478,-0.003850216,0.0748141,0.07489995,-0.06594813
0.9890426,-0.2014184,-0.2346959,-0.003287738,-0.002535802,0.00440311,0.08268675,0.06975534,-0.06201531
0.9889798,-0.2011222,-0.2435586,-0.003110304,-0.001896409,-0.003947245,0.1145079,0.07289233,-0.037128
0.9901813,-0.2017286,-0.2479168,-0.001661915,-0.0021561,-0.007776476,0.08370753,0.01773271,-0.04430062
0.996229,-0.1977051,-0.2518429,0.004638301,0.002216301,-0.01115936,0.08832452,0.06256172,-0.03406617
0.9976795,-0.1898915,-0.2541457,0.006345544,0.01037995,-0.01290678,0.08910008,0.05936408,-0.02012008
0.9927482,-0.1945083,-0.2482462,0.001674144,0.006113092,-0.006441477,0.06160032,0.04233857,-0.03392513
0.9910131,-0.2039673,-0.2486607,0.0002009373,-0.002997511,-0.006281607,0.08607065,0.07454239,-0.03479704
0.9833102,-0.2079645,-0.2353042,-0.007238973,-0.00664864,0.007655859,0.06604347,0.05119261,-0.02679419
0.981231,-0.2078628,-0.2203798,-0.009054663,-0.006203874,0.0231656,0.05920494,0.06298625,-0.01955404
0.9875015,-0.2012558,-0.2291523,-0.002520625,0.0007427655,0.01498031,0.06797968,0.06072675,-0.02235381
0.9865736,-0.1976422,-0.2339738,-0.003185293,0.004691975,0.01074531,0.04580566,0.03127382,-0.02890197
0.987975,-0.1969328,-0.2289176,-0.001521616,0.005732317,0.01638496,0.06278393,0.04215528,-0.02798357
0.9889407,-0.1938185,-0.2300285,-0.0002951063,0.009172014,0.01585237,0.05409532,0.02421537,-0.02604836
0.9881838,-0.1923491,-0.230822,-0.0007930941,0.01096039,0.01562992,0.04389656,0.02527311,-0.0213305
0.9900601,-0.1897944,-0.2280408,0.001339582,0.01382667,0.01897327,0.04897369,0.02897209,-0.02025431
0.9894809,-0.1949578,-0.2287757,0.00101364,0.008966528,0.01878967,0.03191508,0.008299781,-0.0182875
0.9925539,-0.2036941,-0.2281496,0.004336317,0.0005245884,0.01995451,0.04266339,0.01995378,-0.01352452
0.995081,-0.2022801,-0.2250011,0.007108929,0.002223463,0.02362768,0.0396749,0.01626713,-0.01240143
0.9942192,-0.1991637,-0.226797,0.006487854,0.005615033,0.02234078,0.03499277,0.0159693,-0.01284381
0.9956904,-0.1956404,-0.2277914,0.008194293,0.009403476,0.02183846,0.04283116,0.0253003,-0.01355629
0.99537,-0.1930688,-0.2273624,0.008103038,0.01222991,0.02274119,0.02513429,0.01368698,-0.00823292
0.9930439,-0.1900937,-0.2282116,0.0059994,0.01544909,0.02234631,0.01770023,0.00925075,-0.004296689
0.9898192,-0.1850753,-0.2264857,0.002990026,0.02069998,0.02450605,0.00781166,-0.006036812,-0.004037888
0.9885495,-0.1891065,-0.2261252,0.001928108,0.01688924,0.0252791,0.002348801,-0.01533653,0.001930949
0.9900026,-0.1951854,-0.2264087,0.003581438,0.011018,0.02538601,0.009152986,-0.01310702,0.005469982
0.9914656,-0.199544,-0.2261771,0.005236849,0.006853893,0.02598498,0.003782011,-0.0171365,0.001318098
0.9953426,-0.2021856,-0.2297837,0.009298262,0.004393596,0.02272221,0.008474355,-0.007742241,-0.003719576
0.9950864,-0.1987723,-0.2349858,0.009218182,0.007975151,0.01783982,0.008484169,-0.007978231,-0.004009924
0.990532,-0.200965,-0.2373104,0.004831313,0.005937822,0.01581069,0.005641618,-0.01150059,-0.004382392
0.9905524,-0.2035138,-0.2369854,0.005010469,0.00353166,0.01640705,0.01208942,-0.007547899,-0.002417722
0.9905385,-0.2009757,-0.2368936,0.005146394,0.006199933,0.01674611,0.00989641,-0.01623183,0.006510081
0.9897484,-0.2015979,-0.232741,0.00449726,0.005695738,0.02112224,0.01010609,-0.02263175,0.009756525
0.990502,-0.2002797,-0.2280142,0.005382995,0.007120032,0.02604874,0.009740296,-0.02800371,0.0120562
0.9890973,-0.1994985,-0.2307698,0.004101575,0.007995695,0.02346917,0.008700882,-0.03052164,0.01600629
0.9877656,-0.2004977,-0.2323254,0.002884273,0.007079451,0.02206593,0.009822901,-0.02655154,0.01364241
0.9887822,-0.1997213,-0.2331175,0.004006702,0.007927572,0.0214025,0.005014413,-0.02770798,0.01682998
0.9917482,-0.201553,-0.2355222,0.007070013,0.006156551,0.01910321,0.004211137,-0.02375716,0.02084113
0.9939924,-0.2041261,-0.234085,0.009402993,0.003633505,0.02062273,0.006643544,-0.02058715,0.0180001
0.9919801,-0.2086867,-0.2346191,0.007471055,-0.0008873834,0.02014837,0.0103495,-0.01751912,0.01591382
0.9899587,-0.2139039,-0.2343735,0.00552152,-0.006074588,0.02043157,0.01342877,-0.00849483,0.01187935
0.9901878,-0.2144291,-0.2326087,0.005814051,-0.006578802,0.02221227,0.01417306,-0.01240569,0.009379989
0.9893549,-0.2131344,-0.2359915,0.005036366,-0.005271101,0.01882413,0.01640976,-0.0185673,0.009797228
0.988385,-0.2095436,-0.238132,0.004113444,-0.001674516,0.01665744,0.01475601,-0.01800886,0.007891708
0.9881856,-0.2045138,-0.237642,0.003953204,0.00335441,0.01710122,0.01456786,-0.02155278,0.008569683
0.9880293,-0.202161,-0.2367601,0.003828478,0.005700208,0.01791755,0.01341197,-0.02423776,0.01174691
0.9884786,-0.2027017,-0.2371237,0.004301848,0.005146771,0.01746964,0.005463875,-0.03035859,0.01358749
0.9889482,-0.2031941,-0.2395623,0.004788496,0.004635858,0.01492868,-0.001128785,-0.03574542,0.014813
0.9888361,-0.2020111,-0.2402679,0.004686603,0.00579486,0.01410347,-0.006052101,-0.03099526,0.01520923
0.9883232,-0.2011587,-0.2436293,0.004177152,0.006618053,0.01060603,-0.008349331,-0.02857323,0.014254
0.9889092,-0.1995861,-0.2457394,0.004760319,0.008156244,0.00834442,-0.01498868,-0.02700138,0.01254689
0.9913784,-0.1994564,-0.2421356,0.007220428,0.008246554,0.0117822,-0.0236747,-0.02308311,0.01180808
0.9929817,-0.200768,-0.2419645,0.008808591,0.006890583,0.01177381,-0.02296162,-0.02519943,0.01142277
0.993243,-0.2004696,-0.2412247,0.009048881,0.007139649,0.01232143,-0.02569226,-0.02957574,0.007758806
0.992992,-0.2043941,-0.2367108,0.00877095,0.003161153,0.01663135,-0.02770249,-0.03543566,0.003414019
0.9917273,-0.2087128,-0.2341129,0.007473492,-0.001216076,0.0190142,-0.02238512,-0.04423711,0.004985432
0.9906499,-0.206303,-0.231249,0.006357559,0.00113109,0.02165227,-0.02191565,-0.0536804,0.008942434
0.9903197,-0.2029849,-0.2307053,0.00598321,0.004382943,0.0219598,-0.01758751,-0.06489596,0.01122683
0.992301,-0.2022,-0.2348651,0.007914934,0.00509827,0.01755381,-0.006279933,-0.07073107,0.01324703
0.9957314,-0.2028812,-0.2373157,0.01129058,0.004344292,0.01484752,0.003344007,-0.0649486,0.01035575
0.9970325,-0.2033788,-0.2384805,0.01253165,0.003770977,0.0134179,0.01319744,-0.05717349,0.004328531
0.9997869,-0.2041039,-0.2419154,0.01522078,0.002967435,0.009709722,0.02527256,-0.05413217,-0.0018608
1.005115,-0.2056966,-0.2444184,0.02047803,0.00129378,0.006925901,0.03572369,-0.046434,-0.01622431
1.007185,-0.2070065,-0.2449229,0.02247204,-9.925432e-05,0.006133714,0.0397307,-0.02544105,-0.03555983
1.006541,-0.2125443,-0.2458484,0.02174507,-0.005722011,0.004914784,0.04808878,0.005245602,-0.05378634
1.006586,-0.2191115,-0.2463669,0.02169993,-0.01237541,0.00409801,0.06022309,0.03160525,-0.07113669
1.003987,-0.2167648,-0.2465889,0.0190052,-0.0101154,0.003573637,0.06500612,0.04525582,-0.08137109
0.99829,-0.2120189,-0.251038,0.01320413,-0.005455937,-0.00118068,0.07570338,0.05159401,-0.08841931
0.9941972,-0.2097753,-0.2558634,0.009000157,-0.003297946,-0.006313378,0.08343295,0.04785985,-0.1014925
0.9886152,-0.2028854,-0.2526823,0.003300058,0.003507684,-0.003440477,0.07766062,0.03591639,-0.1113113
0.9809821,-0.1951451,-0.2498231,-0.004457658,0.01116508,-0.0008891658,0.07939677,0.0252466,-0.108759
0.9771076,-0.1906592,-0.2534553,-0.008462516,0.01556916,-0.004827995,0.08119828,0.01701861,-0.1042653
0.9759645,-0.1854149,-0.2562089,-0.009740509,0.02073228,-0.007886079,0.07670483,0.01923922,-0.09703978
0.9759509,-0.1797983,-0.2581542,-0.009892444,0.02626742,-0.01013275,0.07389431,0.02075706,-0.07559018
0.9758408,-0.170427,-0.2588002,-0.01014321,0.03555623,-0.01107583,0.05744349,0.01229947,-0.05351281
0.9760434,-0.1576036,-0.2560298,-0.01008263,0.04829454,-0.008597336,0.0278989,0.009540394,-0.03840452
0.9828443,-0.1545218,-0.254815,-0.003423986,0.05128708,-0.007668333,-0.004274162,0.00021676,-0.02780679
0.993448,-0.1614563,-0.2549785,0.007037906,0.04425723,-0.008110696,-0.0364376,-0.01070919,-0.02028066
0.9969123,-0.1670653,-0.2553585,0.01036101,0.03854507,-0.008761925,-0.06191714,-0.003210995,-0.01059572
0.9957023,-0.1756097,-0.2583928,0.009010432,0.02988843,-0.01205917,-0.08443306,0.0004548957,-0.01811638
0.9986922,-0.1876686,-0.259563,0.01186023,0.01770739,-0.01348349,-0.09982363,-0.0002002641,-0.0301673
1.00093,-0.1907581,-0.2526231,0.01395847,0.01448575,-0.006788058,-0.1003479,0.007435839,-0.02902007
0.9978446,-0.1908169,-0.2420109,0.01073311,0.01428491,0.003589572,-0.09054867,0.01567084,-0.04237001
0.9926034,-0.1919343,-0.2359729,0.005351971,0.01301586,0.009402973,-0.07105993,0.02815179,-0.05109137
0.9878017,-0.1873765,-0.2345389,0.0004100892,0.01741299,0.01062195,-0.05127133,0.03426042,-0.04766078
0.9888649,-0.186001,-0.2368136,0.00133308,0.01861897,0.008141259,-0.03541784,0.02638813,-0.05345149
0.9934895,-0.1852963,-0.241353,0.00581775,0.01914538,0.003404413,-0.02241501,0.02326753,-0.05314898
0.9943378,-0.1788033,-0.2440467,0.006526625,0.02545173,0.0005213753,-0.02228512,0.02155015,-0.05305713
0.9908083,-0.175548,-0.2491793,0.002858254,0.02851168,-0.004792623,-0.02174229,0.01259505,-0.05118068
0.9856184,-0.1719174,-0.2540694,-0.002469827,0.03193819,-0.00985615,-0.02102213,0.005501386,-0.04061278
0.9856824,-0.1671579,-0.2514289,-0.00254311,0.03648438,-0.007380925,-0.03710425,-0.002176395,-0.03460197
0.9897459,-0.1667157,-0.2480706,0.001384507,0.03670368,-0.004179301,-0.04680464,-0.00952726,-0.02875982
0.9907059,-0.1652112,-0.2452019,0.002210314,0.03797501,-0.001458799,-0.04744455,-0.01375442,-0.03105591
0.9916829,-0.1663912,-0.2437813,0.003054875,0.03655116,-0.0001779449,-0.05365795,-0.02397704,-0.03870675
0.996356,-0.1757769,-0.2437774,0.007597499,0.02691036,-0.0003053841,-0.04796248,-0.02988415,-0.04363468
1.001424,-0.1849153,-0.2394125,0.01253712,0.01750571,0.003936343,-0.02643947,-0.01960996,-0.0553095
0.9987806,-0.188523,-0.2427799,0.009766229,0.01362083,0.0004534022,-0.002947935,-0.004280249,-0.06416365
0.9913209,-0.190884,-0.250178,0.002180744,0.01097252,-0.00705267,0.003785473,0.004001962,-0.06701514
0.9878421,-0.1870547,-0.2511288,-0.00142273,0.0145052,-0.008104065,-0.004010241,0.001713198,-0.06047232
0.9826089,-0.1750134,-0.2573349,-0.006778986,0.0262413,-0.01440333,9.016423e-05,-0.001047378,-0.03952961
0.9804221,-0.1728848,-0.2602083,-0.009087,0.02805643,-0.01736204,0.01050897,0.001404804,-0.02079164
0.985968,-0.1789638,-0.2580866,-0.003659959,0.02165602,-0.01531738,0.0216857,-0.0003795473,-0.009487333
0.9867543,-0.1795274,-0.2610179,-0.002989484,0.02076319,-0.01831703,0.03769729,-0.004402124,-0.004717429
0.9861264,-0.1809466,-0.2582392,-0.003730128,0.01900736,-0.01559752,0.0434029,-0.00514554,-0.005519103
0.9882045,-0.1800933,-0.255162,-0.001761268,0.01951692,-0.01257014,0.04593207,-0.002949927,-0.005394586
0.9890247,-0.1740185,-0.2553454,-0.001046694,0.02524139,-0.01279371,0.05142922,0.00453232,-0.005032159
0.9896619,-0.1693716,-0.2538215,-0.0005113787,0.0295316,-0.01130021,0.04614536,0.0103713,-0.002888366
0.9895735,-0.1631242,-0.2590361,-0.0006977899,0.03541593,-0.01653542,0.03633547,0.01073977,0.002404826
0.9927288,-0.1554123,-0.2620383,0.002363182,0.04275818,-0.01954841,0.02936398,0.01003687,0.009114104
0.996342,-0.1511399,-0.25576,0.005885844,0.04665385,-0.0132709,0.02078001,0.00595,0.01270714
0.9974853,-0.1564711,-0.2486378,0.006942033,0.04093818,-0.006139455,0.0133403,0.003418001,0.01258553
0.9995644,-0.1639058,-0.2423417,0.008937268,0.03311067,0.0001758,0.01217359,0.00740286,0.01605905
0.997829,-0.1616003,-0.2372231,0.007120699,0.0350147,0.005322745,0.01057057,0.0102764,0.0172579
0.9945148,-0.1573882,-0.2324936,0.003727813,0.03881653,0.01008886,0.003594428,0.006216457,0.01733021
0.9929718,-0.1502356,-0.2300739,0.002108154,0.04555007,0.01255252,-0.001030224,0.0006979377,0.0245558
0.9948527,-0.1442828,-0.2322376,0.003914522,0.05107448,0.01043889,-0.004465117,0.002842429,0.02793965
1.001813,-0.1495348,-0.2371205,0.01080197,0.04538427,0.005610902,-0.008790809,0.008482895,0.02777955
1.002844,-0.1534624,-0.2424815,0.01176209,0.041008,0.000308939,-0.01119615,0.01615234,0.02944467
0.9961732,-0.1556757,-0.2443905,0.005021418,0.03833544,-0.001537713,-0.01225211,0.02456598,0.02841116
0.9914497,-0.1594485,-0.2402813,0.0002287776,0.0340927,0.002636871,-0.006018538,0.01913044,0.02990435
0.9940626,-0.1597237,-0.2331124,0.002773423,0.033337,0.009873683,0.005398129,0.009670062,0.03041562
0.9976565,-0.1606551,-0.2347932,0.006299893,0.03191505,0.008262549,0.01417927,0.007764254,0.02375181
0.992854,-0.1631187,-0.2407858,0.001430624,0.02895116,0.002340795,0.01788456,-0.005286797,0.01967125
0.9891002,-0.1688963,-0.2391394,-0.002389168,0.02266397,0.004058567,0.01870884,-0.02231808,0.02114098
0.9898089,-0.1730574,-0.2410437,-0.001745635,0.01798488,0.002225727,0.02303913,-0.02504491,0.02238057
0.9916194,-0.1695591,-0.2449918,7.137481e-07,0.02095756,-0.001651029,0.02453203,-0.03408356,0.02416131
0.9960262,-0.1659875,-0.2443202,0.004344443,0.02399696,-0.000908548,0.02529834,-0.04342413,0.03423928
0.9936222,-0.1614048,-0.2452619,0.001878554,0.02804165,-0.00177991,0.02813118,-0.02919961,0.050306
0.9899169,-0.157705,-0.2437167,-0.001887511,0.03119811,-0.0001649654,0.01692044,-0.02265131,0.05889169
0.9928049,-0.1595054,-0.2393842,0.0009409344,0.0288495,0.004236545,0.001675481,-0.02796998,0.06239146
0.9940723,-0.156578,-0.2363877,0.002150026,0.03122413,0.007301019,-0.006364992,-0.02406733,0.06612078
0.9952639,-0.1499131,-0.235964,0.003284496,0.03733185,0.007791371,-0.02128794,-0.03155544,0.06722389
0.9974612,-0.14543,-0.2380412,0.005425907,0.0412535,0.005778872,-0.04358271,-0.0365821,0.06935535
1.002483,-0.1414456,-0.2418519,0.01039315,0.04467199,0.002030792,-0.06307289,-0.02560165,0.06845275
1.007904,-0.1493995,-0.2468137,0.01575941,0.03614751,-0.002870845,-0.07178228,-0.01161707,0.0637786
1.004371,-0.169382,-0.2422182,0.01217228,0.01558962,0.001782472,-0.07147139,0.0130219,0.0610199
1.001486,-0.1778849,-0.2323224,0.00923298,0.006507153,0.01173361,-0.06851871,0.01778551,0.05376381
1.00157,-0.1724008,-0.2280221,0.009261074,0.01140875,0.01608641,-0.06293922,-0.0005080081,0.04494277
0.9978045,-0.1704301,-0.2194766,0.005439339,0.0127952,0.02468102,-0.05898447,-0.005828453,0.04213948
0.9963114,-0.1733797,-0.2150287,0.003888555,0.009260827,0.02917367,-0.05441638,-0.0121196,0.04329081
0.9960918,-0.1738981,-0.2217854,0.003610142,0.008158232,0.02245622,-0.04473455,-0.01279367,0.04325775
0.9966662,-0.1764434,-0.2225039,0.00412445,0.005030258,0.02177053,-0.03515695,-0.003970594,0.03915093
1.00068,-0.1829365,-0.2214073,0.008076765,-0.00204268,0.02289259,-0.02429565,-0.002201018,0.035132
1.002037,-0.1837242,-0.2232206,0.009371902,-0.003406071,0.02109685,-0.01569806,0.008260691,0.02953986
1.000355,-0.1790815,-0.2215557,0.007625421,0.0006663279,0.02277068,-0.01635696,0.01591081,0.02500219
0.9990401,-0.1744764,-0.2233698,0.006245422,0.00470786,0.02095636,-0.01856105,0.0153306,0.02437344
0.9971182,-0.1685166,-0.2285524,0.004256625,0.01011161,0.0157641,-0.02480568,0.01761733,0.02348547
0.9943964,-0.1641974,-0.234216,0.001466289,0.01388292,0.01008102,-0.03829972,0.009475955,0.02906369
0.993624,-0.1664038,-0.2376276,0.0006240078,0.0111371,0.006640336,-0.04502328,0.005022451,0.03247216
0.9949898,-0.1721786,-0.2374882,0.00191868,0.004831668,0.006741252,-0.04967089,0.009170259,0.02851119
0.9944952,-0.1749795,-0.2407556,0.001352038,0.001509393,0.003426479,-0.06017892,0.008737048,0.02766379
0.9941844,-0.1792678,-0.2420708,0.0009682907,-0.003290581,0.002055573,-0.06671066,0.01626096,0.01889782
0.9963343,-0.1846475,-0.2463696,0.003044781,-0.009171413,-0.002306726,-0.07151497,0.02840597,0.007821225
0.9983869,-0.1837065,-0.2551605,0.005023358,-0.008720082,-0.01116814,-0.07452735,0.03993375,0.008332748
0.9999464,-0.1888152,-0.2494482,0.006508505,-0.0143061,-0.005532322,-0.07058369,0.05887034,0.008002412
0.9980293,-0.1963902,-0.2420655,0.004516449,-0.02234499,0.001768905,-0.06323293,0.06965288,0.006281132
0.9939046,-0.1927603,-0.2411631,0.0003164161,-0.0191643,0.002585569,-0.04648897,0.06282468,0.006091149
0.9918383,-0.1918243,-0.233952,-0.001825628,-0.01866175,0.00970703,-0.02607848,0.060966,-0.001057148
0.9910245,-0.1926449,-0.2279923,-0.002715286,-0.01989895,0.01557342,-0.01536461,0.06881681,-0.01158885
0.9935723,-0.1825578,-0.2249294,-0.0002432081,-0.01021063,0.01853926,-0.006904877,0.06882405,-0.0177112
0.9973078,-0.1677863,-0.2248378,0.003417011,0.004180207,0.01852968,-0.001177681,0.06600122,-0.02211046
0.9987417,-0.1597372,-0.2225907,0.004776132,0.01186667,0.02067112,-0.004598703,0.05963471,-0.02535761
0.9972184,-0.1614415,-0.2110157,0.003178598,0.009817261,0.03213548,-0.006910477,0.03977724,-0.02128895
0.9925029,-0.1631672,-0.2073451,-0.001610592,0.007763087,0.03568982,0.0007675862,0.01248255,-0.01050085
0.9915308,-0.1657126,-0.2108361,-0.00265576,0.004905067,0.032076,0.01411982,-0.01776586,0.003011578
0.9926938,-0.1733219,-0.2164912,-0.001564966,-0.003001577,0.02629063,0.02745129,-0.03471192,0.009415624
0.9936495,-0.1738631,-0.2257606,-0.0006804377,-0.003825131,0.01688292,0.03929802,-0.03823626,0.004442355
0.9973084,-0.1712698,-0.2243187,0.002908588,-0.001499488,0.01817833,0.04727324,-0.04326677,0.003344138
0.997029,-0.1737401,-0.223499,0.002560594,-0.004222966,0.01884334,0.04954838,-0.03897,0.001098651
0.9970112,-0.1721239,-0.2293945,0.002475468,-0.00284545,0.01278506,0.04625969,-0.03561311,-0.006611729
1.000884,-0.1697066,-0.225653,0.006281964,-0.0006528431,0.01635592,0.04487198,-0.03891084,-0.003188873
1.001303,-0.1687579,-0.2189528,0.006635698,8.493169e-05,0.02287773,0.04729615,-0.03375626,-0.0007178727
0.9998563,-0.1633545,-0.2166871,0.005125371,0.005290821,0.02495743,0.04451046,-0.03206269,-0.003711382
0.9979224,-0.1592792,-0.2209525,0.003128032,0.009181295,0.02049835,0.03876821,-0.03341697,-0.0009088109
0.9983201,-0.1563474,-0.2285325,0.003462869,0.01194034,0.01271683,0.03010663,-0.03072562,-0.000750069
1.000423,-0.1551945,-0.2286192,0.005503292,0.01293151,0.01242119,0.01944765,-0.02480128,-0.0004289818
0.9996364,-0.1566233,-0.2317162,0.004655005,0.01135113,0.009108077,0.007063414,-0.01026207,0.001078095
1.000157,-0.1536034,-0.2375629,0.005114472,0.01422848,0.003038816,-0.01355684,-0.003302506,0.0009700937
0.9996856,-0.1555652,-0.2331501,0.004581305,0.01213244,0.007223339,-0.02361196,-0.009898768,0.006725105
0.9968275,-0.1617192,-0.2319682,0.001662002,0.00585149,0.008171836,-0.02686368,-0.0126654,0.01552436
0.9955102,-0.1617951,-0.2347878,0.000283703,0.00565529,0.005114464,-0.04120976,-0.009730759,0.02434228
0.9948954,-0.1654307,-0.2332115,-0.0003919639,0.0019057,0.006449308,-0.04493508,-0.00827304,0.02647493
0.9946097,-0.1715459,-0.2369698,-0.0007380477,-0.004317623,0.002446342,-0.04492279,-0.007747533,0.02364924
0.9925114,-0.1732178,-0.2404842,-0.002896237,-0.006091793,-0.001315139,-0.04988646,-0.005645555,0.02944973
0.9926862,-0.1733153,-0.2377134,-0.002780647,-0.006285591,0.001206939,-0.04217562,-0.006323826,0.03383217
0.9959039,-0.1769452,-0.2341687,0.0003790167,-0.01000575,0.004502146,-0.03753249,-0.01049939,0.03085206
0.9955881,-0.1864757,-0.2314589,6.223475e-06,-0.01962008,0.00696203,-0.03404071,-0.01629319,0.03002603
0.9948932,-0.1889951,-0.235212,-0.0007444926,-0.02221646,0.002959233,-0.02267409,-0.01988123,0.03191363
0.9934385,-0.1826161,-0.2413105,-0.002253631,-0.01590677,-0.003388248,-0.02014066,-0.01747162,0.03686404
0.9918403,-0.1788528,-0.2435339,-0.003904746,-0.01220475,-0.005859428,-0.01721859,-0.01963289,0.0404751
0.9919081,-0.1771066,-0.2444735,-0.003888295,-0.01051126,-0.00704469,-0.01246199,-0.02550232,0.0386935
0.990245,-0.1751809,-0.2365394,-0.005600895,-0.008629633,0.0006465788,-0.01152672,-0.02796218,0.03895373
0.993612,-0.1728114,-0.2234332,-0.00228129,-0.006295575,0.01351332,-0.007082142,-0.03313096,0.04431504
0.9986693,-0.1732515,-0.2222822,0.002730895,-0.006762596,0.01442844,-0.006712093,-0.04502408,0.05150321
0.9974459,-0.1749385,-0.2229241,0.001464478,-0.008468316,0.01355378,-0.004196599,-0.06199844,0.05937516
0.9972388,-0.1725188,-0.2171328,0.001216554,-0.006059223,0.01911526,0.005752204,-0.0680577,0.06496495
0.9974872,-0.173149,-0.2192374,0.001426099,-0.006692045,0.01678338,0.0134833,-0.06859731,0.06528182
0.9952838,-0.1782505,-0.2210795,-0.0008143435,-0.01178845,0.01471595,0.02681447,-0.08106649,0.06233858
0.9953471,-0.1823703,-0.2178228,-0.0007862001,-0.0158954,0.01774903,0.05451554,-0.08313698,0.05435427
0.9973296,-0.1843225,-0.2217867,0.0011629,-0.01782706,0.01356284,0.08288822,-0.07548181,0.03906592
1.001368,-0.184219,-0.2284782,0.005169373,-0.01769504,0.006650099,0.0929732,-0.06484305,0.02173832
1.010143,-0.1838599,-0.2370598,0.01391453,-0.01729917,-0.002151553,0.09411427,-0.02725886,0.004354496
1.014816,-0.17889,-0.2387587,0.01855875,-0.01228413,-0.00406894,0.0911687,0.009988878,-0.009220085
1.008896,-0.1667352,-0.2263195,0.01260928,-7.579436e-05,0.008153635,0.06945499,0.02020974,-0.01276541
1.004076,-0.1536315,-0.2201553,0.007759693,0.01308936,0.01410366,0.0352786,0.02266544,-0.01267625
1.002267,-0.144001,-0.2220538,0.005920539,0.02278809,0.01199319,0.001537407,0.01811098,-0.008054255
0.9983587,-0.1398995,-0.2227051,0.001981014,0.02696304,0.0111319,-0.02049255,0.007040948,0.01028682
0.9978276,-0.1439134,-0.2225852,0.001417366,0.02302604,0.01104369,-0.03707236,-0.004034181,0.02682242
0.9974806,-0.1556554,-0.2224137,0.001036783,0.01136284,0.01100881,-0.05737426,-0.008380385,0.02420367
0.9954346,-0.1708927,-0.2252137,-0.001043884,-0.00379497,0.008004011,-0.06210349,-0.001781172,0.01683376
0.9960751,-0.1835607,-0.2279191,-0.0004387763,-0.01638326,0.005095363,-0.05788722,0.003676315,0.01814658
0.9954806,-0.187971,-0.2338517,-0.001069255,-0.02071348,-0.001038759,-0.05036365,0.01263011,0.01785624
0.9937575,-0.1906323,-0.2406817,-0.002828779,-0.02329359,-0.008068176,-0.03072964,0.01820572,0.01536347
0.992553,-0.1951389,-0.2387513,-0.004069973,-0.02771717,-0.006334709,-0.01884763,0.01248013,0.01638314
0.9907708,-0.1929342,-0.2321947,-0.005888676,-0.02542651,2.837703e-05,-0.01070559,0.01312232,0.01165545
0.9901924,-0.1910307,-0.2244928,-0.006503185,-0.0234334,0.007540307,0.0003467119,0.00902975,0.005338886
0.9903902,-0.1896924,-0.2243372,-0.006340676,-0.02200098,0.007509764,0.003474858,0.003453312,0.004626543
0.9924845,-0.1824298,-0.2270347,-0.004280499,-0.01463923,0.004629853,0.00591093,0.004634898,0.002594475
0.9958187,-0.1802994,-0.2214665,-0.000978923,-0.01240443,0.0100192,0.003354499,-0.005057443,0.0006295184
0.9971119,-0.1794104,-0.2207434,0.0002831356,-0.01140554,0.01056685,-0.00112482,-0.009216228,0.0008102727
0.9971728,-0.1769826,-0.219837,0.0003144832,-0.008862632,0.01130093,0.001436161,-0.005419997,0.002701056
0.9953632,-0.1796542,-0.2171418,-0.001523066,-0.01141389,0.01382667,-0.0007868913,-0.006056179,0.006991268
0.993898,-0.1805235,-0.2245356,-0.003014661,-0.01215784,0.006265774,-0.004641858,-0.00425372,0.01074673
0.9954082,-0.1818414,-0.2275082,-0.001529344,-0.01334553,0.00312838,-0.005196377,-0.005342852,0.008068342
0.9959391,-0.1826386,-0.2283299,-0.001021611,-0.01400774,0.002144246,-0.00802827,-0.006313389,0.0001784254
0.9940185,-0.1785712,-0.2344389,-0.002963712,-0.009800425,-0.004124881,-0.008585688,-0.006247405,-0.001260645
0.9923151,-0.1791433,-0.2349591,-0.004686892,-0.01022809,-0.004802413,-0.006932131,-0.005248133,-0.0004430112
0.993335,-0.1830753,-0.2361357,-0.003684854,-0.01401109,-0.006133159,-0.005979719,0.000194543,-0.001492424
0.9953028,-0.1863993,-0.2387151,-0.001733048,-0.01718166,-0.008863083,0.0007813877,0.0002029155,0.0008803771
0.9959926,-0.1891314,-0.2367862,-0.001057147,-0.01975581,-0.007080502,0.008967867,-0.0007940893,0.0008114797
0.9961598,-0.1890425,-0.2353571,-0.0009019229,-0.0195044,-0.005793057,0.006635895,-0.001567958,-0.0002760228
0.99555,-0.1901862,-0.2335933,-0.001521693,-0.02048064,-0.004165859,0.004578674,-0.004498586,-0.0007283111
0.9957961,-0.1899989,-0.2326193,-0.001283829,-0.02012087,-0.003323255,0.01151195,-0.002943893,-0.0008110337
0.9961293,-0.186968,-0.2341015,-0.0009569463,-0.01691222,-0.004931208,0.0152225,0.0002804759,0.0008731455
0.9954981,-0.1873477,-0.2351074,-0.001592668,-0.01710882,-0.006057353,0.01609324,0.00671183,-0.001706815
0.9960169,-0.187872,-0.2364505,-0.001076735,-0.0174447,-0.007514709,0.01721083,0.01172754,-0.003846541
0.9958698,-0.1858852,-0.2356535,-0.001224982,-0.01526407,-0.006825906,0.01519616,0.01030298,-0.004450994
0.9956306,-0.1812951,-0.2311095,-0.001463722,-0.01047496,-0.002383806,0.01444938,0.01076483,-0.006464208
0.9955482,-0.1745815,-0.227474,-0.001544112,-0.003557338,0.001156044,0.01270333,0.0111608,-0.00525226
0.9929713,-0.1734579,-0.2261033,-0.00411743,-0.002225348,0.002437347,0.01053397,0.008368602,-0.003969351
0.9916118,-0.1746145,-0.2249136,-0.005471782,-0.003169857,0.003543535,0.01186186,0.005434941,-0.002267121
0.9949992,-0.1730657,-0.2247682,-0.002077606,-0.001406035,0.003610947,0.009944482,0.002974678,-0.001758587
0.9987813,-0.1751567,-0.2271424,0.001712927,-0.003279584,0.00116391,0.007579873,0.001657735,-0.006059054
0.9971456,-0.1757315,-0.2284852,8.724108e-05,-0.003635355,-0.0002467121,0.01087019,0.001205611,-0.006420193
0.9943759,-0.1725019,-0.2275517,-0.002670927,-0.0001855408,0.0006235876,0.01780274,-0.00125711,-0.003724666
0.9953893,-0.1736533,-0.226287,-0.001644754,-0.00111614,0.001829578,0.02547758,-0.004828664,-0.005009125
0.9979013,-0.1751171,-0.220781,0.0008813279,-0.002359279,0.007281121,0.02718154,-0.002115331,-0.006380231
1.002291,-0.1747652,-0.2143421,0.005286588,-0.001787295,0.01366942,0.0283943,0.004118525,-0.009528223
1.004294,-0.174956,-0.216094,0.007305468,-0.001758941,0.01187003,0.03449474,0.009539632,-0.01731352
1.003473,-0.1730476,-0.2191725,0.006501013,0.0003670033,0.0087465,0.03289446,0.0175146,-0.02220834
1.004716,-0.1716233,-0.2182145,0.007760552,0.00200696,0.009661434,0.0297559,0.01855067,-0.02455647
1.003153,-0.1720281,-0.2207547,0.006213534,0.001815458,0.007079516,0.0312169,0.01213189,-0.02392748
1.001621,-0.1717058,-0.2217543,0.004697244,0.002348023,0.006039143,0.02428861,0.01077913,-0.01771034
1.001666,-0.1712106,-0.2165965,0.004757193,0.0030501,0.01115682,0.01734362,0.008338115,-0.01592675
0.9990842,-0.1713858,-0.2161532,0.002188568,0.003077941,0.01156021,0.0151999,0.001487148,-0.01442634
0.9998016,-0.1706838,-0.2178272,0.002917864,0.003978671,0.009846069,0.01026631,-0.002308423,-0.00750562
1.000698,-0.1685357,-0.2167456,0.003825218,0.006320743,0.01088686,0.007014716,-0.0005948595,-0.004733944
0.9993648,-0.1679253,-0.2211718,0.002500599,0.007119987,0.006418905,0.004192057,0.006137863,-0.005182896
1.000667,-0.1698113,-0.2251473,0.003810727,0.005417197,0.002400478,0.002076005,0.01057844,-0.005913315
1.00181,-0.1741904,-0.2217182,0.004958808,0.001215174,0.005785289,0.002590111,0.01246241,-0.006846343
1.003089,-0.1780041,-0.2199923,0.006241393,-0.002427531,0.007465481,0.003954865,0.01567499,-0.008524246
1.003108,-0.176171,-0.2229083,0.006263216,-0.000429797,0.004502426,0.007214215,0.01563849,-0.00971227
1.000875,-0.1737407,-0.2237895,0.004030017,0.002158925,0.003572742,0.009386637,0.01483506,-0.006687256
0.9996487,-0.173361,-0.2185833,0.002800916,0.002690801,0.008728881,0.01060153,0.01239665,-0.005141944
0.9980554,-0.17148,-0.2104487,0.001202952,0.004717745,0.01681184,0.01263394,0.002287841,-0.003411245
0.9982657,-0.170451,-0.2074166,0.001406512,0.005886181,0.01979032,0.0146271,-0.006592849,-0.001567106
0.9992736,-0.1709452,-0.2148211,0.002405404,0.005524791,0.01232964,0.01072394,-0.006849139,-0.002802148
0.9981693,-0.1718272,-0.2256115,0.001290188,0.004768717,0.001480027,0.003688762,-0.006342047,0.003725312
0.9989994,-0.1714913,-0.2274714,0.002107457,0.005223727,-0.0004420348,0.005920508,-0.00572946,0.008852461
1.000854,-0.1666129,-0.2214328,0.003947569,0.01021418,0.005531715,0.006525646,-0.0001572936,0.003489668
1.002463,-0.1612946,-0.2149635,0.005539873,0.01563732,0.01193361,0.0005122419,0.001117665,0.001678448
1.003521,-0.1616734,-0.2124427,0.006579637,0.01535566,0.01438441,-0.001162528,2.077579e-05,0.00125344
1.002409,-0.1637496,-0.2148429,0.005447501,0.01336849,0.01191129,-0.001560268,0.002993564,0.00037958
1.002478,-0.1630368,-0.2179319,0.005493839,0.01416176,0.008746404,-0.002018682,-0.001088041,0.004606572
1.002096,-0.1643141,-0.219675,0.005086576,0.01295613,0.006924179,-0.003544765,-0.006368501,0.005670538
0.9998444,-0.1673442,-0.2181245,0.002808256,0.009988634,0.008392445,-0.006884901,-0.007074528,0.004832828
0.9998048,-0.1681808,-0.2144581,0.002739523,0.009205441,0.01197345,-0.0101204,-0.01195513,0.006239305
1.00015,-0.1687289,-0.2142966,0.003053185,0.008701695,0.01204636,-0.01153867,-0.01497352,0.008082566
0.9998986,-0.1686629,-0.2119932,0.002768898,0.008802871,0.01425783,-0.007059633,-0.01684633,0.01337194
1.000099,-0.1696352,-0.206307,0.002933774,0.00785677,0.01984854,-0.004524785,-0.02187994,0.01354401
1.000084,-0.1710392,-0.2072441,0.002881847,0.006470095,0.01881201,-0.005620649,-0.02581581,0.01004001
1.000772,-0.1703796,-0.2132296,0.003531026,0.007138488,0.0127229,-0.005868814,-0.02880917,0.01304779
1.000777,-0.1710169,-0.2175026,0.003495986,0.006501687,0.008341812,-0.009011038,-0.02384368,0.01249358
0.9997623,-0.1693109,-0.217344,0.00243911,0.008199934,0.008387889,-0.01038809,-0.01482835,0.009932759
0.9997881,-0.1651019,-0.2141226,0.002421272,0.01239335,0.01149245,-0.01086718,-0.01384179,0.01011971
1.000576,-0.163296,-0.2116608,0.003164534,0.01417585,0.01383334,-0.01558827,-0.01269385,0.007856773
1.00177,-0.1636343,-0.2089523,0.004311844,0.01380625,0.01641663,-0.01892371,-0.01113094,0.007311641
1.003357,-0.1664214,-0.2093949,0.005850828,0.01098003,0.0158446,-0.02005292,-0.01323232,0.002510384
1.004224,-0.1676137,-0.2142848,0.00666877,0.009740713,0.01082082,-0.02286923,-0.008128773,-0.005434318
1.004854,-0.1690456,-0.2177802,0.007248454,0.008254188,0.007187167,-0.02369538,0.006092321,-0.005164962
1.006255,-0.1716381,-0.2201691,0.00859699,0.005599575,0.004655753,-0.0214914,0.02450234,-0.006768504
1.00657,-0.1690239,-0.2182348,0.008857849,0.008144563,0.00644381,-0.02294572,0.03658358,-0.0137508
1.005852,-0.1672361,-0.215251,0.008083851,0.009856291,0.009277758,-0.02528551,0.03641363,-0.01743093
1.002285,-0.1698667,-0.2194208,0.004459455,0.007143213,0.004955076,-0.02956977,0.03557714,-0.01679016
0.994023,-0.1741938,-0.2223657,-0.003862633,0.002727368,0.001854326,-0.03502291,0.03280908,-0.01074071
0.988986,-0.1805344,-0.222857,-0.008961119,-0.003707723,0.00120484,-0.02527657,0.02567236,-0.004937828
0.9878951,-0.1862476,-0.223698,-0.01011467,-0.009520428,0.0002036784,-0.01159553,0.01557564,-0.003109226
0.9867006,-0.1887631,-0.2220488,-0.01137218,-0.01213953,0.001691463,-0.009043816,-0.005197531,0.003352935
0.9885628,-0.1867971,-0.2221499,-0.009572675,-0.01028018,0.001427882,-0.003931966,-0.0256811,0.01051896
0.9913126,-0.1831398,-0.2218323,-0.006884496,-0.006731426,0.001582728,0.003508024,-0.036588,0.01106366
0.9934182,-0.1804646,-0.2215302,-0.004838949,-0.004165798,0.0017219,0.004811111,-0.04405208,0.01659169
0.9930896,-0.1788236,-0.2215561,-0.00522574,-0.002634817,0.001533421,0.005769513,-0.05382597,0.02782243
0.9908792,-0.176487,-0.2137683,-0.007492192,-0.0004081417,0.009159248,0.01069443,-0.06685805,0.03102441
0.9954384,-0.1712187,-0.2070143,-0.002986518,0.004750641,0.01575194,0.01351336,-0.06818318,0.03125177
1.002516,-0.1700668,-0.2095535,0.004040313,0.005793661,0.0130519,0.01114842,-0.05569075,0.03221455
1.007838,-0.1718087,-0.2120973,0.009314231,0.003943591,0.01034755,0.007552688,-0.03643961,0.02344377
1.013682,-0.1692667,-0.2137521,0.01511164,0.006377996,0.008532142,0.001413609,-0.01150926,0.006200355
1.015504,-0.1690309,-0.223332,0.0168892,0.006506811,-0.001208199,-0.004714552,0.003494733,-0.01153928
1.014875,-0.1702032,-0.2323328,0.01621696,0.005228086,-0.01036925,-0.007224477,0.01384589,-0.02259821
1.011615,-0.168921,-0.2246256,0.01291284,0.006404407,-0.002821313,-0.01123201,0.03431795,-0.03056259
1.002795,-0.1674608,-0.2121786,0.004049225,0.007759052,0.009467983,-0.01362876,0.04241016,-0.03845071
0.9917409,-0.1648115,-0.2097723,-0.007050109,0.01030312,0.01171813,-0.01095591,0.02206605,-0.02948025
0.983277,-0.1651535,-0.2109086,-0.01555956,0.009856047,0.01042735,-0.008259113,-0.01083264,-0.01241016
0.9845627,-0.1649343,-0.2116639,-0.01431922,0.009970067,0.009518698,-6.11171e-05,-0.03919232,0.001293733
0.9919608,-0.1621507,-0.2125019,-0.006965644,0.01264812,0.008528535,0.01082925,-0.05648315,0.01960361
0.9996844,-0.1646213,-0.217766,0.0007149943,0.01007136,0.003113329,0.009871621,-0.05825452,0.02541273
1.006668,-0.1648417,-0.2244585,0.007657118,0.009743942,-0.003729286,0.01028091,-0.04841908,0.02466165
1.006707,-0.1649478,-0.2199304,0.007656087,0.009529912,0.0006501306,0.0180054,-0.04204887,0.02768122
1.006823,-0.1709586,-0.214539,0.007733404,0.003410084,0.005894448,0.01482954,-0.03442065,0.01827553
1.009584,-0.1709845,-0.2183961,0.01045637,0.003273981,0.001892154,0.008207379,-0.01346668,0.008755845
1.005703,-0.167477,-0.2224098,0.006537658,0.006670524,-0.002264795,0.00392245,0.007488125,-0.0002161276
1.002672,-0.1653501,-0.2256995,0.003469841,0.008685532,-0.005695584,-0.00304366,0.01480888,-0.009208192
1.002972,-0.1644738,-0.2253558,0.003731895,0.009449167,-0.00549023,-0.00325499,0.01694886,-0.006321092
1.002061,-0.1675239,-0.2218682,0.002782273,0.006285565,-0.002137992,-0.005120838,0.02811544,-0.01006426
1.002137,-0.1694443,-0.2236263,0.002820307,0.004250709,-0.004028103,-0.01724774,0.03545177,-0.01629028
1.000031,-0.1713349,-0.2225991,0.0006760983,0.002244902,-0.003129094,-0.02498027,0.02636636,-0.01506272
0.9979934,-0.1716399,-0.2188254,-0.001400576,0.001823988,0.0005202971,-0.02324079,0.0118247,-0.01751454
0.9971716,-0.1697148,-0.2202789,-0.002261359,0.003632863,-0.001053468,-0.01874206,-0.01014632,-0.0154268
0.9948997,-0.1712651,-0.2214274,-0.00457215,0.001966248,-0.002318,-0.01354434,-0.02422213,-0.007531813
0.995781,-0.1700672,-0.2238124,-0.003729356,0.00304775,-0.004814874,-0.006239753,-0.01901946,-0.0005208081
0.996946,-0.1694336,-0.2250482,-0.002602194,0.003565189,-0.006157968,0.0001209296,-0.02037606,0.006500213
0.9981125,-0.1745264,-0.2220938,-0.001472694,-0.001643366,-0.003306306,0.005235134,-0.0215448,0.009350007
1.002012,-0.1774882,-0.2232063,0.002391288,-0.004720297,-0.004516693,0.008520249,-0.01400576,0.005139191
1.001996,-0.1768971,-0.2234843,0.002339613,-0.004243291,-0.004887612,0.006953455,-0.01184024,-0.002346127
1.000653,-0.1755747,-0.222781,0.0009623626,-0.00303354,-0.004272087,0.008565669,-0.009005304,-0.008991694
1.001762,-0.1764062,-0.2248558,0.002038728,-0.003975822,-0.006429377,0.009438574,-0.0009467868,-0.01967898
1.001406,-0.1758171,-0.2236383,0.001650431,-0.003495219,-0.005289105,0.00503824,0.01248528,-0.02669244
1.000988,-0.1727171,-0.2232248,0.001200046,-0.0005012848,-0.004947421,0.001653816,0.02130753,-0.01840205
1.000722,-0.1719761,-0.2225302,0.0009035459,0.0001364554,-0.004319006,-0.004306886,0.01657353,-0.009543404
0.9987212,-0.1706954,-0.221034,-0.00112783,0.001316764,-0.002883475,-0.002519818,0.01429322,-0.003081589
0.9954115,-0.1721276,-0.2235207,-0.00446699,-0.0002129669,-0.005425395,0.003162324,0.01309955,0.002305968
0.992885,-0.1750026,-0.2235323,-0.007022151,-0.003182534,-0.005486635,-0.0003313619,0.006252797,-0.006039291
0.9967837,-0.1730383,-0.2226212,-0.003150817,-0.001309835,-0.004619776,0.001578431,0.006283805,-0.01495556
1.002421,-0.1722471,-0.2198948,0.002460043,-0.0006069526,-0.001932174,0.004235438,0.008386588,-0.0142639
0.9994295,-0.1715549,-0.2141694,-0.0005556943,9.472944e-08,0.003759777,0.004286535,0.00315031,-0.01169509
0.9950238,-0.1700551,-0.2124135,-0.004984569,0.001418115,0.005487134,0.008079474,-0.005502984,-0.006579708
0.9950875,-0.1713053,-0.209025,-0.004942644,8.927022e-05,0.008851489,0.009964267,-0.01690706,-3.213653e-05
0.9963752,-0.171647,-0.2091371,-0.003674982,-0.0003279372,0.008719159,0.01354481,-0.02523345,0.01127234
1.000151,-0.1708155,-0.2159611,8.221991e-05,0.0004312359,0.00187824,0.009861788,-0.02682067,0.01990772
1.001275,-0.1682099,-0.2172444,0.001189925,0.002967608,0.0005806476,0.003951918,-0.02768495,0.01434333
1.001942,-0.1655931,-0.2166352,0.001841991,0.005518102,0.001178139,0.0109014,-0.02131172,0.009183938
1.00693,-0.1675687,-0.215415,0.006817514,0.00347893,0.002388924,0.01403295,-0.007021937,0.003769216
1.006841,-0.1685761,-0.2120128,0.006716084,0.002410468,0.005783677,0.01189411,0.002677646,-0.007760862
1.00321,-0.1653157,-0.2089843,0.003074412,0.005612106,0.008806471,0.0112256,0.005529535,-0.008986594
0.9986679,-0.1619887,-0.2060872,-0.001478695,0.008882459,0.01169911,0.006118686,-0.001190118,-0.002644307
0.9945478,-0.1607213,-0.2107374,-0.005608785,0.01009485,0.007045033,0.0009649741,-0.01132939,0.002161847
0.9975734,-0.1636273,-0.2175042,-0.002592431,0.007135092,0.0002745261,-0.0003102822,-0.01319811,0.007452318
1.000572,-0.1694234,-0.2205902,0.0003981324,0.001286276,-0.00281512,0.000772076,-0.01275906,0.008921723
1.001633,-0.1717191,-0.2240283,0.001451166,-0.001061482,-0.006256793,0.0005938922,-0.01034275,0.006638899
1.002133,-0.1691327,-0.2190196,0.001944051,0.00147378,-0.001251466,-0.000291607,-0.00511462,0.002693972
1.000318,-0.1669572,-0.2124365,0.000122905,0.003598972,0.005328578,-6.445192e-06,-0.005392046,-0.0006740893
1.000882,-0.1679478,-0.2166843,0.000681231,0.002558919,0.00107801,-0.001071907,-0.007591193,0.001563653
1.000158,-0.1675407,-0.22055,-4.754505e-05,0.002917274,-0.002790223,-0.002769331,-0.00785002,0.004324435
1.000329,-0.164593,-0.2216279,0.0001190684,0.005816811,-0.003870437,-0.006071219,-0.009282671,0.004445488
1.003407,-0.1632943,-0.224566,0.003192662,0.007068004,-0.006810584,-0.00971454,-0.009941629,0.006623812
1.00269,-0.162258,-0.2231446,0.002472866,0.008057021,-0.005390608,-0.01201778,-0.008493084,0.007660535
1.0028,-0.1621794,-0.2196557,0.002579376,0.008088331,-0.001902221,-0.01485534,-0.006537515,0.004351876
1.003993,-0.164007,-0.2162435,0.003768835,0.006213229,0.001510291,-0.01468525,-0.003461244,0.002521156
1.003874,-0.1638943,-0.2085932,0.00364612,0.006277926,0.00916182,-0.01318429,-0.002148353,0.003474657
1.00334,-0.1638354,-0.2064176,0.003107733,0.006288254,0.01133921,-0.01452809,-0.004713296,0.003642117
1.000549,-0.1644423,-0.2103879,0.0003125147,0.005631954,0.007370681,-0.01501351,-0.004705169,0.004302685
1.000279,-0.1657415,-0.2115555,3.873636e-05,0.004282379,0.006204476,-0.0160276,-0.002441698,0.005326235
1.002089,-0.1692398,-0.2153159,0.001843405,0.0007328584,0.002444605,-0.0200395,-0.0007405205,0.004582665
1.002327,-0.170666,-0.2189256,0.002075501,-0.0007453749,-0.001165408,-0.0209228,0.003805396,0.003173574
1.0029,-0.1718057,-0.2210566,0.002642164,-0.001937775,-0.003297572,-0.01721406,0.004796128,0.002549251
1.002196,-0.1744515,-0.2244679,0.001932105,-0.004636766,-0.006710854,-0.01197298,9.266558e-05,0.002933178
0.999075,-0.1739851,-0.2205855,-0.00119609,-0.004223569,-0.002830785,-0.006429228,-0.002885426,0.002112181
0.9965274,-0.172973,-0.2139375,-0.003751319,-0.003264275,0.003814583,-0.00297092,-0.004629285,-0.002901474
0.998588,-0.173538,-0.2103414,-0.001698783,-0.003881588,0.007407961,0.0006644859,-0.004860283,-0.00856076
1.001746,-0.1719604,-0.2112516,0.001451331,-0.002355323,0.006494498,0.004075634,-0.006749317,-0.006791872
1.001539,-0.1699737,-0.2188018,0.001235882,-0.0004188878,-0.001059596,0.004412888,-0.01205399,-0.0009290071
1.002806,-0.1704913,-0.2234309,0.002493884,-0.0009854323,-0.005693381,0.005320623,-0.01068361,6.889955e-05
1.002914,-0.1696246,-0.2240569,0.002592904,-0.0001663013,-0.006324503,0.006460981,-0.004493896,-0.001043276
0.9984396,-0.1678558,-0.2178981,-0.00189065,0.001556249,-0.0001712025,0.007725367,-0.001217559,-0.001750534
0.9963156,-0.1685717,-0.2074927,-0.004024111,0.0007954658,0.01022874,0.00825321,-0.002033571,-0.003163673
0.9971333,-0.167312,-0.2094591,-0.003215954,0.002011688,0.008256446,0.006617097,-0.007080807,-0.003259681
0.997885,-0.1646167,-0.2107628,-0.002473734,0.00466482,0.006946232,0.008281328,-0.009992978,-0.003531338
0.9989859,-0.1644096,-0.2061504,-0.001381958,0.004830861,0.01155112,0.009998813,-0.01011986,-0.005499527
1.000649,-0.1643271,-0.2090184,0.0002728557,0.004873261,0.008674115,0.01131376,-0.009477533,-0.007225639
1.002282,-0.1662066,-0.208743,0.001896846,0.002954408,0.00893884,0.01536654,-0.003922542,-0.006003847
1.002808,-0.169294,-0.2063373,0.002414982,-0.0001717104,0.01133167,0.01406637,0.003775322,-0.003678983
1.003065,-0.1683707,-0.2081351,0.002663921,0.0007134065,0.009518682,0.01073026,0.008110486,-0.004279755
1.00271,-0.1682213,-0.2101901,0.002301273,0.0008252752,0.007445678,0.01053456,0.00601541,-0.005308508
1.001968,-0.1702905,-0.217355,0.001552052,-0.001280789,0.0002599804,0.0103571,0.0002052953,-0.006474207
1.000494,-0.1692428,-0.2215903,6.949997e-05,-0.0002692509,-0.003998907,0.01078534,-0.0038492,-0.007038031
0.9977329,-0.1675779,-0.2178316,-0.00269904,0.001360284,-0.0002663819,0.007579588,-0.003922557,-0.005081312
0.9991282,-0.1653792,-0.2164103,-0.001311587,0.003524369,0.001126648,0.0030521,0.000780824,-0.00578597
1.000659,-0.1618497,-0.2168434,0.0002111261,0.007019983,0.0006633372,0.002077357,0.00237998,-0.008488382
0.9967527,-0.1620695,-0.2165474,-0.003702471,0.006766749,0.000927382,-0.0004520753,-0.0004781274,-0.01116828
0.9949397,-0.1632989,-0.2166939,-0.005522739,0.005504027,0.0007473137,-0.0016454,-0.001392686,-0.0113746
0.9959193,-0.1630284,-0.2166902,-0.004549861,0.005741271,0.0007160413,0.00164065,-0.00109816,-0.005723832
0.9960327,-0.1645458,-0.2166558,-0.004442539,0.004190284,0.0007142602,0.004295304,0.00255646,-0.002005972
0.9963187,-0.165975,-0.2166365,-0.004161625,0.002727187,0.0006962107,0.005183049,0.006710058,0.0003414797
0.998345,-0.1662256,-0.2176124,-0.002139271,0.002442303,-0.0003179635,0.004337818,0.006968623,0.0009009009
1.00105,-0.1642913,-0.2210956,0.0005623612,0.004341767,-0.003840183,0.003434496,0.005330701,-0.005457862
1.000202,-0.1603738,-0.2231832,-0.0002870219,0.008223967,-0.005967266,0.00599325,0.003201447,-0.006186988
0.9993086,-0.1608941,-0.2152672,-0.001180898,0.007667597,0.001909024,0.008714399,0.003438618,-0.003186963
1.000515,-0.1640777,-0.205877,2.641224e-05,0.004446973,0.01125963,0.009383696,0.00292403,-0.005151663
0.9998883,-0.165744,-0.2092283,-0.0005993448,0.002742562,0.007868478,0.010398,0.002079874,-0.004412657
0.9998038,-0.1670688,-0.2125252,-0.0006814669,0.001378676,0.004531233,0.009553144,0.004735832,-0.003992802
1.00065,-0.164997,-0.2107662,0.0001681695,0.003410247,0.006249283,0.007589399,0.006642316,-0.006163666
1.001569,-0.1623878,-0.2148673,0.001091407,0.005978292,0.002106459,0.008500661,0.007099372,-0.007013738
1.003034,-0.1622538,-0.2154911,0.002560868,0.006070118,0.001440122,0.009700318,0.00650803,-0.007430899
1.001269,-0.1598959,-0.21389,0.0008006382,0.008384723,0.002997844,0.007364974,0.005005544,-0.003826087
0.9992685,-0.1590408,-0.2176965,-0.001193708,0.009195119,-0.0008526491,-0.001083918,0.003849266,-0.0001648568
1.001895,-0.1612013,-0.2143121,0.001438816,0.006988465,0.002487151,-0.009820525,0.004455124,-0.002196725
1.003583,-0.1609233,-0.2103842,0.003133382,0.007218563,0.006370028,-0.008908477,0.006127929,-0.002142952
1.001477,-0.1592154,-0.2137581,0.001034252,0.008876657,0.002950484,-0.007466758,0.003131155,0.003355961
0.9999796,-0.1578723,-0.2143594,-0.0004566003,0.01016801,0.002302996,-0.01051138,-0.0005374452,0.009181421
0.9999245,-0.1585582,-0.2144345,-0.0005049777,0.009428154,0.002181105,-0.007685114,-0.0008679706,0.00965325
1.000489,-0.1611638,-0.2115503,6.665092e-05,0.006766267,0.00501805,-0.003819271,-0.00165193,0.002226611
1.002757,-0.1612773,-0.2060094,0.002340676,0.006594013,0.01051108,-0.002216057,-0.001998194,-0.004177982
1.004782,-0.1594046,-0.2078032,0.004372416,0.008405374,0.00866858,-0.001518017,-0.002152747,-0.002119973
1.003022,-0.1591746,-0.2106789,0.002618784,0.008571652,0.00574311,-0.00506302,-0.002358933,0.001643806
0.9992623,-0.1607024,-0.2123551,-0.001135007,0.006977434,0.004016061,-0.003193732,-0.003856037,0.003591043
0.9984836,-0.1624484,-0.2161849,-0.001908234,0.005162434,0.000134087,0.002185533,-0.00608171,0.006962709
1.00131,-0.164326,-0.2171863,0.0009237458,0.003213365,-0.0009205671,0.002276826,-0.004290506,0.006160911
1.00415,-0.1642281,-0.2164074,0.003768388,0.003237319,-0.0001957294,0.002182179,-0.002923783,0.00144016
1.004806,-0.1611702,-0.2157825,0.004427784,0.006219104,0.0003744076,0.001935596,-0.004292318,0.003381555
1.005395,-0.1591145,-0.2132842,0.005020502,0.0081965,0.002817448,0.00219705,-0.005083108,0.006668508
1.00585,-0.1560924,-0.2072821,0.005478402,0.01113826,0.008763943,0.001695486,-0.006538887,0.005623322
1.003415,-0.153111,-0.2006528,0.003045549,0.01403711,0.01533706,-0.001492388,-0.008388089,0.005771889
1.0024,-0.1559605,-0.2028723,0.002030999,0.01110261,0.01306038,-0.004828052,-0.009602531,0.00614215
1.004853,-0.1581004,-0.2086023,0.004483702,0.008875029,0.007271993,-0.009471077,-0.008831451,0.007477913
1.005892,-0.1566288,-0.2083975,0.00552045,0.0102562,0.007416707,-0.01050823,-0.007220553,0.00926614
1.004815,-0.1574435,-0.2097032,0.004440138,0.009348163,0.006049114,-0.009552111,-0.008764796,0.00847803
1.00358,-0.1607848,-0.2098566,0.00320003,0.005910697,0.005832122,-0.01099691,-0.01048619,0.00857927
1.003948,-0.1635091,-0.2070453,0.003560959,0.003087552,0.008577856,-0.01221498,-0.01011743,0.01014399
1.003712,-0.1633734,-0.2100452,0.003316482,0.003121859,0.005510659,-0.01547957,-0.01040817,0.01195549
1.002061,-0.164478,-0.2122304,0.00165443,0.001913571,0.003256231,-0.0162758,-0.01097579,0.01180035
1.003217,-0.1674837,-0.2117621,0.002798734,-0.00119777,0.003653436,-0.01321578,-0.01145067,0.009291786
1.004889,-0.165307,-0.2105759,0.004457441,0.0008718621,0.004766883,-0.01004511,-0.01130466,0.008239738
1.005688,-0.1623862,-0.2068635,0.005240623,0.003684436,0.008404948,-0.004804631,-0.009621397,0.007113934
1.006058,-0.164083,-0.2081342,0.005594068,0.001878502,0.007058309,-0.003288605,-0.008745245,0.005669226
1.004873,-0.1634605,-0.2093608,0.004389835,0.002391256,0.005754169,-0.00698727,-0.009282891,0.006535641
1.004244,-0.1613777,-0.2073858,0.003739492,0.004363897,0.007649893,-0.009946818,-0.01053655,0.007530039
1.001481,-0.1619226,-0.2089244,0.0009531472,0.003708612,0.006030363,-0.01103924,-0.01238066,0.007223211
0.9986516,-0.1611969,-0.2095407,-0.001900782,0.004323831,0.005331507,-0.008840449,-0.01602112,0.006707001
1.00022,-0.1620585,-0.2107947,-0.0003584808,0.003351611,0.003993317,-0.004252551,-0.02030525,0.005598076
1.000418,-0.1659878,-0.21376,-0.0001889285,-0.000688111,0.0009423772,-0.001415307,-0.01694311,0.004065097
0.9995266,-0.1669725,-0.2134867,-0.0011093,-0.00178285,0.001128623,-0.002143319,-0.01099907,0.002908702
1.000246,-0.1649334,-0.211382,-0.0004204641,0.0001467865,0.00314532,-0.00326792,-0.01203855,0.002680397
1.000175,-0.1630768,-0.2087741,-0.0005222646,0.001894857,0.005664357,-0.001372508,-0.01250766,0.005236962
1.000946,-0.1639222,-0.2094642,0.0002174701,0.0009419471,0.004884714,0.0005279025,-0.01440115,0.008487275
1.002691,-0.1653846,-0.2113644,0.001929942,-0.0006265727,0.002894121,0.0003568499,-0.0197668,0.008391138
1.002723,-0.1654244,-0.2100556,0.001929682,-0.0007710706,0.004112028,0.0006715059,-0.01977838,0.006810585
1.000899,-0.1672705,-0.2104769,7.268791e-05,-0.002720122,0.003599259,0.001613754,-0.01891628,0.006709309
0.9992046,-0.1684535,-0.2123636,-0.001655099,-0.004004201,0.001620818,0.001014542,-0.01898501,0.006807968
0.9991719,-0.1671071,-0.2154869,-0.001721257,-0.002756611,-0.001594607,0.0007418287,-0.02023943,0.005593564
0.9996012,-0.1663139,-0.2194904,-0.001325499,-0.002059822,-0.005690085,0.003378796,-0.02418696,0.004006623
0.9999409,-0.1661908,-0.2188365,-0.001019124,-0.002030324,-0.005127801,0.006142803,-0.02386498,0.002255776
1.00029,-0.1649987,-0.2188729,-0.0007034832,-0.0009289627,-0.005254831,0.008324765,-0.02311799,0.002586725
0.9996882,-0.1621137,-0.2219354,-0.001337415,0.001868167,-0.00840653,0.009045861,-0.0236694,0.005451913
0.9989912,-0.161207,-0.2209187,-0.002066486,0.00269009,-0.007477199,0.005293647,-0.02267825,0.006674679
0.9987491,-0.1622997,-0.2191375,-0.002339964,0.001515497,-0.005781023,0.002256453,-0.02342148,0.00776691
0.9992234,-0.1627626,-0.2197468,-0.001896278,0.0009734324,-0.006472472,0.001713866,-0.02382923,0.008266466
1.00068,-0.1645502,-0.2194525,-0.0004692077,-0.0008904714,-0.006257288,0.000628145,-0.02477536,0.007285764
1.001017,-0.1659242,-0.2202207,-0.0001605433,-0.002337987,-0.007101037,0.0005597787,-0.02383991,0.009423014
1.001058,-0.1661842,-0.221425,-0.0001475558,-0.002668734,-0.008377188,-0.0006292595,-0.01619726,0.01097244
1.000781,-0.1673944,-0.2199191,-0.000451373,-0.003946625,-0.006939062,-0.0008978924,-0.00963826,0.009940247
0.998524,-0.1692147,-0.2173544,-0.002733307,-0.005831591,-0.004437838,0.001718449,-0.01130182,0.00841816
0.9983705,-0.170698,-0.2152843,-0.002911096,-0.007376168,-0.002426665,0.0016824,-0.01470089,0.00461676
0.999906,-0.169146,-0.2175534,-0.001398575,-0.005881914,-0.004750216,0.0008813788,-0.01267527,0.003944676
1.000209,-0.1669184,-0.2248949,-0.001116857,-0.003708307,-0.01214157,-0.001097307,-0.01431715,0.008640055
1.001066,-0.1666926,-0.2320954,-0.000280632,-0.003532518,-0.01938706,-0.003840895,-0.01996941,0.01146123
1.001353,-0.1660167,-0.2342747,-1.271825e-05,-0.002902727,-0.02160599,-0.0005411502,-0.01976446,0.0104206
1.000544,-0.1650048,-0.2276565,-0.0008387231,-0.001932921,-0.01502126,0.001727591,-0.01794065,0.009691355
0.9997327,-0.1640524,-0.2222198,-0.001666712,-0.001018779,-0.00961138,-0.001740677,-0.01361967,0.01126119
0.9997576,-0.1663883,-0.2245986,-0.001656739,-0.003389059,-0.01201008,-0.003918785,-0.008757043,0.0117421
1.000388,-0.1713333,-0.2240551,-0.00103967,-0.008364636,-0.01147944,-0.003532321,-0.01231519,0.01067219
0.9992597,-0.1714335,-0.2226602,-0.002180475,-0.008491544,-0.01009025,-0.001963923,-0.01655084,0.009768697
0.9972412,-0.1702099,-0.2244481,-0.004209793,-0.007290532,-0.01187657,3.204302e-05,-0.014284,0.007877142
0.9952853,-0.171181,-0.2243767,-0.006175101,-0.008279983,-0.01179638,0.0005191826,-0.01070865,0.007495496
0.9952209,-0.170761,-0.2252001,-0.006247223,-0.007873912,-0.01260354,-0.001788939,-0.01054922,0.008233783
0.9966294,-0.1698317,-0.2263598,-0.004844489,-0.00695402,-0.01373969,-0.00340263,-0.012069,0.00794459
0.9955304,-0.1665522,-0.2261914,-0.005947344,-0.003679346,-0.01354029,-0.003678731,-0.01286842,0.008771627
0.9960953,-0.163243,-0.2270409,-0.005384032,-0.0003704359,-0.01435123,-0.006117726,-0.0128357,0.006662367
0.9990708,-0.1679276,-0.2280716,-0.002407815,-0.005050931,-0.0153357,-0.005758242,-0.01213048,0.002887755
1.000337,-0.1728617,-0.2292093,-0.001138378,-0.009976711,-0.01641947,-0.003506772,-0.01234534,0.00373493
1.000502,-0.1690139,-0.2278604,-0.0009680692,-0.006116445,-0.01500886,-0.002049218,-0.01173573,0.001256178
0.9993391,-0.1667134,-0.22521,-0.002123809,-0.003799122,-0.01228891,0.002159547,-0.01004916,-0.002146777
0.9987206,-0.1706309,-0.2264464,-0.002732813,-0.007695709,-0.01344793,0.001107647,-0.009488618,0.004066792
0.9970236,-0.1715486,-0.2266171,-0.004418363,-0.008588248,-0.01353361,-0.00378169,-0.01028217,0.008228312
0.9946214,-0.1704225,-0.223997,-0.006807053,-0.007432878,-0.01082086,-0.004044507,-0.01209742,0.00755683
0.996146,-0.1711742,-0.2233444,-0.005266754,-0.008150996,-0.01006809,-0.005058271,-0.01099301,0.009300867
0.9962003,-0.1716742,-0.2229467,-0.005194571,-0.008613271,-0.009563198,-0.007449846,-0.008823117,0.007775669
0.9952429,-0.1724846,-0.2210512,-0.006131898,-0.009381742,-0.007553593,-0.009690216,-0.008301093,0.007246986
0.9968352,-0.1722277,-0.2187317,-0.004517124,-0.009078542,-0.00511354,-0.008291377,-0.0051409,0.008787165
0.9983264,-0.170629,-0.219928,-0.003000997,-0.007429318,-0.006183368,-0.003732624,-0.00209984,0.007073638
1.000376,-0.1693839,-0.2256719,-0.0009241731,-0.006129362,-0.01179515,-0.006369668,-0.003277682,0.004347028
0.9986089,-0.1691228,-0.2290268,-0.002661903,-0.005809263,-0.01501264,-0.01051859,-0.004691014,0.00182565
0.9948723,-0.1714584,-0.2280096,-0.006366996,-0.008081774,-0.01385288,-0.01184989,-0.002770181,0.00480386
0.996398,-0.1724244,-0.2262027,-0.004807732,-0.008980829,-0.0118983,-0.01227113,-0.001669588,0.005349844
0.9988745,-0.1716711,-0.2265692,-0.002295583,-0.008156678,-0.01211218,-0.008305483,-0.002740286,0.001772587
1.000053,-0.1726634,-0.2287111,-0.001079384,-0.009074261,-0.01409646,-0.006416592,-0.002159546,0.003545238
0.9988045,-0.1720372,-0.2300676,-0.002288416,-0.008369502,-0.01529066,-0.005136631,-0.00149943,0.001129252
0.9959739,-0.1704368,-0.2303085,-0.005077789,-0.006686813,-0.01536444,-0.004962458,0.001409531,0.0009127995
0.9975964,-0.1681434,-0.2287134,-0.003412266,-0.004307494,-0.01359766,-0.01082993,0.003901038,0.004394262
0.9996997,-0.1645764,-0.2285367,-0.001264423,-0.000651187,-0.01324456,-0.01239651,-0.001041049,0.002783432
0.9998474,-0.1652491,-0.2295756,-0.001070684,-0.001231464,-0.0141025,-0.01213436,-0.004772354,0.005725638
1.000344,-0.168053,-0.2291285,-0.0005266303,-0.003940245,-0.01347015,-0.01392907,-0.002306146,0.006751924
0.9988103,-0.1701348,-0.2303696,-0.002011738,-0.005924657,-0.01452167,-0.01370074,-1.791945e-05,0.005695225
0.9981799,-0.1729531,-0.2296462,-0.0025925,-0.008643261,-0.01360448,-0.01247644,-0.0006055452,0.008306973
0.9989551,-0.1742174,-0.2295232,-0.001766726,-0.009805903,-0.01328366,-0.008566206,-0.0007128365,0.008542987
0.9985617,-0.1748417,-0.2320873,-0.002108798,-0.01032627,-0.01564598,-0.007279024,0.0004958574,0.008604929
0.9995936,-0.1735443,-0.2302658,-0.001024817,-0.008922764,-0.01361883,-0.006781546,0.001318172,0.004630107
0.9999813,-0.1693155,-0.2313159,-0.0005844305,-0.004585626,-0.01445953,-0.004729141,0.006723526,-2.424108e-05
0.9979545,-0.1660907,-0.2328138,-0.002558022,-0.001250355,-0.01574445,-0.006326836,0.01212469,-0.001258308
0.9958034,-0.1639231,-0.2295831,-0.004655575,0.001029512,-0.01229722,-0.003586035,0.009216739,-0.0027897
0.9956316,-0.1674246,-0.2301973,-0.004773382,-0.002358344,-0.01269145,0.0006327806,0.004834287,-0.000395114
0.9980272,-0.1734045,-0.2279425,-0.00232334,-0.008223489,-0.01021345,0.001852344,0.003088848,0.001011465
0.999114,-0.1703668,-0.2247638,-0.001181701,-0.005070082,-0.006808679,0.003325876,0.002325688,-0.0007791331
0.9985872,-0.1667317,-0.2266842,-0.00165337,-0.001318457,-0.008500437,0.002767553,0.004799303,-0.003793691
0.9985201,-0.1671429,-0.2246681,-0.001665075,-0.00161244,-0.00625349,0.006531242,0.008293599,-0.007311537
0.998576,-0.1658962,-0.2251088,-0.001553504,-0.0002481919,-0.006461547,0.009754991,0.006724615,-0.005327607
0.9987615,-0.1669322,-0.2278889,-0.001312294,-0.00116659,-0.009007776,0.008785555,0.005369549,-0.002911795
0.9984763,-0.1670941,-0.2256428,-0.001541866,-0.001211208,-0.006526767,0.01072209,0.007636599,-0.002566097
0.9986241,-0.1655411,-0.2271987,-0.001338412,0.0004587281,-0.007847081,0.008226233,0.007042623,-0.001243715
0.9987342,-0.1655047,-0.2314444,-0.001172861,0.0006113251,-0.01185686,0.004013769,0.006687978,-0.000689969
0.9984194,-0.1631645,-0.2340112,-0.001432411,0.003066622,-0.01418753,0.00261887,0.006278921,0.0024174
0.9987747,-0.1633958,-0.2334458,-0.001022184,0.002949035,-0.01338576,-0.0009806476,0.002270472,0.005093437
0.9985481,-0.1642995,-0.2277082,-0.001194206,0.00215742,-0.007411561,-0.004265531,0.0002333999,0.002325329
0.9985559,-0.1605029,-0.2255184,-0.001132172,0.006063923,-0.004985148,-0.005824639,0.001594754,8.617173e-06
0.9987488,-0.1592607,-0.227319,-0.0008855668,0.007413683,-0.0065493,-0.005469579,0.005757259,-0.001454304
0.9984562,-0.1609322,-0.2281549,-0.001125023,0.005846809,-0.007149371,-0.007772545,0.00866501,-0.002974644
0.9988983,-0.163305,-0.2280931,-0.0006304171,0.00357549,-0.006852533,-0.01250215,0.007366941,1.530211e-05
0.9992996,-0.1655634,-0.2273558,-0.0001771799,0.001414932,-0.005881167,-0.0140054,0.007079014,0.003264356
0.9991459,-0.1680188,-0.2290208,-0.0002797353,-0.0009463285,-0.007313351,-0.0147078,0.008023502,0.004510569
0.9974786,-0.1721948,-0.2299316,-0.00189665,-0.005031871,-0.007992924,-0.01215124,0.008288771,0.006076783
0.9956316,-0.1715315,-0.230911,-0.003694127,-0.004281607,-0.008742567,-0.008455432,0.00881491,0.00514145
0.9958378,-0.1695756,-0.2342864,-0.003439071,-0.002241949,-0.01188989,-0.007317806,0.01037454,0.001439939
0.9962136,-0.171377,-0.233798,-0.003015075,-0.003962784,-0.01117513,-0.005751583,0.01198178,-0.003078453
0.9975306,-0.1701701,-0.2332045,-0.001650558,-0.002678231,-0.01035677,-0.003514615,0.01176122,-0.003315971
0.9994787,-0.1695476,-0.2359266,0.0003446437,-0.001980931,-0.01285543,0.002408416,0.01217749,-0.001048779
0.9995865,-0.171727,-0.2364255,0.0004988383,-0.004088093,-0.01313244,0.005665596,0.01625545,-0.002542883
0.9999138,-0.1721063,-0.2325754,0.0008718495,-0.004397701,-0.009061646,0.00300859,0.0220585,-0.00285472
1.00017,-0.1739413,-0.2281238,0.00117276,-0.006165252,-0.004390599,0.003214947,0.02577711,-0.004543277
0.998523,-0.1752454,-0.2266605,-0.0004300391,-0.00740388,-0.002709233,0.004772827,0.02922758,-0.009067618
0.9961778,-0.1711221,-0.2245085,-0.002732213,-0.003216859,-0.0003408409,0.006967296,0.03124121,-0.007745319
0.9935646,-0.1671201,-0.2209252,-0.005303378,0.0008472755,0.003456727,0.008640274,0.0226194,-0.004274758
0.9923319,-0.1677039,-0.220922,-0.006494702,0.000324103,0.003671569,0.004685456,0.007708119,-0.002500694
0.9932289,-0.1691828,-0.2244874,-0.005557018,-0.001095752,0.0003147501,-0.0008570763,-0.001996886,0.001118762
0.99398,-0.1706354,-0.22463,-0.004765388,-0.002490825,0.0003772029,-0.002458756,-0.004582807,0.004269593
0.9968861,-0.1738342,-0.2235267,-0.001819107,-0.005633677,0.001681529,-0.0008567084,0.002388438,0.002745416
1.002534,-0.1744915,-0.230425,0.003868621,-0.006236417,-0.005019881,0.0001499701,0.01389068,-0.0007468755
1.003858,-0.1726646,-0.2358028,0.00523329,-0.004356072,-0.01020512,0.002572684,0.01788477,-0.004347364
1.001077,-0.1727249,-0.2335535,0.002491308,-0.004363849,-0.007767437,0.006797759,0.01656264,-0.009760952
0.9999635,-0.1713672,-0.2302424,0.001416278,-0.002954414,-0.004271902,0.007515071,0.01448498,-0.009296601
0.9987599,-0.1699688,-0.2230661,0.0002503091,-0.00150497,0.003084916,0.006775374,0.01039174,-0.0007838174
0.9963199,-0.1707579,-0.2171925,-0.002153076,-0.002243695,0.00913487,0.00763436,0.008091401,0.005139271
0.9962901,-0.1690636,-0.2208266,-0.002147231,-0.0004995563,0.005672592,0.009423359,0.006843715,0.00402093
1.000243,-0.1696537,-0.2235758,0.001840496,-0.001040617,0.00309017,0.01177837,0.004839132,-0.0001658096
1.004344,-0.1732222,-0.2179507,0.00597454,-0.004560707,0.008876662,0.01310537,0.008300979,-0.001728468
1.003244,-0.1706774,-0.2149599,0.004907793,-0.00196809,0.01202305,0.01201861,0.01324446,-0.002913481
1.001631,-0.1666377,-0.2175063,0.00332549,0.002118777,0.009626088,0.009617536,0.01134086,-0.004052478
1.003284,-0.1664122,-0.217617,0.005007999,0.002390731,0.009657899,0.008775126,0.00953355,-0.00346015
1.001442,-0.1647134,-0.2187338,0.003193411,0.004135236,0.008676548,0.01054363,0.01006831,-0.00539652
0.9976709,-0.1626465,-0.2220592,-0.0005521245,0.00624665,0.005479028,0.01343105,0.007284261,-0.003648467
0.9960205,-0.1614277,-0.2242257,-0.002178817,0.007508579,0.003432742,0.01337385,0.007305763,-0.0005761765
0.9956709,-0.1596483,-0.2243326,-0.002506626,0.009329395,0.00343845,0.009098613,0.009305342,-0.001695993
0.998849,-0.1628575,-0.2227308,0.000691698,0.006159385,0.00514522,0.004868514,0.007308048,0.000747466
1.001205,-0.1673252,-0.2231579,0.003066151,0.001728458,0.004815614,0.003213086,0.006639654,0.002070196
1.000701,-0.1657714,-0.2204512,0.0025795,0.003316385,0.007612107,0.003785807,0.005687721,0.002651291
1.001154,-0.16468,-0.2164346,0.003047586,0.004439127,0.01171098,0.00407079,0.004771324,0.005149675
0.9998184,-0.1657765,-0.2190896,0.001726082,0.003371289,0.009130429,0.003797518,0.006877225,0.003036739
0.9975028,-0.1656905,-0.2209074,-0.0005775102,0.003483083,0.007379293,0.00258418,0.005431523,-0.0006687796
0.9966935,-0.1655216,-0.2216031,-0.001376409,0.00367484,0.006742242,-0.001053806,0.001607647,-0.001549168
0.9956956,-0.164943,-0.2244965,-0.002365474,0.00427347,0.003899714,-0.0009430133,-0.002627304,0.006273118
0.9957791,-0.1654277,-0.2237107,-0.00227452,0.003805708,0.004728539,0.001454585,-0.005977328,0.01249649
0.9979199,-0.167056,-0.2209008,-0.0001273551,0.00219146,0.007574013,0.00131851,-0.00410688,0.005248428
0.9990438,-0.1692396,-0.2197275,0.001001827,1.880967e-05,0.008775434,0.002177881,-0.001235128,0.0006240264
0.9976389,-0.1715656,-0.2191232,-0.0003987511,-0.002298952,0.009400522,-0.0002215629,0.000112357,0.001647917
0.9966115,-0.169274,-0.2195418,-0.001422874,-1.782428e-06,0.008995431,-0.001482329,0.0006740449,0.001530513
0.9963787,-0.1666992,-0.2206414,-0.001653065,0.002576161,0.007901888,0.004628846,0.001465656,0.00144826
0.9958624,-0.1684807,-0.2214108,-0.002167606,0.000795504,0.007131477,0.006640573,0.000554103,0.0008078937
0.9967296,-0.1683282,-0.223801,-0.001299078,0.0009467001,0.004733065,0.006335106,-0.005729447,0.001088051
0.9985423,-0.1675671,-0.2266995,0.0005143771,0.001704384,0.001819589,0.008723942,-0.008876613,0.000302079
0.9988253,-0.1684251,-0.2270083,0.0007978062,0.000841002,0.001489322,0.008986745,-0.002395753,0.001039273
0.9974955,-0.1686373,-0.2269763,-0.0005318933,0.0006214722,0.001493777,0.009877935,0.006595157,0.002104057
0.9969465,-0.1715588,-0.2280231,-0.001081259,-0.002309118,0.0004138342,0.01059171,0.008837553,-0.001866014
0.9972572,-0.1745153,-0.2264741,-0.0007712067,-0.00527623,0.001924469,0.01070491,0.007701141,-0.004192628
0.9974358,-0.1720832,-0.2193856,-0.0005934058,-0.002856049,0.008969865,0.01099712,0.00913612,-0.002750566
0.9983132,-0.1695596,-0.2134474,0.0002828994,-0.0003452179,0.01486032,0.008258061,0.005825222,-0.001347718
0.9997051,-0.1710078,-0.2173572,0.001673581,-0.001806997,0.01089806,0.006018597,0.001972315,-0.001543793
1.00044,-0.1713714,-0.2229234,0.002406707,-0.002184639,0.005274559,0.00613432,0.002876642,-0.000145179
0.9997269,-0.1702371,-0.2215951,0.001692306,-0.001064948,0.006540745,0.006811678,0.001203912,0.002951464
0.9989227,-0.1710891,-0.2215921,0.0008861691,-0.001931718,0.006477037,0.006790163,0.001215842,0.002029352
0.9982374,-0.1709718,-0.223323,0.0001984593,-0.0018293,0.00467511,0.007404221,0.003448281,0.001504237
0.9963724,-0.1701167,-0.2217229,-0.001669295,-0.0009890254,0.006199885,0.009342997,0.002552869,0.0005369478
0.9946198,-0.1693954,-0.2230362,-0.00342494,-0.0002824825,0.004807425,0.007792437,-0.001541,-0.005236604
0.9944958,-0.1671591,-0.2245153,-0.003552221,0.001939313,0.003245441,0.005080855,-0.005826744,-0.008053801
0.9972374,-0.1665433,-0.2233394,-0.000813782,0.002540816,0.004334955,0.00355254,-0.001381204,-0.004493863
0.9996789,-0.1655869,-0.2252816,0.001624709,0.003482933,0.00230324,0.002430114,0.00496036,-9.010065e-05
0.9987655,-0.1649266,-0.2256091,0.0007084404,0.004128978,0.001883357,0.003391421,0.003133221,-0.0004533494
0.9990818,-0.1692685,-0.2243762,0.001021907,-0.0002274288,0.003021421,0.004342019,0.002760759,-0.0002205942
1.00061,-0.1714158,-0.2243852,0.00254764,-0.002389299,0.002915449,0.005777534,0.005782016,0.003022163
0.9998466,-0.1694805,-0.2209049,0.001781145,-0.000468761,0.006296742,0.004472662,0.005565321,0.001974318
0.9986234,-0.1693257,-0.2179986,0.00055498,-0.0003286997,0.009102345,-5.593843e-05,0.001857103,3.71346e-06
0.9976786,-0.1696388,-0.2198725,-0.0003930478,-0.0006564601,0.007125958,-0.0006348012,-0.003897682,-0.0001886267
0.9968155,-0.1704604,-0.2221126,-0.001259407,-0.001492565,0.004781624,-0.00042496,-0.007443325,0.004956177
0.9971942,-0.1728519,-0.223043,-0.0008841153,-0.00389825,0.003745419,0.001519505,-0.007456337,0.01275177
0.9978446,-0.1760228,-0.2243726,-0.0002372097,-0.007083038,0.002308543,0.006592393,-0.003032133,0.007764858
0.9987788,-0.1779538,-0.225108,0.0006935512,-0.009027161,0.001464651,0.006296587,0.004069548,0.001942589
1.000597,-0.1733091,-0.2274116,0.002508081,-0.004394471,-0.0009482983,0.003663006,0.002528064,0.00421974
1.000333,-0.1668788,-0.2304728,0.002240535,0.002025013,-0.00411934,0.002214943,-0.0004874879,0.002476642
0.9993932,-0.1674427,-0.2263704,0.001297202,0.001451652,-0.0001269336,-0.001536345,0.00255016,0.003106531
1.000179,-0.1689479,-0.2178688,0.002078838,-6.169793e-05,0.008264835,-0.003734643,-0.001577642,0.005440153
0.9991421,-0.167569,-0.2125662,0.001037862,0.001310049,0.013458,-0.004776666,-0.004786898,0.004923064
0.9980436,-0.1680443,-0.2161367,-6.520971e-05,0.0008287216,0.009778084,-0.006385122,-1.208055e-05,0.006797026
0.9988353,-0.168538,-0.2225497,0.0007215252,0.0003298265,0.003255643,-0.00119132,0.001597085,0.005709682
0.9986229,-0.1693264,-0.2192581,0.0005039137,-0.0004629618,0.006437548,0.004100339,0.002007754,0.005751005
0.9986892,-0.1734826,-0.2193575,0.0005646296,-0.004622651,0.0062282,-0.0001055143,0.001871044,0.008204053
0.9996122,-0.1760206,-0.2255807,0.001481733,-0.00716327,-0.0001049969,-0.002101435,0.0003138738,0.005960963
1.000185,-0.174185,-0.2249434,0.002048738,-0.005329271,0.0004222755,0.001421147,-0.002451855,0.005271566
1.000167,-0.1727911,-0.2257203,0.002023621,-0.003935521,-0.0004643355,0.002831348,-0.005355621,0.003507436
0.9995847,-0.1736426,-0.2289057,0.001434473,-0.004785728,-0.003758893,0.003206719,-0.001391196,0.000576691
0.9992042,-0.1728361,-0.2304378,0.001046511,-0.003976347,-0.005399275,0.002487153,0.000649656,0.002668672
0.9984149,-0.1708207,-0.2290092,0.0002492943,-0.001956347,-0.004077471,0.000462586,-0.005108395,0.002384
0.9983343,-0.1717544,-0.224344,0.000160273,-0.002883733,0.0004826223,-0.0004671425,-0.008319653,0.001455803
0.9987969,-0.1735363,-0.2260455,0.0006140819,-0.004657562,-0.001321793,0.001814497,-0.005807549,0.002371406
0.9975444,-0.1740367,-0.2258529,-0.0006475382,-0.005148187,-0.001230029,0.006239493,-0.002506037,0.0004812535
0.9972365,-0.1747085,-0.2216934,-0.0009649461,-0.005808313,0.002831109,0.007553142,-0.001829053,-0.0006080561
0.9991135,-0.1759683,-0.2248632,0.0009023966,-0.007054408,-0.0004346259,0.006393252,0.001905031,-0.000233495
1.000542,-0.1771102,-0.2276498,0.002321332,-0.008180548,-0.003314683,0.005988795,0.006366392,0.0004702397
1.000222,-0.1766352,-0.2294346,0.001990947,-0.007687455,-0.005190141,0.005985296,0.003895583,0.002078715
0.9995589,-0.1751299,-0.2304738,0.001317238,-0.006161518,-0.006317143,0.006564613,0.002452353,0.003571572
1.000213,-0.1732374,-0.2288712,0.001961004,-0.00424582,-0.004799083,0.007719697,0.003375712,0.0036988
0.9999362,-0.1733897,-0.2310586,0.001672627,-0.0043723,-0.007067555,0.008545049,0.002250341,0.002052447
0.9988087,-0.177053,-0.2294695,0.0005336494,-0.008007141,-0.005555603,0.007771385,0.002671586,0.0007140794
0.99879,-0.1784577,-0.224305,0.000503001,-0.009380665,-0.0004643417,0.00503994,0.00418471,-0.001162468
0.9992885,-0.1778376,-0.223222,0.0009892829,-0.008726606,0.0005495365,0.003394487,0.005988472,-0.0001592179
1.000046,-0.1786703,-0.2224158,0.001733904,-0.009522283,0.001290725,0.00558288,0.007689486,0.005906846
0.9982345,-0.1793243,-0.2212276,-9.033353e-05,-0.01013616,0.002417617,0.007431717,0.006989628,0.008503689
0.9951517,-0.1796193,-0.2198937,-0.003186352,-0.01038777,0.003693971,0.005064228,0.005814049,0.007227045
0.9947949,-0.179074,-0.2199744,-0.00355665,-0.009795531,0.003559032,0.003002512,0.004374059,0.006387421
0.9945952,-0.1770646,-0.2179737,-0.003769746,-0.007735604,0.005508537,0.003141455,0.0004673369,0.007402476
0.9950545,-0.1734079,-0.2138143,-0.003323578,-0.004024704,0.009619533,0.002941502,-0.002975247,0.00974674
0.9969458,-0.1723368,-0.215807,-0.001444921,-0.002895922,0.007580726,0.002883418,-0.005404698,0.009265531
0.998476,-0.174856,-0.2174868,7.315637e-05,-0.00535411,0.005856733,0.002579813,-0.008321507,0.008902599
1.000573,-0.1746964,-0.2215382,0.002159002,-0.005130329,0.001762594,0.001278767,-0.005720649,0.008998479
1.000388,-0.1764699,-0.2272887,0.001962189,-0.006836558,-0.004029266,-0.001946259,0.002312201,0.005657518
0.9983699,-0.1788978,-0.223609,-6.608857e-05,-0.009194386,-0.0003895134,-0.007556958,0.008498259,0.0006827941
0.9982712,-0.1754184,-0.2238246,-0.0001750191,-0.005641959,-0.0006436367,-0.01009033,0.0104089,-0.003734816
0.9969226,-0.1740684,-0.2225321,-0.001533374,-0.004216076,0.0006117804,-0.007938033,0.005957038,-0.002890611
0.9950713,-0.174277,-0.216221,-0.003393991,-0.004346098,0.006887388,-0.007194299,0.0006903388,0.0008082187
0.9958564,-0.1721352,-0.221246,-0.002617695,-0.002123141,0.001828061,-0.008075543,-0.0004513258,0.0017412
0.9961167,-0.1710677,-0.2244027,-0.002365524,-0.0009722368,-0.001361716,-0.00754271,-0.004806736,0.001998513
0.9955992,-0.170532,-0.2279463,-0.002890342,-0.0003511415,-0.004937349,-0.006259986,-0.007647184,-0.0002516024
0.9960856,-0.1708953,-0.2364185,-0.002410397,-0.0006274319,-0.0134402,-0.002988349,-0.002451095,-0.002460673
0.996768,-0.1713208,-0.2354995,-0.001733473,-0.0009646948,-0.01255018,0.0004292395,0.001678491,-0.001498814
0.9974227,-0.1725863,-0.2309304,-0.001083291,-0.002140868,-0.008007722,-0.0009166274,0.00260998,-0.002839665
0.9975548,-0.175961,-0.2207265,-0.0009545983,-0.005425425,0.002172252,-0.003967354,0.002659152,-0.004791515
0.9978981,-0.1782278,-0.2139878,-0.0006137094,-0.007601382,0.008889671,-0.006438482,0.001220187,-0.004813644
0.9991513,-0.1779537,-0.2236736,0.0006380609,-0.007235726,-0.0008150996,-0.009843139,-0.00108587,-0.004502718
0.9996679,-0.1753136,-0.2292793,0.001154138,-0.004503296,-0.006437504,-0.01053317,-0.004592813,-0.003090404
0.9994091,-0.175798,-0.2254912,0.0008956581,-0.004894608,-0.002664095,-0.009068151,-0.00416239,-0.000410704
0.9976237,-0.1794829,-0.2222699,-0.0008887621,-0.008485707,0.0005447852,-0.008161917,-0.0009409653,0.002430869
0.9948265,-0.1792451,-0.2194073,-0.003684179,-0.008153306,0.00339701,-0.004797804,-0.001190351,0.001788628
0.9954532,-0.178912,-0.2172053,-0.003055103,-0.007724849,0.005590566,-0.001288064,-0.0009371116,-0.0006011174
0.9973897,-0.1792505,-0.2185817,-0.001115394,-0.007966992,0.0042073,0.002212519,-0.001342786,-0.0009593911
0.9988877,-0.176938,-0.2207215,0.0003866806,-0.005557096,0.002061932,0.007521881,-0.002862821,-0.00358618
1.001906,-0.1760591,-0.2193751,0.003409631,-0.004579802,0.003403766,0.005731308,-0.001670235,-0.006532459
0.9995511,-0.1768126,-0.2219042,0.001060455,-0.005233977,0.0008709552,0.0006814182,-0.002387348,-0.004967935
0.9952846,-0.1786158,-0.2255078,-0.003199949,-0.006936975,-0.002735738,0.002461169,-0.003747438,-0.003622723
0.9984694,-0.1788653,-0.2249519,-8.666332e-06,-0.007085449,-0.002182271,0.003519451,-0.003482734,-0.003863858
0.9989808,-0.1753924,-0.2271232,0.0005096931,-0.003510651,-0.004355237,0.002291093,-0.003025529,-0.002615491
0.9941342,-0.1747935,-0.2286918,-0.004329468,-0.002809188,-0.005924656,0.002533161,-0.001642161,-0.002041325
0.9925254,-0.1761811,-0.2286917,-0.005930277,-0.004093457,-0.005924218,0.0009441402,-0.002143358,-0.00249141
0.9937837,-0.1773527,-0.2279866,-0.004663387,-0.005161332,-0.005217644,0.0002812957,-0.002731733,-0.00155323
0.9961034,-0.1809332,-0.2253513,-0.002334202,-0.008637704,-0.002579334,0.002535752,-0.003502511,-0.0009525086
0.9961763,-0.1817944,-0.2262701,-0.002250772,-0.009394267,-0.003493594,0.002773951,-0.005274023,-0.0008751076
0.9953148,-0.1814706,-0.2273993,-0.003100803,-0.008965283,-0.004616557,1.51811e-05,-0.002285668,0.0004973316
0.9962622,-0.1841802,-0.2276162,-0.00214091,-0.01156895,-0.004825685,-0.001281877,0.001068362,0.001941808
0.9956603,-0.1837874,-0.2299067,-0.002729268,-0.01106922,-0.007106523,0.0007398931,3.921031e-05,0.0009532448
0.995716,-0.1820909,-0.2291492,-0.002658963,-0.009264826,-0.006337495,0.003041808,-0.000839969,-0.002082947
0.9965044,-0.1821298,-0.2267058,-0.001854857,-0.009194489,-0.003880368,0.002831492,0.0007931967,-0.002518276
0.9972707,-0.1799784,-0.2262613,-0.001071848,-0.006932504,-0.003420153,0.002170092,0.002887548,0.001310185
0.9993903,-0.1803201,-0.2265355,0.001065531,-0.007162216,-0.003676404,0.003421075,0.003519236,0.003732275
0.9987861,-0.1830664,-0.2283102,0.0004801244,-0.009795148,-0.00543097,0.005187658,0.003940082,-0.002474183
0.9982297,-0.1824492,-0.2296461,-5.690484e-05,-0.009063307,-0.006744637,0.008550828,0.003686669,-0.01005137
0.9999525,-0.1818603,-0.2282325,0.001686055,-0.008358249,-0.00530647,0.009826933,0.004699345,-0.007057843
1.000122,-0.1816596,-0.2283632,0.001875736,-0.008039976,-0.00541027,0.00622072,0.008447135,-0.004286889
0.9996544,-0.1809625,-0.2335619,0.001429386,-0.007223905,-0.01057975,0.006957008,0.0107506,-0.007164642
0.9980276,-0.1805962,-0.2396843,-0.0001763397,-0.006737084,-0.01667027,0.01040376,0.01338215,-0.006630773
0.9957068,-0.1795833,-0.239068,-0.002476108,-0.005602439,-0.01601907,0.01049786,0.01609573,-0.006960524
0.9954802,-0.1775078,-0.2319421,-0.002681532,-0.003403903,-0.00885488,0.009951724,0.01296553,-0.006857506
0.9960254,-0.1718404,-0.2237437,-0.002115038,0.002387482,-0.0006145271,0.006814211,0.006735345,-0.004058716
0.9958818,-0.1683617,-0.2191753,-0.00223717,0.005990816,0.003999414,0.003186759,0.002581143,-0.005352368
0.9958639,-0.1707005,-0.2240081,-0.002233312,0.003776612,-0.0007846498,0.0008106039,-0.001773579,-0.004812018
0.9968275,-0.171762,-0.2288941,-0.001247746,0.002839295,-0.005619213,-0.004767576,-0.005395362,-0.0001847644
0.9973254,-0.1733294,-0.223712,-0.0007277408,0.001395067,-0.0003830283,-0.009667504,-0.004143152,0.002444075
0.9963394,-0.1758956,-0.2186002,-0.001691218,-0.001049389,0.004785001,-0.01081183,-0.002558816,0.001745719
0.995471,-0.1752221,-0.2160854,-0.002536978,-0.0002557473,0.007358066,-0.01177722,-0.001176422,-0.002041818
0.9962859,-0.1750445,-0.2150935,-0.001699158,4.023826e-05,0.008409412,-0.01397651,0.001269627,-0.004059786
0.9987705,-0.1778817,-0.2161715,0.0008086708,-0.002680625,0.007391601,-0.01669667,-0.0001223483,-0.004216881
1.000476,-0.1799453,-0.2130445,0.002537699,-0.004629846,0.01057878,-0.01690685,-0.001366685,-0.005594619
0.9994041,-0.1781577,-0.2128132,0.0014891,-0.002730083,0.01086961,-0.0141944,-0.001092977,-0.006897355
0.9978695,-0.1761366,-0.2144625,-2.211022e-05,-0.0005987254,0.009278651,-0.01270375,-0.002343599,-0.007911736
0.9984595,-0.1760121,-0.2126771,0.0005910159,-0.0003662272,0.01112049,-0.01192761,-0.003501531,-0.006459458
0.9979697,-0.1746256,-0.2196186,0.0001241001,0.001126094,0.004233033,-0.01218849,-0.005534095,-0.005254212
0.9956164,-0.1730468,-0.2266377,-0.002206724,0.002808283,-0.002734642,-0.01520531,-0.004706535,-0.00600492
0.9961562,-0.1732515,-0.2234865,-0.00164465,0.002704412,0.0004652368,-0.01493536,-0.002172927,-0.005582745
0.9987551,-0.1730889,-0.2225668,0.0009762017,0.002965077,0.001430992,-0.0136117,-0.003247918,-0.007735446
1.000434,-0.1716106,-0.2243478,0.002677204,0.004538371,-0.0003066437,-0.01820644,-0.003168797,-0.009044315
0.9995786,-0.1714639,-0.2239424,0.001842653,0.004776769,0.0001396097,-0.02305664,-0.002839124,-0.006476396
0.9978239,-0.1731593,-0.2251933,0.0001087002,0.003169616,-0.001072932,-0.02498486,-0.003269388,-0.006394276
0.9996733,-0.1758889,-0.2279879,0.001978124,0.0005245115,-0.003831645,-0.02323327,-0.0007671827,-0.005694176
1.000542,-0.1791553,-0.2275121,0.002866462,-0.002660994,-0.003321999,-0.01821335,0.001760637,-0.002674927
0.9984331,-0.1792622,-0.2264522,0.000775848,-0.002690719,-0.002230222,-0.01707897,0.003753613,-0.00287416
0.9974487,-0.1770662,-0.2282851,-0.0001908366,-0.0004210377,-0.004033033,-0.01780988,0.006007773,-0.004735844
0.9960109,-0.1760246,-0.2280454,-0.001611812,0.0006909033,-0.003764783,-0.01756338,0.007445828,-0.005212687
0.9954611,-0.1764422,-0.2272823,-0.002145641,0.0003403894,-0.002974489,-0.01682055,0.005700609,-0.006431383
0.9960677,-0.1785857,-0.2277732,-0.001523754,-0.001739373,-0.003439233,-0.01090052,0.002133933,-0.007571934
0.9958908,-0.1796106,-0.2251696,-0.001686015,-0.002703555,-0.0008104251,-0.006333045,0.003124318,-0.00576848
0.9969605,-0.1787768,-0.2208085,-0.000602255,-0.001812103,0.003574997,-0.01201585,0.001822427,-0.002736556
0.9983902,-0.1773548,-0.2189966,0.0008410677,-0.0003353022,0.005410322,-0.01865564,-0.002858545,0.0001344827
0.9989277,-0.1762905,-0.2230548,0.001391694,0.0007811284,0.001374311,-0.01575184,-0.0019396,-0.000665829
0.9986205,-0.1789949,-0.2275119,0.001097134,-0.001873777,-0.00306168,-0.01205302,-0.003595308,-0.005688142
0.9983843,-0.1811937,-0.2251431,0.0008728656,-0.004025609,-0.0006730648,-0.01272523,-0.006961958,-0.008066621
0.9984859,-0.1779084,-0.2211981,0.0009859032,-0.0006957658,0.003290649,-0.008873654,-0.003195735,-0.008772988
0.9967255,-0.1750545,-0.2196873,-0.0007638375,0.002200436,0.004819029,-0.005582766,-0.0002721666,-0.008392538
0.9952303,-0.1767644,-0.2205583,-0.002248947,0.0005307208,0.003964294,-0.005053822,-0.001303013,-0.002564299
0.9957749,-0.1788342,-0.2249129,-0.001694871,-0.00150111,-0.0003755172,-3.302356e-05,-0.002442997,0.002757191
0.9962626,-0.1791411,-0.2277114,-0.001198097,-0.001772247,-0.003160632,0.005131783,-0.005532428,-0.00108097
0.9966257,-0.1793293,-0.2263176,-0.000826251,-0.001926591,-0.00175479,0.007798074,-0.01005101,-0.007591251
0.9972216,-0.1779499,-0.2262483,-0.0002220514,-0.0005151415,-0.00167455,0.005943754,-0.0109559,-0.005913111
0.996245,-0.1762165,-0.228572,-0.001190509,0.001248504,-0.00398835,0.003151575,-0.010462,-0.00355082
0.9934666,-0.1755204,-0.2298257,-0.003961034,0.001973147,-0.005232963,0.004331021,-0.01123026,-0.004251118
0.9926561,-0.1746869,-0.2302804,-0.004763714,0.002833449,-0.005679081,0.001292114,-0.009253462,-0.002679824
0.9942899,-0.1759551,-0.2315172,-0.003122089,0.001590178,-0.006907464,-0.00224569,-0.008907838,-0.002754736
0.9956595,-0.1769221,-0.2324193,-0.001744335,0.0006463525,-0.007801161,-0.001173593,-0.009417571,0.001185131
0.9961631,-0.1761409,-0.2318995,-0.001232226,0.001448817,-0.007272518,-0.001555229,-0.006375226,0.008230041
0.9957292,-0.1764447,-0.2311839,-0.001657298,0.001164474,-0.006547239,-0.002005631,-0.006922241,0.008338164
0.9957415,-0.1765861,-0.2296713,-0.00163578,0.001040685,-0.005024001,-0.002125471,-0.007774977,0.006985319
0.9961789,-0.1772327,-0.2277742,-0.001188614,0.0004099078,-0.003115117,-0.003114517,-0.006514272,0.004345434
0.9965837,-0.1775943,-0.2302886,-0.0007737007,6.241254e-05,-0.005616313,-0.003026719,-0.006631939,0.001030712
0.9973838,-0.1751001,-0.2363073,3.690067e-05,0.002569086,-0.01162042,-0.003174281,-0.003521553,0.0004729953
0.9964517,-0.1726906,-0.239967,-0.0008841806,0.004989338,-0.01526376,-0.003463605,-0.001450106,-0.00228159
0.9949206,-0.173321,-0.2386018,-0.002403951,0.004367918,-0.01387991,-0.001635208,-0.002970696,-0.003521993
0.9941377,-0.1742883,-0.2344064,-0.003175094,0.003407807,-0.009663146,0.000991744,-0.00506213,-0.001706591
0.9930382,-0.1732391,-0.2311142,-0.004262346,0.004462091,-0.006346502,0.003072841,-0.009364206,-0.001100549
0.9949806,-0.1738529,-0.2267097,-0.00230717,0.00385139,-0.001914287,0.003271108,-0.01251688,0.000618315
0.9995483,-0.1758104,-0.2244319,0.002274068,0.001894936,0.0003941978,-0.0006539836,-0.01193198,0.002146198
1.00086,-0.1765239,-0.2271794,0.00360018,0.001180358,-0.002319694,-0.0033288,-0.006348575,0.0007317472
0.9995671,-0.1764405,-0.2278259,0.00232125,0.001260629,-0.002929933,-0.002168445,0.0001674161,-0.001120019
0.9989766,-0.1744379,-0.2307703,0.001745302,0.00325807,-0.005835573,-0.00176255,-0.0008394706,-0.002669964
0.9985175,-0.1739081,-0.2340457,0.001300777,0.003780843,-0.009069698,-0.0009451865,-0.003868468,-0.003016535
0.9984272,-0.17561,-0.2310066,0.001224935,0.002070041,-0.005986884,0.000774639,-0.003625912,-0.0009860557
0.9984446,-0.1763474,-0.233021,0.001256566,0.001321751,-0.007955053,0.0009166891,-0.004060168,0.0004814312
0.9964127,-0.1782724,-0.2359986,-0.0007613911,-0.0006158925,-0.01088366,-0.001317661,-0.004201659,0.001010006
0.9934335,-0.1798831,-0.2337383,-0.003726965,-0.002240888,-0.008571618,-0.003255872,-0.003103726,-0.0008569092
0.9924052,-0.1790062,-0.2325493,-0.004741857,-0.001379829,-0.007327908,-0.001778445,-0.003071679,-0.005994624
0.9931805,-0.1779661,-0.2312669,-0.003953106,-0.0003566818,-0.005987818,0.0005351482,-0.002658734,-0.007078539
0.9934612,-0.1776822,-0.2331458,-0.003658847,-9.084175e-05,-0.00780612,0.002180084,-0.0001387795,-0.003011474
0.993874,-0.1780985,-0.2350996,-0.003232228,-0.0005260672,-0.009696251,0.002120939,0.004452708,-0.0005349612
0.9957071,-0.179564,-0.2342431,-0.001384891,-0.002011258,-0.008773113,0.001285561,0.00711012,-0.003635262
0.9962835,-0.1804587,-0.2350661,-0.0007938652,-0.00292627,-0.00952647,0.002525025,0.0006713548,-0.007278353
0.995582,-0.1771258,-0.2335946,-0.001480162,0.0003860443,-0.007982126,0.001874609,-0.00609717,-0.00483712
0.9960355,-0.1742024,-0.2337583,-0.001011102,0.003288528,-0.008069833,-0.0005240313,-0.001719378,-0.002167879
0.996822,-0.1784414,-0.2381959,-0.0002086299,-0.0009715937,-0.01242829,-0.000869796,0.002708743,-0.001335497
0.9972041,-0.1820747,-0.2407644,0.0001899235,-0.004626214,-0.01491432,-0.0003780062,0.001023137,-0.001144303
0.9965098,-0.1784765,-0.2380266,-0.0004877353,-0.001049335,-0.01209066,0.0005722303,0.0004186766,-0.004727228
0.9953307,-0.1755223,-0.2323864,-0.00164982,0.001883775,-0.006360937,0.001147305,0.001007232,-0.006294201
0.9958099,-0.1768256,-0.2321368,-0.001153454,0.0005595348,-0.006018246,0.0006965359,0.003284093,-0.005152611
0.9961217,-0.1773891,-0.2306627,-0.0008242279,-2.467308e-05,-0.004447579,0.0006276143,0.007677677,-0.004757311
0.9953973,-0.1772256,-0.2267833,-0.001530883,0.0001183449,-0.000468469,0.0003100353,0.01049532,-0.003297147
0.9948478,-0.1755035,-0.2322298,-0.002062463,0.001820243,-0.005812395,-0.001637546,0.009287455,-0.002526319
0.9933534,-0.1724066,-0.2365968,-0.003538691,0.004897208,-0.01007428,-0.003657573,0.003178676,-0.002506169
0.9925277,-0.1733992,-0.2326874,-0.00434583,0.003884623,-0.006057387,-0.003069742,-0.001012588,-0.003823836
0.993463,-0.1745911,-0.2308704,-0.003391532,0.002672803,-0.004130501,-0.001476903,0.0008389661,-0.004230002
0.9940019,-0.1740619,-0.2331925,-0.002833125,0.003181975,-0.006340521,-0.001303237,0.00469678,-0.001363447
0.9945452,-0.1763125,-0.2339997,-0.002269557,0.00091095,-0.007033653,-0.0005382211,0.009414048,-0.0007918676
0.9947045,-0.1770059,-0.232869,-0.002089432,0.0001969866,-0.005786985,0.001501202,0.01051763,-0.00107998
0.9939882,-0.1760938,-0.2337952,-0.002784192,0.001088205,-0.006595506,0.002655322,0.008525488,-0.002854658
0.9936391,-0.1774619,-0.2353006,-0.003111014,-0.0003009076,-0.007981619,0.00245415,0.009871582,-0.00945373
0.9928884,-0.1781021,-0.2359878,-0.003838728,-0.0009623117,-0.008547915,0.002033927,0.01059234,-0.01293338
0.9927599,-0.1770092,-0.2348265,-0.003943494,0.0001093271,-0.007264289,0.00180832,0.009702188,-0.01015848
0.993772,-0.174161,-0.2322151,-0.002906771,0.0029363,-0.004529017,7.771932e-05,0.01037369,-0.005909659
0.9946923,-0.1718451,-0.2342035,-0.001960913,0.005231032,-0.00639213,-0.00135339,0.01075036,-0.004089186
0.9962814,-0.1754296,-0.2382724,-0.0003452744,0.001625117,-0.01033462,0.0007431994,0.01136708,-0.005208216
0.996276,-0.1792733,-0.2400958,-0.0003233949,-0.002240169,-0.01203041,0.00200908,0.01087703,-0.004977171
0.9952064,-0.1758572,-0.239107,-0.00136507,0.001154207,-0.01091258,0.002174078,0.007379648,-0.0003305127
0.9961321,-0.1725977,-0.2360149,-0.0004106956,0.004391948,-0.00769003,0.005915479,0.005013231,0.00392779
0.9956012,-0.1739257,-0.2356449,-0.0009124308,0.003041933,-0.007188138,0.008278583,0.005920086,0.002123007
0.9936824,-0.1739299,-0.2339962,-0.002801612,0.003015577,-0.005406138,0.005419865,0.00686706,-0.0006272884
0.9935749,-0.1741393,-0.2296936,-0.002878978,0.002783651,-0.0009690317,0.002070759,0.006683817,-0.001996932
0.996249,-0.1756357,-0.228602,-0.0001742907,0.001264297,0.0002579385,0.001467239,0.008944297,-0.00447581
1.00024,-0.1750852,-0.2289963,0.003847295,0.001791506,-3.772072e-07,0.002714138,0.01274974,-0.004589747
0.9999357,-0.1758492,-0.2300481,0.00357458,0.001003735,-0.0009160067,0.005684214,0.0136635,-0.004360198
0.9991181,-0.1778363,-0.2318111,0.00278812,-0.001007489,-0.002543094,0.009757078,0.0148913,-0.005572101
1.000557,-0.1777846,-0.2338167,0.004257863,-0.0009800815,-0.004413218,0.01050701,0.0187684,-0.006381586
0.9979301,-0.176138,-0.2344792,0.001661143,0.0006420545,-0.004940904,0.01039245,0.01973425,-0.007974257
0.9962999,-0.1724714,-0.2341797,6.053611e-05,0.004284049,-0.004507349,0.01248544,0.01725154,-0.006493184
0.9971443,-0.1700465,-0.2353677,0.0009336868,0.006684161,-0.005562082,0.01231957,0.01440336,-0.002544115
0.9944103,-0.172424,-0.2276089,-0.001772429,0.00428163,0.002329141,0.01267813,0.01037734,-0.001009712
0.9931065,-0.1747981,-0.2146382,-0.003049168,0.001881954,0.01543103,0.01409182,0.008596451,0.0006233903
0.9973109,-0.1734755,-0.214409,0.001181442,0.003178471,0.01578947,0.0131136,0.009221516,0.001633612
1.001282,-0.1730811,-0.2208263,0.00517784,0.003546239,0.009498673,0.01297882,0.007815423,-0.001116502
0.9977418,-0.1740042,-0.2234737,0.001662572,0.002595777,0.006974313,0.01242117,0.008218484,-0.003556428
0.9940484,-0.1722993,-0.2222737,-0.002007297,0.004272702,0.008293173,0.00931199,0.00936831,7.588684e-05
0.9982291,-0.1709196,-0.2208743,0.00219592,0.005623679,0.009806777,0.005616479,0.01011059,0.004492477
0.9997246,-0.1708001,-0.2228799,0.003712878,0.005713569,0.007910546,0.004389208,0.01343157,0.002143686
0.9980858,-0.1709554,-0.2240679,0.002094384,0.005527673,0.006826457,0.004302164,0.01292474,0.0006001594
0.9997479,-0.1728955,-0.2232793,0.003775438,0.003555868,0.007713383,-7.426535e-05,0.0124771,-0.0001255377
1.0003,-0.1740513,-0.2212287,0.004345018,0.002367099,0.009856367,-0.003604278,0.01780067,-0.00785829
0.9999633,-0.1737108,-0.2167815,0.004024415,0.002673591,0.01438967,-0.0007953418,0.01994489,-0.01365755
0.9999691,-0.1734408,-0.2122734,0.004044569,0.002908401,0.01897737,0.002671434,0.0168184,-0.01282231
0.9999357,-0.1741116,-0.2110397,0.004023572,0.002201331,0.02028332,0.002091586,0.01317072,-0.01164673
0.9998099,-0.1764997,-0.216443,0.003908353,-0.0002241025,0.01494453,0.003165321,0.01166131,-0.01182308
0.9980366,-0.178209,-0.2222283,0.002143562,-0.001971624,0.009215374,0.00679363,0.01046299,-0.01068716
0.9967655,-0.1772704,-0.222243,0.000878909,-0.001071949,0.009248332,0.004492405,0.009692872,-0.008825694
0.997049,-0.1750668,-0.2231435,0.001166874,0.001092294,0.008386922,0.003196635,0.01170235,-0.01041765
0.997496,-0.173694,-0.2236681,0.001616346,0.00242541,0.007893029,0.005129409,0.01076217,-0.01034623
0.9971906,-0.1719436,-0.2203551,0.001311601,0.00413575,0.01122823,0.002649378,0.006794573,-0.008592425
0.997367,-0.1713429,-0.2203248,0.001486887,0.004696122,0.01127244,0.00124122,0.002573326,-0.009086914
0.9992813,-0.1730845,-0.2213968,0.003398217,0.002913811,0.01020605,-0.0001963884,-6.316366e-05,-0.00607225
1.000394,-0.1718828,-0.2196014,0.004506343,0.004074322,0.01199871,-0.002602843,0.003563624,-0.003133511
0.9999927,-0.1708209,-0.220525,0.004098533,0.005094483,0.01106413,-0.00461956,0.006101214,-0.001185418
0.9987044,-0.1711287,-0.2234008,0.002801887,0.004744383,0.008169173,-0.008374216,0.004401316,0.0003088043
0.9972406,-0.1696523,-0.2258399,0.001327848,0.006177812,0.00570281,-0.007266979,0.003032427,-0.002030494
0.9961914,-0.1714424,-0.2273701,0.000266556,0.004343963,0.004137592,-0.004912155,0.002243874,-0.0001522895
0.9954008,-0.1737612,-0.2271771,-0.0005377663,0.001980487,0.0042883,-0.005387842,0.004188519,0.002361929
0.9957614,-0.1737594,-0.2287945,-0.0001924705,0.001936875,0.002621683,-0.004555722,0.004103619,0.003551017
0.9949217,-0.1737632,-0.2293354,-0.001048849,0.001886811,0.002024983,-0.004886472,0.001003294,0.007726472
0.9930199,-0.1736094,-0.2253744,-0.002968459,0.001993635,0.005924338,-0.003377497,-0.001878667,0.007026398
0.9928894,-0.1756634,-0.2206703,-0.003117805,-0.0001078886,0.01056108,0.0006271281,-0.006483979,0.00538052
0.9939569,-0.1765979,-0.2183387,-0.002069771,-0.00109049,0.01281992,0.001822421,-0.007868382,0.00417375
0.9975895,-0.1741656,-0.2203569,0.001542972,0.001293547,0.01072351,0.001614325,-0.00701133,0.003006107
1.001347,-0.1712662,-0.2217784,0.00528015,0.004144418,0.009218421,0.001687422,-0.007294784,0.006116099
1.000102,-0.1699638,-0.2208534,0.004014235,0.00539816,0.01005449,0.003004214,-0.006539125,0.004674029
0.9971226,-0.1712151,-0.2240532,0.001013607,0.004097911,0.006760607,0.006710101,-0.006714197,0.003411454
0.9961865,-0.1709495,-0.2287772,5.553864e-05,0.004314287,0.001937551,0.01031631,-0.007232365,0.004120804
0.9955905,-0.1706419,-0.2292804,-0.0005628797,0.004572164,0.001330876,0.0096497,-0.008089994,0.002141579
0.9959639,-0.1721099,-0.2254802,-0.0002123632,0.003054123,0.005023458,0.008362652,-0.01007337,0.006668744
0.9976766,-0.172252,-0.2221734,0.001477126,0.002861481,0.00821903,0.01078906,-0.01360114,0.008128633
0.9974761,-0.1723769,-0.2242389,0.001253104,0.002685522,0.00603885,0.01070379,-0.01605695,0.004734405
0.9972285,-0.1723137,-0.2279276,0.0009817923,0.002697309,0.002232304,0.01013879,-0.0131521,0.006628907
0.9988207,-0.1731832,-0.2296902,0.002550067,0.001775861,0.0003490796,0.0121357,-0.01086267,0.004362196
0.9987532,-0.1750323,-0.2295108,0.002458437,-0.0001254232,0.0004054238,0.01177409,-0.006936414,0.001771214
0.9964865,-0.1749447,-0.2276992,0.0001672475,-9.01718e-05,0.002092085,0.01266168,-0.0002724209,0.003685777
0.9951919,-0.1737819,-0.2277503,-0.001152046,0.001020159,0.001914559,0.01231885,-0.002453554,0.00257835
0.9959439,-0.1714819,-0.2289441,-0.0004248357,0.003267784,0.000593165,0.00794071,-0.006875625,0.0004637023
0.9961896,-0.1705146,-0.2291713,-0.0002040142,0.004182748,0.0002376457,0.005860777,-0.00641647,-0.002408289
0.9966824,-0.1731065,-0.2290786,0.0002640117,0.001538553,0.0002016494,0.005926067,-0.006732982,-0.004826265
0.9985462,-0.1757232,-0.2270063,0.002103129,-0.001130391,0.002145271,0.00686014,-0.005862474,-0.003639346
0.9990988,-0.1755983,-0.224884,0.002631174,-0.001057572,0.004139078,0.005606904,-0.003691859,1.530209e-05
0.9985044,-0.1743087,-0.2249641,0.002012233,0.0001803916,0.00393093,0.003488599,-0.003272331,0.004620107
0.9957651,-0.1749414,-0.2262617,-0.0007516153,-0.0005035217,0.002505852,0.003484492,-0.004113199,0.00535393
0.9918458,-0.1748575,-0.2289675,-0.004695341,-0.0004702981,-0.0003266247,0.001744459,-0.004300582,0.004680986
0.9926921,-0.1749614,-0.2311064,-0.003873179,-0.0006240637,-0.002591331,0.0019639,-0.0008662557,0.00695014
0.9959039,-0.1796306,-0.2296317,-0.0006850334,-0.005342302,-0.001241069,0.002790653,0.001429287,0.006905519
0.9959922,-0.1833901,-0.2233168,-0.000619823,-0.009149649,0.004950957,0.001785697,-0.002369929,0.006658943
0.9960456,-0.1834266,-0.2189595,-0.0005887964,-0.009232581,0.009187097,0.003640562,-0.007538872,0.009963719
0.9978547,-0.1806855,-0.223432,0.00119864,-0.006535914,0.004595013,0.004624486,-0.01043668,0.01144249
0.9985434,-0.1751567,-0.2283445,0.001866454,-0.001049276,-0.0004354983,0.005335294,-0.01014758,0.01150629
0.9971612,-0.1723673,-0.2278208,0.0004639858,0.001700417,-2.830191e-05,0.006889198,-0.008615459,0.01203207
0.9949637,-0.1734637,-0.2261137,-0.001753114,0.0005667186,0.001564135,0.005822226,-0.009383681,0.01060324
0.9961033,-0.1741813,-0.2254504,-0.0006324866,-0.0001857916,0.002114654,0.004494098,-0.01192054,0.008284355
0.9992955,-0.1733933,-0.2250662,0.002541477,0.0005694292,0.002388061,0.003949186,-0.01319539,0.006394251
0.999852,-0.1733562,-0.22259,0.003080311,0.0005758324,0.004755448,0.004367543,-0.01063172,0.006519891
0.9984685,-0.173694,-0.2202875,0.001679799,0.0002093689,0.00695125,0.004072293,-0.006570254,0.007506511
0.9954911,-0.1715366,-0.2194866,-0.001314288,0.002340143,0.007647173,0.002422695,-0.001281718,0.006516343
0.9951371,-0.1706174,-0.219259,-0.001684514,0.003234387,0.007771413,0.002139044,0.002910579,0.005729295
0.9970463,-0.172698,-0.2225548,0.0002089279,0.001130491,0.004373781,0.00248623,0.001280396,0.003812489
0.9972943,-0.1750894,-0.2246572,0.0004417684,-0.001282756,0.002170812,0.003238393,-0.0007424097,0.002684525
1.000046,-0.1783556,-0.2232917,0.003178394,-0.004569405,0.003437006,0.002705211,-0.003020379,0.005560623
1.000526,-0.181366,-0.2239358,0.003644047,-0.00759865,0.002694901,-0.0002181074,-0.002700257,0.004482102
0.997371,-0.1813737,-0.2254899,0.0004755292,-0.007623478,0.001044044,-0.002350463,0.001106607,0.002419845
0.9969139,-0.1798402,-0.2270191,4.609096e-06,-0.006105043,-0.0005804009,-0.002320202,-0.002454221,0.005744346
0.9965026,-0.1813625,-0.2274472,-0.0004201841,-0.007640154,-0.001102132,-0.001246279,-0.003495367,0.006368353
0.9970919,-0.181952,-0.22657,0.0001557296,-0.008239882,-0.0003169584,-0.001546756,0.001037638,0.005344113
0.9978058,-0.1795983,-0.2258762,0.0008565135,-0.005893611,0.0002867631,-0.001706062,0.001438057,0.005239402
0.9971142,-0.1808603,-0.2223223,0.0001520867,-0.007160107,0.003752562,-0.0006839061,0.001932627,0.002870726
0.9987787,-0.1818639,-0.2188898,0.001804043,-0.008165077,0.007098883,-0.001209824,0.0002690924,0.003395457
0.9992579,-0.1814598,-0.2184941,0.002270766,-0.007759067,0.007410243,-0.001180454,-0.00270468,0.004220696
0.9980816,-0.1810869,-0.2170775,0.001082213,-0.007380847,0.008743977,-0.0005326867,-0.006122571,0.002208393
0.9986791,-0.177187,-0.2145568,0.00166752,-0.003472055,0.01118305,-0.0001293692,-0.008581183,0.001672685
0.998856,-0.1755023,-0.2158854,0.00183219,-0.001774953,0.009773595,0.003381103,-0.003325078,-0.000744565
0.9979914,-0.1767524,-0.2231129,0.0009553031,-0.003009256,0.00246589,0.006544739,-0.000360308,-0.002621756
0.9969123,-0.177544,-0.2301776,-0.0001361216,-0.003781688,-0.004678608,0.004755697,-0.0001859213,-0.001118933
0.9953939,-0.1789602,-0.2318642,-0.001666863,-0.005175703,-0.006444395,0.002791132,0.001980195,-0.0008701836
0.9954236,-0.1795613,-0.2289351,-0.001649471,-0.005751468,-0.003593436,0.003620755,0.0004447281,0.0009474827
0.996226,-0.1797731,-0.226814,-0.0008592101,-0.005934959,-0.001549108,0.001681354,-0.002614908,0.00366316
0.9712376,-0.1988288,-0.3172118,0.03493538,0.03121043,0.05876903,-0.03997451,0.08761404,-0.03213264
0.9729032,-0.1905935,-0.3155809,0.03536598,0.03779659,0.05884962,-0.04570954,0.1041431,-0.02713042
0.9708082,-0.1794384,-0.312795,0.03205098,0.04733465,0.06008255,-0.05860623,0.1078813,-0.02208082
0.9716685,-0.1682597,-0.3186612,0.03170696,0.05692856,0.05266224,-0.07204335,0.09539541,-0.01521327
0.9693694,-0.1704748,-0.3192877,0.0282196,0.05316009,0.05048171,-0.08680236,0.07516056,-0.004210145
0.9671758,-0.1818818,-0.3166148,0.0248545,0.04023059,0.05160245,-0.1027501,0.04809895,0.009797115
0.9657825,-0.1869594,-0.32404,0.02230692,0.03366078,0.04262824,-0.1227835,0.01527517,0.02149456
0.9590201,-0.1901147,-0.3272985,0.01440821,0.02904349,0.03782566,-0.1309677,-0.002683848,0.02079223
0.9568788,-0.1934629,-0.3297244,0.01114949,0.0242637,0.03386234,-0.1091182,0.007014477,0.01110608
0.9590877,-0.1991643,-0.3384778,0.01226086,0.01716162,0.0235801,-0.08455718,0.01093236,0.008136318
0.9562497,-0.2092662,-0.3438324,0.008346116,0.005690244,0.01670729,-0.05697528,0.000186028,0.01274669
0.9556176,-0.214531,-0.3500049,0.006658965,-0.0009117025,0.009029601,-0.01331448,-0.00212984,0.01703948
0.9545281,-0.2155304,-0.3548905,0.004537063,-0.003214976,0.00265428,0.02147275,-0.006742787,0.0178101
0.9532933,-0.216603,-0.3479647,0.002293378,-0.005556738,0.00810843,0.05223403,-0.01133536,0.01687864
0.9593556,-0.2153372,-0.3395002,0.00737114,-0.005524413,0.01512165,0.07839181,-0.002446221,0.02060569
0.9628022,-0.2096725,-0.3435903,0.00985829,-0.001056399,0.009602632,0.0854091,0.01543423,0.02449479
0.9648159,-0.202424,-0.3467042,0.01093789,0.00503301,0.005083985,0.08869622,0.04337871,0.0265197
0.9681186,-0.1984456,-0.3403078,0.01333205,0.007890142,0.01010144,0.08745208,0.06018473,0.02871528
0.9679772,-0.1944937,-0.3375546,0.01230774,0.01075866,0.01150288,0.08249626,0.06004138,0.02909301
0.9680789,-0.1921133,-0.3321702,0.01155207,0.01209331,0.01556383,0.07883807,0.06439385,0.03287695
0.9658719,-0.1955284,-0.3261939,0.008513039,0.00766971,0.02024603,0.06737272,0.05870483,0.03458628
0.9634386,-0.1997725,-0.3299628,0.005273081,0.002453853,0.01521277,0.06379591,0.04755863,0.03026605
0.963077,-0.2032561,-0.3299772,0.004130224,-0.001964952,0.01396421,0.06895849,0.04816388,0.02536757
0.9619336,-0.2068355,-0.3290516,0.002230883,-0.006443083,0.0136863,0.06755748,0.04467441,0.01984636
0.963272,-0.2096638,-0.3312419,0.002838784,-0.01013369,0.01032347,0.06925718,0.04635588,0.01642647
0.9652555,-0.2110127,-0.3285217,0.004117247,-0.0123083,0.01190251,0.07047899,0.05569396,0.01001653
0.9671958,-0.2135263,-0.3270257,0.005377823,-0.0156108,0.01228886,0.06819664,0.05530799,-0.002588932
0.9668282,-0.215742,-0.3278756,0.004355689,-0.01857853,0.01036106,0.06940932,0.05341422,-0.01289097
0.9628553,-0.2098532,-0.3291971,-0.0002469367,-0.01340449,0.007993481,0.06573171,0.05095996,-0.01757937
0.9612706,-0.2044934,-0.3339783,-0.002436667,-0.008722215,0.002198069,0.06230138,0.04832063,-0.02253532
0.9610225,-0.2071514,-0.3392386,-0.003265148,-0.01202085,-0.004044384,0.06615384,0.05174396,-0.02856473
0.9632303,-0.2079767,-0.339066,-0.001613201,-0.01345008,-0.004821358,0.07030361,0.05562972,-0.02957833
0.9667019,-0.2071061,-0.3385045,0.001326968,-0.01314719,-0.00517652,0.07285399,0.06137322,-0.03482995
0.9668494,-0.2087754,-0.3427064,0.0009671007,-0.01534837,-0.01026173,0.07238318,0.06717098,-0.04179232
0.9657274,-0.2085206,-0.3395672,-0.0006386179,-0.01558989,-0.007972166,0.07139547,0.06732298,-0.04255626
0.9611385,-0.2068786,-0.3340948,-0.005687913,-0.01440917,-0.00331543,0.07134331,0.06585108,-0.04935139
0.9566459,-0.2064314,-0.3366048,-0.01061786,-0.01438881,-0.006606966,0.06920443,0.06501558,-0.05380125
0.9585092,-0.2042409,-0.3351282,-0.00916894,-0.01259126,-0.005877856,0.06811217,0.06100018,-0.05153887
0.962446,-0.2014968,-0.3314079,-0.005623616,-0.01020681,-0.002871232,0.06849537,0.05466047,-0.05221425
0.9656163,-0.2008829,-0.3289978,-0.002822053,-0.009920273,-0.001141155,0.06881798,0.05374182,-0.05198614
0.96701,-0.1998899,-0.324688,-0.001774849,-0.009223132,0.002521811,0.06924869,0.05592515,-0.05197332
0.9641912,-0.1995301,-0.3245542,-0.004918457,-0.009128701,0.002041186,0.06734371,0.05554075,-0.05176493
0.9610382,-0.2004018,-0.3260927,-0.008374929,-0.01023621,-8.006954e-05,0.06442667,0.05315851,-0.05150606
0.962565,-0.199939,-0.32851,-0.007130728,-0.00998089,-0.003049099,0.06324846,0.04703639,-0.05211713
0.9632419,-0.1992712,-0.3327168,-0.006715942,-0.009493024,-0.007777318,0.06065983,0.0432352,-0.05179514
0.9617352,-0.1975561,-0.3314417,-0.008464571,-0.007931353,-0.006993798,0.05506227,0.0488195,-0.05241267
0.9628463,-0.1950713,-0.3259162,-0.007575759,-0.005574593,-0.001930618,0.05008394,0.05487919,-0.05269211
0.9628055,-0.196377,-0.3218678,-0.007819621,-0.006984029,0.001684215,0.04802003,0.0526569,-0.053218
0.9631585,-0.197707,-0.3216636,-0.007650738,-0.008394596,0.001482516,0.0462616,0.0502219,-0.0481341
0.9654991,-0.1942144,-0.3239784,-0.005475934,-0.0049605,-0.001211252,0.03959626,0.05160741,-0.04066856
0.9652002,-0.1921473,-0.3279274,-0.005922824,-0.002930984,-0.00551324,0.03090679,0.04847988,-0.04186243
0.9641408,-0.1940989,-0.332519,-0.007112973,-0.004900392,-0.0104326,0.02680853,0.04492131,-0.04131118
0.9627875,-0.1948205,-0.3313749,-0.008580324,-0.005621165,-0.009591659,0.02596456,0.04418539,-0.037725
0.9616388,-0.192713,-0.3281543,-0.009826767,-0.003495399,-0.00664997,0.02333186,0.04395723,-0.0356952
0.9609847,-0.1890306,-0.3280424,-0.010563,0.0002216601,-0.006793334,0.01364287,0.04625739,-0.02999973
0.9591344,-0.1870369,-0.3271819,-0.01247998,0.002265262,-0.006165219,0.003147672,0.04302343,-0.02525835
0.9594255,-0.1902656,-0.3284147,-0.01224049,-0.0008997225,-0.007608041,-3.72843e-05,0.03840744,-0.01949062
0.9602622,-0.1952541,-0.3313453,-0.01144071,-0.005811758,-0.0107271,-0.003885235,0.04007779,-0.01225892
0.9590442,-0.1966369,-0.3346831,-0.01268139,-0.007106286,-0.01423238,-0.00911352,0.03832923,-0.01282592
0.9579373,-0.1964646,-0.3405556,-0.01379679,-0.006834701,-0.02025163,-0.01030457,0.03483415,-0.0102596
0.9565905,-0.1969494,-0.3426216,-0.01513848,-0.007209994,-0.02244407,-0.01135381,0.03261719,0.0006589828
0.9561654,-0.1969996,-0.3418371,-0.01554512,-0.0071412,-0.02176555,-0.01293202,0.03116284,0.00451464
0.9556839,-0.1977029,-0.3424422,-0.01599482,-0.007716412,-0.0224564,-0.01237819,0.03134178,0.004420104
0.9534286,-0.1983272,-0.342762,-0.01820539,-0.008204481,-0.02284176,-0.01042491,0.02747254,0.008463863
0.9543139,-0.1994187,-0.341435,-0.01726259,-0.009151838,-0.02156021,-0.009519784,0.0215055,0.01155689
0.9575994,-0.2007957,-0.3374527,-0.01390709,-0.01037754,-0.0176036,-0.009834035,0.01078066,0.01427911
0.9590352,-0.199686,-0.3364221,-0.01238888,-0.009109729,-0.01657914,-0.01106761,-0.002949347,0.01934253
