accx,accy,accz,body_accx,body_accy,body_accz,body_gyrox,body_gyroy,body_gyroz
0.9486771,-0.2550277,0.06866897,-0.07403998,-0.02770742,0.09269285,0.1755464,-0.003129814,-0.01718591
0.9894791,-0.2495647,0.0674295,-0.0327042,-0.02224618,0.08813344,0.07486805,0.04826703,-0.1045103
0.9933909,-0.2513747,0.06734812,-0.02825184,-0.02401775,0.08476659,0.1202121,-0.01804396,-0.1291554
1.008842,-0.2695231,0.07055398,-0.01225393,-0.04208921,0.08472345,0.1792326,-0.06143386,-0.1262284
1.01988,-0.2825518,0.06825291,-0.0006630605,-0.05500362,0.07921174,0.1957909,-0.0389103,-0.151559
1.028453,-0.2755968,0.06447987,0.008467252,-0.04789768,0.07226823,0.2537071,-0.002623282,-0.1585735
1.061498,-0.2516418,0.06046506,0.04207018,-0.02375582,0.06512501,0.228952,0.08520127,-0.1144612
1.05558,-0.2303428,0.05561336,0.03671021,-0.002235351,0.0571889,0.1844235,0.1047073,-0.04756354
1.011559,-0.2398072,0.05449283,-0.006757769,-0.01144597,0.05303005,0.1693902,0.08473758,-0.02471569
0.9610924,-0.2521907,0.0571927,-0.05667606,-0.02354581,0.05273977,0.1369676,0.0974626,-0.03589963
0.9665222,-0.2547787,0.06736501,-0.05070375,-0.02582227,0.05997198,0.1380466,0.09167154,-0.03391278
0.9988749,-0.2569206,0.0819112,-0.01781299,-0.02762649,0.07162955,0.134771,0.08456993,-0.03026047
0.9918084,-0.2529964,0.08510793,-0.02434497,-0.02334008,0.07198996,0.1178265,0.07728216,-0.03125028
1.007187,-0.2519616,0.08406482,-0.008435168,-0.02191977,0.0681632,0.1108167,0.08037765,-0.02852097
1.015869,-0.2540943,0.08863345,0.0007730333,-0.02364545,0.070001,0.09418452,0.09222936,-0.02784819
1.005751,-0.2586521,0.08472108,-0.008823091,-0.02777597,0.06341073,0.09932382,0.09534386,-0.03202448
1.013191,-0.2681082,0.07914257,-0.0008668983,-0.03678594,0.05520735,0.1034792,0.1074398,-0.03377329
1.00014,-0.2728661,0.07599108,-0.0134077,-0.04107976,0.04948429,0.1020833,0.1100675,-0.02884206
1.00047,-0.2672376,0.07060845,-0.01257533,-0.03496987,0.04158388,0.127445,0.1052235,-0.01256931
1.009383,-0.2641591,0.07660917,-0.00316652,-0.03139326,0.04512114,0.1441787,0.1031758,0.01103275
1.001121,-0.2747486,0.07928312,-0.01094064,-0.04146884,0.04538651,0.1634874,0.09127263,0.01815733
1.004327,-0.2861508,0.07575473,-0.007255233,-0.05234173,0.03950471,0.1898048,0.08341655,0.008694273
0.9988025,-0.2892775,0.07944849,-0.01230804,-0.05492413,0.04090051,0.2028048,0.09618458,0.006588945
0.9986138,-0.2844013,0.07596272,-0.01203377,-0.04948839,0.03517239,0.2184195,0.1145181,0.01291201
1.00801,-0.2767346,0.07086325,-0.002183406,-0.04124697,0.02788639,0.2239373,0.1097467,0.01605223
1.004686,-0.2748916,0.06845872,-0.005061478,-0.03881432,0.02335144,0.2295913,0.09597963,0.01844038
1.002859,-0.2794919,0.07067733,-0.006452095,-0.04281067,0.02349613,0.249293,0.0869003,0.02261157
0.9930485,-0.2877248,0.0819051,-0.01583582,-0.05042593,0.03270676,0.2741569,0.06659327,0.03116034
0.9883963,-0.2885659,0.085267,-0.02007018,-0.0506358,0.03410822,0.3028144,0.04441489,0.05114883
0.9953631,-0.2831035,0.08924596,-0.01269455,-0.0445289,0.03618305,0.3192588,0.0268326,0.0673797
0.9940892,-0.2809804,0.09170377,-0.01356815,-0.04174837,0.03679233,0.3354999,0.01336185,0.06532199
0.9972897,-0.2769061,0.08634404,-0.009975586,-0.03700407,0.02963888,0.3459303,0.006695484,0.05176843
1.001084,-0.2703633,0.09171852,-0.005797319,-0.02977947,0.03327363,0.3338683,-0.004944049,0.03302542
1.003484,-0.2590268,0.09315858,-0.003022436,-0.0177505,0.03302715,0.3210735,-0.01630115,0.02093105
1.008816,-0.2415409,0.08993187,0.002676948,0.0004370043,0.02816616,0.2864543,-0.01034196,0.01285974
1.01203,-0.2226227,0.09301448,0.006249657,0.0200638,0.02966588,0.2191982,0.011438,-0.003763061
1.019835,-0.2035192,0.09105725,0.01440275,0.03988,0.0261762,0.1425208,0.03655072,-0.0157923
1.022629,-0.1963843,0.09165214,0.01753612,0.04772791,0.02528823,0.05688638,0.06663728,-0.02591093
1.018986,-0.2000205,0.09386899,0.01422015,0.04480084,0.02607089,-0.02524197,0.1074118,-0.04334802
1.010806,-0.2023581,0.09558384,0.006355376,0.04316459,0.02639928,-0.09528704,0.1455957,-0.04383386
0.9983187,-0.2060975,0.101577,-0.005828946,0.04011519,0.03105263,-0.1379291,0.1617711,-0.03357294
1.002299,-0.2090324,0.1011369,-0.001558053,0.03785574,0.02931831,-0.1587772,0.1446771,-0.03476414
1.006834,-0.2167728,0.09562912,0.003255159,0.03077325,0.0225605,-0.2004244,0.1190543,-0.03310324
0.996596,-0.2375932,0.08887161,-0.006717029,0.0105913,0.01459611,-0.2381867,0.1055479,-0.03724694
0.9941916,-0.257724,0.08584011,-0.008867267,-0.008922017,0.01040011,-0.2433147,0.0932305,-0.05584788
0.9967279,-0.2672405,0.09101399,-0.006088124,-0.01784217,0.01445123,-0.2335756,0.09548166,-0.06738383
0.996472,-0.2721085,0.09242905,-0.006111997,-0.02213446,0.01478464,-0.2132585,0.09655468,-0.07247917
0.9977158,-0.2858744,0.08949256,-0.00464652,-0.03534442,0.01080688,-0.177093,0.07356766,-0.06654557
0.9971161,-0.3067167,0.08848901,-0.005034453,-0.055649,0.008801742,-0.1165385,0.05987034,-0.05252843
0.99654,-0.3114371,0.08959894,-0.005408327,-0.05984772,0.008949074,-0.05893173,0.05771214,-0.05195967
0.9942776,-0.3053998,0.09090453,-0.007477525,-0.05330226,0.009330375,-0.01983132,0.05053141,-0.05109554
0.9892693,-0.3055948,0.08910556,-0.01230125,-0.05300009,0.006644741,0.01421263,0.03769569,-0.04540302
0.9888564,-0.3004206,0.08842768,-0.01253756,-0.04733765,0.00511711,0.03042578,0.01937042,-0.04721493
0.9935791,-0.2947363,0.08970813,-0.007645606,-0.04117206,0.005584042,0.0465824,0.005529238,-0.05227699
0.9974473,-0.296977,0.09142263,-0.003614933,-0.04293695,0.006520567,0.07103351,-0.004236549,-0.05659761
0.9964659,-0.2910232,0.09377826,-0.004440262,-0.03651157,0.008132989,0.08405958,-0.003285878,-0.05496171
0.9969581,-0.2766458,0.09173549,-0.003798029,-0.02166575,0.005380935,0.08223663,0.003312975,-0.05125219
1.002188,-0.2637837,0.08716528,0.00157644,-0.008338176,0.0001345391,0.06165617,0.003824907,-0.04161994
1.004777,-0.2621407,0.08585355,0.004303127,-0.006232679,-0.001820978,0.04129335,0.01399088,-0.02707202
1.004501,-0.2681496,0.08945187,0.00415984,-0.01178266,0.001165358,0.03159751,0.0210362,-0.03105595
0.9999339,-0.2645273,0.09589037,-0.000281061,-0.007705654,0.007023,0.02968799,0.01646467,-0.04038249
0.9939727,-0.2620958,0.09779894,-0.006121832,-0.004824038,0.008380969,0.02347476,0.01775338,-0.03967605
0.9990211,-0.2611648,0.09495603,-0.0009588497,-0.003448106,0.005016694,-0.00111569,0.01779209,-0.03615487
1.006028,-0.2558591,0.09299512,0.006157482,0.002296661,0.002562641,-0.01215363,0.02279804,-0.02483203
1.006719,-0.2657759,0.09024611,0.006951178,-0.007187637,-0.0006521922,-0.005308649,0.04388778,-0.02025447
1.008504,-0.2752952,0.08695017,0.008834712,-0.0162813,-0.004387387,0.001673768,0.06150881,-0.02968205
1.001337,-0.2692193,0.08784828,0.001759644,-0.009787052,-0.003902586,0.008164941,0.05977663,-0.03466204
0.9899659,-0.2648818,0.08890029,-0.009526159,-0.005038397,-0.003238498,0.002152932,0.04552908,-0.03102836
0.9958707,-0.2612675,0.0869359,-0.0035412,-0.001020283,-0.00556601,-0.007519288,0.0310377,-0.02107317
1.004944,-0.2563405,0.08738408,0.005606687,0.004302707,-0.005456714,-0.01404097,0.02428962,-0.01131672
1.007347,-0.2531146,0.08895701,0.008080028,0.007916184,-0.004199018,-0.02190388,0.03984385,-0.007885158
1.010946,-0.2502215,0.08859686,0.01174371,0.01118764,-0.004851337,-0.03394036,0.06013872,-0.0078743
1.006386,-0.2510873,0.08745461,0.007242822,0.0106902,-0.006263325,-0.05248576,0.05209567,-0.01066639
1.002058,-0.2520286,0.083266,0.002967914,0.01010652,-0.01069983,-0.07025204,0.04557109,-0.01669851
1.007928,-0.2500117,0.07880529,0.008885145,0.0124694,-0.01538701,-0.09303584,0.05409579,-0.02128391
1.00865,-0.2501793,0.07970832,0.00964912,0.0126355,-0.01468935,-0.107519,0.05651703,-0.01986444
1.003942,-0.2533508,0.0852197,0.004976592,0.009784743,-0.00936249,-0.1017013,0.07025214,-0.02040525
1.000061,-0.2565816,0.09092878,0.001125375,0.006861343,-0.003817503,-0.1000635,0.07988455,-0.02174185
0.999023,-0.2578422,0.09059465,0.0001120151,0.005894446,-0.004295937,-0.1008522,0.06548245,-0.01328141
1.001756,-0.2570124,0.08577931,0.002863982,0.007004017,-0.009236584,-0.09435773,0.04940093,-0.003267842
1.001498,-0.2587672,0.0849175,0.002618929,0.005515039,-0.01020536,-0.0849547,0.02352118,0.004316198
1.000559,-0.2625865,0.08999533,0.001688628,0.001947599,-0.005216784,-0.066919,5.853305e-05,0.0104386
0.9991247,-0.2625317,0.09485503,0.0002577273,0.002240372,-0.0004292831,-0.05157726,0.0008082073,0.01354742
0.9972349,-0.259838,0.09271083,-0.00163289,0.005158427,-0.002629491,-0.04963339,-0.01101921,0.01886803
1.003423,-0.2556401,0.08995282,0.004550071,0.009567227,-0.005428211,-0.05202447,-0.03091362,0.01989049
1.008741,-0.2534935,0.0926218,0.009858778,0.0119112,-0.002785451,-0.05529832,-0.02303793,0.01316089
1.003249,-0.2578851,0.09287527,0.004354773,0.007703404,-0.002544526,-0.05322025,-0.01778793,0.007929625
0.9972584,-0.2612887,0.09246855,-0.001653059,0.004470196,-0.002950887,-0.04610594,-0.02753566,0.008261122
0.9985756,-0.2588216,0.09339847,-0.0003563905,0.007094346,-0.002008531,-0.04389476,-0.02694638,0.01348415
1.000634,-0.2545644,0.08986091,0.001678371,0.01149535,-0.005522323,-0.05056376,-0.03231822,0.01672455
1.001364,-0.2535219,0.08833283,0.002381165,0.01266863,-0.007015991,-0.06751219,-0.03847857,0.01443368
1.003724,-0.2606507,0.09089242,0.004711449,0.005657538,-0.004411922,-0.07577332,-0.02456696,0.01366612
1.002931,-0.2701812,0.09221063,0.003885444,-0.003768126,-0.003039746,-0.06684812,-0.01680437,0.01852353
1.002393,-0.2696554,0.09143914,0.003312322,-0.003149682,-0.003748409,-0.05539138,-0.01700016,0.0209122
1.005277,-0.2672201,0.08840859,0.006158219,-0.0006332373,-0.006707875,-0.03905535,-0.003579463,0.01178402
1.005767,-0.2725251,0.08660422,0.006607835,-0.00586793,-0.008433427,-0.02473917,0.01250757,-0.001158792
1.005677,-0.2732136,0.08558305,0.006474655,-0.006496067,-0.009368442,-0.0202733,0.008734547,-0.01021687
1.005505,-0.2711166,0.08466982,0.006256229,-0.004347968,-0.01018851,-0.01584493,-0.002069951,-0.02067143
1.005341,-0.2729946,0.08647006,0.006044189,-0.006183106,-0.008288355,-0.008448633,0.001803282,-0.02645316
1.005219,-0.2715954,0.08827799,0.005871194,-0.004748755,-0.006374065,0.00689792,-0.003662152,-0.0213974
1.001665,-0.2702232,0.08866952,0.002263762,-0.003348197,-0.005870123,0.02321464,-0.01437855,-0.01836433
0.9991806,-0.2683499,0.08938741,-0.00027688,-0.0014528,-0.005034167,0.02618014,-0.01363767,-0.01556889
1.001512,-0.2625789,0.09272776,0.001996108,0.004334604,-0.001570589,0.0261348,-0.02010173,-0.004171987
1.006659,-0.2567216,0.09559443,0.007083309,0.01020274,0.001423922,0.03131635,-0.01949884,0.004456946
1.008801,-0.2535151,0.0950421,0.009162817,0.01341458,0.001003396,0.03748666,-0.01544817,0.00561253
1.003678,-0.2557462,0.09670068,0.003976265,0.01118324,0.002797035,0.04723951,-0.02117421,0.002156865
0.9986522,-0.2545869,0.09910922,-0.001115745,0.01233645,0.005343163,0.05024333,-0.02056753,-0.001835873
0.9994924,-0.2506334,0.09469733,-0.0003431297,0.01627771,0.001070659,0.04119714,-0.02336079,-0.0004652789
1.000943,-0.2516266,0.08483647,0.001038171,0.01526604,-0.008649608,0.03484809,-0.02566844,0.0006945101
0.9995517,-0.249753,0.08021612,-0.0004230815,0.01711448,-0.01312845,0.02077211,-0.023379,0.004785747
0.9994178,-0.2485466,0.08684096,-0.0006280168,0.01828887,-0.006361166,0.004302582,-0.02861713,0.01715014
0.9988042,-0.2484067,0.09678784,-0.001313176,0.01838955,0.003729035,0.005025297,-0.03685348,0.02769731
0.9961466,-0.244417,0.1005911,-0.004042631,0.0223325,0.007676096,-0.001072308,-0.04508645,0.03073841
0.9975537,-0.2467349,0.09798926,-0.002707294,0.01995986,0.005217981,-0.01143512,-0.03672228,0.02740219
0.9996196,-0.2544016,0.09463301,-0.0007128137,0.01223032,0.002004613,-0.009397068,-0.02124037,0.02140221
0.9999148,-0.2628706,0.09171193,-0.0004883062,0.003690111,-0.0007749013,-0.008004404,-0.02579296,0.01552109
1.000561,-0.2681979,0.08905379,8.757202e-05,-0.001716111,-0.003293123,-0.0002893836,-0.02920964,0.01367233
0.9995704,-0.264085,0.08752285,-0.000971404,0.00231061,-0.004685966,0.01041562,-0.02785969,0.01663186
0.9999878,-0.2605345,0.08408631,-0.0006216623,0.00576835,-0.007986267,0.008603627,-0.03389311,0.01471924
1.000736,-0.2600014,0.08338437,5.986104e-05,0.006202792,-0.008553733,0.007340114,-0.03290421,0.011597
1.001308,-0.258613,0.08607831,0.0005673473,0.00748692,-0.005726941,0.01608367,-0.03090219,0.01207782
1.003649,-0.2604032,0.08440933,0.00284486,0.005587185,-0.007264561,0.02408159,-0.03314376,0.009592313
1.00258,-0.2599617,0.08443249,0.001713479,0.005914431,-0.007111434,0.02634451,-0.03171027,0.009480656
1.000565,-0.2588716,0.08781991,-0.0003621094,0.006885628,-0.003595354,0.03113515,-0.03530825,0.0117999
1.000858,-0.2605747,0.08919149,-0.0001291489,0.005059466,-0.002096413,0.03540497,-0.04422487,0.01373404
1.001254,-0.2589715,0.09109092,0.0002094423,0.006535805,-7.101221e-05,0.03338404,-0.05437001,0.02162866
1.001823,-0.2577551,0.09069012,0.0007222807,0.0076218,-0.000347414,0.03333673,-0.05957572,0.02545125
1.001377,-0.2569649,0.09052142,0.0002211554,0.008278304,-0.0003935011,0.03482718,-0.04989844,0.01803486
1.00209,-0.256106,0.09359605,0.0008805005,0.009000376,0.002801771,0.03323922,-0.0425977,0.01351966
1.003799,-0.2579367,0.09278273,0.00253776,0.007029896,0.00210685,0.03099232,-0.03775116,0.01479953
1.004344,-0.2577724,0.09059187,0.003032377,0.007051738,3.191733e-05,0.02886375,-0.02449184,0.01171601
1.005637,-0.2593181,0.08836555,0.004276864,0.005361072,-0.00208115,0.02830202,-0.0270189,0.007374405
1.004221,-0.2618354,0.08599003,0.002813024,0.002696558,-0.004346143,0.02900423,-0.03588372,0.008383313
1.001236,-0.2615857,0.08615751,-0.0002180304,0.002797179,-0.004070813,0.02860062,-0.02998948,0.008971388
1.001116,-0.2630416,0.08401305,-0.0003833144,0.001190615,-0.00611,0.02640405,-0.01807902,0.006594166
0.9999273,-0.2626514,0.08224553,-0.00161644,0.001429157,-0.007774633,0.02308003,-0.00437337,0.005369609
0.9992867,-0.2619497,0.08315717,-0.002300028,0.001978539,-0.00676227,0.02310673,-0.01527928,0.005810663
1.001003,-0.2627065,0.08573649,-0.0006249419,0.001069128,-0.004084174,0.02556937,-0.03564373,0.00792138
1.001637,-0.2602125,0.09043522,-3.182636e-05,0.003410624,0.0007115352,0.02586194,-0.0262125,0.01213431
1.002678,-0.2579378,0.08852532,0.0009706871,0.005533061,-0.001103217,0.02835669,-0.02539248,0.01905268
1.00164,-0.256286,0.0847826,-0.0001048922,0.007033172,-0.00475268,0.0326337,-0.03771733,0.02857099
0.9990887,-0.2550005,0.08675223,-0.002691836,0.008167617,-0.002691669,0.03076067,-0.04311885,0.03623527
1.001831,-0.2556149,0.08652037,1.562451e-05,0.007402581,-0.002833981,0.02431977,-0.0565569,0.03788637
1.003811,-0.2560116,0.08718034,0.001963499,0.006855939,-0.002086256,0.02083292,-0.05700889,0.03725082
1.001401,-0.2573035,0.08919352,-0.0004782577,0.005414554,1.289894e-05,0.01816854,-0.05203819,0.0397598
1.001035,-0.2588483,0.08682894,-0.0008738396,0.003720988,-0.002267521,0.01000706,-0.05460459,0.04255608
1.001926,-0.2585654,0.08614852,-1.208685e-05,0.003855723,-0.002865632,0.004773187,-0.0454334,0.04332128
1.003129,-0.2586823,0.0870398,0.001164005,0.003591616,-0.00189386,0.00637813,-0.04694343,0.04180645
1.004211,-0.2619991,0.08844861,0.002220364,0.0001286426,-0.000406354,0.006629387,-0.05361231,0.03648313
1.001633,-0.2651795,0.09208306,-0.0003822029,-0.003196609,0.003304944,0.01026396,-0.04857867,0.0338432
0.9988402,-0.2640239,0.09125625,-0.003198379,-0.002184304,0.002552999,0.01421661,-0.04970275,0.0347328
1.000563,-0.2630558,0.0879609,-0.001497957,-0.001357345,-0.0006696291,0.0124821,-0.04692383,0.03238001
1.004252,-0.2630792,0.08746974,0.002170278,-0.001519597,-0.001090308,0.01582598,-0.04234183,0.02865658
1.005652,-0.2604066,0.08769223,0.003551039,0.001016882,-0.0007995894,0.01863426,-0.03908734,0.02312052
1.002575,-0.2579627,0.08991236,0.0004556408,0.00332736,0.001486537,0.01581339,-0.02917758,0.01820039
0.9965127,-0.2554789,0.09134948,-0.005624038,0.005680675,0.002987361,0.01514819,-0.03431298,0.02153125
0.9951499,-0.2518088,0.08967428,-0.007003109,0.009223104,0.001373477,0.01148629,-0.04437519,0.02700508
0.9999848,-0.2530177,0.08929699,-0.002183235,0.007889029,0.001055029,0.005163742,-0.04208551,0.02961826
1.002577,-0.2565352,0.08630067,0.0003959335,0.004248708,-0.001884963,0.00250789,-0.04141039,0.0323127
1.001287,-0.2556178,0.08147884,-0.000905911,0.005045511,-0.006652898,0.007209862,-0.03947742,0.0314376
0.9999842,-0.2563675,0.08409793,-0.002219674,0.004177239,-0.00398214,0.01465973,-0.03828174,0.02988693
1.000312,-0.2592719,0.09017654,-0.0019008,0.001156278,0.002146143,0.01331134,-0.04329553,0.03519719
1.001884,-0.2583052,0.09428778,-0.0003365342,0.002008539,0.0063051,0.01291178,-0.0474873,0.03909878
1.003131,-0.2574066,0.09574315,0.0009039502,0.002794765,0.007806064,0.0147963,-0.04757619,0.03603568
1.002824,-0.2583045,0.09307735,0.0005922839,0.001786656,0.00518343,0.009250468,-0.0388702,0.03181448
1.00052,-0.2588864,0.0900419,-0.001715006,0.001096768,0.002188485,0.007692464,-0.03265875,0.02932488
0.9998918,-0.2591381,0.08588201,-0.002345447,0.0007394184,-0.001933663,0.009058483,-0.03884194,0.0333321
1.002075,-0.2597104,0.08283161,-0.0001635908,6.369317e-05,-0.004949005,0.007263439,-0.04361565,0.03888406
1.004344,-0.2598649,0.08560578,0.002105506,-0.0001917768,-0.00214222,0.005727105,-0.04265542,0.03689783
1.005487,-0.2569838,0.08626532,0.003249772,0.002590855,-0.001452256,0.003719391,-0.04242411,0.03724953
1.003979,-0.2537246,0.08631947,0.001743596,0.005754186,-0.001369692,0.00853248,-0.04459068,0.0405686
1.001309,-0.2524697,0.08812476,-0.000924284,0.006915465,0.0004621396,0.01391557,-0.04458114,0.03564837
0.9992123,-0.2541751,0.08392035,-0.003017561,0.005118744,-0.003717495,0.007917808,-0.04127579,0.03212701
1.000269,-0.2575675,0.08001841,-0.001957205,0.001636955,-0.007596239,0.002560692,-0.04150084,0.03805575
1.004434,-0.2589141,0.08119835,0.002212717,0.0002028438,-0.006394378,0.00501936,-0.04277294,0.04112395
1.004885,-0.2614803,0.08297048,0.002667718,-0.002448948,-0.004601236,0.009719697,-0.04226214,0.0361841
0.9996411,-0.2608309,0.08258971,-0.002570261,-0.001882925,-0.004961618,0.01487304,-0.04410085,0.03282136
0.9939642,-0.2554494,0.0812074,-0.008241291,0.003417361,-0.00632389,0.01861825,-0.04559212,0.03617168
0.9972235,-0.2553273,0.0843411,-0.004975397,0.003460545,-0.003170269,0.01559716,-0.04295328,0.03938154
1.003832,-0.2567099,0.08677867,0.001640827,0.002001187,-0.0007127178,0.00866367,-0.03946367,0.0387357
1.002242,-0.2567375,0.08786215,5.890397e-05,0.001898864,0.0003908539,0.007143632,-0.0414147,0.03860486
1.00075,-0.2565499,0.09445773,-0.001424771,0.002013828,0.007006553,0.007514595,-0.04988007,0.03873132
1.000821,-0.2547423,0.09899181,-0.001344126,0.003750765,0.01156051,0.005843542,-0.05467227,0.03971618
1.003081,-0.2556568,0.0960594,0.0009269232,0.002767429,0.008647292,0.005261597,-0.04744475,0.04167926
1.010338,-0.256686,0.08821988,0.008194898,0.001671245,0.0008258111,0.004979007,-0.03927867,0.03992567
1.010107,-0.259991,0.08165222,0.007975056,-0.001699055,-0.005725127,0.006584757,-0.03939756,0.03590584
1.005735,-0.2706585,0.0798109,0.003614711,-0.01243009,-0.007550915,0.01077591,-0.04231462,0.03033814
1.003586,-0.279165,0.07750392,0.001476569,-0.02099776,-0.009843197,0.01564819,-0.04603602,0.02262321
1.001241,-0.2802404,0.0768004,-0.0008583857,-0.02213118,-0.01053238,0.02079774,-0.04679763,0.01294214
1.001439,-0.277485,0.07888296,-0.0006506585,-0.0194298,-0.00843537,0.02827012,-0.04501072,0.0006892018
0.9997442,-0.2753631,0.07956727,-0.002336668,-0.01735693,-0.007736051,0.03591745,-0.04679172,-0.006522767
0.9991412,-0.2749225,0.0806368,-0.002930925,-0.01695961,-0.006650628,0.03598048,-0.04953605,-0.01106429
1.000844,-0.2746365,0.08084069,-0.001219672,-0.01671069,-0.006429683,0.03775746,-0.05551594,-0.01917203
0.9983968,-0.2754927,0.07825371,-0.003658768,-0.01759707,-0.008998219,0.04314949,-0.0659753,-0.02188888
0.996996,-0.2759122,0.07721744,-0.005051419,-0.01803948,-0.01001441,0.04153133,-0.07356555,-0.02774253
0.995548,-0.2759965,0.07709133,-0.006491091,-0.01813889,-0.01011849,0.04468832,-0.07340873,-0.03923939
0.9948679,-0.2750892,0.07326276,-0.007162545,-0.01723859,-0.01392275,0.04681155,-0.06779543,-0.03330204
1.002031,-0.2727941,0.0694783,9.581666e-06,-0.01494202,-0.01768021,0.0357506,-0.05966518,-0.02515589
1.008826,-0.2744009,0.07051773,0.006815329,-0.0165386,-0.01661057,0.02720479,-0.04518521,-0.03262749
1.00688,-0.2759221,0.07300794,0.004879965,-0.01804064,-0.01408641,0.02330602,-0.03846776,-0.03388764
1.001139,-0.2750461,0.07357839,-0.0008508636,-0.01713651,-0.01347785,0.01894525,-0.04241496,-0.03209935
1.001111,-0.2782547,0.07351393,-0.0008677735,-0.02030776,-0.01349971,0.01308521,-0.03183997,-0.03569991
1.009738,-0.2834048,0.07231884,0.007770592,-0.02541094,-0.01464745,0.007207479,-0.009488457,-0.03468864
1.018101,-0.2869011,0.07124624,0.01614417,-0.02885053,-0.01566769,0.007545942,0.007871674,-0.04011701
1.014815,-0.287661,0.07290572,0.01286785,-0.02954342,-0.01395058,0.007960272,-0.0006274548,-0.05431965
1.009681,-0.2845707,0.071092,0.00774224,-0.02637513,-0.01570117,0.005361407,-0.01588146,-0.06111511
1.01542,-0.2814121,0.06471868,0.01348725,-0.02312735,-0.02200562,-0.00118732,0.01449186,-0.05587229
1.015349,-0.2809682,0.05923536,0.01342058,-0.02258267,-0.02741395,-0.009737875,0.04793717,-0.04791254
1.004737,-0.2794235,0.05920347,0.002809676,-0.02092562,-0.02736412,-0.01141512,0.04601898,-0.04548196
0.9935406,-0.274816,0.06577839,-0.008389028,-0.01619427,-0.02070014,-0.01640419,0.03330874,-0.03847253
0.9829296,-0.2732503,0.06757252,-0.01900464,-0.01449331,-0.01880917,-0.03088939,0.01069305,-0.02641409
0.9798224,-0.2756781,0.06678626,-0.02211806,-0.01677496,-0.01949055,-0.04254177,0.001357388,-0.01600475
0.9741037,-0.2792973,0.06746973,-0.02784365,-0.02023742,-0.01869405,-0.04480582,0.003712818,-0.002219636
0.9660174,-0.2865384,0.06206477,-0.03593599,-0.02731129,-0.02397771,-0.0412305,0.003313162,0.007881841
0.9693451,-0.293942,0.06235458,-0.03261205,-0.03453727,-0.02355817,-0.03794153,0.01951053,0.01075077
0.9686813,-0.2971149,0.06825163,-0.03327562,-0.0375218,-0.01752276,-0.03205739,0.02614158,0.006035873
0.9702253,-0.2941069,0.07126265,-0.03172615,-0.03431413,-0.01436472,-0.02214974,0.005466439,-0.002985063
0.9905387,-0.2824592,0.07753842,-0.01140073,-0.02245518,-0.007933477,-0.0137546,-0.02381217,0.00194973
1.013932,-0.2710693,0.08185568,0.01201129,-0.0108424,-0.003452766,-0.009898826,-0.03875357,0.02379632
1.019823,-0.2708398,0.08012446,0.01792787,-0.01037883,-0.00501324,-0.01493496,-0.03908967,0.04904469
1.006895,-0.2780364,0.07350452,0.005030566,-0.01733107,-0.01145585,-0.02008847,-0.05431463,0.05528547
1.00042,-0.2825371,0.06865929,-0.001408851,-0.02157774,-0.01611767,-0.0142558,-0.06393435,0.05586904
1.000608,-0.2834023,0.07111022,-0.00118176,-0.02217969,-0.01347756,-0.006470534,-0.05899276,0.07466132
0.9912014,-0.282018,0.07187332,-0.01054634,-0.02052318,-0.01251971,0.001361247,-0.0669457,0.07850714
0.9854569,-0.2783407,0.07305614,-0.01624493,-0.01656511,-0.01113682,0.009282528,-0.07310067,0.07430394
0.987273,-0.2788397,0.0760514,-0.01437909,-0.01677512,-0.007936522,0.0104486,-0.07505376,0.08212446
0.9953022,-0.2816035,0.07500347,-0.006296284,-0.01924219,-0.008774859,0.01023105,-0.09111904,0.07764776
1.013219,-0.2864107,0.07363962,0.01167821,-0.02374546,-0.009925006,0.009801691,-0.1031122,0.07449947
1.027221,-0.2945255,0.07205867,0.02574119,-0.03154929,-0.01128854,0.009961791,-0.0768846,0.07486238
1.01776,-0.2934378,0.06655052,0.0163439,-0.03014342,-0.01657584,0.01246458,-0.04339161,0.07116786
1.002035,-0.2928962,0.06027213,0.0006822882,-0.0292765,-0.02263007,0.01158564,-0.04414436,0.07133435
1.009208,-0.298399,0.06159953,0.007920379,-0.03444648,-0.02107508,0.008836489,-0.03513535,0.06505045
1.005671,-0.2897115,0.06450966,0.004447097,-0.02541868,-0.01793372,0.0002795846,-0.01945734,0.06385169
0.9883182,-0.2784484,0.06233281,-0.01284237,-0.0138078,-0.01987558,-0.01017975,-0.03011786,0.06646926
0.994472,-0.2792081,0.06457517,-0.006625809,-0.01421269,-0.01739442,-0.008993546,-0.02889665,0.06771961
0.9991069,-0.2798004,0.06753023,-0.001928472,-0.01444369,-0.01419673,-0.001687726,-0.0301021,0.08140588
0.997452,-0.2804587,0.06721774,-0.003521275,-0.01473501,-0.01426287,0.008612536,-0.04630079,0.09349191
0.9943501,-0.2861085,0.0662997,-0.006561262,-0.02001288,-0.01493104,0.01898468,-0.0426501,0.09696022
0.9812594,-0.2925007,0.06287856,-0.01959011,-0.02602843,-0.01809896,0.02520497,-0.04705458,0.09643889
0.981856,-0.2971831,0.06655953,-0.01893116,-0.03032989,-0.0141615,0.04081173,-0.07302539,0.09539034
0.9828302,-0.2973366,0.07572686,-0.01789349,-0.03009795,-0.004734641,0.06292332,-0.1004955,0.09318872
0.9811171,-0.2879225,0.07892719,-0.01954124,-0.02029379,-0.001272157,0.07272627,-0.1164575,0.08619658
0.9925909,-0.2760799,0.07740536,-0.007999664,-0.008056765,-0.002529902,0.07418521,-0.1128796,0.08621974
0.9984638,-0.2760894,0.07421836,-0.002056227,-0.007668119,-0.005451612,0.07302506,-0.1131181,0.08886185
1.008812,-0.2763417,0.07280005,0.008365112,-0.007519442,-0.006604022,0.06499769,-0.09177598,0.09103068
1.020162,-0.2653313,0.06600802,0.01979001,0.003893915,-0.01313,0.0561348,-0.04641939,0.09243079
1.007246,-0.2590215,0.05638274,0.006950696,0.01060743,-0.02248924,0.04369065,-0.04781992,0.08413536
0.9930392,-0.2571525,0.06167435,-0.007179703,0.01287931,-0.01693148,0.02068379,-0.06419132,0.08201996
0.9951286,-0.2544912,0.0669623,-0.00501382,0.01594111,-0.0113771,-0.006758873,-0.05522852,0.08230055
0.9974771,-0.2604554,0.06160325,-0.002588869,0.01037347,-0.01646939,-0.02490872,-0.05079162,0.07282708
0.9957913,-0.2706689,0.06380551,-0.004198238,0.0005510454,-0.01400006,-0.0211857,-0.03550263,0.06598186
0.9975651,-0.2795831,0.07350618,-0.002348041,-0.007978327,-0.004032064,-0.02124343,-0.01849288,0.05490573
0.9978918,-0.2823,0.08132318,-0.001944953,-0.01031731,0.004052205,-0.03682953,-0.02507419,0.03719215
0.9968068,-0.2791492,0.08297331,-0.002953885,-0.006795429,0.005968849,-0.0417781,-0.03186403,0.02132605
1.000703,-0.2814454,0.08227042,0.001018506,-0.008727567,0.005530844,-0.04488749,-0.03495759,0.001808559
1.004469,-0.2838515,0.08552581,0.004859759,-0.01077671,0.009048593,-0.04248031,-0.03495564,-0.01350546
1.010113,-0.28451,0.08268845,0.0105785,-0.01108527,0.006470157,-0.03014131,-0.02809185,-0.02439946
1.014359,-0.2844664,0.07887571,0.01489728,-0.01069863,0.002912086,-0.0252314,-0.02661808,-0.04218171
1.005425,-0.2748455,0.08505457,0.006034585,-0.00074161,0.009340678,-0.003050379,-0.024852,-0.04977541
0.9985339,-0.2625697,0.08648529,-0.0007873078,0.01186324,0.01101552,0.02069325,-0.01719789,-0.04319318
1.012059,-0.2570147,0.08023734,0.01280371,0.01773963,0.005005372,0.004397655,-0.003235127,-0.02745888
1.024295,-0.261324,0.07728465,0.02510244,0.01374292,0.00228359,-0.01972685,0.01312679,0.0005364268
1.012036,-0.2687066,0.08258099,0.01290256,0.006663362,0.007803542,-0.02674292,0.0112427,0.008315456
0.9979129,-0.2682332,0.09060038,-0.001166423,0.007429438,0.01603885,-0.0331382,0.001693223,-0.000421063
0.9935745,-0.2623815,0.0903814,-0.005455389,0.01356294,0.01602746,-0.04040132,-0.004415537,0.003717637
0.9878924,-0.253271,0.08973297,-0.01109255,0.02294384,0.01557758,-0.05518885,-0.02206406,-0.003136737
0.9947399,-0.253257,0.08715102,-0.004204065,0.02321599,0.01318443,-0.0879415,-0.02393241,-0.0189387
1.004691,-0.2671372,0.07913442,0.005784271,0.009580823,0.005346395,-0.1033792,-0.002160804,-0.02735542
0.9987143,-0.2852041,0.08309578,-0.0001577245,-0.008254528,0.009475814,-0.08008254,0.003050703,-0.03475607
0.9948161,-0.3061083,0.08717767,-0.004024847,-0.02894034,0.01371509,-0.03289403,-0.006055926,-0.03367266
0.9924066,-0.3077245,0.08026459,-0.006406146,-0.03035023,0.006948556,0.03657865,-0.01942388,-0.03283431
0.9866188,-0.2888777,0.07612691,-0.01216837,-0.01130746,0.002946476,0.08863567,-0.04336732,-0.03648939
0.9926163,-0.2768838,0.07079723,-0.006147145,0.0008732363,-0.002258387,0.09479023,-0.07375858,-0.03957429
1.003491,-0.27208,0.06346648,0.004750096,0.005855105,-0.009474665,0.09956878,-0.09374121,-0.05285892
1.008576,-0.2736606,0.05922345,0.009855779,0.004444027,-0.01361283,0.1204513,-0.08606106,-0.06562196
1.007391,-0.2680218,0.06048603,0.008688924,0.01024364,-0.01225405,0.1341491,-0.08330421,-0.06202775
1.00436,-0.2504716,0.06652142,0.005675364,0.02794556,-0.006130138,0.1254539,-0.08338767,-0.04880918
1.01041,-0.2465372,0.0635708,0.01173989,0.03202189,-0.008999108,0.09015958,-0.04242236,-0.04085949
1.013553,-0.2498381,0.05924477,0.0148943,0.02885213,-0.01324964,0.04728703,-0.001614946,-0.04272306
1.004364,-0.2511821,0.06085349,0.005714435,0.02762725,-0.01157076,0.03267804,0.001725539,-0.04484249
0.9992942,-0.2534793,0.05840924,0.0006496027,0.02543629,-0.0139494,0.04325593,-0.005834453,-0.04350328
1.003736,-0.2508473,0.05807747,0.005093067,0.02816097,-0.01421925,0.03282444,0.001232866,-0.0410049
1.013083,-0.2492377,0.05453669,0.01443857,0.0298488,-0.017701,0.003913052,0.01967232,-0.04250582
1.018935,-0.2509182,0.04853191,0.0202851,0.02823167,-0.02364871,-0.0178056,0.02809373,-0.05280717
1.013576,-0.2568066,0.05353523,0.01491623,0.02239117,-0.01858928,-0.03432827,0.02881152,-0.06651758
1.001463,-0.2690632,0.05923625,0.002789666,0.01016668,-0.01283221,-0.02403192,0.02517151,-0.07253889
0.9932248,-0.2765433,0.06249364,-0.005467828,0.002703164,-0.009518119,-0.003669858,0.02587683,-0.06934002
0.9992922,-0.2716077,0.05890008,0.0005761969,0.00764054,-0.01305391,-0.006268619,0.03116255,-0.07296299
1.005953,-0.2663781,0.05094642,0.007209261,0.01285769,-0.02094833,-0.005804253,0.02972752,-0.08796213
0.9993297,-0.2712225,0.05704073,0.0005553213,0.007987365,-0.01479273,-0.005600183,0.04112857,-0.09919098
0.9970685,-0.2738886,0.06191294,-0.001740453,0.005282328,-0.009856684,-0.004017481,0.04971959,-0.09775009
1.002538,-0.2748073,0.06115044,0.003691262,0.004312396,-0.01055246,0.01716944,0.0466876,-0.09476889
1.003428,-0.27851,0.0669862,0.004540547,0.0005469045,-0.004646974,0.03398462,0.04860037,-0.1073563
1.002802,-0.2751391,0.06592812,0.003870719,0.003844353,-0.005632339,0.03827248,0.04638037,-0.1223506
1.003647,-0.2680899,0.06048286,0.004669802,0.01081027,-0.01100197,0.02859104,0.05928913,-0.1260781
1.004367,-0.2601979,0.05678651,0.005341243,0.01860976,-0.01461976,0.01207819,0.0758316,-0.1272026
1.004444,-0.2612223,0.05059944,0.00536635,0.01748367,-0.02072508,0.006118522,0.07202667,-0.1240435
1.003289,-0.275963,0.05182835,0.004157894,0.002632269,-0.01941082,0.02657989,0.06888594,-0.1180363
1.001583,-0.2951193,0.05476018,0.002395841,-0.01664303,-0.01638956,0.09138029,0.05746524,-0.1134623
0.9979429,-0.3145969,0.0515403,-0.001302979,-0.03624676,-0.01951551,0.163767,0.02101125,-0.1131041
0.9890024,-0.3047966,0.05648285,-0.01030376,-0.02657759,-0.01447421,0.2189201,-0.02818132,-0.1155946
0.9715031,-0.2786964,0.07244933,-0.02786448,-0.0006114796,0.00159598,0.2639632,-0.0719186,-0.105049
0.9582909,-0.2760936,0.08858352,-0.04113804,0.001855484,0.01783846,0.2895145,-0.1227375,-0.08773534
0.9685429,-0.2644342,0.09464123,-0.03094559,0.0133781,0.02400796,0.2960381,-0.1784052,-0.07597573
0.9849125,-0.2377464,0.09584763,-0.01463189,0.03992782,0.02532813,0.2761076,-0.1928081,-0.06686839
0.9931849,-0.225826,0.09722662,-0.006410812,0.05170811,0.02682114,0.2441262,-0.1752224,-0.05542516
1.01293,-0.2337491,0.08124033,0.01328826,0.04364108,0.01094758,0.2015829,-0.1265734,-0.03904274
1.039553,-0.2507329,0.06420391,0.03986854,0.02650814,-0.005978489,0.1416984,-0.03132374,-0.03188226
1.045482,-0.2480567,0.06683208,0.04575931,0.02902871,-0.00324271,0.1029132,0.02621447,-0.02352997
1.026044,-0.2301092,0.06808541,0.02628323,0.04681353,-0.00188449,0.07327557,0.02934782,-0.00303437
1.009969,-0.2023802,0.07004204,0.01016918,0.07437139,0.000174345,0.02881961,0.05466781,0.0103915
1.012213,-0.1797461,0.07840048,0.01237298,0.09682398,0.008632224,-0.03129214,0.06604917,0.01927974
1.011072,-0.1923839,0.08652751,0.01118949,0.08399139,0.0168556,-0.08681487,0.03097552,0.02535299
1.001806,-0.204413,0.09619381,0.001877637,0.07175129,0.02661444,-0.09434055,-0.004886308,0.04846191
0.9929129,-0.209057,0.09855853,-0.00706235,0.06687768,0.02906682,-0.09134412,-0.03602301,0.09306005
0.9910893,-0.2132912,0.09622609,-0.008935349,0.06239357,0.02681594,-0.1030131,-0.03677116,0.1185937
0.9971856,-0.1947134,0.08786328,-0.002889736,0.08070001,0.01852741,-0.1198564,-0.00744174,0.1446864
1.001619,-0.1868248,0.06649423,0.001491806,0.0882942,-0.002775335,-0.1673657,0.003732495,0.1584691
1.012373,-0.1978007,0.05068966,0.01219359,0.07699922,-0.01852156,-0.2225799,0.01470438,0.1281851
1.019477,-0.2149928,0.04969266,0.01924436,0.05946179,-0.01946733,-0.2434134,0.01883492,0.1078662
1.016883,-0.2484674,0.05096765,0.01659567,0.02561529,-0.01814697,-0.2097288,0.02166592,0.09076453
1.019956,-0.2795311,0.04310905,0.01961253,-0.005846134,-0.02596476,-0.1502414,0.0478892,0.07000898
1.012455,-0.2926472,0.02859194,0.0120524,-0.01938352,-0.04044414,-0.1238571,0.04690144,0.05760495
1.004484,-0.2958402,0.02400227,0.004018805,-0.02301795,-0.04499735,-0.1492666,0.04688666,-0.006656696
1.010604,-0.3029778,0.04094475,0.01007356,-0.03061346,-0.02801771,-0.2132384,0.07540974,-0.07193902
1.007912,-0.3000133,0.06559935,0.007313227,-0.02811951,-0.00332368,-0.2564242,0.09005248,-0.0830506
0.9974974,-0.2883972,0.07786191,-0.003172897,-0.01698293,0.008981131,-0.2395515,0.08570785,-0.1150476
0.9912824,-0.2905524,0.08430462,-0.00946212,-0.01962364,0.01546858,-0.1481131,0.004788168,-0.1467416
1.004814,-0.2789968,0.08974282,0.00399316,-0.008556614,0.0209531,0.002685851,-0.1161507,-0.1308552
1.027826,-0.2499915,0.08503315,0.02692718,0.01995897,0.01629022,0.098893,-0.1334704,-0.1161842
1.027329,-0.2142204,0.07487314,0.02634944,0.05524024,0.006176467,0.1083569,-0.08466847,-0.09533119
1.022449,-0.1772158,0.06678365,0.02138657,0.09175421,-0.001867967,0.08750258,-0.0505782,-0.05363925
1.026358,-0.1723501,0.06442022,0.02520851,0.09612634,-0.004187719,0.03526965,0.01243369,-0.03889441
1.02388,-0.1769764,0.06593302,0.02263831,0.09100054,-0.002632569,-0.03411568,0.1169526,-0.0251816
1.019774,-0.1754173,0.06038662,0.01843535,0.09205118,-0.008137747,-0.08137362,0.1874649,0.02040693
1.015468,-0.1834434,0.05312573,0.01402734,0.08350494,-0.01535825,-0.1132772,0.1810551,0.05682615
1.013404,-0.1823454,0.0538777,0.0118553,0.08406893,-0.01456621,-0.1878835,0.1639071,0.08603572
1.012922,-0.1910825,0.05654473,0.01125887,0.07478205,-0.01185881,-0.2974905,0.1934178,0.1120752
1.003811,-0.2289815,0.06365315,0.002029316,0.03631636,-0.004709196,-0.3606343,0.202706,0.1128226
0.998412,-0.2669002,0.0730813,-0.00349437,-0.002185863,0.004761163,-0.3654736,0.1558104,0.08734116
1.00814,-0.2853369,0.0722091,0.006104539,-0.02122113,0.003932066,-0.3380903,0.1172111,0.02286564
1.016227,-0.2902359,0.06982493,0.01405878,-0.02673052,0.001591546,-0.2838084,0.1044816,-0.05969577
1.011952,-0.2928988,0.07009395,0.009647556,-0.03001209,0.001904462,-0.1985938,0.1067941,-0.1160835
1.005198,-0.2882628,0.0664582,0.002753153,-0.02599935,-0.001687374,-0.107608,0.1004859,-0.1433763
0.9942975,-0.2755937,0.07077848,-0.008290347,-0.01395463,0.002676699,-0.03492022,0.05887586,-0.164763
0.9794117,-0.2519394,0.07885175,-0.02332191,0.009076846,0.01079342,0.02987078,0.02169726,-0.1870049
0.9825598,-0.2203768,0.0773438,-0.0203207,0.04001975,0.009328178,0.03814764,0.01802071,-0.1905782
0.9952047,-0.2053227,0.08447921,-0.007822339,0.05445759,0.01650497,0.01457702,0.02407385,-0.1862214
0.9962619,-0.199709,0.1047582,-0.006910161,0.05945755,0.03682321,0.02217002,0.001405983,-0.1859253
0.9972392,-0.1978919,0.1174899,-0.006075786,0.06066219,0.04959062,0.001712248,-0.03373672,-0.1739398
1.000342,-0.2042964,0.1157135,-0.003112705,0.05364497,0.04784453,-0.002888158,-0.06780637,-0.1443799
1.003296,-0.2060635,0.1034696,-0.000296209,0.05126364,0.03562338,0.05974428,-0.1118894,-0.09025666
1.006094,-0.2026398,0.08905211,0.002368013,0.05407074,0.02121967,0.1185991,-0.1208195,-0.02578272
1.007046,-0.1854948,0.07381567,0.003189933,0.0705957,0.00598706,0.132265,-0.1208413,0.02563207
1.018559,-0.1665277,0.0620146,0.01457625,0.08893795,-0.005820088,0.06755194,-0.09885515,0.06889725
1.026387,-0.1696549,0.05790295,0.02228024,0.08517922,-0.009947059,-0.02445076,-0.009074351,0.1064295
1.021718,-0.1797552,0.04875048,0.01749014,0.07443862,-0.019123,-0.08124477,0.04218803,0.1178626
1.022798,-0.1943258,0.04680144,0.01844982,0.05921718,-0.02110227,-0.1298224,0.03655611,0.1051986
1.024164,-0.2212831,0.06220092,0.01969609,0.03159778,-0.005738313,-0.1892455,0.02986404,0.09629933
1.025758,-0.2438928,0.074662,0.02117044,0.008315199,0.006683022,-0.2662556,0.03686465,0.06402035
1.026488,-0.2516812,0.08053929,0.0217803,-0.0001556836,0.0125168,-0.2893365,0.05141712,0.008087955
1.013243,-0.2659938,0.07860949,0.008413987,-0.01515776,0.01053971,-0.2276491,0.03917458,-0.01457385
1.000789,-0.2868847,0.07535822,-0.004163367,-0.03674256,0.007237248,-0.1431209,0.03024681,-0.01977989
1.003706,-0.2820356,0.0798663,-0.001370692,-0.03258806,0.01169014,-0.05400372,0.01861651,-0.02328881
1.00533,-0.2651344,0.07944845,0.0001281652,-0.01637885,0.01121306,0.003109612,0.000267234,-0.02106309
0.9953626,-0.2525798,0.07993731,-0.009965358,-0.00451067,0.01163853,0.04614064,-0.01368099,-0.03140381
0.9955367,-0.2339023,0.08283326,-0.009916845,0.01348805,0.01446679,0.1048127,-0.04482612,-0.03543299
1.006919,-0.2188525,0.08176156,0.001341076,0.02786769,0.01332293,0.1397138,-0.03057463,-0.030671
1.011184,-0.2015872,0.0859392,0.00548229,0.04447166,0.01742375,0.1689416,-0.008444128,-0.02200646
1.012185,-0.1854297,0.08463344,0.006362286,0.05997591,0.01603627,0.1774443,-0.024587,-0.001968494
1.014645,-0.1811887,0.07738119,0.008702178,0.06357031,0.008697178,0.1367976,-0.01006885,0.007578089
1.020865,-0.1663203,0.07468053,0.01480331,0.07779691,0.005904533,0.07792465,0.007499145,0.01768978
1.019847,-0.1673414,0.07104331,0.01366719,0.07613664,0.002170423,0.01000209,0.01617744,0.04123854
1.013338,-0.1914781,0.07081511,0.007040948,0.05136118,0.001840813,-0.0353025,0.01778254,0.05235588
1.019874,-0.1965392,0.07193693,0.01345941,0.04566013,0.002857183,-0.05626054,0.007329491,0.06013006
1.021474,-0.21492,0.07137994,0.01494153,0.02663762,0.002191161,-0.09553083,0.03440856,0.07164443
1.020184,-0.2388271,0.07043924,0.01353411,0.002087183,0.001138283,-0.1123367,0.05815672,0.05354399
1.023889,-0.2491581,0.06735277,0.01712082,-0.008887887,-0.002063026,-0.07219596,0.05890521,0.01691462
1.012419,-0.2727981,0.07269733,0.005531748,-0.03317049,0.003164506,-0.02567115,0.07606573,-0.002452917
1.003972,-0.2616017,0.07930842,-0.003036189,-0.02261268,0.009656775,-0.001278447,0.09924782,-0.01316366
1.015941,-0.2388444,0.07714822,0.008810131,-0.0004874557,0.007376135,-0.00351571,0.1396535,-0.02260386
1.037157,-0.2314038,0.07489842,0.02990399,0.006329593,0.00500433,-0.03716005,0.1818249,-0.03504837
1.046068,-0.2057313,0.07648808,0.03869047,0.0313879,0.00647054,-0.07090179,0.1798633,-0.04973056
1.020726,-0.2141468,0.09143237,0.01322133,0.02236771,0.02128997,-0.07759123,0.1444838,-0.04463626
0.9839263,-0.222645,0.1108208,-0.0237083,0.0132742,0.04055169,-0.0454438,0.09654197,-0.02952626
0.9684895,-0.207007,0.1134711,-0.03927745,0.02832602,0.04307255,0.005802162,0.03950435,-0.009357694
0.9654456,-0.2168257,0.1107633,-0.04245393,0.01793023,0.04023087,0.03369694,-0.0114536,0.03527046
0.9614825,-0.2102268,0.1031449,-0.04654756,0.02396083,0.03247303,0.05545094,-0.04745329,0.1112905
0.9675562,-0.2070338,0.08381556,-0.0405999,0.02659423,0.0129975,0.08883277,-0.08922216,0.1935829
0.9792855,-0.2219504,0.07839767,-0.02899006,0.01112634,0.00742645,0.1202649,-0.1408981,0.2242725
0.983137,-0.2254721,0.07962052,-0.02524954,0.007061625,0.008489435,0.1317905,-0.1768001,0.2250707
0.9945261,-0.2442064,0.07133168,-0.01396204,-0.0122069,3.454091e-05,0.109597,-0.1810503,0.2303027
1.023219,-0.2624017,0.07707594,0.01463893,-0.03092663,0.005607242,0.08812853,-0.1507593,0.1963085
1.050222,-0.2737369,0.07922063,0.0415601,-0.04277476,0.007575489,0.07912057,-0.1138902,0.1401221
1.046202,-0.2717464,0.06569803,0.03746539,-0.04128315,-0.006127789,0.08633401,-0.1045365,0.09092224
1.024104,-0.2577339,0.0629924,0.01529791,-0.02775322,-0.009017546,0.1210914,-0.087575,0.05502749
1.020515,-0.2647152,0.06534606,0.01164349,-0.03519894,-0.00685041,0.1415928,-0.03765695,0.0425563
1.022951,-0.2510413,0.07462398,0.01401759,-0.02196958,0.002239584,0.1455642,0.001987553,0.006026323
1.023711,-0.2202077,0.08807193,0.01471683,0.008440395,0.01549889,0.1270954,0.01952026,-0.03338137
1.024409,-0.207721,0.09462303,0.01535619,0.02052423,0.02186076,0.08096685,0.01389129,-0.02707053
1.01695,-0.1995958,0.1006439,0.007840193,0.02826643,0.02769139,0.0673653,0.001810693,-0.02495755
1.012697,-0.2109305,0.1009742,0.00352994,0.01656712,0.02782993,0.0741889,0.0162881,-0.03405661
1.008121,-0.2173548,0.1094811,-0.00110332,0.009795112,0.03614269,0.06760274,0.02222077,-0.02272707
1.008256,-0.1970115,0.1207176,-0.001025274,0.02980651,0.04718156,0.0485363,0.02658298,-0.005227405
1.010337,-0.1860428,0.1146635,0.000999451,0.04045769,0.04092514,0.003691458,0.03175274,0.006211871
0.9969632,-0.196632,0.1081485,-0.01243026,0.02956359,0.03420184,-0.04116503,0.0124695,0.006571382
0.9910195,-0.2246089,0.09723487,-0.0184287,0.001292749,0.02307311,-0.04265122,0.01368882,-0.0002261432
0.997791,-0.2585965,0.07979111,-0.01171006,-0.03297843,0.005407054,0.007404966,0.007388683,-0.001760409
1.004109,-0.2858618,0.07019148,-0.005442812,-0.06051619,-0.004421671,0.07193356,-0.02108806,-0.007247325
1.006592,-0.297319,0.06382182,-0.003006655,-0.07223236,-0.01102619,0.1346088,-0.03512296,-0.01325884
1.006709,-0.304202,0.05976938,-0.002933911,-0.07935804,-0.01531784,0.2157489,-0.04915127,-0.01225655
1.009641,-0.313304,0.06242415,-4.376578e-05,-0.08868279,-0.01290502,0.3162703,-0.04038763,-0.01514245
0.9982249,-0.2926498,0.07035032,-0.01149744,-0.06822829,-0.005222048,0.423459,-0.03116883,0.004280297
0.9892292,-0.2613299,0.07764489,-0.0205277,-0.03708234,0.001829292,0.487642,-0.03860909,0.03816077
1.007339,-0.2352115,0.0845968,-0.002448694,-0.01111086,0.008538679,0.4855096,-0.02123258,0.03307981
1.022493,-0.1950714,0.09366188,0.0126789,0.02890905,0.01736228,0.4402886,-0.002401239,0.004322948
1.017156,-0.1809554,0.09983284,0.007319859,0.04292947,0.02329275,0.3802092,0.01327496,-0.02450558
1.008388,-0.1851558,0.1008925,-0.001467712,0.03865524,0.02411245,0.354049,0.0346523,-0.0437226
1.011885,-0.1677605,0.1036359,0.002012605,0.05599465,0.0266159,0.3290003,0.05346202,-0.03978181
1.016215,-0.1552376,0.1102102,0.006328643,0.06847612,0.03294951,0.2641702,0.08387481,-0.03977766
1.01535,-0.139527,0.1112256,0.005452024,0.08415552,0.03372276,0.1935308,0.1006206,-0.05018792
1.014752,-0.111738,0.1138452,0.004843742,0.111919,0.03609773,0.1070008,0.06977736,-0.05961828
1.006234,-0.1090304,0.1230728,-0.003682611,0.1146012,0.04507726,-0.0007527632,0.03136185,-0.06485273
1.00348,-0.1249513,0.1314164,-0.006442802,0.09864956,0.05316807,-0.1068111,0.03702394,-0.04376687
1.00706,-0.1480193,0.1401484,-0.002868438,0.07554083,0.06164121,-0.177917,0.05189258,-0.02153053
1.005603,-0.1774464,0.1396263,-0.004329158,0.04605922,0.06085233,-0.1912724,0.0509307,-0.03388613
1.011241,-0.1866514,0.1314532,0.001307306,0.03678404,0.05240269,-0.2050342,0.05859077,-0.04276411
1.018464,-0.1842688,0.1256682,0.008529317,0.03907951,0.04633021,-0.2350806,0.07627828,-0.03432958
1.019571,-0.1890651,0.1230837,0.00963756,0.03417895,0.04344607,-0.2495616,0.107993,-0.03842008
1.013064,-0.1944445,0.1242407,0.003132659,0.02867753,0.04429074,-0.2571437,0.117775,-0.04021777
1.004809,-0.2027221,0.1218057,-0.005120948,0.0202604,0.04153009,-0.2489435,0.0955431,-0.02875631
1.007485,-0.214145,0.1260338,-0.002442198,0.00868071,0.04541903,-0.2376138,0.09875535,-0.02375313
1.011393,-0.2321459,0.132316,0.001469429,-0.009493012,0.05134799,-0.2255054,0.116768,-0.02415367
1.010706,-0.2449426,0.1267042,0.0007859431,-0.02247715,0.04536856,-0.1804765,0.125417,-0.02192818
1.002611,-0.2354348,0.126069,-0.00730539,-0.01316901,0.04435093,-0.131608,0.1111156,-0.01414835
0.9915877,-0.2253054,0.1232584,-0.01832361,-0.003249315,0.04114282,-0.09993309,0.07255391,-0.005113858
0.9958504,-0.220016,0.1121453,-0.01405501,0.001822059,0.02961719,-0.07883394,0.05469866,0.004524341
1.003039,-0.2097161,0.1065589,-0.006858996,0.01189682,0.02360367,-0.07748493,0.0494441,0.0275085
1.001069,-0.20479,0.1086961,-0.008818949,0.01659146,0.02529998,-0.0768775,0.04129085,0.05315191
0.9964274,-0.2004237,0.1136285,-0.01344773,0.02072048,0.02977848,-0.06916086,0.01749883,0.07427206
0.9876115,-0.1957597,0.1091505,-0.02224824,0.0251413,0.02483452,-0.07154162,-0.04198666,0.09568056
0.9879734,-0.1994005,0.1059176,-0.02186729,0.02125162,0.02112425,-0.08068657,-0.0783608,0.1020436
1.00458,-0.2042034,0.1094946,-0.005237691,0.01619391,0.02421348,-0.09608716,-0.0764582,0.09845951
1.014678,-0.2129335,0.1098989,0.0048884,0.007203333,0.02412043,-0.1159746,-0.07376328,0.09662412
1.008181,-0.2230682,0.1123243,-0.00157723,-0.003196949,0.02603974,-0.1156603,-0.07359193,0.08781984
1.000334,-0.2260671,0.1101052,-0.009387554,-0.006465571,0.0233066,-0.0953042,-0.09626191,0.0738512
1.003919,-0.2299035,0.1082957,-0.005763367,-0.01057469,0.02097581,-0.07286972,-0.1311272,0.06273942
1.010578,-0.2318841,0.1113849,0.0009389233,-0.01282944,0.0235372,-0.04775855,-0.1458997,0.05247739
1.012637,-0.2342276,0.1100403,0.003044586,-0.01544721,0.0216591,-0.03070454,-0.1444357,0.03394473
1.013034,-0.2379263,0.1129273,0.003490965,-0.01941867,0.02400766,-0.01777587,-0.1356674,0.01433186
1.010715,-0.2325422,0.1135443,0.001223688,-0.0143045,0.0240818,0.006373336,-0.1258999,0.001567968
1.015048,-0.2279759,0.1104884,0.005610406,-0.01000381,0.02047942,0.0185029,-0.1197001,-0.01175925
1.020726,-0.2249471,0.113144,0.01134367,-0.007235342,0.02258528,0.0135303,-0.1170115,-0.01805945
1.014714,-0.2205147,0.1120733,0.005388163,-0.003057116,0.02096235,0.01749007,-0.09072414,-0.02622052
1.010694,-0.2184163,0.1084242,0.00142472,-0.001206255,0.016759,0.02819403,-0.03689708,-0.04989668
1.006688,-0.213966,0.1064107,-0.002524944,0.003003415,0.01419012,0.0320428,-0.0125616,-0.06671587
1.00238,-0.211603,0.1084303,-0.006775869,0.005132793,0.0156538,0.03647674,-0.02412197,-0.06423286
1.007425,-0.2082424,0.1158439,-0.001675191,0.008266802,0.02251184,0.04279604,-0.03066985,-0.04510697
1.009407,-0.206629,0.1190125,0.0003621309,0.009660269,0.0251256,0.0427929,-0.04040126,-0.02897009
1.006961,-0.2088401,0.1142025,-0.002028106,0.007235761,0.01976189,0.03960172,-0.06745405,-0.03498776
1.005772,-0.2013283,0.1041771,-0.003161106,0.01454015,0.009184227,0.02012269,-0.07297141,-0.03301307
1.005965,-0.1968177,0.09882655,-0.002913545,0.01884897,0.003283476,-0.01448134,-0.04206947,0.001215542
1.005956,-0.2016777,0.1015609,-0.0028676,0.01379212,0.005470681,-0.02760877,-0.008284352,0.05313927
1.001505,-0.2038663,0.1009504,-0.007263463,0.01141099,0.004317218,-0.02511318,0.01531694,0.09939816
0.999841,-0.2034517,0.09404391,-0.008872991,0.01163693,-0.003127242,-0.04459694,0.01645666,0.1339499
1.005282,-0.2059331,0.08581894,-0.003376845,0.008970372,-0.01188396,-0.0936505,0.02309217,0.1695954
1.009776,-0.2195613,0.07926914,0.001172072,-0.004839632,-0.0189579,-0.1557549,0.04852055,0.19069
1.005198,-0.2348731,0.0732054,-0.003351549,-0.02032978,-0.02553652,-0.2154886,0.0142964,0.1812181
1.001409,-0.2434739,0.07096817,-0.007084935,-0.02910445,-0.02827752,-0.2679979,-0.03912979,0.1461622
1.010613,-0.2588782,0.07754695,0.002174084,-0.04467684,-0.02218951,-0.3071444,-0.03817652,0.08195581
1.019582,-0.2827143,0.08599618,0.01119914,-0.06867308,-0.01421642,-0.3136083,-0.03693046,0.02225344
1.020486,-0.296597,0.0935192,0.01215798,-0.0827053,-0.007153741,-0.2562476,-0.03835554,-0.01242086
1.016943,-0.2915801,0.09818265,0.008668746,-0.07782401,-0.002934138,-0.1486991,-0.03297177,-0.05211314
1.007316,-0.2807,0.09546356,-0.0009059732,-0.0670621,-0.006080233,-0.05456321,-0.03386013,-0.07556114
0.9984107,-0.2652182,0.0939416,-0.009760226,-0.05167837,-0.008012148,0.01566734,-0.0248633,-0.06501426
0.9999769,-0.2511783,0.09425113,-0.008144961,-0.03771461,-0.008095285,0.0683203,-0.02433157,-0.03299185
1.00477,-0.2528055,0.08879461,-0.003304513,-0.03939506,-0.01392693,0.09628126,-0.03538812,0.03043769
1.002161,-0.2494767,0.08255029,-0.005866371,-0.03609593,-0.02052847,0.150184,-0.05454077,0.07654586
1.001937,-0.2438675,0.0799854,-0.006044187,-0.03049267,-0.02343211,0.2032693,-0.07789073,0.08329088
1.004637,-0.2520945,0.07781415,-0.003298121,-0.03870174,-0.02592298,0.1828472,-0.07479969,0.09576064
1.003399,-0.2535365,0.0723265,-0.00449161,-0.04010187,-0.0317103,0.1390233,-0.04928573,0.09235213
1.006521,-0.2531698,0.06815223,-0.001324103,-0.03966933,-0.03616345,0.07772883,-0.0003433086,0.06624047
1.007325,-0.2620862,0.06752024,-0.0004759736,-0.04849557,-0.03705256,0.0047765,0.05137687,0.03367022
1.005698,-0.2669599,0.0602543,-0.002058319,-0.05325466,-0.04455279,-0.0151987,0.0563973,-0.01877418
1.010182,-0.2646537,0.05457468,0.002470015,-0.05080887,-0.05044279,-0.05410011,0.06587914,-0.06559435
1.016232,-0.2529315,0.06679721,0.008563575,-0.03892165,-0.03840554,-0.1042503,0.1014629,-0.09643594
1.022719,-0.2284482,0.09275113,0.01509335,-0.01424814,-0.01261102,-0.08202397,0.09897629,-0.1219063
1.013609,-0.1906456,0.119661,0.00602419,0.02376874,0.0141651,-0.07640667,0.1016214,-0.1485839
0.9981271,-0.1648098,0.1229864,-0.009418035,0.04984032,0.01738098,-0.1113857,0.1218435,-0.1641843
1.001522,-0.1765213,0.1032501,-0.005985878,0.03838235,-0.00244258,-0.1599919,0.1009907,-0.1085136
1.000174,-0.1868609,0.09603163,-0.007296977,0.02830996,-0.009727662,-0.2258843,0.08975514,-0.001694809
0.9915501,-0.1863211,0.1008296,-0.01588617,0.02912715,-0.004976932,-0.2070517,0.078631,0.09074495
0.9828941,-0.2190657,0.09983421,-0.02450751,-0.003332734,-0.006001028,-0.1328031,0.01575725,0.1471118
0.9644175,-0.2642865,0.09573506,-0.04294886,-0.0482632,-0.01011135,-0.08293599,-0.04575521,0.1408165
0.9704643,-0.280671,0.08921929,-0.03686465,-0.06435171,-0.01662152,-0.003015097,-0.06031041,0.1148458
1.001851,-0.2748599,0.08032222,-0.005436652,-0.05823753,-0.02549673,0.04529592,-0.03378931,0.1092973
1.020063,-0.2603384,0.07282226,0.01282024,-0.04340443,-0.03295872,0.03518067,-0.02570454,0.08785704
1.021669,-0.2373466,0.07748259,0.01447514,-0.02009128,-0.02824418,0.00996301,-0.02923483,0.04797488
1.006796,-0.2041105,0.08999652,-0.0003457636,0.01347586,-0.01565965,-0.08531156,-0.01362629,-0.004518464
0.9976948,-0.1759993,0.09236901,-0.009392708,0.04192615,-0.01320042,-0.1857482,-0.02454023,-0.04741771
1.004924,-0.1805793,0.09198173,-0.002106742,0.03769064,-0.0134854,-0.2218085,-0.03039114,-0.05831949
1.001548,-0.216283,0.09431032,-0.005424699,0.002333998,-0.01103967,-0.2013139,-0.04955343,-0.06259391
0.9946128,-0.2458451,0.09692284,-0.01229985,-0.02688064,-0.00829596,-0.1038862,-0.1150593,-0.05486765
0.9879906,-0.2568764,0.1003888,-0.0188596,-0.03756448,-0.004685603,0.01996124,-0.1516158,-0.03362594
0.9861911,-0.2619479,0.09661962,-0.02059405,-0.04228806,-0.008298267,0.1264347,-0.1584129,-0.005923818
1.004983,-0.2536518,0.08930676,-0.001734321,-0.03364266,-0.0154433,0.1788477,-0.1417095,0.02041454
1.018684,-0.2397764,0.08208128,0.01203848,-0.01941565,-0.02249031,0.1894939,-0.1250735,0.01109212
1.013941,-0.2367536,0.07930511,0.007369234,-0.0160387,-0.02507769,0.1939672,-0.144722,-0.01349272
1.006079,-0.2339688,0.08380381,-0.0004174832,-0.01289752,-0.02037998,0.1579357,-0.1449127,-0.03747945
1.008211,-0.2199659,0.082062,0.001791755,0.001463729,-0.02191269,0.1291273,-0.1089146,-0.04955078
1.02405,-0.1993863,0.08212719,0.01770924,0.02240258,-0.0216285,0.08323794,-0.03966044,-0.02650979
1.036298,-0.1869756,0.08942266,0.03003521,0.03517181,-0.01410438,0.008576922,0.02298481,-0.01269838
1.025376,-0.1858655,0.09548402,0.01918926,0.03663747,-0.007805162,-0.006634826,0.02114087,0.003747841
1.0035,-0.1881525,0.1015971,-0.002613049,0.03470041,-0.00144579,-0.01696263,0.02516502,0.03869206
1.00468,-0.1884068,0.09356956,-0.001361512,0.03478823,-0.009219473,-0.03156047,0.07732003,0.05616091
1.015547,-0.1883121,0.07578176,0.009573423,0.03521491,-0.02674675,-0.06048915,0.1260347,0.08929601
1.016599,-0.1920047,0.0669069,0.01068991,0.0318423,-0.03535467,-0.1219133,0.1447765,0.1212096
1.017923,-0.1953229,0.06191231,0.01207541,0.02883024,-0.04007557,-0.1620773,0.1344828,0.1090952
1.011465,-0.2105303,0.0611144,0.005674125,0.01391399,-0.04059239,-0.2314868,0.11727,0.08969083
1.008658,-0.249442,0.06065902,0.002920003,-0.02472227,-0.04075852,-0.2633697,0.1005917,0.069158
1.008941,-0.2974112,0.05582705,0.00325105,-0.07243077,-0.04529236,-0.1962032,0.07190508,0.03716986
0.997362,-0.3340987,0.05349995,-0.008284468,-0.1088696,-0.04731167,-0.09699543,0.04170177,0.02025241
0.9917234,-0.3448635,0.05520688,-0.01388337,-0.119393,-0.04528647,0.05843816,-0.001289174,-0.001658194
0.9951481,-0.3421884,0.06471426,-0.01042236,-0.1164783,-0.03544969,0.2164817,-0.04159914,-0.05926462
0.9987907,-0.3380049,0.07785101,-0.006746113,-0.1120515,-0.02197208,0.3370642,-0.0441663,-0.1019323
0.9856077,-0.3107777,0.09164036,-0.01989747,-0.08457249,-0.007830752,0.4628267,-0.08249903,-0.1188228
0.9662861,-0.2537811,0.1101194,-0.03918857,-0.02731222,0.01101042,0.5519613,-0.1516743,-0.1247336
0.9782736,-0.1943616,0.1148014,-0.02717023,0.03238384,0.01606279,0.5633137,-0.146267,-0.08849171
1.020893,-0.1414315,0.09340428,0.01548108,0.08560185,-0.004957592,0.4690662,-0.0871899,-0.0384269
1.068049,-0.09478044,0.07462994,0.06267153,0.1325473,-0.02335055,0.2991666,-0.01654621,0.006297324
1.062886,-0.09758801,0.08174508,0.05754136,0.1300343,-0.0158502,0.1341644,0.03550309,0.03706813
1.016708,-0.1375479,0.09016229,0.01139306,0.09036197,-0.007044447,0.011223,0.04067727,0.0380267
1.00432,-0.1525684,0.08837041,-0.0009698438,0.07561611,-0.00844511,-0.04537397,0.04214029,0.04175731
1.013274,-0.1657139,0.09136192,0.008004985,0.06272822,-0.005060547,-0.08821473,0.06262337,0.0407543
1.024139,-0.1883891,0.08390578,0.01888498,0.04029045,-0.01212261,-0.1546029,0.0871911,0.04164442
1.027019,-0.206211,0.07275308,0.02177399,0.02268415,-0.02288083,-0.1717121,0.08159494,0.04224208
1.005618,-0.2267042,0.07899684,0.0003775248,0.002383899,-0.0162425,-0.1524903,0.05721451,0.02261827
0.9903878,-0.2282381,0.08268442,-0.01485494,0.001020731,-0.0121604,-0.1442457,0.05002134,0.02124895
0.9898306,-0.2348059,0.08392334,-0.0154194,-0.005397463,-0.01052734,-0.12127,0.02634681,0.01124218
0.9993061,-0.2515558,0.09003113,-0.005955379,-0.02201782,-0.004026279,-0.09861193,0.01105648,-0.02121392
1.007622,-0.2474826,0.08909285,0.002345368,-0.01783316,-0.004572775,-0.08768982,0.01989267,-0.04867359
1.005948,-0.2495006,0.08898542,0.0006533841,-0.01975591,-0.004290595,-0.06969886,0.01906431,-0.07217575
1.007001,-0.2534868,0.09362218,0.001686655,-0.02366113,0.0007328613,-0.04338997,0.03741108,-0.06738872
0.9980404,-0.2577295,0.09778195,-0.007297251,-0.02783511,0.005275645,0.003129198,0.03871767,-0.07070208
0.9933668,-0.2631994,0.0994935,-0.01199582,-0.03324666,0.007365604,0.05023737,0.00580857,-0.1012678
1.011942,-0.2393893,0.09512401,0.006553342,-0.009386533,0.003368951,0.06412136,0.0020375,-0.1218281
1.042628,-0.2139529,0.09142308,0.03721137,0.01609303,3.44157e-05,0.05683535,0.04112057,-0.135634
1.06223,-0.205206,0.09150502,0.05678308,0.02487643,0.0004756729,0.04515495,0.1034148,-0.1342985
1.03492,-0.1962144,0.09245511,0.02943812,0.03389726,0.001777481,0.02347264,0.1225733,-0.1352586
0.9994456,-0.1836717,0.09815454,-0.006076212,0.04646104,0.007820519,-0.0177435,0.1186676,-0.1428983
0.9894938,-0.180246,0.1098512,-0.01607394,0.04989791,0.019852,-0.06335578,0.1473939,-0.1312613
0.9757714,-0.199014,0.1210417,-0.02984709,0.03112975,0.03136759,-0.08359743,0.133842,-0.1143347
0.974658,-0.2205942,0.1214784,-0.03101447,0.009536922,0.03211804,-0.06346588,0.07420762,-0.07792703
0.9949273,-0.2433138,0.1128742,-0.01080065,-0.01320788,0.02381489,-0.006856294,0.004771271,-0.02719066
1.018759,-0.2665829,0.105933,0.01297564,-0.03651369,0.0171606,0.07079008,-0.03968797,0.01571929
1.032957,-0.2710517,0.1022573,0.02711737,-0.0410286,0.01375694,0.1447013,-0.01958248,0.05848183
1.013083,-0.2629917,0.100903,0.007186969,-0.03302153,0.01265925,0.1779569,-0.03603199,0.06530272
0.9940233,-0.248248,0.1004794,-0.01193105,-0.01833505,0.01247656,0.1743315,-0.1004124,0.03716092
1.018511,-0.2317439,0.09799539,0.012498,-0.001890791,0.01021752,0.1657327,-0.1363004,0.006036474
1.03295,-0.220935,0.09488461,0.0268761,0.008856527,0.007315863,0.1557682,-0.1495898,-0.03765686
1.009159,-0.220606,0.09240864,0.003024204,0.009122462,0.005033243,0.1438444,-0.1302196,-0.05345499
0.9967616,-0.2193131,0.08348556,-0.009437231,0.01035068,-0.003711924,0.1012709,-0.1094166,-0.02601216
1.000034,-0.210793,0.07321868,-0.006230364,0.01880424,-0.01381567,0.01743358,-0.08281047,-0.006783422
0.9894806,-0.2243414,0.0870669,-0.01684948,0.005187101,0.000181822,-0.03740367,-0.05593231,0.0237776
0.9695303,-0.2425563,0.1074341,-0.03686581,-0.01309884,0.0206852,-0.02636309,-0.0887673,0.09107453
0.9644096,-0.2391998,0.1006504,-0.0420509,-0.009815269,0.01402476,0.008223385,-0.09835077,0.1598539
0.981364,-0.2379094,0.0903759,-0.02515739,-0.008598888,0.003860473,0.03744899,-0.0704495,0.1971208
1.0008,-0.2400244,0.08342839,-0.005777821,-0.0107881,-0.002989656,0.05547917,-0.01567528,0.1904685
1.017261,-0.2413266,0.06950911,0.01063336,-0.01216411,-0.01682373,0.04299408,0.1287415,0.1579389
1.035255,-0.242439,0.07042155,0.02858195,-0.01334901,-0.01583714,0.03090756,0.2357595,0.112397
1.04302,-0.2306169,0.08340701,0.03630612,-0.001597524,-0.002787327,0.04904828,0.2325785,0.08594048
1.034672,-0.1976063,0.1063833,0.02791917,0.03134456,0.02024443,0.07269987,0.2016998,0.1093926
1.022709,-0.148826,0.137668,0.01591714,0.08005757,0.05157557,0.09736856,0.1590174,0.1354892
1.015773,-0.1179665,0.1437418,0.008942597,0.1108481,0.05768563,0.05952422,0.08688089,0.1572091
1.007401,-0.1135945,0.137554,0.0005313556,0.1151452,0.05152186,-0.07974141,-0.003538748,0.173559
0.9990664,-0.1068163,0.1462916,-0.007843736,0.1218376,0.06026943,-0.2441527,-0.04690083,0.1563593
0.9927429,-0.123353,0.1492028,-0.01420843,0.1051991,0.06317445,-0.3550127,-0.05796104,0.1569843
0.9890365,-0.1855014,0.1398599,-0.01795585,0.04292893,0.05380733,-0.3394038,-0.07837634,0.1663274
1.009314,-0.2351749,0.1264886,0.002281276,-0.006887929,0.04039231,-0.2697157,-0.04864039,0.156302
1.06813,-0.2626771,0.1040841,0.06105825,-0.03455449,0.01792375,-0.2224725,0.01672353,0.1568397
1.114409,-0.2914849,0.08033738,0.1072964,-0.06354463,-0.005907099,-0.1349845,0.0593134,0.1305478
1.071952,-0.2982491,0.0748304,0.06479548,-0.07050505,-0.0115171,-0.06585332,0.02661312,0.07156658
0.9842717,-0.3006726,0.09930232,-0.02293719,-0.07313363,0.01283473,0.00291162,-0.09663322,-0.01672689
0.9338682,-0.3019763,0.1324488,-0.0734007,-0.07464658,0.04584538,0.1392477,-0.2088813,-0.1636531
0.9081264,-0.2857416,0.1339055,-0.09920749,-0.05862071,0.0471506,0.2332287,-0.2576472,-0.2727187
0.9046437,-0.2728507,0.1122315,-0.1027556,-0.04593415,0.02530892,0.2808661,-0.2512773,-0.2438113
0.9324645,-0.2560394,0.09305178,-0.07499539,-0.02931997,0.005945408,0.3409449,-0.2439842,-0.1425889
0.9817436,-0.2543607,0.07427196,-0.02576816,-0.02782917,-0.01303362,0.4179945,-0.2572134,-0.06461969
1.021795,-0.2545798,0.07048237,0.01424235,-0.0282253,-0.01703604,0.4699227,-0.2185386,-0.008661826
1.000766,-0.1962017,0.07504321,-0.006816451,0.02998729,-0.01269946,0.4375853,-0.2046093,0.06997066
0.9879751,-0.1292216,0.06397264,-0.01962764,0.09681251,-0.02400347,0.3486194,-0.2152322,0.1870132
1.036178,-0.1166366,0.05313638,0.02856583,0.1092499,-0.03507998,0.1930103,-0.1549926,0.259008
1.062317,-0.1415625,0.04908666,0.05470346,0.08417898,-0.03937414,0.03147356,-0.09488137,0.225838
1.052533,-0.163419,0.0593228,0.04492377,0.06217538,-0.02938386,-0.09756324,-0.02362054,0.1655814
1.031374,-0.1791945,0.08460555,0.02377365,0.0462474,-0.004346047,-0.2411682,0.02688527,0.09314577
1.010568,-0.2018846,0.0914589,0.002978141,0.02339748,0.002264801,-0.2841007,0.005203539,0.031359
1.016242,-0.2149981,0.08739592,0.008662528,0.01011597,-0.002037513,-0.2761108,-0.004689205,0.01524027
1.030145,-0.2495474,0.088061,0.02257718,-0.02460928,-0.001608161,-0.2702794,-0.01546826,-0.03279813
1.035,-0.2849053,0.08067808,0.02744204,-0.06014946,-0.00922268,-0.1621306,-0.005297571,-0.06488124
1.023302,-0.2705355,0.0683512,0.01575164,-0.04596551,-0.02177635,-0.07503676,0.01707136,-0.06764714
1.003962,-0.2647648,0.06073063,-0.003583184,-0.04038085,-0.02961781,-0.0262666,-0.004390882,-0.1000389
0.9968473,-0.260668,0.07095101,-0.01069556,-0.03646751,-0.01961109,0.02800148,-0.00949342,-0.09177077
0.9872276,-0.2378335,0.08443541,-0.02031534,-0.0138118,-0.006331894,0.0269171,-0.004052043,-0.07580561
0.9880757,-0.233656,0.07934556,-0.01946892,-0.009806877,-0.0116178,0.04144359,0.01335841,-0.07513554
1.006485,-0.2239914,0.07855282,-0.001062178,-0.0003080362,-0.01259701,0.04175707,0.06377207,-0.05281792
1.012111,-0.2121173,0.08017116,0.004562413,0.01140744,-0.01115516,0.007941492,0.1276777,-0.04572604
1.012008,-0.2083285,0.069899,0.004456832,0.01504438,-0.02159339,-0.01294226,0.2079014,-0.0261728
1.016012,-0.1976764,0.0683099,0.008458864,0.02555059,-0.0233376,-0.07358503,0.2710922,-0.009714824
1.013387,-0.1912232,0.08037876,0.005831035,0.03186275,-0.01141222,-0.1549707,0.322917,-0.02077764
1.003211,-0.186626,0.09963164,-0.004348643,0.03632245,0.007709118,-0.2345847,0.3378045,-0.02097257
0.9959933,-0.1963049,0.1145148,-0.01157066,0.02650794,0.02247219,-0.2700065,0.2466828,-0.03530633
1.010079,-0.2357078,0.1148143,0.002510564,-0.01302971,0.02266198,-0.2416634,0.1112389,-0.07744649
1.036648,-0.2805447,0.1145756,0.02907519,-0.05800041,0.02232247,-0.2189534,0.02424576,-0.1377767
1.047404,-0.2852267,0.1183734,0.03982439,-0.06281319,0.02602662,-0.1651567,0.02425255,-0.1735452
1.03369,-0.2489768,0.1207514,0.02610276,-0.02668849,0.02831672,-0.09668004,0.03585722,-0.1543351
1.02002,-0.2322215,0.1141903,0.01242039,-0.01005056,0.02167203,-0.07127661,-0.03424079,-0.1272834
1.037454,-0.2440012,0.09422963,0.02983726,-0.02193885,0.00163067,-0.06632447,-0.07278939,-0.08752329
1.051521,-0.2530975,0.07604192,0.04388158,-0.03113422,-0.01663522,-0.08045806,-0.02578831,-0.04874585
1.036446,-0.2580412,0.06652864,0.02877785,-0.03616678,-0.02622384,-0.07510064,-0.007212443,-0.05248149
1.027522,-0.260462,0.06492245,0.01981623,-0.03866481,-0.02790154,-0.07174927,-0.04137892,-0.05656845
1.008675,-0.2586692,0.06196725,0.0009241428,-0.03693653,-0.03092315,-0.100009,-0.06435086,-0.04808112
0.9748423,-0.2552096,0.05210243,-0.03296283,-0.03352744,-0.04084789,-0.1045379,-0.01534003,-0.03595775
0.9733184,-0.2578184,0.05437344,-0.03454721,-0.03617192,-0.0386288,-0.09876031,0.03415838,-0.007992537
0.9858377,-0.2616502,0.05844017,-0.02209309,-0.04002345,-0.03460448,-0.08720775,0.0174465,0.006831942
0.9841532,-0.2621162,0.05348587,-0.02384542,-0.04049263,-0.03959031,-0.07831897,0.01500762,0.0001946189
0.9888074,-0.2638897,0.05825088,-0.01926001,-0.04225183,-0.03484474,-0.08654882,0.01578537,0.001022818
0.9932894,-0.2616088,0.06810136,-0.0148465,-0.03993824,-0.02500061,-0.07291679,-0.003091006,0.006840169
0.9903338,-0.2621795,0.07579461,-0.01786908,-0.04045726,-0.01730002,-0.05510617,-0.01010878,0.007284413
1.000869,-0.2637452,0.07496165,-0.007398644,-0.04195172,-0.01811182,-0.02641526,-0.02290554,0.01115133
1.014995,-0.2607553,0.06520388,0.006665063,-0.03887048,-0.02783464,0.02322809,-0.01962106,0.0144343
1.025683,-0.2615353,0.06467518,0.01729427,-0.03953874,-0.02831452,0.0493284,0.006037396,0.01889484
1.030301,-0.257975,0.06599194,0.02185582,-0.03584603,-0.02693482,0.04742744,0.03100197,0.03922619
1.013915,-0.2519505,0.06634713,0.005414104,-0.02966833,-0.02650234,0.03372326,0.03425531,0.05315545
1.002537,-0.246886,0.07391777,-0.006018331,-0.02443023,-0.01884,0.02552873,-0.005706562,0.04722197
1.000876,-0.2433673,0.0787043,-0.00773351,-0.02071791,-0.01394751,0.008166835,-0.04712363,0.04604574
1.004317,-0.2502885,0.0793175,-0.004344366,-0.02742636,-0.01321451,-0.003873995,-0.05268019,0.0490398
1.021247,-0.2592718,0.07299958,0.01253433,-0.03617844,-0.01939936,0.01135442,-0.03195055,0.04675979
1.0181,-0.2694313,0.06426881,0.009337513,-0.04608847,-0.02798422,0.009198628,-0.01208427,0.04310621
1.001275,-0.2730942,0.06338325,-0.007536372,-0.04948353,-0.02871117,0.01491285,-0.01391359,0.03211829
0.9903617,-0.2644919,0.06380309,-0.0184972,-0.0405949,-0.02811997,0.03609192,-0.03443175,0.01251721
0.9846173,-0.2570078,0.06753031,-0.02428759,-0.03280576,-0.02420859,0.03727483,-0.0667648,-0.002863239
0.9921267,-0.2402444,0.07495075,-0.01682148,-0.01571893,-0.01659135,0.03757244,-0.07185009,-0.004868527
0.9959462,-0.230412,0.080259,-0.01304157,-0.005545731,-0.01107404,0.02305477,-0.03020683,0.002283758
1.007568,-0.2432487,0.07831621,-0.001455333,-0.0180257,-0.01279621,0.007837766,0.0004174377,0.006789503
1.019404,-0.2448077,0.07105375,0.01034934,-0.01921355,-0.01982725,0.01150534,-0.01192384,-0.0001149366
1.011594,-0.2374559,0.07105496,0.002512696,-0.01147735,-0.01958439,0.01005085,-0.03151107,-0.003073632
1.010114,-0.2337183,0.06905326,0.001009304,-0.007343359,-0.02133465,0.01079574,-0.04068005,0.01991572
0.9999303,-0.230193,0.06624671,-0.009194897,-0.003411216,-0.02388027,0.01433354,-0.05245672,0.04924478
0.989278,-0.2411924,0.0701644,-0.0198641,-0.01399466,-0.01969245,0.02232318,-0.04232214,0.05226281
0.9948222,-0.2545936,0.06648823,-0.01433306,-0.02697222,-0.02308957,0.02853532,-0.01741708,0.03401767
0.9871817,-0.2539014,0.06315405,-0.02198219,-0.02584926,-0.02613604,0.02534841,-0.01611923,0.01893436
0.9825973,-0.2496473,0.06045565,-0.02657019,-0.02115784,-0.02853821,0.02292892,0.00892857,0.01185126
0.988673,-0.2446584,0.05513174,-0.02049208,-0.01572548,-0.0335574,0.01185305,0.06934383,0.009415775
0.9915294,-0.2334574,0.05777561,-0.01762659,-0.004075626,-0.03060019,0.003710282,0.1214172,0.02436588
0.9940364,-0.2196708,0.05555691,-0.0151034,0.0101639,-0.03249677,-0.01156384,0.158827,0.05308841
0.9986731,-0.2143779,0.0595328,-0.01044303,0.0159124,-0.02818988,-0.04933659,0.1589318,0.05855536
1.02321,-0.2208663,0.08965232,0.01412458,0.009880095,0.002269307,-0.07690862,0.1225826,0.01709062
1.058289,-0.2352727,0.1255195,0.04924112,-0.00407149,0.03848378,-0.09429749,0.05618924,-0.0306013
1.065883,-0.2505424,0.1324804,0.05687724,-0.01888891,0.04579706,-0.09520301,-0.03779865,-0.01982197
1.035145,-0.2662119,0.09967379,0.02618283,-0.03410912,0.01334499,-0.05466222,-0.1075201,0.04221625
1.001119,-0.2943427,0.0636176,-0.007801092,-0.06179311,-0.02235692,0.02328451,-0.1223407,0.09988595
0.9969516,-0.3206327,0.03959082,-0.01192656,-0.0876373,-0.04603047,0.1100605,-0.08866665,0.1104314
1.003422,-0.318773,0.02768703,-0.005415547,-0.08533038,-0.05758136,0.1561607,-0.04067866,0.06968482
1.003231,-0.2991151,0.04942381,-0.005567058,-0.06522093,-0.03549056,0.1660954,0.001439493,0.01041271
0.9997246,-0.2746317,0.07692054,-0.009033454,-0.04027945,-0.0076376,0.1650157,0.02272854,-0.0644152
0.9923263,-0.2463058,0.09068269,-0.01639211,-0.01148793,0.006483016,0.1499135,-0.01714143,-0.1232554
0.9875501,-0.2295632,0.1048,-0.0211282,0.00572714,0.02096002,0.1238704,-0.06469097,-0.1218487
0.9944496,-0.2267974,0.1031289,-0.0141873,0.008971107,0.01964811,0.0702781,-0.06308125,-0.1140019
1.008879,-0.2298558,0.09306902,0.0002849462,0.006394374,0.009945125,0.01110789,-0.03280966,-0.09994839
1.012275,-0.2431141,0.09183313,0.003726593,-0.006380626,0.009062234,-0.01866657,0.02374843,-0.05960163
1.003612,-0.2525489,0.08582181,-0.004889251,-0.01533181,0.003398835,-0.03082411,0.05873695,-0.04932277
1.002928,-0.2424175,0.07714097,-0.005524631,-0.004717369,-0.004940032,-0.02555906,0.04649434,-0.04128078
1.026869,-0.2292294,0.07627792,0.01846596,0.008952135,-0.005467553,-0.03763038,0.06252436,-0.01771847
1.050587,-0.2279284,0.08081047,0.0422351,0.01073178,-0.0006061883,-0.06986667,0.1108288,-0.01579939
1.026541,-0.2254175,0.08914914,0.01823868,0.01371702,0.008054273,-0.07310043,0.1108333,-0.0131662
0.9910434,-0.2143544,0.100849,-0.01721118,0.02524838,0.0200683,-0.07699228,0.05535733,0.001827741
0.9906779,-0.2107353,0.1124358,-0.01753115,0.02932781,0.03196058,-0.08816437,0.007687248,0.03336752
0.9937401,-0.2181926,0.1104343,-0.01442496,0.02232102,0.03025441,-0.08109872,-0.001861024,0.08215071
0.9893227,-0.228379,0.09463378,-0.01879904,0.01257357,0.01473754,-0.06535423,-0.01049966,0.1172243
0.9844201,-0.2337893,0.08900157,-0.0236581,0.007589201,0.009376289,-0.02710248,-0.06076332,0.1233039
0.9747699,-0.2399489,0.09319966,-0.0332637,0.001841931,0.01383205,0.02259568,-0.1101322,0.1106453
0.9727171,-0.2555475,0.09681125,-0.03526952,-0.01335831,0.01768763,0.06348334,-0.1315028,0.09924644
0.9859254,-0.2567947,0.09569909,-0.02201047,-0.014221,0.01680532,0.09551288,-0.1493043,0.09335811
1.010889,-0.2438893,0.08086277,0.003008597,-0.0009443772,0.002184342,0.1159189,-0.1204697,0.09162279
1.022243,-0.2376211,0.07491842,0.01442263,0.005682036,-0.003559181,0.1345463,-0.07151513,0.08665553
1.009116,-0.2320699,0.08952752,0.001359213,0.01157838,0.01123659,0.12812,-0.06691168,0.07092539
1.005987,-0.2218423,0.101301,-0.001702132,0.02213744,0.02318277,0.09191978,-0.05750106,0.06454376
1.023481,-0.1964741,0.1019944,0.01586076,0.04782262,0.02403475,0.03816308,-0.00536801,0.0672509
1.038899,-0.1765356,0.09440527,0.03135039,0.06806186,0.01658939,-0.0626596,0.09618659,0.0755647
1.040028,-0.1870362,0.08970676,0.03255122,0.05784343,0.01201964,-0.15711,0.1813875,0.09923277
1.035808,-0.1996058,0.0937164,0.02840122,0.04553489,0.01614292,-0.1984293,0.1917423,0.1117287
1.03368,-0.2044398,0.09666382,0.02633946,0.04093912,0.01918888,-0.2555164,0.223561,0.1092373
1.026957,-0.2072249,0.09569463,0.01967952,0.0383679,0.01830306,-0.3464386,0.3044332,0.1188463
1.023247,-0.2095437,0.09427749,0.01602668,0.03623786,0.01695407,-0.4341407,0.3900638,0.134291
1.01765,-0.2320566,0.09374867,0.01047957,0.01388815,0.01647818,-0.4688769,0.463387,0.1401913
1.000242,-0.2734991,0.09252924,-0.006883652,-0.02741635,0.01529656,-0.4211113,0.4656741,0.1294442
0.9964286,-0.3008786,0.09612935,-0.01065901,-0.05468136,0.0189195,-0.3374774,0.4515198,0.1046855
1.007341,-0.3036727,0.1134575,0.0002860843,-0.05738101,0.03625557,-0.2219902,0.4841813,0.0807473
1.01181,-0.3117148,0.1411262,0.004782403,-0.06534488,0.06391663,-0.07288254,0.4773673,0.0752379
1.005957,-0.3125423,0.1550074,-0.001048116,-0.06610624,0.07777335,0.03628826,0.4428155,0.1033132
0.986882,-0.2760279,0.1445488,-0.02010492,-0.02953388,0.06727129,0.06490514,0.4037125,0.1398642
0.9705116,-0.2519813,0.1408745,-0.03646079,-0.005434953,0.06353234,0.04101675,0.3221969,0.1424236
0.9742997,-0.2626639,0.1471973,-0.03266006,-0.01606915,0.06976771,0.02437653,0.2653541,0.1068992
0.9784793,-0.2625284,0.1500334,-0.0284682,-0.01588848,0.07249178,0.0204106,0.195874,0.0548147
0.9659957,-0.2436166,0.1633366,-0.04093814,0.003066,0.08565686,0.00722828,0.07586133,0.02674523
0.9612726,-0.2304584,0.1697125,-0.04564448,0.01626484,0.09186666,-0.01260019,0.009104235,0.03689878
0.9803011,-0.2376281,0.1635499,-0.0265944,0.009133263,0.08550809,-0.07062233,-0.004577071,0.04610677
1.000231,-0.2500038,0.1690355,-0.006636891,-0.003207068,0.09076598,-0.118856,0.009024406,0.04092373
1.004292,-0.2549223,0.1729837,-0.002541106,-0.008093137,0.09445291,-0.109931,0.0219996,0.0281298
0.9933192,-0.260764,0.1690889,-0.01347321,-0.0139049,0.09026189,-0.1189254,0.0176013,-0.004379425
0.9818851,-0.2629258,0.1669488,-0.02486018,-0.0160386,0.0877891,-0.134797,0.02334649,-0.03355488
0.9806894,-0.2644368,0.1651574,-0.02600193,-0.01752264,0.08562751,-0.1275326,0.004958301,-0.03842456
0.9856402,-0.2712119,0.167565,-0.02098993,-0.0242709,0.08762674,-0.1200241,-0.002829872,-0.05255855
0.9952194,-0.2818893,0.1699221,-0.01134173,-0.03492056,0.08953666,-0.09197827,0.004987072,-0.07998226
0.9949577,-0.2888122,0.173244,-0.01152657,-0.04181345,0.09237204,-0.06815665,-0.01808637,-0.08722736
0.9862029,-0.282426,0.1794064,-0.02019684,-0.03539326,0.09800798,-0.0553094,-0.03051753,-0.06868234
0.9848061,-0.2820281,0.1742199,-0.02150125,-0.03495595,0.09225456,-0.02165674,-0.03441127,-0.04558717
0.9872412,-0.2863393,0.1682757,-0.0189657,-0.03922084,0.08570275,-0.0003300382,-0.02969223,-0.04224196
0.9921159,-0.2823396,0.1760915,-0.01398248,-0.03516677,0.09287016,-0.003070663,-0.02435287,-0.0532412
0.9893744,-0.2784123,0.1800312,-0.01660728,-0.03117581,0.09612066,0.009138461,-0.03780461,-0.06510562
0.9829162,-0.2660542,0.1752469,-0.02294074,-0.01874395,0.0906064,0.0253966,-0.04046002,-0.0776318
0.9843646,-0.2553982,0.1723712,-0.02135941,-0.008003778,0.08696035,0.008377936,-0.04278308,-0.07794369
0.9847706,-0.2575409,0.1715581,-0.02081218,-0.01005217,0.08533677,-0.01266408,-0.02719448,-0.06885603
0.9894689,-0.2594955,0.1773841,-0.01596437,-0.01190275,0.09031279,-0.02515678,-0.006230362,-0.07052025
0.9916381,-0.2620715,0.1839409,-0.01363728,-0.01436549,0.09598087,-0.04998245,-0.023939,-0.09019568
0.9856067,-0.2615652,0.1759184,-0.01950269,-0.01373681,0.08703133,-0.06576012,-0.03624903,-0.1119653
0.9833185,-0.259667,0.1643031,-0.02161694,-0.01170763,0.07445141,-0.07972146,-0.03769558,-0.1036838
0.983127,-0.2602374,0.1610355,-0.02162664,-0.0121387,0.07018278,-0.09426347,-0.04881297,-0.07416341
0.9933328,-0.2583226,0.1581191,-0.01123114,-0.01007648,0.06623049,-0.0912267,-0.05675527,-0.05226532
1.004644,-0.2634758,0.1551974,0.0002775552,-0.01507479,0.06223993,-0.08015948,-0.06547139,-0.04627774
0.9982674,-0.2736141,0.1545487,-0.005895274,-0.02505069,0.0604914,-0.05423489,-0.07731463,-0.06497659
0.9881212,-0.2786415,0.1526138,-0.01583129,-0.0299084,0.05742782,-0.02637679,-0.08231164,-0.07865979
0.98308,-0.2788648,0.1541924,-0.02065668,-0.0299542,0.05785097,-0.01522623,-0.07193093,-0.06478375
0.9838924,-0.2706077,0.1587705,-0.01962305,-0.02151139,0.06124892,-0.01361596,-0.05944053,-0.05500693
0.9880317,-0.2561154,0.1590863,-0.01525694,-0.006825042,0.0603618,-0.01738927,-0.05796188,-0.04592096
0.9874492,-0.2473607,0.1597065,-0.01560737,0.00213157,0.05975827,-0.01792439,-0.07238054,-0.02961125
0.9862037,-0.250142,0.1610436,-0.01661567,-0.000440908,0.05985251,-0.01951712,-0.1065345,-0.02843864
0.9875631,-0.2562052,0.1563583,-0.01501407,-0.006289226,0.05390698,-0.01713015,-0.1359618,-0.04081042
0.9919562,-0.2610149,0.1497318,-0.01037396,-0.01087887,0.04600468,-0.009221698,-0.1301626,-0.04955158
0.9975842,-0.2654168,0.1461168,-0.004494771,-0.01505611,0.04110033,-0.01336418,-0.1028047,-0.03380542
0.9940681,-0.2604292,0.1451171,-0.007755859,-0.009839702,0.03879995,-0.01718802,-0.09669183,-0.00430241
0.9862038,-0.2510535,0.1499576,-0.01536197,-0.0002311993,0.04233085,-0.01749747,-0.1182422,0.01359317
0.9863044,-0.2513086,0.156649,-0.01500037,-0.0002502963,0.04770568,-0.01762302,-0.1491457,0.02898567
0.9899271,-0.2637807,0.1532461,-0.01111401,-0.01248394,0.04298109,-0.003943146,-0.168206,0.03894562
0.9945844,-0.2858705,0.145704,-0.006190804,-0.03433298,0.03411402,0.01920065,-0.169471,0.03518559
0.9999085,-0.2995799,0.1402275,-0.0005988056,-0.04779917,0.02731102,0.05070614,-0.1700776,0.02478204
1.003566,-0.2999769,0.130864,0.003327299,-0.04794929,0.01662175,0.08458709,-0.144152,0.008483327
1.005836,-0.3009913,0.1282514,0.00586729,-0.04871169,0.01268654,0.1112755,-0.1033518,-0.009300799
1.002987,-0.2947672,0.1310892,0.003286707,-0.04222896,0.01420739,0.1389668,-0.09964585,-0.02801763
1.000814,-0.2812699,0.1247556,0.001381465,-0.02846559,0.006565046,0.1565023,-0.100923,-0.04656751
1.000106,-0.2755699,0.1203674,0.0009376222,-0.0224913,0.0008787928,0.1607321,-0.08958787,-0.05569081
0.9965103,-0.2766696,0.1232155,-0.002395754,-0.02330846,0.002442154,0.1738099,-0.08923782,-0.06291781
0.9956059,-0.2779629,0.1239175,-0.00304153,-0.02431126,0.001875085,0.1932335,-0.08593171,-0.08055571
0.9927938,-0.2763249,0.120805,-0.005598618,-0.02237481,-0.002488578,0.217863,-0.0755142,-0.09609154
0.9907216,-0.2737716,0.1179682,-0.007419796,-0.01951539,-0.006556484,0.2582132,-0.08019987,-0.105657
0.9905322,-0.2662031,0.1189513,-0.007362084,-0.01163338,-0.006782203,0.2867644,-0.09558036,-0.1243874
0.9856404,-0.2520254,0.119115,-0.01201076,0.002864399,-0.007803146,0.2832791,-0.1037896,-0.1348955
0.986868,-0.2456924,0.1190407,-0.01054395,0.009523101,-0.009035934,0.2795667,-0.1101612,-0.1265834
0.9939398,-0.2470426,0.1199804,-0.0032366,0.008502551,-0.009226895,0.2845642,-0.1028961,-0.1201443
1.002044,-0.2460865,0.1175617,0.005098867,0.009790773,-0.01274693,0.2781888,-0.08320846,-0.1129308
1.008509,-0.2454152,0.1149118,0.01179202,0.010795,-0.01646738,0.2683011,-0.07436483,-0.1039733
1.008322,-0.249372,0.1124313,0.0118275,0.00717041,-0.01998607,0.2557131,-0.06851906,-0.09239685
1.010206,-0.2573217,0.1118361,0.01392856,-0.0004488451,-0.02158573,0.2408324,-0.06626129,-0.07041069
1.011737,-0.2651231,0.1141404,0.01567032,-0.007922708,-0.02025086,0.2336449,-0.05496613,-0.0585452
1.014738,-0.2668354,0.11392,0.01887364,-0.009310789,-0.02140441,0.2143069,-0.02825274,-0.05325364
1.021737,-0.2624859,0.1132353,0.02606693,-0.004640778,-0.02298498,0.1927393,-0.01784279,-0.038911
1.017113,-0.2616438,0.1114425,0.0216286,-0.003481937,-0.02563558,0.185985,-0.01860817,-0.02933622
1.010623,-0.2636479,0.1077192,0.01531341,-0.005173531,-0.03017767,0.16742,-0.01312806,-0.01978944
1.009382,-0.2637857,0.1048082,0.01423563,-0.005003391,-0.03386748,0.1466494,-0.001544333,-0.008759491
1.003344,-0.2663243,0.1001803,0.008349402,-0.007238854,-0.03923355,0.1345081,0.00296856,-0.005675177
1.000062,-0.267833,0.1002932,0.005208282,-0.008449365,-0.039817,0.1172657,-0.001515207,-0.0008630131
0.9967617,-0.2700795,0.1098508,0.002036988,-0.0104027,-0.03091332,0.1122822,-0.003501583,-0.001037077
0.9891771,-0.2749496,0.1166442,-0.005429907,-0.01498453,-0.02473086,0.1218458,-0.02763673,-0.01268718
0.9859219,-0.2748326,0.1134949,-0.008578064,-0.01458406,-0.02844794,0.1285544,-0.05816484,-0.01905412
0.9850827,-0.2720956,0.1088079,-0.009320121,-0.01156798,-0.03365986,0.129726,-0.05616154,-0.0169191
0.9933454,-0.2684536,0.1108244,-0.0009692311,-0.007651109,-0.03212532,0.1268131,-0.04172288,-0.01605971
1.005889,-0.2644954,0.1150093,0.01165426,-0.003422196,-0.02837987,0.1219855,-0.03510554,-0.02190821
0.9982356,-0.261006,0.1142794,0.004072352,0.0003335443,-0.02950672,0.1144181,-0.04276065,-0.03444822
0.9885508,-0.2564789,0.1107021,-0.005548986,0.005122294,-0.03343912,0.1048353,-0.05470142,-0.04679027
0.9932321,-0.2520303,0.1081994,-0.0008118953,0.009827364,-0.03625547,0.09404946,-0.05760552,-0.04852424
0.9945875,-0.2467221,0.1065487,0.0005920838,0.01538608,-0.03817867,0.07894086,-0.05183414,-0.03901499
1.002085,-0.251523,0.1053096,0.008131146,0.01082896,-0.03964942,0.05962129,-0.02745861,-0.03082997
1.009938,-0.2604942,0.1063593,0.01601993,0.002093927,-0.03879102,0.04431888,0.0004474237,-0.02467599
0.9940412,-0.2522098,0.1103628,0.0001510554,0.01060657,-0.03493876,0.04192622,-0.001062882,-0.016199
0.981231,-0.2469724,0.1129085,-0.01263753,0.01606367,-0.03250482,0.04477577,-0.03037861,-0.01601847
0.994213,-0.2548248,0.1133081,0.00036002,0.008421914,-0.03217843,0.0463886,-0.04881134,-0.0187659
1.007658,-0.2567177,0.1210383,0.01381557,0.006730051,-0.02448373,0.05285753,-0.03882863,-0.0103562
1.003463,-0.2543172,0.1296837,0.009624693,0.009321768,-0.01583743,0.05975371,-0.03553883,-0.0008510952
0.9920519,-0.2428113,0.1225691,-0.001787316,0.02100856,-0.02291615,0.05877988,-0.06045263,0.008358591
0.9832908,-0.2250443,0.1121553,-0.01055461,0.03894579,-0.03326068,0.04977376,-0.0969145,0.02920371
0.9851941,-0.2255311,0.1103097,-0.008662095,0.03861714,-0.03500489,0.03841066,-0.1145448,0.05699958
0.9975634,-0.2415175,0.1088365,0.003692591,0.02277561,-0.03634527,0.03583726,-0.09757108,0.0894681
1.008999,-0.2591991,0.1038255,0.01511032,0.005224538,-0.04119303,0.04194559,-0.07516348,0.119793
1.023325,-0.2773265,0.09619303,0.02941395,-0.01278647,-0.04863233,0.04848623,-0.06503748,0.1287165
1.027586,-0.2899555,0.09690159,0.03364886,-0.02531247,-0.04770112,0.05508275,-0.04744966,0.1180788
1.012032,-0.2916633,0.1020873,0.01806252,-0.02692916,-0.04226366,0.05586251,-0.03315644,0.09611991
1.004138,-0.2852955,0.1007553,0.01013034,-0.02048017,-0.04331521,0.04913169,-0.0292142,0.06549252
1.005571,-0.2745674,0.1051646,0.01151919,-0.009679225,-0.03859742,0.04422685,-0.01206637,0.03498775
1.008703,-0.2635635,0.1079578,0.01459937,0.001390313,-0.03546853,0.03511569,0.0003996821,0.02384331
1.013176,-0.2599488,0.1052517,0.01901438,0.005064144,-0.03781256,0.02044729,-0.004417491,0.04097627
1.011276,-0.2632683,0.1092571,0.01704921,0.001797357,-0.03341992,0.01612722,-0.006627067,0.05532251
1.00781,-0.2632342,0.1098015,0.01351188,0.00187809,-0.03246409,0.02127864,-0.006103966,0.06041619
1.00051,-0.261064,0.1135431,0.00613229,0.004088824,-0.02828798,0.02666791,-0.008347501,0.07207652
0.9940638,-0.2604116,0.1205843,-0.0003994842,0.004775974,-0.02079058,0.03722463,-0.0237034,0.07727988
0.9934274,-0.2548234,0.1142343,-0.001128097,0.01039326,-0.02666425,0.05002178,-0.04237962,0.0784571
0.9934919,-0.2502719,0.1105714,-0.001161381,0.01496796,-0.02983211,0.0476928,-0.04132191,0.0764377
0.997102,-0.2506029,0.1157702,0.002345975,0.01465407,-0.02412087,0.03490885,-0.03059097,0.07186172
0.9943507,-0.2451151,0.1205045,-0.0005123022,0.02015255,-0.01885807,0.02534562,-0.02225482,0.07264713
0.9915323,-0.2390626,0.126269,-0.003441387,0.02620881,-0.01255052,0.01878315,-0.01712791,0.07405916
0.9974522,-0.2410424,0.1283001,0.002364772,0.02422511,-0.009963528,0.02573851,-0.01763872,0.08745669
0.9994054,-0.2465621,0.1234309,0.004201701,0.01869322,-0.01426584,0.03803754,-0.03095519,0.1033903
0.9994802,-0.2519216,0.1167429,0.00415801,0.01331281,-0.02037756,0.03545207,-0.05655265,0.1115403
0.9949443,-0.2543192,0.1109336,-0.0004981396,0.01088548,-0.02560259,0.027134,-0.07158425,0.1223488
0.9896865,-0.2584727,0.1037656,-0.005877681,0.006693447,-0.03217929,0.01644639,-0.05598933,0.1250862
0.99459,-0.2701487,0.1029138,-0.001096908,-0.005029522,-0.03243351,0.01268013,-0.03923712,0.119064
0.9977911,-0.2775112,0.1064629,0.001981186,-0.01244669,-0.02828097,0.02500653,-0.05677785,0.1094104
0.9981367,-0.2766245,0.1022806,0.002203706,-0.0116213,-0.03185446,0.03234141,-0.06521478,0.1026152
1.003243,-0.284011,0.1059448,0.007187463,-0.01907458,-0.02757665,0.03567791,-0.04696937,0.0969907
1.008044,-0.2951398,0.1119531,0.01186581,-0.03027393,-0.02095046,0.05299177,-0.04113465,0.0817922
1.008363,-0.2950296,0.1014611,0.01206185,-0.0302366,-0.03082094,0.08010557,-0.03620403,0.06708005
1.008825,-0.2946538,0.09566722,0.01240137,-0.02993405,-0.03599016,0.09989117,-0.02500676,0.04339205
1.008014,-0.2958071,0.09916691,0.01146788,-0.03115905,-0.03186307,0.1098849,-0.02208826,0.01723723
1.001898,-0.2894314,0.09964145,0.005227696,-0.02485208,-0.03075858,0.1178621,-0.02789207,0.01138221
1.000518,-0.2856197,0.1020813,0.003723249,-0.02110474,-0.02768647,0.1169638,-0.0345999,0.003840994
1.000617,-0.2853707,0.1087099,0.003697821,-0.02091448,-0.02042377,0.1205226,-0.03236199,-0.01716969
0.9969114,-0.2809277,0.1129809,-0.0001333469,-0.01652396,-0.01551749,0.1333045,-0.03614569,-0.03494633
0.9979373,-0.27583,0.1082244,0.0007672462,-0.0114718,-0.01963839,0.1369515,-0.04549228,-0.03328485
0.9970534,-0.2722065,0.1055294,-0.000241789,-0.007886411,-0.02169808,0.1512403,-0.05043244,-0.02719687
0.9935808,-0.2683943,0.1109006,-0.003838822,-0.004104977,-0.01569284,0.173938,-0.05668578,-0.03235797
0.9930689,-0.2596265,0.1149493,-0.004474334,0.004639253,-0.01101185,0.1782856,-0.06144857,-0.02926243
0.9920564,-0.2501351,0.121337,-0.005608949,0.01411374,-0.003994733,0.1711884,-0.0706323,-0.02835968
0.9909944,-0.2488705,0.1291039,-0.006791053,0.01536733,0.004397633,0.1588145,-0.08281205,-0.03237475
0.9863171,-0.2473973,0.1300612,-0.01158606,0.01683428,0.005975114,0.152953,-0.09123862,-0.02743956
0.9838874,-0.2441061,0.1254104,-0.01413044,0.02012278,0.001937595,0.1617557,-0.0970637,-0.02696842
0.9919634,-0.2445289,0.1210759,-0.006165272,0.01969965,-0.001791781,0.1685435,-0.09279866,-0.02110569
1.001221,-0.2406325,0.1204288,0.002986143,0.02359675,-0.00184302,0.1595929,-0.06133251,-0.01215553
1.0046,-0.2341269,0.1203281,0.006262352,0.03010315,-0.001358134,0.1323461,-0.0201844,-0.01092427
1.00182,-0.2333305,0.1201994,0.003384597,0.03089875,-0.0009121627,0.09268097,-0.02923976,-0.006535557
1.00114,-0.2351491,0.1211022,0.002610419,0.02907656,0.0005536657,0.05067186,-0.04452575,-0.005787287
1.007619,-0.2390215,0.1211741,0.008998489,0.02519646,0.001176261,0.0145726,-0.01138624,-0.005042504
1.010362,-0.2454074,0.1162899,0.01165395,0.01879759,-0.003170349,-0.01769942,0.002997362,-0.004891489
1.005109,-0.2480203,0.1093259,0.006317081,0.01616578,-0.009610105,-0.0350072,0.00615274,-0.01361823
0.9989592,-0.2474208,0.1075821,8.508853e-05,0.01673998,-0.01084321,-0.03886785,0.02310191,-0.02039984
0.9992911,-0.2498145,0.1069127,0.0003374473,0.01431429,-0.01101543,-0.05908458,0.02552273,-0.02498413
1.002632,-0.2551141,0.1080086,0.003600485,0.008975736,-0.009435681,-0.06786777,0.03130464,-0.02697541
1.003686,-0.258296,0.1073785,0.00458018,0.005748013,-0.009595129,-0.05610414,0.03077623,-0.02787104
1.0064,-0.2561806,0.1004856,0.007220978,0.007810884,-0.0160303,-0.06071571,0.03166317,-0.03243385
1.006776,-0.2553274,0.10003,0.007525641,0.008605157,-0.01604081,-0.0697678,0.04592443,-0.04342452
1.007045,-0.2605413,0.1028493,0.007724446,0.003326171,-0.01278856,-0.09274692,0.06514221,-0.06272415
1.010437,-0.2648951,0.1044355,0.01104824,-0.001098617,-0.01078107,-0.1222709,0.100703,-0.06922399
1.00516,-0.2675912,0.1072227,0.00570404,-0.003870999,-0.007583986,-0.1187137,0.09960054,-0.06970181
0.9984969,-0.2728399,0.1128959,-0.001026602,-0.009200518,-0.001512225,-0.1053358,0.08090486,-0.08250874
0.9993803,-0.2746125,0.1277304,-0.0002096857,-0.01105765,0.0137096,-0.09652531,0.08832575,-0.08533106
0.9977542,-0.2685391,0.1324765,-0.001901629,-0.005071479,0.01883101,-0.08899446,0.0697325,-0.08242185
0.9956232,-0.2616716,0.1285752,-0.004097513,0.001706849,0.01529218,-0.08997322,0.06777841,-0.08139359
1.000057,-0.2567371,0.1362093,0.0002722451,0.006550633,0.02327512,-0.08923112,0.1051972,-0.06588701
1.002999,-0.2473859,0.1375149,0.003152452,0.01580992,0.02491469,-0.08692118,0.123043,-0.04992859
0.9940658,-0.2330726,0.1279015,-0.005842235,0.0300296,0.01561962,-0.0944646,0.1180474,-0.03444063
0.9849543,-0.2252463,0.1208364,-0.01501324,0.03775988,0.008856355,-0.1138585,0.09788283,-0.005548577
0.9892807,-0.2312714,0.1203933,-0.01074422,0.03163524,0.008698395,-0.1273461,0.08137509,0.01415527
0.9951169,-0.238196,0.1188203,-0.004962815,0.02460625,0.007393697,-0.1223255,0.0870044,0.01468541
1.000394,-0.2382991,0.1099676,0.000262298,0.02439316,-0.001207469,-0.1223455,0.1535256,0.02084869
1.007359,-0.2349657,0.1113614,0.007178802,0.02761035,0.0004216005,-0.1597936,0.2455916,0.04195479
1.000316,-0.2227887,0.1148579,9.044845e-05,0.03966426,0.00413753,-0.2465734,0.2301775,0.06755888
0.9932196,-0.2171054,0.1101683,-0.007049464,0.04521667,-0.0003480756,-0.3589649,0.177201,0.08326592
1.005657,-0.2395482,0.1147898,0.005347142,0.02263407,0.00446251,-0.4409261,0.18228,0.06957372
1.012636,-0.2789455,0.1204535,0.01228878,-0.01691224,0.01030072,-0.4674839,0.1771375,0.02823561
1.001625,-0.3149934,0.1234664,0.001241872,-0.05311747,0.01347379,-0.4608448,0.1670146,-0.02957648
0.9917018,-0.3318903,0.1305174,-0.008715469,-0.07017714,0.02067069,-0.4189145,0.1342861,-0.08645589
0.9899562,-0.3298582,0.1337646,-0.01049312,-0.0683097,0.02404916,-0.3335931,0.05797626,-0.09995704
0.9903913,-0.3251715,0.1309408,-0.01008778,-0.06378547,0.02134159,-0.2225015,0.007521327,-0.0865663
0.9857372,-0.32443,0.126873,-0.01476886,-0.06320036,0.01737474,-0.1077296,-0.03296208,-0.08762587
0.9719323,-0.3205765,0.135552,-0.02859735,-0.05949419,0.02613905,-0.01679954,-0.07922687,-0.08050139
0.9532554,-0.2998007,0.1492863,-0.04729339,-0.03885363,0.03994281,0.05590882,-0.1107203,-0.06071969
0.9465331,-0.2685244,0.1524084,-0.05402883,-0.007698778,0.04311777,0.112327,-0.1340637,-0.04552504
0.9583649,-0.2500667,0.1536846,-0.04220205,0.0106519,0.0444292,0.1177648,-0.130044,-0.04229072
0.977358,-0.2416625,0.1464893,-0.02320415,0.01896284,0.03725049,0.06746574,-0.09574452,-0.05969036
1.005148,-0.2371933,0.1332575,0.004601345,0.02335097,0.02401594,-0.004070542,-0.05318378,-0.07953883
1.028362,-0.2455108,0.1314244,0.0278413,0.01496313,0.0221605,-0.0451475,-0.0267054,-0.08430701
1.031389,-0.2558401,0.1325233,0.03090217,0.004572586,0.02321782,-0.06008382,0.01122044,-0.07581115
1.033008,-0.2646213,0.1289195,0.03256246,-0.004261646,0.01955338,-0.07764535,0.0643007,-0.06328143
1.032142,-0.2759539,0.1241523,0.03174293,-0.01563966,0.01470706,-0.07087683,0.08341254,-0.05093371
1.025563,-0.2763253,0.1218464,0.02521201,-0.01604866,0.01230425,-0.05812677,0.1415637,-0.04468064
1.013397,-0.2759486,0.1214031,0.01309452,-0.01570146,0.0117469,-0.05778733,0.199994,-0.05553054
0.9844844,-0.2705045,0.1205188,-0.0157693,-0.01027864,0.01073266,-0.03756669,0.1437534,-0.05620259
0.971609,-0.2531569,0.1195936,-0.02859651,0.007055951,0.009662187,-0.02104432,0.1114603,-0.02548483
0.9813956,-0.2585523,0.119914,-0.0187612,0.001655539,0.00982326,-0.02169485,0.1417003,0.008191715
0.9804899,-0.2717349,0.1323609,-0.01961674,-0.01152475,0.0220975,-0.01269223,0.1316614,0.01332631
0.9787958,-0.2734568,0.1478153,-0.02125848,-0.01323744,0.03736655,0.02214705,0.1122051,-0.001428147
0.9833564,-0.2775196,0.1462137,-0.01664256,-0.01728385,0.03556667,0.0819534,0.07053652,-0.004795255
0.9810534,-0.2729207,0.1444357,-0.01888665,-0.01266138,0.03357737,0.1166136,-0.01219701,-0.01073031
0.9677994,-0.2710927,0.1538509,-0.03207751,-0.01080246,0.04276793,0.1199853,-0.08271238,-0.02144143
0.9554365,-0.2700176,0.1628734,-0.04437226,-0.009689011,0.05155179,0.1323458,-0.1441225,-0.008304848
0.9638876,-0.2511796,0.1684338,-0.0358466,0.009194545,0.05685898,0.1299405,-0.1946894,0.01613266
0.9826896,-0.2345508,0.1628635,-0.01696244,0.02587533,0.05102,0.1045218,-0.2186378,0.04864637
0.9921929,-0.2347787,0.1466166,-0.007368891,0.02570443,0.03448796,0.08006577,-0.2560954,0.07508263
0.9943768,-0.2542985,0.1352635,-0.005086665,0.006245099,0.02283318,0.07032969,-0.302315,0.07704247
0.9988824,-0.2700415,0.1305416,-0.0004752195,-0.009435111,0.01779361,0.09145028,-0.2999578,0.08901422
1.012492,-0.2633806,0.1267399,0.01324726,-0.002709593,0.01365908,0.1021369,-0.2407261,0.1098861
1.025581,-0.2589683,0.1170331,0.02645476,0.001768992,0.003605581,0.06767036,-0.1339812,0.1207391
1.024679,-0.2611384,0.104715,0.02567489,-0.0003332887,-0.009071666,0.02489391,-0.02991195,0.1251713
1.014166,-0.2631838,0.1013982,0.0152858,-0.002309546,-0.01275786,-0.01090743,0.02089229,0.116638
1.003003,-0.2682105,0.09842527,0.004247303,-0.007266181,-0.01610827,-0.05626066,0.0696978,0.09342996
0.9978086,-0.2700759,0.09702611,-0.0008220977,-0.009060544,-0.01789066,-0.1117967,0.1203212,0.05277478
0.991458,-0.2735937,0.1083405,-0.00704882,-0.01250608,-0.006963015,-0.1654509,0.1301114,0.0204889
0.9685588,-0.2852238,0.12546,-0.02982481,-0.02406238,0.009768109,-0.223321,0.1221791,0.005662302
0.9528781,-0.2960513,0.1384115,-0.04538229,-0.03481401,0.02233078,-0.2616832,0.08633725,-0.01967373
0.9671434,-0.30545,0.1389392,-0.03099241,-0.04413347,0.02246941,-0.2255512,0.02465201,-0.03834966
0.9862376,-0.3180572,0.1401796,-0.01177088,-0.05665658,0.0233205,-0.1516734,-0.008016155,-0.06427092
1.000595,-0.3110252,0.1460977,0.002716692,-0.04953372,0.02884908,-0.0913066,-0.01985793,-0.104095
1.021013,-0.282491,0.145112,0.02326846,-0.02089997,0.0274733,-0.05828452,-0.01674178,-0.1087071
1.040573,-0.2615268,0.1496363,0.04296366,0.0001730542,0.03160664,-0.05581257,0.01258742,-0.1015994
1.051691,-0.2451301,0.1456528,0.05421595,0.01668753,0.02723091,-0.02351133,0.01998034,-0.08338095
1.048317,-0.2386016,0.1332601,0.05097342,0.02334162,0.01444445,0.0134845,0.01158934,-0.03202931
1.02342,-0.2452909,0.1408182,0.02620199,0.01678374,0.02160734,0.001915892,0.0140338,0.0006781436
0.9895816,-0.2430296,0.1464649,-0.007518655,0.01918064,0.02685747,-0.02273983,-0.004822352,0.02677974
0.9792151,-0.2445921,0.145167,-0.01777521,0.01775611,0.02516177,-0.05742637,-0.02101798,0.06715144
0.9968044,-0.2589034,0.1423262,-8.316328e-05,0.003583978,0.02192166,-0.05059508,-0.0124554,0.08977785
1.008773,-0.2723001,0.1230588,0.0119818,-0.009673528,0.002253618,-0.00223164,0.0006140569,0.1148561
1.008933,-0.2771635,0.112431,0.0122309,-0.01439785,-0.008775536,0.02165864,0.03660119,0.145364
1.004427,-0.2772002,0.1161945,0.007806707,-0.01429545,-0.005412902,0.05813216,0.0988703,0.1482364
0.9875867,-0.2889571,0.114143,-0.008958126,-0.02591285,-0.007863503,0.08225967,0.1376709,0.1175331
0.9746587,-0.2933418,0.113896,-0.02181768,-0.03015698,-0.008506426,0.07960333,0.1176966,0.06771292
0.9593339,-0.2807754,0.1200572,-0.03707965,-0.01744802,-0.002736764,0.08030172,0.0582274,0.03792908
0.9235189,-0.2767379,0.1255845,-0.07283547,-0.01326551,0.00240439,0.06698821,-0.02067235,0.04133286
0.9097024,-0.2739662,0.123733,-0.0865937,-0.01034601,0.0001729038,0.08006852,-0.06836032,0.0517252
0.9375388,-0.2725117,0.119372,-0.05869616,-0.00874086,-0.004561367,0.1215275,-0.06247634,0.05752076
0.9671419,-0.2823237,0.1180016,-0.02902594,-0.01839943,-0.006297746,0.1868755,-0.0746854,0.05474115
0.9858905,-0.29213,0.1137152,-0.01020268,-0.02804934,-0.01094199,0.257043,-0.07276695,0.04825981
1.011897,-0.2967942,0.1066985,0.01588589,-0.03255368,-0.01830764,0.2595243,-0.03419965,0.04416908
1.039137,-0.2972112,0.09969723,0.04321564,-0.03280648,-0.02564772,0.235767,-0.01272618,0.03048907
1.045709,-0.2990956,0.1009638,0.04988248,-0.03452162,-0.02470863,0.217173,0.02513364,0.008920344
1.032227,-0.2971907,0.1113992,0.03649682,-0.03244127,-0.01458816,0.1994508,0.04574884,-0.01720115
1.017312,-0.2877187,0.1185873,0.0216775,-0.02278708,-0.007701509,0.1796661,0.03377218,-0.05185195
1.01212,-0.2763978,0.1312651,0.01657874,-0.01127686,0.004688858,0.1220942,0.04268344,-0.07495193
1.011833,-0.2613573,0.1520996,0.01638122,0.003960008,0.02524946,0.06695742,0.04332176,-0.07583445
1.008738,-0.2563502,0.1563728,0.01337271,0.009169564,0.0292616,0.02551434,0.04475246,-0.07145528
0.9977038,-0.2610323,0.146042,0.002418835,0.004694946,0.01868105,-0.01548124,0.04580909,-0.07217067
0.9811649,-0.2599107,0.1441573,-0.01404439,0.006027699,0.01655654,-0.04229809,0.01148284,-0.07678666
0.9676445,-0.2592002,0.1456895,-0.02749374,0.006951786,0.01785788,-0.07978513,-0.0467429,-0.08409762
0.958591,-0.261062,0.1400711,-0.03647962,0.005305156,0.01201655,-0.1136966,-0.1100896,-0.0910482
0.9591445,-0.2663211,0.1340053,-0.03586038,0.0002615894,0.005735291,-0.128907,-0.1527629,-0.09238182
0.9627346,-0.2764554,0.1305079,-0.03220456,-0.009657371,0.002029333,-0.1229688,-0.1923208,-0.09602485
0.9617006,-0.2841506,0.1270223,-0.03317146,-0.01713769,-0.00165813,-0.1058747,-0.2226919,-0.1006269
0.9677468,-0.2887572,0.12504,-0.0270552,-0.02153002,-0.003835359,-0.09987681,-0.2138156,-0.08521848
0.9759951,-0.2927996,0.1269131,-0.01873295,-0.02535806,-0.002150319,-0.07691625,-0.1844985,-0.06137214
0.988381,-0.2919936,0.128111,-0.006268492,-0.02433717,-0.001133312,-0.04720192,-0.128276,-0.05213611
1.005087,-0.2844617,0.1278406,0.01052064,-0.01658923,-0.001577462,-0.02068618,-0.09560778,-0.0484134
1.002353,-0.277507,0.1304393,0.007874035,-0.009417025,0.0008547273,-0.002621812,-0.1301387,-0.03718004
0.9994774,-0.2720608,0.1337573,0.005089141,-0.00375186,0.004013363,-0.01383834,-0.1248264,-0.01360193
1.01992,-0.267467,0.138615,0.02562488,0.001062012,0.008718525,-0.01235343,-0.00983688,0.01693684
1.032007,-0.2591525,0.1382294,0.0378056,0.00959708,0.008186962,-0.02128899,0.1033271,0.03367933
1.018743,-0.234553,0.1300334,0.02463368,0.03441666,-0.0001488943,-0.05608924,0.08718163,0.02660578
1.006153,-0.2031088,0.1296888,0.01213417,0.06607846,-0.0006275698,-0.08477004,0.04794693,0.01502331
1.007427,-0.1892238,0.1366252,0.01349531,0.08017575,0.00618052,-0.1606885,0.08682269,0.01505631
1.005338,-0.2020682,0.1431231,0.01148896,0.06753454,0.01255547,-0.2477093,0.08710879,0.02784606
0.9958172,-0.228044,0.1407476,0.002045848,0.04174943,0.01006202,-0.2692516,0.07621949,0.0595225
0.9885743,-0.2680295,0.1247633,-0.005124217,0.001939955,-0.006035761,-0.2574478,0.1071431,0.08620296
0.9820619,-0.3143215,0.1105199,-0.01156858,-0.04419122,-0.02038826,-0.2165426,0.09970348,0.08395236
0.9879485,-0.3204345,0.1040058,-0.005618044,-0.05015698,-0.02700636,-0.143598,0.1300728,0.07735504
1.01833,-0.3088772,0.1032505,0.02482293,-0.03846353,-0.02785955,-0.07834881,0.2298582,0.07388296
1.054801,-0.3165136,0.1016505,0.0613502,-0.04597189,-0.02955012,-0.01943874,0.3319865,0.06423851
1.056481,-0.3167255,0.09989335,0.06307868,-0.04606164,-0.03138936,0.03118337,0.4023079,0.05378229
1.000469,-0.3162153,0.1126575,0.007107482,-0.04543249,-0.01869767,0.0322829,0.3775596,0.0406333
0.93951,-0.3114216,0.1291516,-0.05382035,-0.04052106,-0.002265794,0.03072954,0.3105096,0.01228815
0.9294568,-0.2878517,0.1436132,-0.06385052,-0.01683265,0.01214381,0.06218291,0.2181746,-0.03497817
0.9434221,-0.2643626,0.1528206,-0.04986717,0.006776668,0.02130863,0.05208803,0.09189964,-0.06233293
0.9541122,-0.245294,0.1482306,-0.03916079,0.025967,0.01668417,0.02779672,0.02293476,-0.0583815
0.9786568,-0.244535,0.156044,-0.0145994,0.0268482,0.02446972,0.01784596,-0.02437731,-0.06253837
1.000983,-0.2557573,0.1707997,0.007745425,0.01574696,0.03920268,-0.00926451,-0.04895926,-0.06525728
0.985784,-0.2617281,0.1670083,-0.007433173,0.009894673,0.03539165,0.003336035,-0.06030472,-0.0548616
0.9730288,-0.274053,0.1595267,-0.02016587,-0.002314866,0.02789163,0.0162061,-0.1476255,-0.03681724
0.9885649,-0.2791745,0.1518938,-0.004604943,-0.007324527,0.02023998,-0.01993869,-0.1854755,-0.001045062
1.000274,-0.2775134,0.1404001,0.007132005,-0.005554934,0.008725947,-0.05541758,-0.1151747,0.01947899
1.018246,-0.2836562,0.1277973,0.02513264,-0.01159249,-0.003899352,-0.09831656,-0.06554214,0.0115446
1.024045,-0.2830148,0.1198894,0.03096296,-0.01084846,-0.01183174,-0.1126384,-0.06482755,-0.0171307
1.004972,-0.2801907,0.1288516,0.01192049,-0.007924118,-0.002895648,-0.1004552,-0.07034298,-0.07830356
1.000267,-0.2817066,0.1361663,0.007244455,-0.009341581,0.004391907,-0.1136684,-0.09300213,-0.1163116
0.9934182,-0.2753554,0.132679,0.0004232516,-0.0028936,0.0008765644,-0.10723,-0.1462862,-0.1092868
0.9909654,-0.2678921,0.1325875,-0.002004215,0.004664878,0.0007561082,-0.1013851,-0.1398621,-0.09643182
1.002493,-0.2702477,0.1247831,0.00954651,0.00240289,-0.007077864,-0.1200048,-0.0672172,-0.06403941
0.9958281,-0.277508,0.1168967,0.002903051,-0.004765576,-0.01499426,-0.1282165,-0.02805837,-0.02701057
0.9895523,-0.2832338,0.1275807,-0.003353702,-0.01040163,-0.004340093,-0.1382648,-0.02469092,-0.005260382
0.9868299,-0.2875285,0.1391243,-0.006059216,-0.01460808,0.007174293,-0.1390593,-0.03557732,0.00539899
0.9872592,-0.2964748,0.1404612,-0.005614845,-0.02346723,0.008482695,-0.1267644,-0.02961243,-0.01075117
0.9968661,-0.3043224,0.1408145,0.004005711,-0.03122802,0.008807897,-0.09900958,-0.02042276,-0.01924243
0.9880369,-0.296972,0.1423916,-0.004811263,-0.02378983,0.01035676,-0.04346305,-0.03538243,-0.008341386
0.982384,-0.2883832,0.1411088,-0.01045309,-0.01511149,0.009045261,-0.01045919,-0.03039117,0.002093897
0.9886177,-0.2892419,0.1363674,-0.004209068,-0.01587809,0.004274438,-0.01812166,-0.03815045,0.02955601
0.9851006,-0.2845099,0.1265169,-0.007716232,-0.0110511,-0.005606535,-0.03817028,-0.04890821,0.05329064
0.9869243,-0.2818453,0.116938,-0.005882717,-0.008288345,-0.0152165,-0.0595836,-0.03166725,0.05808341
0.9916525,-0.289604,0.1195743,-0.001144387,-0.01594574,-0.01261154,-0.07070673,-0.02520672,0.05518574
0.995236,-0.2987482,0.119974,0.002449468,-0.02498525,-0.0122425,-0.06892543,-0.007506267,0.0360202
0.9965609,-0.3112031,0.1112067,0.003785098,-0.03733142,-0.02103907,-0.06428217,-0.008587951,0.01075542
0.9879973,-0.3182411,0.113443,-0.004767717,-0.04425585,-0.01882987,-0.05156672,-0.02795771,-0.001354592
0.9835424,-0.3137438,0.1191287,-0.009211693,-0.03963861,-0.01316814,-0.01917593,-0.01496584,0.006247913
0.9843879,-0.308985,0.1172575,-0.00835474,-0.0347523,-0.01505965,0.00726087,0.002900233,0.01741219
0.9848624,-0.3042821,0.1181111,-0.007868054,-0.02991326,-0.01422208,0.01732881,0.0247746,0.01979731
0.9841684,-0.2991741,0.1204769,-0.008548792,-0.02465983,-0.01186759,0.03178272,0.01312381,0.01755493
0.9830066,-0.2945316,0.1209884,-0.009695835,-0.01986243,-0.0113622,0.03711707,-0.02479175,0.001252493
0.9874514,-0.2903515,0.1210891,-0.005234575,-0.01551764,-0.01126232,0.03516988,-0.02875779,-0.01374565
0.9911097,-0.292068,0.119313,-0.001557857,-0.01706002,-0.01303366,0.04041899,-0.04159438,-0.01581239
0.9941799,-0.2951825,0.1146431,0.001532655,-0.01999127,-0.01769295,0.04334214,-0.0451146,-0.02257196
0.9986753,-0.2958738,0.1093298,0.0060501,-0.02049041,-0.02298943,0.03968386,-0.03136239,-0.0280545
0.9977532,-0.2950306,0.1101711,0.005151351,-0.01944613,-0.02212464,0.02024263,-0.03945439,-0.02368689
0.9970637,-0.2882545,0.1128862,0.004486111,-0.01246049,-0.01937879,-0.01061931,-0.0187417,-0.01348323
1.001077,-0.2823917,0.1112482,0.008523899,-0.006379832,-0.02097829,-0.03140381,0.008851032,-0.008376729
1.003439,-0.2845976,0.1122571,0.01091123,-0.008360491,-0.01992276,-0.03693521,-0.001476275,-0.01100795
0.9969175,-0.2876226,0.1122584,0.004414031,-0.01115328,-0.0198664,-0.04095552,-0.02303666,-0.01189012
0.9838146,-0.2902647,0.1080507,-0.008665146,-0.0135571,-0.02401023,-0.05059316,-0.0495549,-0.01365121
0.9767182,-0.2954213,0.1087756,-0.01573859,-0.01846963,-0.02321243,-0.05669034,-0.06530343,-0.0103545
0.9851485,-0.2998033,0.1154156,-0.00728552,-0.02260208,-0.01649016,-0.06136767,-0.07218472,-0.005237174
1.001269,-0.3043716,0.1306998,0.008858323,-0.02691537,-0.001114415,-0.06192631,-0.06812245,-0.00813098
1.004375,-0.3084929,0.1428269,0.01198721,-0.03077605,0.0111132,-0.05805074,-0.04611639,-0.01380278
0.9894859,-0.3107124,0.1307847,-0.002879161,-0.03272887,-0.0008206457,-0.05640733,-0.04905685,-0.03485789
0.9715664,-0.3192543,0.1202046,-0.02077624,-0.04099765,-0.01128546,-0.04510707,-0.05958871,-0.06409056
0.9671729,-0.3247013,0.1333126,-0.02514726,-0.04616434,0.001943954,-0.03355688,-0.06499331,-0.07431615
0.9688054,-0.3127353,0.1434588,-0.0234912,-0.03391,0.0122172,-0.03310338,-0.09526394,-0.07949618
0.9647923,-0.2974604,0.1428204,-0.02747865,-0.0183381,0.0117103,-0.03763663,-0.1066401,-0.09177101
0.9747422,-0.2862851,0.1416281,-0.01749975,-0.006857352,0.01065282,-0.05200349,-0.09714546,-0.09202412
0.9973937,-0.2815335,0.1311756,0.005184552,-0.001792567,0.0003372417,-0.07982176,-0.08334467,-0.0893437
1.011738,-0.285436,0.1178006,0.01956541,-0.005375082,-0.01289941,-0.1251285,-0.009172282,-0.09928846
1.013292,-0.27993,0.1162328,0.02115893,0.0004562245,-0.01432765,-0.1695562,0.07345603,-0.1072012
0.9987262,-0.2638091,0.118853,0.006634562,0.01690673,-0.01156648,-0.2069714,0.07114467,-0.1090584
0.9902338,-0.3182553,0.0832133,0.03286696,0.1161242,0.04611638,0.06267963,0.09927947,-0.1781662
0.989443,-0.3175684,0.08336445,0.03110114,0.1140599,0.0453968,0.05833437,0.1018806,-0.1776427
0.9868278,-0.3174656,0.0871996,0.02751542,0.1113611,0.04831922,0.05428601,0.08962729,-0.1693872
0.9837928,-0.3204981,0.08615958,0.02351521,0.1054822,0.04632763,0.05750816,0.07947577,-0.1670363
0.9850998,-0.3220188,0.08868524,0.02386332,0.1010757,0.04786588,0.06040478,0.07731154,-0.1709653
0.9866211,-0.3239637,0.08843434,0.02443276,0.09621122,0.04659458,0.04956855,0.07439006,-0.1680224
0.9821685,-0.3236169,0.08631545,0.01903642,0.09360982,0.0434251,0.0416785,0.07341282,-0.1721393
0.979779,-0.3214536,0.09129246,0.015712,0.0928016,0.04732402,0.03782923,0.07680978,-0.169835
0.9845491,-0.3263117,0.09211793,0.01955723,0.08495371,0.04704652,0.03618505,0.07798566,-0.1658548
0.9884372,-0.3290881,0.08921643,0.02253104,0.07917412,0.04301959,0.03850289,0.08307101,-0.1716698
0.9878981,-0.3264958,0.08783635,0.0210892,0.0787549,0.04049402,0.03842372,0.09535991,-0.1725225
0.9868439,-0.3260118,0.086278,0.01914419,0.0762237,0.03777256,0.04129451,0.107653,-0.1714247
0.9875961,-0.3261743,0.08591533,0.01901811,0.07304681,0.03623159,0.04527622,0.1077034,-0.1699325
0.9868109,-0.3257726,0.08240969,0.01736757,0.07043944,0.03153491,0.04954755,0.0981557,-0.1697453
0.9853906,-0.3245484,0.08070942,0.01509551,0.06866388,0.02863328,0.05098077,0.09588431,-0.1715656
0.9865692,-0.3242662,0.08401754,0.01543625,0.0659596,0.03073218,0.04652257,0.09619154,-0.1679939
0.9870821,-0.3228401,0.0879452,0.0151259,0.0644163,0.03344506,0.04632053,0.09390619,-0.166583
0.9873432,-0.3195596,0.09306533,0.01457858,0.06474793,0.03734692,0.04385225,0.09292335,-0.168758
0.9869873,-0.3210428,0.09079714,0.01342954,0.06033968,0.03385878,0.04007432,0.0860768,-0.1685932
0.9854305,-0.323372,0.08580501,0.01109521,0.05511239,0.02764669,0.04115509,0.07536518,-0.1650954
0.9869004,-0.3237159,0.08835905,0.01180361,0.05190021,0.0289825,0.038373,0.07096735,-0.1613759
0.9905103,-0.3249259,0.08660761,0.01466827,0.04785486,0.02601628,0.03395437,0.07525131,-0.1664889
0.9950909,-0.3249886,0.08065933,0.01852001,0.0449923,0.01885838,0.02870589,0.08328494,-0.1751825
0.9971206,-0.3259376,0.07869186,0.01983724,0.04128186,0.01568824,0.02475732,0.08958907,-0.1791758
0.9938433,-0.3295645,0.07914289,0.01586368,0.03493432,0.01494539,0.02704687,0.09150925,-0.1829476
0.9908451,-0.3323669,0.08293006,0.01218533,0.02945467,0.01754928,0.03469259,0.08727845,-0.1845508
0.9881652,-0.3285955,0.0849599,0.008841245,0.0305947,0.01840806,0.04742472,0.08399658,-0.1781639
0.9865647,-0.3214753,0.08452483,0.006592614,0.03513157,0.01681558,0.05865404,0.08240009,-0.169722
0.9888273,-0.321076,0.08815411,0.008223423,0.03299766,0.01930233,0.07008633,0.07889351,-0.1667163
0.9884953,-0.3207827,0.09122271,0.007276167,0.03080943,0.0212444,0.07965904,0.07459402,-0.1608889
0.9838562,-0.3149576,0.09294771,0.002038249,0.03420592,0.02185976,0.07974659,0.06227692,-0.1485811
0.9798863,-0.3108255,0.09522496,-0.002513521,0.03596342,0.02304493,0.07953492,0.05395028,-0.1365961
0.9809515,-0.3092413,0.09328757,-0.002013153,0.03522793,0.02003364,0.07668199,0.05855772,-0.1233767
0.9876831,-0.311178,0.08994426,0.004171165,0.03102707,0.01563513,0.06895578,0.06300917,-0.1160685
0.9927121,-0.3139956,0.08683523,0.008670474,0.0260011,0.01149021,0.06376844,0.07146932,-0.1162045
0.994168,-0.3134504,0.08191208,0.009614235,0.02439446,0.005551252,0.05313022,0.08305819,-0.1146709
0.9960937,-0.3157278,0.07838512,0.01104503,0.02002205,0.001029435,0.03734858,0.09522857,-0.1179888
0.9962034,-0.3194779,0.07698457,0.01067657,0.01423441,-0.001344008,0.02130895,0.1036488,-0.121564
0.9917518,-0.3219103,0.07677409,0.005763086,0.009822351,-0.00250436,0.01215164,0.09627509,-0.1229762
0.983465,-0.3272364,0.07652721,-0.002969468,0.002575086,-0.003677079,0.02420333,0.09395137,-0.1300311
0.9772251,-0.3320172,0.07635523,-0.009639029,-0.00406754,-0.004749914,0.03916724,0.09718741,-0.1342228
0.980814,-0.3335675,0.07839848,-0.00646357,-0.007419681,-0.003581673,0.0470151,0.08444141,-0.1391888
0.9860717,-0.3319855,0.08013983,-0.001602682,-0.007578649,-0.002688763,0.06854599,0.06513759,-0.1433783
0.9829944,-0.3277122,0.08109677,-0.005060103,-0.004984831,-0.002553143,0.09203591,0.04683956,-0.1416365
0.983217,-0.3250264,0.0833864,-0.005200765,-0.003916449,-0.001057301,0.1010411,0.04246478,-0.1456561
0.9877868,-0.3218424,0.08481175,-0.0009775218,-0.002287615,-0.0003979331,0.1045011,0.05008564,-0.1434699
0.9874079,-0.3175566,0.0847178,-0.001686393,0.0005049366,-0.001229937,0.1055811,0.05571201,-0.1376919
0.9892156,-0.3145406,0.08509824,-0.0001921863,0.0020895,-0.001559577,0.1037917,0.0683126,-0.1425408
0.9898214,-0.3111203,0.08653444,0.0001162485,0.004139378,-0.0008055153,0.09970374,0.0669195,-0.1419075
0.9879885,-0.3111195,0.08887113,-0.001998154,0.002830005,0.0008768694,0.08970513,0.0563408,-0.1392364
0.9916418,-0.3093519,0.09205999,0.001388995,0.003346754,0.003439017,0.07538899,0.06358915,-0.139505
0.9932541,-0.3039126,0.09448748,0.002750201,0.007593389,0.005266979,0.06783463,0.05911946,-0.1373236
0.9936876,-0.3087421,0.09348621,0.002947298,0.001628151,0.003692839,0.05981526,0.05321717,-0.1387946
0.9943005,-0.3138199,0.0918674,0.003337636,-0.004529486,0.001527256,0.04235578,0.06518019,-0.1379805
0.9922624,-0.3103584,0.09243199,0.001090539,-0.002093102,0.001570605,0.03555717,0.07248006,-0.1362123
0.9926305,-0.311618,0.09081359,0.001262592,-0.004324138,-0.0005439966,0.0367378,0.07909744,-0.13333
0.9903025,-0.3132082,0.08887907,-0.001249035,-0.006833117,-0.002950154,0.03015474,0.07802559,-0.1231266
0.9858829,-0.3102206,0.08909973,-0.005840117,-0.004712677,-0.003176986,0.02569727,0.07284287,-0.1172903
0.9854212,-0.3090123,0.08626441,-0.006461472,-0.004320975,-0.006436003,0.02662573,0.07248557,-0.1165725
0.9852204,-0.3091487,0.08325721,-0.006810162,-0.005224627,-0.009843423,0.02974596,0.05846339,-0.1115861
0.983564,-0.3099261,0.08182328,-0.008602848,-0.006721234,-0.01165427,0.032757,0.04935854,-0.09969892
0.9816181,-0.3105191,0.08076154,-0.0106734,-0.007986502,-0.01306977,0.03464183,0.04978071,-0.09015893
0.9809794,-0.3097918,0.08186272,-0.01142528,-0.007885713,-0.01229927,0.03707992,0.04494468,-0.09055965
0.9813041,-0.309842,0.08032098,-0.01120207,-0.008517924,-0.01414872,0.04087257,0.04469008,-0.09113172
0.985418,-0.3127522,0.07990437,-0.00717813,-0.01196689,-0.01485022,0.04717554,0.04057369,-0.09407678
0.9928884,-0.315788,0.08251461,0.0002137247,-0.01549917,-0.01250218,0.04547172,0.03531995,-0.1007323
0.9944095,-0.3158922,0.08071743,0.001667257,-0.01605872,-0.0145391,0.04149837,0.04087298,-0.1058967
0.9925945,-0.3167737,0.07750499,-0.0002048778,-0.01735537,-0.01796906,0.04635617,0.04593327,-0.1140058
0.9940661,-0.318711,0.07508346,0.001219255,-0.01966849,-0.02058607,0.04956801,0.04484489,-0.1154129
0.9958959,-0.317927,0.07921271,0.003010749,-0.01922182,-0.01663037,0.05780218,0.04288063,-0.1107822
0.9953316,-0.3147526,0.0863744,0.002416669,-0.0163472,-0.00962052,0.06445252,0.04277097,-0.1168296
0.9921254,-0.309388,0.08234129,-0.0008115079,-0.01124592,-0.01378418,0.05377359,0.03926776,-0.1277089
0.9899406,-0.3043255,0.08006443,-0.003011003,-0.006411373,-0.01617086,0.04577422,0.03999626,-0.1313757
0.9934408,-0.3047909,0.08345146,0.0004813836,-0.007070861,-0.01287336,0.04324695,0.05861839,-0.1284161
0.9971703,-0.3065128,0.08177444,0.004209522,-0.008954642,-0.01462012,0.03039585,0.08047317,-0.1259354
0.9930632,-0.3043308,0.08414278,0.0001068684,-0.006903666,-0.01230226,0.0123751,0.08370949,-0.1278262
0.9888857,-0.3045268,0.08952394,-0.00406078,-0.007201328,-0.006952923,0.005996348,0.07741415,-0.1272464
0.9906094,-0.3063812,0.09058823,-0.002322193,-0.009129605,-0.005902576,0.01224205,0.08005466,-0.1222485
0.9903633,-0.3043903,0.08813282,-0.002548749,-0.007185992,-0.008354915,0.013163,0.07823878,-0.1183222
0.988924,-0.3009987,0.08275025,-0.003963873,-0.003816777,-0.01371825,0.0122054,0.06705634,-0.1142946
0.9890084,-0.2978497,0.08089439,-0.003851126,-0.0006665328,-0.01553935,0.01760181,0.05631722,-0.1081763
0.9885831,-0.3001287,0.0812933,-0.004243875,-0.002922238,-0.01509068,0.0228546,0.04040911,-0.1012083
0.9889124,-0.3058719,0.07758613,-0.003878229,-0.008621769,-0.0187335,0.02647907,0.03456132,-0.0966356
0.9880426,-0.3068491,0.07520397,-0.004707873,-0.009536097,-0.02103707,0.0256111,0.03901219,-0.09247693
0.987163,-0.3097215,0.08239869,-0.005543766,-0.01232751,-0.01374981,0.03084444,0.03421634,-0.08139778
0.9892846,-0.314126,0.09111922,-0.003375004,-0.01663393,-0.004923233,0.04516405,0.02785901,-0.07031906
0.9927584,-0.3127583,0.08794084,0.0001492309,-0.01515184,-0.007982787,0.05033562,0.02231897,-0.06792194
0.9955595,-0.3102476,0.08385618,0.00300373,-0.01251117,-0.01193667,0.04808137,0.02281031,-0.06784835
0.9942123,-0.3058069,0.0820701,0.001712414,-0.007925661,-0.01358075,0.04442818,0.02996372,-0.06604507
0.99078,-0.2996504,0.07460423,-0.001661723,-0.001610541,-0.02089392,0.03883375,0.03397119,-0.0686113
0.9890866,-0.3019704,0.07828906,-0.003295238,-0.003759246,-0.01704602,0.03224045,0.04279394,-0.07403001
0.9882916,-0.3068345,0.08588483,-0.004028683,-0.008440483,-0.009277149,0.02839356,0.04776208,-0.07277519
0.9888862,-0.3044172,0.08069462,-0.00337093,-0.00582994,-0.01428467,0.0305032,0.04240707,-0.06877484
0.988289,-0.3049002,0.08134157,-0.003903641,-0.006110148,-0.01344601,0.02989074,0.03540977,-0.06591846
0.9865959,-0.307413,0.08510427,-0.005530814,-0.008411638,-0.009483073,0.03364862,0.02544557,-0.06186164
0.9868017,-0.3062154,0.08125979,-0.005257782,-0.006994911,-0.01311936,0.0424305,0.0225285,-0.05758702
0.9865667,-0.3088714,0.07756892,-0.005424316,-0.009424793,-0.01659459,0.04258033,0.02487672,-0.05037459
0.9885382,-0.3081395,0.07393773,-0.003382974,-0.008460449,-0.02000306,0.04513805,0.02148947,-0.04353011
0.9924607,-0.3045538,0.07749718,0.0006105043,-0.004636718,-0.01621403,0.05079912,0.01973061,-0.04138462
0.9916877,-0.3075823,0.08434233,-9.051361e-05,-0.007422255,-0.009132696,0.05521593,0.01661757,-0.04199159
0.9892837,-0.3100121,0.08305732,-0.00242173,-0.009604786,-0.01017537,0.06084602,0.01196818,-0.03965003
0.9890497,-0.3125128,0.08145053,-0.002582406,-0.01185462,-0.01153423,0.05960925,0.01277263,-0.03250127
0.9914992,-0.3135544,0.07754564,-5.916723e-05,-0.01264204,-0.0151861,0.05792378,0.01143594,-0.02956042
0.9978338,-0.3114701,0.07333671,0.006349441,-0.01030056,-0.01913728,0.05854573,0.01073669,-0.02853787
1.001291,-0.3129635,0.0770069,0.009880602,-0.01153412,-0.0152048,0.05731129,0.01664735,-0.02832969
0.9973588,-0.3121254,0.07895114,0.006021404,-0.01043391,-0.01299397,0.05944076,0.02648052,-0.03318419
0.9949201,-0.3087366,0.07704432,0.003654573,-0.006781122,-0.01463015,0.05857744,0.04262242,-0.04062024
0.9996451,-0.3052671,0.07581137,0.008449847,-0.003046022,-0.01558872,0.04577733,0.05635532,-0.05299742
1.001503,-0.3018997,0.07469563,0.01037615,0.0005878763,-0.01642659,0.02758018,0.05817456,-0.05918859
0.9923847,-0.3039791,0.07475644,0.001323293,-0.001224794,-0.01608461,0.01972935,0.05369418,-0.05851909
0.9822963,-0.3059065,0.07630969,-0.008702118,-0.002885881,-0.01424709,0.02093436,0.04475758,-0.06302137
0.9831119,-0.3064429,0.08091814,-0.007826075,-0.003157043,-0.009351502,0.02063347,0.03146525,-0.06104374
0.9908058,-0.3088267,0.08744539,-7.394436e-05,-0.005277249,-0.002534678,0.02460078,0.02169199,-0.05584885
0.9947558,-0.310184,0.08914083,0.00393221,-0.006372751,-0.0005478682,0.03001802,0.01912825,-0.05739732
0.992938,-0.3103953,0.08637808,0.002168438,-0.00632461,-0.00301824,0.03188339,0.01900007,-0.05527588
0.9902814,-0.3051265,0.08590473,-0.0004362827,-0.0007988097,-0.003198976,0.03450766,0.02033377,-0.04623049
0.9891949,-0.2987283,0.08394679,-0.001473141,0.005853566,-0.004864715,0.03362573,0.02099673,-0.03588156
0.9886424,-0.3003418,0.08026296,-0.001978158,0.004490743,-0.00825732,0.03117062,0.02020075,-0.03248088
0.9887217,-0.3021707,0.08214204,-0.001853451,0.002908413,-0.006088387,0.02516404,0.02523119,-0.0329054
0.9892088,-0.3017249,0.0823105,-0.001322899,0.003596176,-0.005631798,0.01254291,0.03072383,-0.0258781
0.9887229,-0.3047921,0.07911598,-0.001767186,0.0007657678,-0.008540248,0.0088778,0.02900968,-0.016776
0.9887929,-0.3076738,0.07754088,-0.001657252,-0.00188474,-0.009831577,0.01394654,0.02306144,-0.01295945
0.9896907,-0.3095658,0.07364786,-0.0007212714,-0.003551296,-0.01344328,0.01536197,0.01873291,-0.01356337
0.9916644,-0.3115446,0.07117237,0.00128919,-0.005310312,-0.01563988,0.01469477,0.02248646,-0.02000055
0.995775,-0.3110967,0.07326338,0.00543485,-0.004648564,-0.01327228,0.01456553,0.02684762,-0.02786182
0.9964173,-0.3117136,0.07807595,0.006110451,-0.005057143,-0.008185309,0.01478572,0.02558066,-0.02599702
0.993429,-0.3122785,0.08320426,0.003153581,-0.005419452,-0.002784855,0.01638009,0.02451833,-0.02214413
0.9926323,-0.3104825,0.08335082,0.002386098,-0.003426207,-0.002368672,0.01886673,0.02403492,-0.02946516
0.993197,-0.3110687,0.08130299,0.002977886,-0.003820666,-0.004149779,0.01824606,0.0247805,-0.03473117
0.9944753,-0.3107502,0.07941402,0.004280884,-0.003315769,-0.005775247,0.01640087,0.02823318,-0.03473342
0.9964763,-0.3071709,0.07791927,0.006304306,0.0004446997,-0.007009977,0.01826299,0.03126923,-0.04089614
0.9968322,-0.3047064,0.08276296,0.00668004,0.003085001,-0.001909908,0.02046962,0.03224275,-0.04431067
0.9929743,-0.3046835,0.08852818,0.002839292,0.003278245,0.004107803,0.0209507,0.03200529,-0.04032503
0.988637,-0.3045592,0.0863203,-0.001483735,0.003567118,0.002148097,0.01691432,0.03105311,-0.0357841
0.9908847,-0.3021269,0.08475251,0.0007756106,0.00615796,0.0008236849,0.01034508,0.03104289,-0.0332629
0.992177,-0.3031339,0.08698129,0.002077093,0.005303409,0.003290619,0.01328138,0.03058149,-0.03121261
0.9864884,-0.3045695,0.08362014,-0.003604792,0.004013848,0.0001620372,0.02219461,0.02421541,-0.02701953
0.9841512,-0.299108,0.07677294,-0.005937464,0.009614594,-0.006458444,0.02632736,0.013665,-0.02263959
0.9891734,-0.2960741,0.0729541,-0.0009125894,0.01278097,-0.01005644,0.02604976,0.006189521,-0.01460274
0.9933878,-0.2991893,0.07727109,0.003302885,0.009790842,-0.005524306,0.02470392,0.006836632,-0.00557975
0.991035,-0.3024563,0.08500881,0.0009496874,0.006641306,0.002423001,0.02611654,0.008103623,-0.003416287
0.988994,-0.3047335,0.08132369,-0.001093234,0.004473641,-0.001058118,0.02842216,0.003751411,-0.0005603417
0.9919181,-0.3076108,0.07495386,0.001827622,0.001698077,-0.007229636,0.02779394,0.002556123,0.003624184
0.9921065,-0.3095763,0.07518678,0.002011438,-0.0001734945,-0.006804027,0.02106443,0.004274503,0.003789731
0.9912761,-0.3078984,0.07550421,0.001175211,0.001590796,-0.006299329,0.01207762,0.01102142,0.004192178
0.9932006,-0.3079424,0.07794037,0.003092686,0.001626025,-0.00368113,0.01545471,0.01943719,0.004647954
0.9941746,-0.3096027,0.07821132,0.004058246,3.788959e-05,-0.003233226,0.01944578,0.01915559,0.0007917619
0.9956709,-0.3104231,0.07607118,0.005544868,-0.0007169612,-0.005201399,0.01089063,0.02697724,-0.003193759
0.9959016,-0.3135037,0.07694464,0.005764472,-0.003738544,-0.004160855,0.005852853,0.03540192,-0.00148492
0.9937208,-0.3130403,0.07691179,0.0035709,-0.003222041,-0.004031384,0.004100943,0.03149563,0.001062448
0.9927058,-0.311073,0.07951966,0.002541506,-0.001207158,-0.001265841,0.002549507,0.03609352,0.002979518
0.9922336,-0.3112816,0.08521644,0.002053255,-0.001373425,0.004583949,0.001764017,0.03897207,0.004474008
0.9903877,-0.3081545,0.08938974,0.0001897321,0.001791227,0.008905437,-0.005935827,0.03262697,0.002463267
0.986225,-0.3076744,0.08851444,-0.003992232,0.002304331,0.008173132,-0.01054688,0.02795556,0.002550306
0.9853273,-0.3107669,0.08465702,-0.004910355,-0.0007596751,0.004453118,-0.009942461,0.02155444,0.003651252
0.9887086,-0.3131666,0.08662478,-0.001550363,-0.003134984,0.006552374,-0.006888704,0.02558667,0.004177963
0.9888975,-0.3162637,0.0865268,-0.001383412,-0.006211625,0.006579739,0.001157115,0.0311848,0.008073609
0.9870337,-0.314357,0.08309563,-0.003269589,-0.004287905,0.003267572,0.00316814,0.01794571,0.0116347
0.9857774,-0.3098752,0.08109123,-0.004548452,0.0002078491,0.001375725,0.0006694923,0.008773628,0.01648148
0.9866242,-0.3094729,0.0758722,-0.003724169,0.0006215526,-0.003737151,-0.004769119,0.01601945,0.02144069
0.9886165,-0.3101313,0.07906549,-0.001754069,-2.804522e-05,-0.0004439147,-0.01247713,0.02013261,0.02099477
0.9881099,-0.3126645,0.08957062,-0.002282273,-0.00255483,0.01015515,-0.01371917,0.01654991,0.01847293
0.9888864,-0.3159477,0.09549845,-0.001526874,-0.005833809,0.0161708,-0.01611585,0.01584937,0.01789557
0.9896671,-0.3164456,0.09528826,-0.0007664579,-0.006329113,0.01604193,-0.01302089,0.0160819,0.02102453
0.9893434,-0.3168549,0.08680531,-0.001109633,-0.006737258,0.007633294,-0.004609538,0.01537881,0.02259861
0.9918953,-0.3177193,0.08183201,0.001423649,-0.007601471,0.002727027,-0.00672654,0.02232954,0.01674104
0.9930554,-0.3187194,0.08169012,0.002565929,-0.008601818,0.002644927,-0.007153598,0.02952196,0.007536832
0.9928835,-0.3209026,0.08029359,0.002376878,-0.01078535,0.001301126,-0.008051564,0.02744924,0.004470888
0.9928791,-0.3230119,0.08128466,0.002355978,-0.01289441,0.002338139,-0.011771,0.02442035,0.009186801
0.9893837,-0.3238765,0.08086927,-0.001155429,-0.01375779,0.001962174,-0.008199138,0.02308522,0.01063925
