accx,accy,accz,body_accx,body_accy,body_accz,body_gyrox,body_gyroy,body_gyroz
1.01067,-0.1620609,-0.1433815,0.0004521906,-0.001598043,-0.003795212,-0.008713692,-0.03450632,0.03363525
1.011663,-0.1627761,-0.1465984,0.001393099,-0.002296728,-0.007529979,-0.01267808,-0.03622596,0.02880733
1.010282,-0.1615257,-0.146225,-3.843928e-05,-0.001029516,-0.007656962,-0.01489539,-0.03335282,0.02709402
1.009466,-0.161289,-0.1442152,-0.0009011987,-0.0007755627,-0.006129529,-0.02115364,-0.03097829,0.03029388
1.010161,-0.16371,-0.1467754,-0.0002506938,-0.003179017,-0.009153883,-0.02379271,-0.02894421,0.0292283
1.007389,-0.1662255,-0.1447257,-0.003064846,-0.005676551,-0.007549681,-0.02632584,-0.0265002,0.0246073
1.006073,-0.1644414,-0.1413351,-0.004420016,-0.003873939,-0.004585724,-0.03201045,-0.02808895,0.02329208
1.00668,-0.1634257,-0.1421588,-0.003849967,-0.002838938,-0.005816962,-0.03042545,-0.0350443,0.02449529
1.006237,-0.1659853,-0.1412469,-0.004326665,-0.005378623,-0.005293533,-0.03196392,-0.03764597,0.02686784
1.00906,-0.1673368,-0.1434313,-0.001534323,-0.006709206,-0.007847394,-0.03797445,-0.03508491,0.02803676
1.010606,-0.1666271,-0.1475211,-1.577844e-05,-0.005977645,-0.01228763,-0.03719708,-0.03286165,0.02798713
1.009407,-0.1669395,-0.1497553,-0.001239477,-0.006266844,-0.01485318,-0.03660001,-0.03172362,0.02713947
1.009162,-0.1690293,-0.1504469,-0.00150691,-0.008332063,-0.0158568,-0.03724984,-0.03221776,0.02345551
1.00746,-0.169287,-0.1488846,-0.003228555,-0.008563585,-0.01458693,-0.03581204,-0.03166031,0.02245075
1.006184,-0.1678588,-0.1528735,-0.004521005,-0.007107271,-0.01884862,-0.03667189,-0.03032929,0.02449698
1.006721,-0.1693577,-0.1559808,-0.003997945,-0.008576084,-0.0222087,-0.03834412,-0.02903254,0.0228401
1.005851,-0.1713943,-0.1527468,-0.004878326,-0.01058028,-0.01920732,-0.03891356,-0.02729385,0.02172708
1.005235,-0.1708755,-0.151911,-0.00550323,-0.0100266,-0.01858367,-0.03848232,-0.02542143,0.02040715
1.008594,-0.1725085,-0.1511325,-0.002149242,-0.01162207,-0.01799686,-0.03507543,-0.02026632,0.01668263
1.010897,-0.1746135,-0.1518419,0.0001515215,-0.01368652,-0.01887753,-0.03093304,-0.01554457,0.01826216
1.009005,-0.1724532,-0.1537664,-0.001740861,-0.01148227,-0.0209528,-0.03005176,-0.01649315,0.01889297
1.007815,-0.1689401,-0.1551875,-0.002927656,-0.007921766,-0.0225043,-0.03044341,-0.02023245,0.01408597
1.006479,-0.1661861,-0.1603913,-0.004257925,-0.005116601,-0.02781803,-0.02967562,-0.02509355,0.01287852
1.005768,-0.1685152,-0.1593959,-0.004960707,-0.007390987,-0.02691206,-0.02989386,-0.02958288,0.01650147
1.007148,-0.173215,-0.1533888,-0.00357061,-0.01203241,-0.02097384,-0.02941359,-0.0258846,0.02039506
1.008559,-0.1724051,-0.1536601,-0.002145869,-0.01116053,-0.02129341,-0.02842518,-0.01603448,0.01898871
1.010544,-0.172163,-0.1541137,-0.0001455377,-0.01085263,-0.02177495,-0.0316164,-0.01461217,0.01720128
1.009916,-0.169511,-0.1513071,-0.0007552028,-0.008130983,-0.01897634,-0.03544822,-0.01763838,0.01955815
1.009019,-0.1624994,-0.1500723,-0.001632146,-0.001045937,-0.01772987,-0.03873304,-0.01712772,0.01714323
1.010332,-0.1638799,-0.1541646,-0.0002972046,-0.002349217,-0.02179129,-0.04323581,-0.01696046,0.01361942
1.009511,-0.1659461,-0.1589681,-0.001094982,-0.004335,-0.02654529,-0.04633349,-0.01370835,0.0130297
1.00883,-0.1652593,-0.1571017,-0.001749806,-0.00356472,-0.02461087,-0.04973059,-0.008262135,0.01208705
1.006528,-0.1708149,-0.155828,-0.004025299,-0.009034066,-0.02325098,-0.05165841,-0.005294885,0.0127005
1.002895,-0.1731858,-0.1578192,-0.007629093,-0.01131599,-0.02513805,-0.05036585,-0.009581674,0.01031205
1.004823,-0.1721055,-0.1562354,-0.005671074,-0.01014403,-0.02343255,-0.04895783,-0.0167358,0.007701818
1.006677,-0.1703374,-0.1535289,-0.00378463,-0.008281401,-0.02058719,-0.04757989,-0.01231565,0.01012129
1.005083,-0.1646148,-0.1507138,-0.005344922,-0.002461487,-0.01761652,-0.04814261,-0.006617694,0.01306918
1.005046,-0.1662751,-0.1503685,-0.005346173,-0.004021856,-0.0170996,-0.04936468,-0.006179295,0.01538073
1.004161,-0.1704944,-0.1585135,-0.006193934,-0.008138831,-0.02505761,-0.05012915,-0.006099032,0.01243837
1.002473,-0.1698601,-0.1645439,-0.007842988,-0.00739996,-0.03088618,-0.05185037,-0.01013694,0.008659121
1.005302,-0.1731889,-0.159264,-0.004972126,-0.01062199,-0.02538974,-0.05080121,-0.008278102,0.01329063
1.008317,-0.1736128,-0.1548421,-0.001913378,-0.01093698,-0.0207371,-0.04900199,-0.004437729,0.0157904
1.006855,-0.1711676,-0.1592432,-0.003330448,-0.008380503,-0.02489345,-0.04925386,-0.006121354,0.01081747
1.006385,-0.1719408,-0.1625503,-0.003752438,-0.0090402,-0.02794244,-0.04859532,-0.004443286,0.005890641
1.007458,-0.1686158,-0.1622745,-0.002631114,-0.005599431,-0.02739528,-0.04808247,-0.005095989,0.00320908
1.006601,-0.1653936,-0.1643704,-0.003436487,-0.002259311,-0.02920714,-0.04882679,-0.005921322,0.002239959
1.005908,-0.1670686,-0.1628262,-0.004077278,-0.003814434,-0.02736626,-0.04996557,-0.004302247,0.002103048
1.005543,-0.1698559,-0.1577004,-0.004388595,-0.006480355,-0.02193146,-0.05178076,-0.007530301,0.002220689
1.005427,-0.1711464,-0.1567652,-0.004449048,-0.007647958,-0.02067551,-0.05415073,-0.01139547,0.002761312
1.00707,-0.1687228,-0.1589491,-0.002748786,-0.005100115,-0.02252747,-0.05663147,-0.01494368,0.003919035
1.008619,-0.1653388,-0.163312,-0.001141939,-0.001590724,-0.02654775,-0.05915219,-0.01360348,0.004655689
1.008411,-0.1638876,-0.1653711,-0.00129051,-1.320309e-05,-0.028254,-0.06303258,-0.009209067,0.004051919
1.006641,-0.1645521,-0.1650899,-0.002999996,-0.0005507878,-0.02761014,-0.06761654,-0.009761852,0.00438856
1.006616,-0.1644089,-0.1673287,-0.002963138,-0.0002804568,-0.02947658,-0.07050866,-0.007333454,0.004730223
1.009409,-0.1617635,-0.1662945,-0.0001080867,0.002491861,-0.02806072,-0.07309166,-0.005444333,0.003684788
1.009243,-0.1609819,-0.1615553,-0.0002118705,0.003399916,-0.02293085,-0.07209749,-0.005957807,0.002762843
1.0051,-0.1639368,-0.1560138,-0.004291083,0.0005705808,-0.01699,-0.06650779,-0.003188921,0.0006123605
1.002065,-0.1676937,-0.1522366,-0.007263059,-0.003062118,-0.01280544,-0.06523419,-0.003126709,-0.0001613473
1.004766,-0.1690099,-0.154542,-0.004497099,-0.004255694,-0.01469652,-0.06330311,0.0001049602,0.002288209
1.008924,-0.1706366,-0.1567787,-0.0002749184,-0.005761249,-0.01651267,-0.05685049,0.005817242,0.002334154
1.006585,-0.1735026,-0.1596176,-0.002548391,-0.008507601,-0.01892563,-0.05277863,0.005592603,-0.001963894
1.005064,-0.1737678,-0.1652284,-0.004004047,-0.008654559,-0.02410575,-0.04644104,0.007872603,-0.005675027
1.0064,-0.1740191,-0.1649894,-0.002602621,-0.00878874,-0.02343171,-0.03976861,0.01066466,-0.002176493
1.004872,-0.1750667,-0.1644442,-0.004063976,-0.009720187,-0.02244748,-0.03455128,0.009169733,0.002116637
1.005655,-0.1745773,-0.1679294,-0.003215361,-0.009115324,-0.0254899,-0.02540335,0.01073271,-0.002149159
1.006373,-0.1717869,-0.1670806,-0.002430543,-0.006210035,-0.02419489,-0.01857443,0.01322247,-0.006911524
1.006118,-0.1694548,-0.1661175,-0.002618982,-0.003763358,-0.02278226,-0.01663766,0.01219122,-0.009386863
1.006743,-0.1712497,-0.1658707,-0.001927567,-0.005444155,-0.02208297,-0.01663884,0.01070391,-0.01013978
1.003389,-0.1711217,-0.1599074,-0.005214508,-0.005202547,-0.01566452,-0.01760428,0.008298856,-0.004172427
1.003221,-0.1684501,-0.1554503,-0.005314946,-0.002417721,-0.01074997,-0.01984968,0.004211383,-0.0001413595
1.005431,-0.1659916,-0.1528004,-0.003038609,0.000153381,-0.007641277,-0.0200851,0.001662659,-0.002160257
1.003499,-0.1616647,-0.1496301,-0.004903203,0.004592141,-0.004011576,-0.01792832,-0.002270474,-0.001612349
1.004081,-0.1622808,-0.1559347,-0.004254563,0.004086725,-0.009857078,-0.02093141,-0.009106627,0.004203382
1.005769,-0.1664312,-0.1641261,-0.002498648,4.550888e-05,-0.01759055,-0.02168936,-0.01164359,0.008760787
1.008959,-0.1675535,-0.1630915,0.0007584274,-0.0009695163,-0.01609971,-0.018325,-0.007823976,0.003981391
1.01357,-0.1676243,-0.1629553,0.005437568,-0.0009348989,-0.01550923,-0.01708765,-0.002845714,-0.001848809
1.008667,-0.1651725,-0.1638556,0.0006010927,0.001620143,-0.01595753,-0.01413918,-0.002859402,-0.0001140526
1.002722,-0.163443,-0.1598169,-0.005277144,0.003450635,-0.01146927,-0.01303312,-0.005568924,0.0006106386
1.006106,-0.1635832,-0.158867,-0.001826631,0.00340896,-0.0100727,-0.01063303,-0.005645152,-0.0005744909
1.007875,-0.1626973,-0.160028,7.785775e-06,0.004390562,-0.01079042,-0.006401319,-0.006599906,0.001094169
1.007865,-0.1642013,-0.1576209,6.263103e-05,0.002979296,-0.007943731,-0.00531889,-0.00503868,0.001462341
1.010851,-0.1644064,-0.156412,0.003111564,0.002863726,-0.006299482,-0.005083731,0.002782664,-0.001659359
1.009419,-0.1628154,-0.1569232,0.001742304,0.004540904,-0.006380011,-0.0113225,0.007526918,-0.006006926
1.006148,-0.1625476,-0.156902,-0.001467031,0.004891254,-0.005933416,-0.01623992,0.001761352,-0.009225947
1.005695,-0.1608895,-0.1559174,-0.001859598,0.006628101,-0.004529103,-0.01274584,-0.006732301,-0.009471029
1.006038,-0.1624115,-0.1543535,-0.001457378,0.005180764,-0.00255166,-0.008477306,-0.004028849,-0.008916766
1.008502,-0.165221,-0.1550737,0.001064369,0.002441773,-0.002864944,-0.003996922,-5.623255e-05,-0.01043214
1.008892,-0.1639704,-0.1567567,0.00150981,0.003758635,-0.00414819,-0.003712457,-0.002282437,-0.01163063
1.007479,-0.1652795,-0.1567747,0.0001524154,0.002511366,-0.003773947,-0.002802466,-0.0001254125,-0.01154714
1.007905,-0.1673686,-0.1542527,0.0006314485,0.0004797287,-0.0008675752,0.002909108,-0.0001697205,-0.01220319
1.006918,-0.1646115,-0.1524172,-0.0003035984,0.003290048,0.00134411,0.003911814,-0.0002580965,-0.01323994
1.008405,-0.162064,-0.156304,0.001232518,0.005886501,-0.002175229,0.005934882,0.002955714,-0.01436215
1.011053,-0.1623668,-0.1594033,0.003928798,0.00562838,-0.004916118,0.009180017,-0.0008765667,-0.01487796
1.010345,-0.1630592,-0.154076,0.003267311,0.004976266,0.0007605339,0.005621792,-0.00328391,-0.01457249
1.011139,-0.1641861,-0.1445696,0.004106359,0.003885263,0.01060674,0.004546815,-0.004022242,-0.01440438
1.011377,-0.1656333,-0.1394285,0.004385912,0.002469467,0.01607769,0.00851226,-0.007713012,-0.01296683
1.009609,-0.1643149,-0.1420254,0.002658422,0.003814924,0.01379998,0.01016704,-0.007339491,-0.01112572
1.008386,-0.1616913,-0.1466358,0.001472753,0.006461176,0.009497047,0.00970779,-0.006024588,-0.01095928
1.006207,-0.1624974,-0.1485509,-0.0006708481,0.005673442,0.007877302,0.007741574,-0.005813615,-0.009777174
1.005324,-0.1645072,-0.1491009,-0.001521204,0.003677663,0.007610106,0.005443506,-0.007390953,-0.009049081
1.007544,-0.1637979,-0.1496132,0.0007291415,0.004396644,0.007367659,0.004337364,-0.01061562,-0.01302398
1.009979,-0.161686,-0.1536227,0.003192021,0.006514052,0.003615143,0.0047671,-0.008636538,-0.01432989
1.01008,-0.160879,-0.1589772,0.003318266,0.007322242,-0.001495477,0.007017907,0.0006205304,-0.01116474
1.009198,-0.161946,-0.1570897,0.002459907,0.006252099,0.0006230203,0.005929206,0.006254969,-0.01243291
1.008603,-0.1631206,-0.1530162,0.001886064,0.005070117,0.004914978,0.001673809,-0.0014655,-0.01270116
1.006339,-0.1634438,-0.1504819,-0.0003590962,0.004735216,0.0076553,-0.000710135,-0.007189608,-0.009391167
1.004748,-0.1638937,-0.1445593,-0.001933124,0.00426951,0.01377155,-0.003128747,-0.004107094,-0.008926664
1.006228,-0.1632889,-0.1433923,-0.0004383946,0.004854372,0.01511961,-0.005479265,-0.005400245,-0.008323183
1.008657,-0.1592261,-0.1472626,0.002003518,0.008893246,0.01141756,-0.006443768,-0.00621703,-0.008043584
1.011354,-0.1560641,-0.1477867,0.004711024,0.01202732,0.01104861,-0.009538918,-0.004051297,-0.008561182
1.0127,-0.1593032,-0.1488647,0.006066019,0.008756194,0.01011258,-0.01582438,-0.00547859,-0.008908702
1.012302,-0.1627659,-0.149646,0.005675153,0.005257158,0.009460198,-0.01925586,-0.005960311,-0.009234156
1.011707,-0.1613484,-0.1483588,0.005084481,0.006634174,0.01086336,-0.01681961,-0.004955978,-0.006041489
1.008134,-0.1625038,-0.1485913,0.00151336,0.005434142,0.01073386,-0.01509196,-0.004448212,-0.004758148
1.004148,-0.166763,-0.1496414,-0.002472286,0.001126362,0.009773911,-0.0159814,-0.003360117,-0.005674746
1.006104,-0.1663082,-0.1505175,-0.0005185948,0.001528776,0.008975309,-0.01463185,-0.00387629,-0.00545172
1.008206,-0.1643659,-0.1506776,0.001579131,0.003415306,0.008880294,-0.01298716,-0.00513034,-0.00643116
1.006266,-0.164531,-0.150795,-0.0003672028,0.003191252,0.008815775,-0.01582374,-0.008890757,-0.004465084
1.005628,-0.1637401,-0.1512843,-0.001012572,0.003920357,0.008367493,-0.01794434,-0.01796407,-0.004148182
1.004922,-0.1636386,-0.1529749,-0.001727872,0.003957276,0.006706327,-0.01453265,-0.02244652,-0.006782515
1.003382,-0.1641822,-0.1555602,-0.003278698,0.003346488,0.00413937,-0.0116929,-0.01800253,-0.005908157
1.004362,-0.1637399,-0.1559171,-0.002310477,0.0037193,0.003789959,-0.01095746,-0.01257428,-0.006038717
1.004449,-0.1642436,-0.1563909,-0.002235641,0.003143978,0.003313488,-0.009100342,-0.009530412,-0.005768672
1.003736,-0.1657543,-0.1550694,-0.002961941,0.00155951,0.004622816,-0.00864943,-0.01011743,-0.004484624
1.004474,-0.1671294,-0.1525075,-0.002237543,0.0001089682,0.007163276,-0.009534392,-0.01118221,-0.005730842
1.004635,-0.1669312,-0.1588479,-0.002089705,0.0002302648,0.0007929297,-0.009367573,-0.009540958,-0.00589646
1.006705,-0.1662336,-0.1645064,-3.349954e-05,0.0008497108,-0.004903695,-0.01128929,-0.009637737,-0.005523472
1.008853,-0.1665126,-0.1573982,0.002101193,0.0004916507,0.002158982,-0.01386428,-0.01033656,-0.00547437
1.005589,-0.1649691,-0.1503282,-0.001176704,0.001955442,0.009176778,-0.01202216,-0.01147981,-0.005411249
1.001927,-0.1631069,-0.1522562,-0.004851995,0.003737473,0.007190197,-0.0101095,-0.01635285,-0.006015969
1.002524,-0.1642378,-0.1586978,-0.004268234,0.002526041,0.0006840133,-0.009305881,-0.01830285,-0.005771192
1.003475,-0.1656636,-0.165418,-0.00332913,0.001019393,-0.006106442,-0.007537116,-0.01584892,-0.005095837
1.003192,-0.1651528,-0.1661575,-0.003624851,0.001449241,-0.006920957,-0.008470883,-0.0156277,-0.00276472
1.003515,-0.1632604,-0.1606972,-0.003312946,0.003260844,-0.00153988,-0.01028976,-0.01640765,0.0001180319
1.002857,-0.1615696,-0.1585564,-0.003981125,0.004870789,0.0005183486,-0.01112423,-0.01751353,-0.0001433295
1.002552,-0.1610513,-0.1591199,-0.004294806,0.005308544,-0.0001305128,-0.01176233,-0.01962262,0.0008929029
1.005556,-0.1610361,-0.1553642,-0.001298032,0.005243111,0.003537343,-0.01200838,-0.01851755,0.004925562
1.008743,-0.161926,-0.1513224,0.001882191,0.004272797,0.007489247,-0.01410531,-0.0157851,0.006416881
1.010268,-0.1622314,-0.152771,0.003401957,0.003886851,0.005948729,-0.01628469,-0.01555714,0.003858322
1.009141,-0.1615564,-0.156514,0.002271302,0.004481423,0.002111996,-0.01595699,-0.01784139,-0.0002333376
1.007364,-0.1626356,-0.1573083,0.0004907697,0.003321721,0.001222238,-0.01613405,-0.01984226,-0.002190919
1.008657,-0.1631245,-0.1574642,0.001781034,0.002752425,0.0009694402,-0.01926881,-0.01671203,-0.004122077
1.008424,-0.1629281,-0.1597153,0.001546836,0.002868529,-0.00137953,-0.01968706,-0.01191423,-0.007875246
1.006571,-0.1643467,-0.1614851,-0.0003077646,0.001369829,-0.003248049,-0.01578832,-0.01048956,-0.008120026
1.005134,-0.1644519,-0.1607918,-0.001745645,0.001184743,-0.002653726,-0.01668776,-0.009208637,-0.006615119
1.002453,-0.1652308,-0.1589646,-0.004426356,0.0003264509,-0.0009253685,-0.0204173,-0.009071208,-0.004872059
1.002756,-0.1678869,-0.1605961,-0.00412344,-0.002408516,-0.002655215,-0.02094077,-0.01152785,-0.003202957
1.005033,-0.1684293,-0.1620759,-0.001845198,-0.003029071,-0.004232603,-0.02024186,-0.01165025,-0.005555735
1.005247,-0.1687162,-0.1608113,-0.001630321,-0.003392943,-0.003064363,-0.01894866,-0.009929298,-0.005740245
1.003205,-0.1693057,-0.1630733,-0.003669276,-0.004058098,-0.005421078,-0.01994965,-0.01052759,-0.003611906
1.000565,-0.1691169,-0.1646632,-0.006305382,-0.003943308,-0.007103781,-0.0227738,-0.01357014,-0.001971152
1.003086,-0.1696049,-0.1636581,-0.00377945,-0.004503354,-0.006189131,-0.02408617,-0.02098407,0.004102859
1.00702,-0.1683987,-0.1639189,0.0001607543,-0.003366889,-0.006537532,-0.02320483,-0.02864956,0.007445136
1.008051,-0.1665462,-0.1634589,0.001198779,-0.001581768,-0.006162114,-0.01768864,-0.02607835,0.005605065
1.010009,-0.1672101,-0.163109,0.003164981,-0.002310434,-0.005893228,-0.01206803,-0.02120785,0.005862511
1.008202,-0.1692563,-0.165702,0.001367141,-0.004418658,-0.008563435,-0.009343543,-0.02220527,0.006128289
1.003712,-0.1714974,-0.1726757,-0.003112698,-0.006718993,-0.01561027,-0.004858587,-0.0216016,0.004913719
1.003697,-0.170031,-0.1758808,-0.003116709,-0.005308673,-0.01888387,-0.001614792,-0.02129098,0.003378204
1.003577,-0.1665361,-0.172897,-0.003225285,-0.001866585,-0.01596317,-0.001495141,-0.02075113,0.0005349248
1.002281,-0.1665209,-0.1751603,-0.004509291,-0.001900873,-0.01828355,-0.001594896,-0.01758738,-0.002302814
1.003182,-0.166355,-0.1777734,-0.003595325,-0.001780982,-0.02094712,-0.004235345,-0.01745437,-0.002755483
1.005411,-0.1647663,-0.1758441,-0.001352044,-0.0002350493,-0.01906098,-0.007297476,-0.0154039,-0.001629934
1.009557,-0.1635839,-0.1763047,0.002809879,0.0009079961,-0.01955683,-0.008578082,-0.01125207,0.0002786858
1.011395,-0.1637688,-0.1767,0.004663266,0.0006867318,-0.01997893,-0.01310573,-0.00868579,0.002682535
1.005755,-0.1662372,-0.1761143,-0.0009597855,-0.00181497,-0.01941124,-0.01754261,-0.005794387,0.0005137408
1.000517,-0.1670475,-0.1765337,-0.006180475,-0.002655566,-0.01983916,-0.01895858,-0.005886138,-0.00315509
1.002793,-0.1673191,-0.1751133,-0.003887193,-0.002954761,-0.01841766,-0.01990332,-0.005822409,-0.001362571
1.004872,-0.1704777,-0.1700937,-0.001788945,-0.006137925,-0.01338705,-0.01688234,-0.005596807,-0.001296663
1.003553,-0.1740235,-0.164822,-0.003088755,-0.009705383,-0.008094348,-0.01427957,-0.00678479,-0.002906797
1.004534,-0.1739852,-0.1656804,-0.00208838,-0.009685449,-0.008921982,-0.01399008,-0.004123154,0.0005339921
1.005367,-0.1701192,-0.1672726,-0.001234181,-0.005834303,-0.01047391,-0.01157192,-0.002545547,0.002241716
1.005286,-0.1687277,-0.1642648,-0.001294319,-0.004453937,-0.007416727,-0.01252934,-0.002729617,-0.0001623074
1.00574,-0.1699836,-0.164529,-0.000818186,-0.005717261,-0.007622744,-0.01336628,-0.001655359,-0.001548264
1.003443,-0.1711816,-0.1645243,-0.00309218,-0.006918916,-0.007551362,-0.01074883,-0.00193002,-0.001468373
1.002133,-0.172723,-0.1616517,-0.004378674,-0.008460103,-0.004604187,-0.009173517,-0.002193853,-0.002808142
1.003153,-0.1713916,-0.1651883,-0.003334988,-0.007124541,-0.008058677,-0.006122135,-0.003382478,-0.005618836
1.003632,-0.170167,-0.1682559,-0.002831137,-0.005891813,-0.01103696,-0.004028508,-0.003949772,-0.004294354
1.004501,-0.1710956,-0.1663425,-0.001935781,-0.006808218,-0.009027427,-0.004617502,-0.001888902,-0.0007648141
1.004208,-0.1708416,-0.167738,-0.002202003,-0.006537897,-0.0103203,-0.005880018,-0.0007384989,0.0004571705
1.003942,-0.1707607,-0.1704416,-0.002440639,-0.006436657,-0.01291481,-0.006812632,-0.001215524,0.0008260553
1.004401,-0.1710539,-0.1709139,-0.00195427,-0.006705424,-0.01327191,-0.006596693,-0.003941047,-0.0002521898
1.00383,-0.1717085,-0.1691323,-0.002496112,-0.007331625,-0.01136905,-0.00799312,-0.006409221,-0.0006106906
1.003333,-0.1725285,-0.1675384,-0.002963376,-0.008119066,-0.009647905,-0.006532007,-0.002196072,-0.00053023
1.002357,-0.1724395,-0.1698835,-0.003908913,-0.007993624,-0.01186015,-0.003376455,0.003681264,-0.001611034
1.001684,-0.1729937,-0.1722795,-0.004550705,-0.008507169,-0.01411772,-0.003968618,0.001038751,-0.002242066
1.00198,-0.1739189,-0.1726866,-0.004222627,-0.009387716,-0.01438098,-0.0004155508,-0.00397015,-0.006052285
1.00393,-0.1734192,-0.172649,-0.002239105,-0.008839268,-0.01419426,0.003980393,-0.00357128,-0.01020078
1.007497,-0.1715428,-0.1719958,0.001361466,-0.006909871,-0.01338676,0.001730144,-0.0002714489,-0.0103549
1.007192,-0.1704084,-0.1722987,0.00109171,-0.005718419,-0.01353012,-0.0009477411,0.00333913,-0.008606543
1.004266,-0.170182,-0.1714545,-0.001798944,-0.005431034,-0.01252133,-0.003004109,0.0002020957,-0.005940247
1.003061,-0.1679971,-0.1683256,-0.002968176,-0.003181262,-0.009222917,-0.005176631,-0.003680889,-0.007447342
1.00237,-0.164048,-0.1649888,-0.003623576,0.0008362321,-0.005712083,-0.005124608,0.002205327,-0.01195122
1.002793,-0.1639392,-0.1605387,-0.003163561,0.001016638,-0.001083657,-0.004972702,0.005182928,-0.01295224
1.003246,-0.1700061,-0.1641823,-0.002672758,-0.004975964,-0.004545443,-0.00395536,0.002309678,-0.009053858
1.003345,-0.1748056,-0.1761273,-0.002535965,-0.009698595,-0.01630554,-0.0004208629,0.002453501,-0.003535703
1.004601,-0.1737539,-0.1780255,-0.00124128,-0.008567655,-0.01801587,0.001925267,0.004068039,-0.004198516
1.004327,-0.1711151,-0.1749069,-0.001477045,-0.005847121,-0.01470648,0.002574914,0.004587587,-0.005383769
1.003764,-0.170469,-0.1742218,-0.00200073,-0.005116852,-0.0138275,0.003973188,0.0008714393,-0.003784545
1.004306,-0.1709331,-0.1708676,-0.001418882,-0.005494372,-0.0102765,0.005749519,-0.003943406,-0.009199878
1.003182,-0.1708157,-0.1711648,-0.002502198,-0.005288291,-0.01037395,0.006170721,-0.004294132,-0.01386852
1.002396,-0.1715651,-0.1713564,-0.003248273,-0.005946843,-0.01036303,0.006560251,-0.002601322,-0.01141151
1.002871,-0.1744212,-0.1702922,-0.002732385,-0.008710082,-0.009093955,0.01102644,0.0006682069,-0.008607804
1.002808,-0.1770383,-0.1733067,-0.002754293,-0.01123241,-0.01190123,0.01382362,0.004754308,-0.005830229
1.002761,-0.1751666,-0.1739426,-0.002760457,-0.009263896,-0.01232785,0.009803154,0.005204529,-0.005544384
1.003113,-0.1717521,-0.174499,-0.00236695,-0.005750328,-0.01267307,0.006344394,0.003256577,-0.008340098
1.004768,-0.1715327,-0.1781128,-0.0006699042,-0.005429889,-0.01607376,0.005200609,0.003706734,-0.007256922
1.007004,-0.1680661,-0.1807718,0.001608287,-0.0018602,-0.01851767,0.003666503,0.005677731,-0.003607575
1.007204,-0.1639386,-0.1764769,0.001850567,0.002372092,-0.01400567,0.000687297,0.006422801,-0.003837724
1.005629,-0.1657544,-0.1682123,0.0003186457,0.000662451,-0.005521854,-0.002737622,0.003812996,-0.005312208
1.004336,-0.1670106,-0.1692216,-0.0009325944,-0.0004867929,-0.006310128,-0.002573604,-0.0008670624,-0.007099295
1.003984,-0.1691056,-0.1734046,-0.001243593,-0.002474265,-0.01027061,-0.002077324,-0.0008616594,-0.01004863
1.004107,-0.1721979,-0.1746964,-0.001079313,-0.005458774,-0.01133868,-0.003839425,0.001433998,-0.00959595
1.004305,-0.1705493,-0.1768229,-0.0008401327,-0.003702197,-0.01324031,-0.005723194,0.003547943,-0.01096527
1.004112,-0.1693976,-0.1749735,-0.0009924179,-0.00244253,-0.0111651,-0.007159339,0.009866993,-0.01439409
1.003921,-0.1697071,-0.1692954,-0.001143364,-0.002644168,-0.00526031,-0.00657638,0.01412109,-0.01232008
1.003225,-0.1689259,-0.1616038,-0.001800504,-0.001755241,0.00265854,-0.005837715,0.01247738,-0.007362047
1.001505,-0.1687052,-0.159465,-0.0034813,-0.001427218,0.005024657,-0.006870206,0.008545934,-0.002458122
1.00175,-0.1678681,-0.1660862,-0.00319715,-0.0004834934,-0.001370001,-0.008922361,0.001688004,-0.0042081
1.005121,-0.1677356,-0.1670854,0.0002114596,-0.0002450178,-0.002144038,-0.01055976,-0.003792988,-0.008528613
1.007857,-0.1686358,-0.1626045,0.00298545,-0.001040343,0.002560104,-0.006581056,-0.003432823,-0.005245726
1.006437,-0.1694765,-0.1605669,0.001603064,-0.0017772,0.004818649,0.000289437,-0.001586271,-0.003802194
1.004291,-0.173213,-0.1624568,-0.0005062558,-0.005411274,0.003146734,0.001619182,0.001676871,-0.003584233
1.004794,-0.1758857,-0.166706,3.285646e-05,-0.007982736,-0.0008880263,0.001023106,0.007905255,-0.002215389
1.003365,-0.1723277,-0.1670891,-0.001361158,-0.004324629,-0.001060564,0.001391039,0.007901181,-0.006620254
1.001821,-0.1695599,-0.1679669,-0.002870948,-0.00145783,-0.001731956,5.16073e-05,0.001905545,-0.008986376
1.003633,-0.1718961,-0.1690477,-0.001024688,-0.003696079,-0.002610715,0.001641775,0.0001806496,-0.009703997
1.005148,-0.173042,-0.167443,0.0005228468,-0.004745055,-0.0008084379,0.007002902,0.001645455,-0.01234121
1.008412,-0.1712621,-0.1701918,0.003819809,-0.00286944,-0.003364306,0.01132062,0.00602568,-0.01104493
1.010273,-0.1694957,-0.1717028,0.005711529,-0.001008333,-0.004687022,0.01074426,0.00986854,-0.01014234
1.004726,-0.1680608,-0.1698238,0.0001949126,0.0005200487,-0.002624376,0.005417999,0.00691476,-0.01032228
1.000135,-0.1701345,-0.1683898,-0.004366479,-0.001461397,-0.001011524,0.003878622,0.00504169,-0.008887649
1.001118,-0.1729009,-0.1662538,-0.003355623,-0.004137083,0.001298737,0.004305816,0.004959711,-0.008530768
1.002347,-0.1678133,-0.1690473,-0.002099914,0.001039832,-0.0013254,0.0007172308,0.002370751,-0.007075002
1.003101,-0.1630139,-0.1720401,-0.001319503,0.005926972,-0.004153756,-0.003084476,0.001949093,-0.005625531
1.005793,-0.1657422,-0.1682826,0.001398703,0.003284633,-0.0002367436,-0.007220919,0.002046432,-0.005913048
1.008176,-0.1672853,-0.1643579,0.003805738,0.001825292,0.003842617,-0.006052524,0.0007189943,-0.003949513
1.008317,-0.1683306,-0.1645601,0.003970665,0.0008614786,0.003789902,0.000888392,0.002009134,-0.002419597
1.007853,-0.172167,-0.1701089,0.003530093,-0.00289587,-0.001614523,0.002712544,0.005308914,-0.006228216
1.00471,-0.172918,-0.1754393,0.0004080668,-0.003570352,-0.006805946,0.003824848,0.00757037,-0.009316717
1.001441,-0.1710942,-0.1723973,-0.002840679,-0.001672272,-0.003629967,0.007374128,0.008421539,-0.005251352
1.003434,-0.1687247,-0.1688242,-0.0008291322,0.0007691731,7.223418e-05,0.009946904,0.006485958,-0.001555918
1.007108,-0.1656801,-0.1714405,0.002862998,0.003883451,-0.00241987,0.01183377,0.002574024,-0.004244225
1.009732,-0.1660983,-0.1718084,0.005503651,0.003532592,-0.002668117,0.011321,0.001035686,-0.007367069
1.009769,-0.1675976,-0.1712576,0.005556374,0.002098061,-0.002002215,0.01141671,0.00124354,-0.009133681
1.008015,-0.1664017,-0.1730515,0.00381592,0.003355949,-0.0036855,0.0118341,0.0001233421,-0.009161779
1.008331,-0.1679087,-0.1704307,0.00414374,0.001908084,-0.0009583024,0.01313265,-0.00168861,-0.005028034
1.007747,-0.1709898,-0.170307,0.003569768,-0.001116709,-0.0007322529,0.01753808,-8.946803e-06,-0.003120205
1.006813,-0.1703599,-0.1747518,0.002644464,-0.0004333907,-0.005078867,0.01832143,0.00410406,-0.006370072
1.00729,-0.1691365,-0.1745002,0.003127715,0.0008405367,-0.004732851,0.01545919,0.005289405,-0.009232557
1.005698,-0.1697729,-0.1714141,0.001540492,0.0002519701,-0.001555868,0.01146683,0.004926431,-0.00895635
1.005132,-0.1698733,-0.1674434,0.0009774654,0.0001967511,0.002502165,0.008637237,0.00105517,-0.006702521
1.006126,-0.1680323,-0.1670169,0.001971868,0.002080323,0.003012512,0.006164485,-0.004040634,-0.005910627
1.006173,-0.1680162,-0.1701819,0.002017869,0.002136329,-7.214174e-05,0.000199325,-0.0008322624,-0.005802171
1.007128,-0.1706752,-0.1719462,0.002969333,-0.0004854653,-0.001759727,0.0006640065,0.00390298,-0.003812713
1.006273,-0.1728141,-0.1761447,0.002109763,-0.00258963,-0.005884952,0.002991998,0.005457415,-0.002224493
1.004821,-0.1731965,-0.175692,0.0006512501,-0.002939751,-0.005362121,-0.001021204,0.008359447,-0.003767514
1.00582,-0.1673755,-0.1698489,0.001641524,0.002911275,0.0005481256,-0.0008163748,0.008362108,-0.006055461
1.005639,-0.1620929,-0.167363,0.001450371,0.008221725,0.003098323,-0.0005533143,0.006445701,-0.003944169
1.005162,-0.167364,-0.1640827,0.0009625367,0.002976169,0.006440059,-0.00249045,0.006146097,-0.0025753
1.004864,-0.1716676,-0.1647348,0.0006512974,-0.001304258,0.005846326,-0.00393055,0.005370375,-0.005916871
1.003944,-0.1694128,-0.1676655,-0.0002836179,0.0009711916,0.002970779,-0.007638649,0.006098223,-0.006453567
1.005001,-0.1705035,-0.1658607,0.0007584356,-0.000101162,0.004827253,-0.006130917,0.007073267,-0.003084063
1.006053,-0.1737099,-0.1669304,0.001793916,-0.003291492,0.003805705,-0.003448073,0.00587771,-7.205883e-05
1.005501,-0.1731001,-0.1668949,0.001224046,-0.002667471,0.003885826,-0.001226602,0.004299073,-0.001157896
1.005382,-0.173168,-0.1649737,0.001086163,-0.002723019,0.005847877,0.004957879,0.001484121,-0.004314222
1.005704,-0.1744312,-0.1659321,0.001388088,-0.003975271,0.004926496,0.004898116,0.000794612,-0.004474398
1.005185,-0.172933,-0.1664188,0.0008489147,-0.002467487,0.004473078,0.004458916,0.003525909,-0.004425869
1.003672,-0.1724676,-0.1707742,-0.0006855537,-0.001993497,0.0001469413,0.008148878,0.004721008,-0.003424115
1.002354,-0.1715398,-0.1746832,-0.002025894,-0.001058066,-0.003736558,0.005516468,0.004818366,-0.002123003
1.002672,-0.1693574,-0.1731442,-0.00173096,0.001131308,-0.002175558,0.0003318339,0.001165058,-0.003177365
1.004076,-0.1686052,-0.1708305,-0.0003491228,0.001889682,0.0001568856,-0.003810419,-0.003047523,-0.003586933
1.00431,-0.1659362,-0.1658493,-0.0001384424,0.004564143,0.005153823,-0.003150047,0.003276436,-0.006639764
1.004629,-0.1659388,-0.1630367,0.0001572133,0.004566015,0.007979168,0.003262406,0.0119868,-0.01002624
1.007122,-0.1682852,-0.1679388,0.002626949,0.002223133,0.003086758,0.004264377,0.01280603,-0.007916383
1.009921,-0.1687271,-0.1738789,0.005402542,0.001783464,-0.0028468,0.001192165,0.0107312,-0.006097592
1.010396,-0.1716072,-0.1737766,0.005853295,-0.001095414,-0.002740849,-0.001689865,0.007904702,-0.006354011
1.009224,-0.1714558,-0.1693708,0.004657555,-0.0009440496,0.001666014,-0.002388676,0.00486485,-0.004407484
1.009708,-0.1687601,-0.1671793,0.005117393,0.001750734,0.00385598,0.003858079,0.004416527,-0.003505683
1.009564,-0.1698346,-0.1681113,0.004947692,0.0006742414,0.002920167,0.00944417,0.00311013,-0.00741142
1.006618,-0.1695865,-0.1703837,0.001976181,0.0009194702,0.0006416623,0.01026484,1.705115e-05,-0.007198582
1.004961,-0.1700042,-0.1712696,0.0002919688,0.0004980579,-0.0002526773,0.008316811,0.001617488,-0.001645572
1.005466,-0.1714291,-0.1699651,0.0007693507,-0.000931444,0.001041323,0.002406395,0.003406503,-0.0006846149
1.006463,-0.1694683,-0.1673644,0.001737647,0.001023966,0.003629536,-0.003173662,0.0005368479,-0.000896707
1.005781,-0.168376,-0.1640692,0.001025934,0.002110109,0.006910349,-0.003044962,-3.409595e-05,-0.002713965
1.005007,-0.1691833,-0.1650724,0.0002222811,0.001295962,0.005890757,1.19204e-05,-0.0003221974,-0.007500333
1.006561,-0.1715079,-0.1669323,0.001746553,-0.001036106,0.004012458,-0.002006797,0.001259933,-0.006656464
1.00583,-0.1740699,-0.1652205,0.0009844445,-0.003606295,0.005703668,-0.003121008,0.007053384,-0.0053482
1.004409,-0.173671,-0.1643149,-0.0004667525,-0.003216027,0.006586453,-0.0005101488,0.00623388,-0.006684967
1.004289,-0.1732586,-0.1636022,-0.0006180347,-0.002812561,0.007273933,-0.00254284,0.004020373,-0.006217962
1.00221,-0.1728909,-0.1643936,-0.002728549,-0.002453767,0.006455027,-0.0020484,0.003502871,-0.007064414
1.002616,-0.1710939,-0.1679083,-0.002353829,-0.000665629,0.002910288,-0.0002947043,-0.0006663114,-0.007236011
1.005329,-0.1686353,-0.1701805,0.0003281231,0.001784356,0.0006056488,-0.0006540649,0.001097593,-0.004676786
1.005698,-0.1664668,-0.1699676,0.0006662259,0.003944299,0.0007836812,0.003342546,0.004372734,-0.003170158
1.005685,-0.1696763,-0.1689383,0.0006229342,0.0007264106,0.00177606,0.004400241,0.003354205,-0.00397491
1.005508,-0.1738276,-0.1704828,0.0004153417,-0.003433256,0.0001928064,0.002726778,0.005364591,-0.005558655
1.005392,-0.1702972,-0.1709747,0.0002698045,8.87444e-05,-0.0003396057,0.002520394,0.005737125,-0.005945027
1.005458,-0.166979,-0.1676772,0.0003065662,0.003398671,0.002915953,0.003311983,0.004724703,-0.004664258
1.003593,-0.1684491,-0.1660254,-0.001586386,0.001920423,0.00452436,0.005563704,0.005494819,-0.003651287
1.002228,-0.1686748,-0.1664346,-0.002979858,0.001686496,0.004070559,0.00447089,0.003140855,-0.006316157
1.002725,-0.1703892,-0.1666761,-0.00250951,-3.626046e-05,0.003783063,0.004883001,0.001499022,-0.008224616
1.003335,-0.1734166,-0.164872,-0.00192579,-0.003072004,0.005539961,0.007908277,0.002803343,-0.002741595
1.004518,-0.1723142,-0.1629987,-0.0007686891,-0.001978039,0.00736473,0.009535086,0.002508122,0.002849303
1.005626,-0.1716104,-0.1642715,0.0003153032,-0.001282516,0.006041914,0.01165335,0.0007291437,0.000968426
1.00413,-0.1725158,-0.1665842,-0.001203988,-0.002195982,0.003677783,0.009186268,-0.0002869069,-0.004014944
1.001765,-0.1706814,-0.1733027,-0.003591019,-0.0003692402,-0.003093571,0.00450449,0.0008085222,-0.007678214
1.003582,-0.1677265,-0.1803873,-0.001795154,0.002578345,-0.01023226,0.004574991,0.003190732,-0.008738584
1.007902,-0.1659682,-0.1773353,0.002505813,0.004329552,-0.007234971,0.007608201,0.004549499,-0.006023558
1.01032,-0.1664022,-0.1729483,0.004905686,0.003888682,-0.002902828,0.00758253,0.004535736,-0.003126491
1.009554,-0.1672156,-0.1729467,0.004121925,0.003068329,-0.002955794,0.0006688835,0.005563452,-0.002411673
1.006506,-0.1663851,-0.1699235,0.001057696,0.003891692,1.353402e-05,-0.007273217,0.007255652,-0.00180488
1.004773,-0.1667406,-0.1685316,-0.0006916575,0.003528658,0.00135242,-0.0136244,0.004633942,-0.001142996
1.002459,-0.1678763,-0.1716399,-0.003021365,0.00238499,-0.001808104,-0.01432177,0.0005831097,0.0003100656
1.001673,-0.1680402,-0.1731929,-0.003821843,0.002212499,-0.003412312,-0.005068275,0.000560984,4.262441e-05
1.005105,-0.168271,-0.1744378,-0.0004034542,0.001972516,-0.004707259,0.0006045806,0.001190099,-0.002293305
1.005068,-0.1682917,-0.1746171,-0.0004530383,0.00194192,-0.004935093,-0.004288155,0.003728831,-0.001143031
1.00524,-0.169924,-0.1745308,-0.0002930298,0.0002989844,-0.004895672,-0.009532991,0.01038555,0.001156446
1.006335,-0.172686,-0.1755234,0.0007911434,-0.002474284,-0.005933129,-0.008606053,0.01366451,0.001662325
1.003767,-0.1733851,-0.1712646,-0.001786769,-0.003185162,-0.001717077,-0.005929796,0.008253244,0.001302405
1.004216,-0.1738339,-0.1643611,-0.001347293,-0.003646021,0.00514608,-0.0009153022,-0.001174866,0.001077768
1.004389,-0.1745095,-0.1599377,-0.00118319,-0.004333917,0.009531182,0.009584021,-0.003618899,0.0008062607
1.00366,-0.1738186,-0.1627518,-0.001918815,-0.003655012,0.006680628,0.01357611,0.0009669393,-0.00322954
1.004774,-0.1717561,-0.1691045,-0.0008120657,-0.001604259,0.0002929616,0.01262872,0.002932082,-0.006121252
1.00373,-0.1698143,-0.1674326,-0.001861151,0.0003263821,0.001931034,0.01151217,0.00186296,-0.002940513
1.004606,-0.1701291,-0.1690836,-0.000989331,8.52985e-07,0.0002473146,0.005226412,-0.0009971885,-0.0002411315
1.006407,-0.1705136,-0.1757087,0.0008081564,-0.000393736,-0.006409398,0.008384198,-0.004282745,-0.002066818
1.007725,-0.1705734,-0.1762709,0.002122841,-0.0004631681,-0.007001909,0.01373229,-0.005413429,-0.004870564
1.008213,-0.171484,-0.1749397,0.002609043,-0.001382852,-0.005699457,0.008205594,-0.004093181,-0.005103511
1.005025,-0.1713471,-0.170636,-0.0005794924,-0.001254461,-0.001422675,0.008714157,0.003299573,-0.00357358
1.003734,-0.1712454,-0.168822,-0.001871364,-0.001160643,0.0003663501,0.009835486,0.009804078,-0.001191913
1.001743,-0.1701482,-0.1703264,-0.003862167,-7.069158e-05,-0.001161144,0.005893726,0.005916564,-0.001262673
0.99864,-0.1685382,-0.1686065,-0.006964659,0.001532708,0.0005376226,0.004814086,0.0003689473,-0.003016781
1.00014,-0.1693969,-0.1696201,-0.00546338,0.000667969,-0.0004953004,0.002991364,-0.0004533985,-0.002137791
1.000472,-0.1679235,-0.1688217,-0.005127996,0.002135877,0.0002854472,0.003597852,-0.0008590435,-0.003422075
0.9995299,-0.1656166,-0.1670835,-0.006066301,0.004437698,0.002007729,0.00462644,-0.0006432996,-0.004103672
1.000926,-0.1670437,-0.1683532,-0.004664583,0.003005709,0.0007235652,0.004305409,0.00106441,-0.001977696
1.003592,-0.1678324,-0.1658079,-0.001991842,0.002212189,0.003255851,0.005468305,0.003725606,-0.002272005
1.006533,-0.1683535,-0.1637956,0.0009587185,0.001686217,0.005256358,0.003532745,0.006967493,-0.002246995
1.006077,-0.1701474,-0.1645809,0.0005133715,-0.0001127698,0.004460061,0.003604487,0.004366038,-0.005354651
1.004693,-0.17112,-0.1682578,-0.0008591297,-0.001090627,0.0007729918,0.006385047,0.0001455013,-0.008691733
1.005946,-0.1711142,-0.1729385,0.0004069987,-0.001090149,-0.003917341,0.006852786,0.002060017,-0.00510421
1.005751,-0.1705179,-0.1727399,0.0002263209,-0.0004992719,-0.003727837,0.004997426,0.001513663,-0.002446171
1.005081,-0.1708718,-0.1733226,-0.0004286631,-0.0008585194,-0.004318849,0.001636023,-0.001190812,-0.002461133
1.005944,-0.1708737,-0.1744285,0.0004506777,-0.0008656766,-0.005432149,0.003788571,-0.0004986359,-0.004632085
1.005456,-0.1692937,-0.1737959,-2.030568e-05,0.0007090432,-0.004805761,0.006299224,0.002779415,-0.005755126
1.005375,-0.1675681,-0.1773714,-8.410442e-05,0.002429584,-0.008386195,0.004035321,0.005290075,-0.002478181
1.005869,-0.1660126,-0.1812806,0.0004284942,0.003979974,-0.01229867,0.004379047,0.0005900125,-0.004189662
1.005466,-0.1668709,-0.1802235,4.43528e-05,0.003116555,-0.01124282,0.003776546,-0.003672634,-0.006465868
1.006554,-0.1689679,-0.1793771,0.001151165,0.001014116,-0.01039515,0.002262203,-0.001553364,-0.005998255
1.007296,-0.1695867,-0.1818786,0.001912786,0.0003895381,-0.01289264,0.002721527,0.005018624,-0.00816471
1.006496,-0.169212,-0.1817451,0.001132406,0.0007581575,-0.0127518,0.00140122,0.0128717,-0.005741433
1.004452,-0.1663503,-0.1769911,-0.0008923387,0.003613466,-0.007986871,-0.0006409222,0.01041781,-0.001893798
1.000008,-0.1634859,-0.1737402,-0.005316357,0.006471025,-0.00472127,-0.004681761,0.003254427,-0.0005572186
0.9975488,-0.164676,-0.1737332,-0.0077564,0.005273434,-0.004695614,-0.006395738,0.002480065,-0.001881405
0.9994633,-0.1698102,-0.171338,-0.005822044,0.0001309239,-0.002278028,0.001512975,0.003486874,-0.006573617
1.000857,-0.1756815,-0.1663521,-0.004407918,-0.005749438,0.002733867,0.008802513,0.00492474,-0.003304181
1.000433,-0.1758708,-0.1672588,-0.00481085,-0.005948503,0.001856424,0.005608331,0.007350948,-0.0003968859
1.003314,-0.1731422,-0.1699892,-0.001907471,-0.00322994,-0.000841794,0.002200964,0.00751023,-0.004130473
1.006731,-0.1736011,-0.1687347,0.001531659,-0.003698849,0.0004473944,0.005107791,0.005430515,-0.002896465
1.003894,-0.173802,-0.1712527,-0.001281288,-0.00390966,-0.00203362,0.005510548,0.003019506,-0.002700689
1.001428,-0.173355,-0.1737784,-0.003722261,-0.003472108,-0.004520232,0.006360957,-0.0003539723,-0.00300481
1.003176,-0.173466,-0.1720458,-0.001949658,-0.003591941,-0.002746584,0.009487237,0.0002299318,-0.0006575383
1.00307,-0.1717356,-0.1704238,-0.002030039,-0.001869681,-0.00108166,0.006464871,0.005207086,-0.0008249542
1.002157,-0.1698858,-0.1695547,-0.002915939,-2.709328e-05,-0.0001679455,0.002890506,0.006416665,-9.343051e-06
1.002311,-0.1689616,-0.1717667,-0.002735248,0.0008906422,-0.00233387,-0.0005639811,0.005788658,-0.0002538691
1.002026,-0.1681472,-0.1708615,-0.002991659,0.001699426,-0.00138112,-0.003997928,0.002619648,-0.002832708
1.002768,-0.169504,-0.1677581,-0.002221856,0.0003377645,0.001770867,-0.001997231,-0.0004471793,-0.005110728
1.003812,-0.1711767,-0.1690947,-0.001147807,-0.001339314,0.0004839385,-0.002906345,0.002546382,-0.005292361
1.00506,-0.1683302,-0.1695384,0.0001299434,0.001503587,9.062361e-05,-0.003646356,0.003185349,-0.003058738
1.007612,-0.1654141,-0.1727543,0.0027126,0.004416465,-0.003074334,-0.0003153721,0.004528212,-0.003428393
1.006465,-0.1682061,-0.1734019,0.001596847,0.001621659,-0.003670604,-0.0001006236,0.006525634,-0.004908148
1.003422,-0.171795,-0.1688136,-0.001414789,-0.001969744,0.0009694568,0.001197051,0.001720654,-0.007215859
1.004307,-0.1732559,-0.1702895,-0.000498549,-0.003433017,-0.000454341,0.002297764,0.0009551497,-0.008118453
1.004393,-0.1733497,-0.1697664,-0.0003808872,-0.003528708,0.0001208801,0.001685278,0.005020473,-0.005094931
1.00357,-0.1716526,-0.168274,-0.001172981,-0.001833109,0.00166549,0.00283253,0.006907553,-0.005670317
1.003673,-0.1719534,-0.1695044,-0.001038574,-0.002134795,0.0004870682,0.002437834,0.004711548,-0.005016781
1.002294,-0.1728265,-0.1679859,-0.002386723,-0.00300811,0.002057095,0.00287327,0.001101328,-0.003309896
1.002634,-0.1715925,-0.1724144,-0.002014996,-0.001773611,-0.002320341,0.00318575,0.004880493,-0.005297514
1.003212,-0.1714189,-0.1797395,-0.001406221,-0.001598722,-0.009594967,0.001260194,0.007409762,-0.003323022
1.002564,-0.1702443,-0.1817454,-0.0020232,-0.0004219542,-0.01155078,0.001494458,0.004779911,-0.003644081
1.003853,-0.1677033,-0.1797557,-0.000704165,0.002122041,-0.009511007,0.001325334,0.005496375,-0.005531092
1.004478,-0.1663369,-0.1753376,-4.763595e-05,0.00349211,-0.005042434,2.007433e-05,0.005373733,-0.003110537
1.003919,-0.1661339,-0.1728332,-0.0005764009,0.003699205,-0.002487046,-0.0004852372,0.00517855,-0.003399555
1.003271,-0.1675369,-0.1721302,-0.001193604,0.002300646,-0.001732403,-0.0003016333,0.004853133,-0.002169613
1.002814,-0.1684441,-0.1706831,-0.001620105,0.001397988,-0.0002331221,0.002257888,0.000461837,-0.0009731413
1.004552,-0.1697438,-0.1694442,0.0001479826,0.000102838,0.001058244,0.004534362,-0.001482263,-0.002584717
1.006232,-0.1710692,-0.1720399,0.00185709,-0.001218134,-0.001484606,0.005735356,0.0004180132,-0.00183357
1.005317,-0.1707456,-0.172032,0.0009724996,-0.0008901065,-0.001423856,0.007293646,0.002586079,-0.002820954
1.003381,-0.1728965,-0.1660255,-0.000934933,-0.003036626,0.004635473,0.006875739,0.004764444,-0.002183227
1.002443,-0.1734365,-0.1664406,-0.001844181,-0.003572119,0.004273017,0.003921993,0.005113313,0.0008814212
1.002643,-0.1688507,-0.1674142,-0.001616276,0.001018371,0.003351412,-0.002614171,0.002505719,0.0007214013
1.00295,-0.1654094,-0.1655565,-0.001281315,0.004464691,0.005260233,-0.00832727,-0.002297825,0.0007223112
1.002972,-0.1660761,-0.1676466,-0.001232766,0.003802933,0.003220043,-0.00272702,-0.006835372,0.0004661171
1.003515,-0.1676963,-0.1671885,-0.000662597,0.002187608,0.003726647,0.00807616,-0.003536605,-8.75397e-05
1.004583,-0.166275,-0.1707544,0.0004317657,0.003613541,0.0002076856,0.01036112,0.004713306,-0.0003123104
1.004252,-0.1662468,-0.1747864,0.0001269878,0.00364592,-0.003779207,0.008461196,0.007387935,-0.001434855
1.003672,-0.1674727,-0.1678537,-0.0004278342,0.002423562,0.003196997,0.008867796,0.007789115,-0.001151441
1.003543,-0.1660165,-0.1631705,-0.0005320085,0.003882618,0.007921894,0.008906016,0.003153879,-0.002544867
1.002414,-0.1673706,-0.1651347,-0.001635873,0.002530505,0.005997461,0.007818566,-0.004419743,-0.004463974
1.00259,-0.169668,-0.1673312,-0.001436069,0.000234114,0.003838512,0.006440566,-0.0005277638,-0.002758337
1.003156,-0.1712461,-0.1701425,-0.000845955,-0.00134378,0.00106241,0.007294723,0.005307321,-0.001815189
1.00251,-0.1724138,-0.1748878,-0.001469382,-0.002512252,-0.003650156,0.008687224,0.005842185,-0.0003725765
1.002831,-0.1706991,-0.1752738,-0.001125805,-0.0007989432,-0.004005775,0.007723094,0.004115203,0.001869201
1.002892,-0.1709132,-0.1725227,-0.001041683,-0.001015042,-0.001226411,0.007156206,-0.0002180528,-0.0003403183
1.002961,-0.1709655,-0.1755721,-0.0009512843,-0.001069776,-0.004249314,0.004503212,0.001292049,-0.001883425
1.004703,-0.1700229,-0.1730242,0.0008124793,-0.0001300244,-0.001676642,0.00190551,0.002619227,0.0005104126
1.006046,-0.1696231,-0.1684253,0.002177475,0.0002665639,0.002945571,0.003328459,-0.0007067978,0.002937791
1.005743,-0.1671163,-0.1710045,0.001895585,0.002769968,0.0003882296,0.003625121,-0.001153163,0.004900466
1.005391,-0.1684,-0.166458,0.001563337,0.001482511,0.004955137,0.005968182,-0.003990021,0.004453874
1.006576,-0.1714795,-0.1625509,0.002768426,-0.001601126,0.008880966,0.009825253,-0.005501414,0.002627081
1.00735,-0.1723403,-0.1677363,0.003561528,-0.002466405,0.003712574,0.008645996,-4.502524e-05,0.002814124
1.006808,-0.1725347,-0.1705929,0.003037166,-0.002665549,0.0008708628,0.008451872,0.005427577,0.002580087
1.006738,-0.1696676,-0.1678739,0.002984246,0.0001967808,0.003602614,0.007969254,0.007161079,0.001276389
1.005948,-0.1678484,-0.1652975,0.002208814,0.002011199,0.006189741,0.004743603,0.003679317,-0.0009317311
1.003962,-0.1669783,-0.1682262,0.0002375259,0.002876464,0.003269469,0.005847704,-0.0001162884,-0.002501016
1.002056,-0.1651821,-0.1695159,-0.001655508,0.00466775,0.001985886,0.006199751,-0.00203403,0.0006923234
1.001441,-0.1658643,-0.1678897,-0.002258939,0.003980326,0.003615863,0.004991044,-0.006433809,0.003815406
1.003978,-0.1678114,-0.1675116,0.0002893669,0.002027483,0.003995491,0.005931107,-0.007887105,0.002927217
1.006297,-0.1701194,-0.1658836,0.002617858,-0.0002867833,0.00562263,0.003787104,-0.00190064,0.003067021
1.003928,-0.1688741,-0.16676,0.0002573874,0.0009516169,0.004743039,0.00199265,0.004172183,0.005533107
1.001584,-0.1659433,-0.1671381,-0.002079643,0.003874941,0.004359143,0.001292437,0.003367382,0.006633943
1.002995,-0.1668927,-0.1656538,-0.0006612011,0.002917539,0.005835149,0.0003941605,0.001841029,0.003259162
1.003209,-0.166757,-0.1653776,-0.0004418965,0.003044559,0.006100536,0.002334646,0.003194164,-0.001198496
1.002254,-0.1663495,-0.1647844,-0.001391192,0.003442436,0.006680085,0.004564532,0.0009959399,-0.0008868747
1.003049,-0.1675919,-0.1715544,-0.0005921446,0.002189717,-0.0001061448,0.007661411,-0.0003753259,4.925027e-05
1.003005,-0.1690513,-0.1794338,-0.0006321126,0.0007189806,-0.008004427,0.007259921,0.001041648,-0.002496521
1.003243,-0.1715709,-0.1751723,-0.0003908228,-0.001812757,-0.003764084,0.003411535,0.00202478,-0.004498508
1.003823,-0.1703651,-0.1690795,0.0001920742,-0.0006198863,0.002305724,0.003701912,0.003233987,-0.003971604
1.002444,-0.1683187,-0.1675705,-0.001184157,0.001412868,0.003790294,0.002900004,-0.001041371,-0.0003200731
1.002651,-0.1698858,-0.1655838,-0.0009750371,-0.0001683771,0.005751022,0.0001530747,-0.005151035,0.003277176
1.004101,-0.1696193,-0.1646392,0.0004774804,8.350433e-05,0.006668065,-0.001806662,-0.003963873,0.0003706162
1.004384,-0.1695561,-0.1640859,0.0007616884,0.0001315907,0.007192174,-0.00209493,-0.00304278,-0.002312399
1.005155,-0.1724793,-0.1630933,0.001534445,-0.002807059,0.008153745,0.0002169865,0.001611843,0.001986454
1.00595,-0.1739324,-0.1647372,0.002330409,-0.004275785,0.006476763,-0.001455272,0.005384756,0.004279891
1.006499,-0.1720822,-0.1662082,0.00287971,-0.002441216,0.004970576,-0.003282547,0.003949328,0.001677492
1.006422,-0.1692975,-0.168545,0.002802714,0.0003280653,0.002596372,-0.002012283,0.003059355,0.000481451
1.003469,-0.1680798,-0.1717393,-0.0001511096,0.001530625,-0.000637326,-0.001658086,-0.0003166135,0.00122097
1.000351,-0.1668394,-0.1700713,-0.003270035,0.002756096,0.0009893215,0.002474818,-0.004864074,0.003281674
1.001876,-0.1675764,-0.16772,-0.001746359,0.002004386,0.003297578,0.006509531,-0.005562247,0.006290907
1.003948,-0.1704158,-0.1654973,0.0003237802,-0.0008495742,0.005475669,0.004044508,-0.001587482,0.007501984
1.002579,-0.1677828,-0.1641174,-0.001047752,0.001769009,0.00680939,-0.0002346053,0.003435747,0.006832667
1.003322,-0.1651955,-0.1665059,-0.0003066993,0.00434187,0.004373088,-0.002677872,0.001200378,0.004953542
1.004865,-0.1673294,-0.1676538,0.001233127,0.002193572,0.003175768,-0.003939936,-0.003568908,0.002141586
1.002945,-0.1667376,-0.1716805,-0.0006894062,0.002770748,-0.00090199,-0.00453782,-0.003698455,0.002119067
1.002912,-0.1667739,-0.1752775,-0.0007256116,0.002719671,-0.004551277,-0.00552844,-0.001690156,0.0043677
1.005683,-0.1698044,-0.1712745,0.002042328,-0.0003258852,-0.0006016804,-0.008216123,0.001426545,0.004995925
1.007296,-0.1718863,-0.1698548,0.003651967,-0.002423156,0.0007640366,-0.006561146,0.001048471,0.005278707
1.005558,-0.1739209,-0.1714665,0.001911208,-0.004473226,-0.0009022624,-0.002916595,-0.001565645,0.004283482
1.003117,-0.1751082,-0.171142,-0.000533805,-0.005675937,-0.000632484,-0.004520774,-0.0007733349,0.002358173
1.005337,-0.1741873,-0.1694102,0.001681533,-0.004770082,0.001044404,-0.003319085,-0.002823697,0.002433261
1.007329,-0.1712505,-0.165544,0.003668988,-0.00184773,0.004855698,0.000120509,-0.007862966,0.001758733
1.006473,-0.1700016,-0.1644509,0.002808015,-0.0006125603,0.00589398,0.0007758272,-0.008885097,0.0004607409
1.006297,-0.1711224,-0.1671707,0.002626141,-0.001746163,0.003119327,0.001473931,-0.0056217,-0.0003499008
1.00523,-0.1703842,-0.1692046,0.001553771,-0.001019897,0.001030447,0.002388611,-0.003240474,0.000310108
1.00528,-0.1720549,-0.1692762,0.001596136,-0.002701528,0.0009038039,0.004665502,-0.003879189,0.002316752
1.00605,-0.1763788,-0.1688728,0.002358943,-0.007035457,0.001252208,0.002995863,-0.001673162,-0.0008314028
1.005018,-0.1761197,-0.1708026,0.001318715,-0.006785077,-0.0007325304,-0.001441157,0.001906655,-0.004590231
1.004561,-0.1707017,-0.1717879,0.0008516762,-0.00137443,-0.00177249,-0.002630647,0.004656777,-0.002481058
1.003164,-0.166223,-0.1690308,-0.0005552608,0.00309844,0.0009303738,-0.006950508,0.005615902,0.0007782315
1.002132,-0.1679436,-0.167927,-0.00159691,0.001373507,0.001980527,-0.009320865,-0.001067972,0.002615176
1.003464,-0.1703707,-0.1671515,-0.0002767087,-0.001056654,0.002702938,-0.00411296,-0.006452369,0.002031954
1.004565,-0.1711554,-0.1643904,0.0008135001,-0.001843192,0.005411436,-0.0003441553,-0.005267141,0.00152273
1.005925,-0.1746899,-0.1653522,0.002160655,-0.00537842,0.004397635,0.0004299252,-0.004970628,0.001708186
1.005437,-0.1754244,-0.1676909,0.001660324,-0.006112247,0.002007185,0.002115687,-0.006279707,0.001678461
1.00232,-0.1717622,-0.1686962,-0.001468603,-0.002448062,0.0009505075,0.003289148,-0.007546333,0.004685481
1.001181,-0.1699097,-0.1707274,-0.002621158,-0.0005919392,-0.001131712,0.001447751,-0.007812908,0.007613303
1.002965,-0.169465,-0.1707364,-0.0008497665,-0.0001421742,-0.001191283,0.001346875,-0.01132398,0.009337739
1.004856,-0.1677526,-0.1680151,0.001027357,0.001576748,0.001479997,0.003866661,-0.01600016,0.008434729
1.00346,-0.1662355,-0.1657517,-0.0003821202,0.00310164,0.003694037,0.003685654,-0.0133752,0.005448841
1.001841,-0.1684603,-0.1676832,-0.002013909,0.000885542,0.001713906,0.004199525,-0.00923548,0.00756991
1.003173,-0.1714815,-0.1732473,-0.0006950988,-0.002126006,-0.003898232,0.004744271,-0.007768687,0.008269261
1.002923,-0.17088,-0.1763757,-0.0009582577,-0.001514026,-0.007073909,0.003803239,-0.006143097,0.006760591
1.002194,-0.1707369,-0.1753129,-0.001699934,-0.001359741,-0.006057224,0.004075898,-0.005537021,0.008417982
1.002265,-0.1720172,-0.1744522,-0.001641098,-0.002627988,-0.005241201,0.000937095,-0.005887298,0.007038126
1.001107,-0.1722912,-0.1774394,-0.002811524,-0.002889229,-0.008271255,-0.001230201,-0.00715665,0.004364863
1.002139,-0.1725822,-0.1792746,-0.001790898,-0.003166581,-0.01014711,0.002324694,-0.009634269,0.002263264
1.003806,-0.1729573,-0.1782828,-0.0001347271,-0.003527188,-0.009193436,0.003031758,-0.01007005,0.002018011
1.004339,-0.1740325,-0.1765585,0.0003882275,-0.004586881,-0.007504378,0.0008656563,-0.006129449,0.005142495
1.005307,-0.174984,-0.1687257,0.001347022,-0.005521789,0.0002964948,0.0006607051,-0.001962488,0.003940221
1.002361,-0.1755486,-0.1618589,-0.001607349,-0.006068659,0.007134465,-0.000880705,-0.001064547,-0.0001291254
0.9983726,-0.1759421,-0.1675345,-0.005604157,-0.006443046,0.001433176,-0.002931585,-0.0005143743,-0.002435725
0.9998224,-0.1737769,-0.1742561,-0.004161784,-0.004257198,-0.005311539,-0.001638017,-0.001055515,-0.0004718058
1.000921,-0.1730609,-0.1710202,-0.003069678,-0.003518985,-0.002096192,-0.0007669965,-0.003566803,0.004052199
0.9993356,-0.1750298,-0.1688225,-0.004660343,-0.005463931,8.363688e-05,-0.0002326166,-0.002144269,0.003643029
1.000055,-0.1745867,-0.1688876,-0.003945141,-0.004995134,3.216142e-06,0.001498193,-0.0004495494,0.00609766
1.000748,-0.172293,-0.1658723,-0.003254515,-0.002674039,0.003005482,0.0006705764,-0.004584562,0.01053134
1.001305,-0.1700619,-0.1713968,-0.002698506,-0.0004138542,-0.002529733,-4.86832e-05,-0.007649103,0.007259267
1.003607,-0.1707381,-0.1784189,-0.0003970609,-0.001059232,-0.00956053,0.0007464703,-0.006794382,0.004733527
1.003009,-0.1730597,-0.1779898,-0.0009930349,-0.003348584,-0.009137741,0.002231585,-0.004735822,0.002901125
1.002115,-0.1719361,-0.180753,-0.001884246,-0.002191237,-0.01190481,0.004178289,-0.004178926,0.0003664779
1.003299,-0.1703989,-0.1821322,-0.0006953093,-0.0006190171,-0.01328487,0.002007976,-0.005557641,0.00105951
1.002809,-0.1706369,-0.181551,-0.001179283,-0.0008207964,-0.01270113,-0.0007953009,-0.003624263,-0.0009494275
1.003497,-0.1710063,-0.1819844,-0.0004840002,-0.001152886,-0.01312815,-8.416086e-05,-0.001235154,-0.001343738
1.004573,-0.170946,-0.1787942,0.0006002785,-0.001054287,-0.009927536,0.0004137845,0.0002974486,0.001950299
1.002753,-0.1705585,-0.1769539,-0.0012104,-0.0006276793,-0.008072387,0.0009287461,0.002718788,0.002863307
1.000635,-0.1710336,-0.17671,-0.003317535,-0.001063003,-0.007809098,0.001445093,0.002489284,0.003478462
0.999483,-0.1708477,-0.1765638,-0.004458514,-0.0008366845,-0.007639017,0.00123176,0.002014325,0.003322464
1.000254,-0.1713362,-0.1772656,-0.003674479,-0.001284311,-0.008312362,0.004645336,-0.00339148,0.005297903
1.002327,-0.1750431,-0.1771301,-0.00158863,-0.004949811,-0.008143842,0.009417481,-0.01053394,0.007403262
1.003951,-0.1792409,-0.1744793,5.084331e-05,-0.009105846,-0.005455399,0.008663393,-0.005174217,0.001881761
1.004517,-0.1810757,-0.1697759,0.0006331976,-0.01089829,-0.0007100028,0.004625375,0.001204901,-0.001093346
1.003092,-0.1796148,-0.1702314,-0.000775295,-0.009393971,-0.001119298,0.0002073407,-0.0004509143,0.001972471
1.002325,-0.1766948,-0.1723979,-0.001523884,-0.006429247,-0.003235676,-0.004643259,-0.003015773,0.002465857
1.002981,-0.173381,-0.1733467,-0.0008496246,-0.003069232,-0.004130894,-0.007519914,-0.005236567,0.001289119
1.002943,-0.172157,-0.1786553,-0.000868033,-0.001797629,-0.00938264,-0.007246302,-0.002756644,0.0007394779
1.003428,-0.1727641,-0.1805667,-0.0003629213,-0.0023557,-0.01123377,-0.006649876,0.002263312,0.002612589
1.003447,-0.1701419,-0.177902,-0.0003231169,0.0003168004,-0.008505481,-0.008854585,0.003670104,0.004856452
1.001651,-0.1707973,-0.1760002,-0.00209704,-0.0002872197,-0.006536637,-0.009589457,0.005584568,0.004108983
1.000848,-0.1755802,-0.1717519,-0.00287863,-0.005017765,-0.002217894,-0.0080236,0.005257142,0.002204264
1.001571,-0.1767357,-0.1690944,-0.002132496,-0.0061201,0.000513268,-0.007716102,0.001533103,2.256134e-05
1.001708,-0.1764831,-0.1698195,-0.001972609,-0.005813506,-0.000135471,-0.005605762,0.00117877,0.0001159822
1.002051,-0.1742915,-0.1696193,-0.001606571,-0.003566935,0.000143605,-0.005104798,0.0007649495,0.001395447
1.003187,-0.1727908,-0.170677,-0.0004461186,-0.002010224,-0.000833244,-0.006807375,0.0003978495,0.001509952
1.002903,-0.1740627,-0.1717353,-0.0007057211,-0.003225186,-0.001809002,-0.004719485,0.002314894,0.002768358
1.00262,-0.1734229,-0.1702445,-0.0009636333,-0.002527643,-0.0002343467,-0.001333779,0.00204957,0.002435338
1.003923,-0.1736113,-0.1710875,0.0003643925,-0.002657565,-0.000992305,0.001767714,0.002842318,-5.760911e-05
1.00421,-0.1737839,-0.1731802,0.0006777227,-0.002770991,-0.002999196,0.0006333777,0.003204279,-0.0009644898
1.003266,-0.1733089,-0.1735843,-0.0002404466,-0.002236197,-0.003316819,-0.002754694,-0.0007320311,0.0004369329
1.003186,-0.1739395,-0.1740822,-0.0002943336,-0.002806511,-0.003727715,-8.241205e-05,-0.004842591,0.002786337
1.006208,-0.1733813,-0.1733287,0.002752992,-0.002187484,-0.002886799,0.001281011,-0.006794579,0.00322693
1.009367,-0.1736573,-0.1736069,0.005938037,-0.002402336,-0.003077269,0.0005450627,-0.004893032,0.001216516
1.006795,-0.1737543,-0.1751793,0.003391945,-0.00243781,-0.004561666,0.001598065,-0.002810966,-0.005441421
1.004145,-0.17335,-0.1756853,0.0007665424,-0.001971788,-0.004979583,-0.001160376,-0.001628367,-0.0120513
1.005753,-0.1738787,-0.1769742,0.002398018,-0.002438593,-0.006180163,-0.001394868,5.53041e-05,-0.007604818
1.005043,-0.1727258,-0.1764254,0.001710942,-0.001223761,-0.00554288,0.003061544,-0.001479437,-0.003064364
1.003521,-0.1700599,-0.1759134,0.0002113784,0.001504154,-0.004942268,0.003421239,-0.004177024,-0.006068202
1.005282,-0.167439,-0.1765798,0.001993009,0.004186918,-0.005519748,0.002012684,-0.007657153,-0.004468011
1.005675,-0.1692179,-0.1742678,0.002406085,0.002469348,-0.00311863,0.003544246,-0.007540202,-0.002758709
1.003558,-0.1724051,-0.1730797,0.0003080762,-0.0006573032,-0.001841133,0.005358742,-0.0016755,-0.00582161
1.002244,-0.171051,-0.1748928,-0.0009889835,0.0007564939,-0.003564837,0.002496509,0.003046972,-0.008364262
1.002972,-0.1729474,-0.1799274,-0.0002440611,-0.001081173,-0.008510001,-0.01092843,0.01140639,-0.01149567
1.004762,-0.1763904,-0.1847991,0.001560814,-0.004466563,-0.01329219,-0.03196791,0.01685968,-0.01074439
1.0052,-0.1734341,-0.1806515,0.002013321,-0.001453714,-0.00905474,-0.03853389,0.01260692,-0.008769149
1.004908,-0.1700667,-0.1734979,0.00173452,0.001969284,-0.001810703,-0.02401348,0.01137804,-0.01165969
1.005551,-0.1687437,-0.16956,0.002389337,0.003346732,0.002218261,-0.009936748,0.01102243,-0.01270527
1.005678,-0.1678411,-0.1640897,0.002527151,0.004302471,0.007779804,0.001169802,0.009400723,-0.01131211
1.004333,-0.1687055,-0.1604995,0.001191732,0.003489805,0.01146103,0.01161185,0.01041546,-0.0076645
1.003085,-0.1686338,-0.1617097,-4.825133e-05,0.003611469,0.01034099,0.009829812,0.009919909,-0.0040454
1.003843,-0.1663852,-0.163587,0.000715971,0.005908014,0.008552115,0.007803039,0.01060235,-0.007334287
1.006205,-0.1658338,-0.1677511,0.003084078,0.006505178,0.004474272,0.01645789,0.01134349,-0.009156196
1.007497,-0.1672932,-0.1709817,0.004380147,0.005089131,0.001327225,0.02065739,0.009738569,-0.006330243
1.005699,-0.1667452,-0.1682321,0.00258476,0.005677805,0.004157607,0.01731893,0.01009999,-0.006248703
1.003094,-0.1661263,-0.1684828,-1.868208e-05,0.006334442,0.003984637,0.01553901,0.01052525,-0.006243848
1.002482,-0.1671889,-0.1748859,-0.0006302031,0.00530639,-0.002343975,0.01400833,0.009955895,-0.004399107
1.002682,-0.1661337,-0.1793068,-0.0004318352,0.006392978,-0.006693562,0.01156942,0.009696849,-0.0034167
1.002931,-0.165203,-0.1775909,-0.0001844666,0.00735161,-0.004909254,0.01070072,0.007475797,-0.005590369
1.002798,-0.1662683,-0.1751517,-0.0003215874,0.006310725,-0.002404304,0.01009766,0.003342609,-0.008348015
1.002595,-0.1679128,-0.1788259,-0.0005290414,0.004686744,-0.006015274,0.008378201,0.001049083,-0.005792959
1.003341,-0.1694525,-0.1812102,0.0002115428,0.003163843,-0.008338467,0.005701997,0.001832561,-0.003443649
1.004467,-0.1681161,-0.1800552,0.001332146,0.004513255,-0.007124149,0.004841048,0.001719861,-0.004178968
1.005687,-0.1663409,-0.1804194,0.002545401,0.006297627,-0.007430618,0.005085701,-5.353127e-05,-0.0007018107
1.00415,-0.1662771,-0.1772132,0.001000633,0.006366845,-0.004167797,0.002471692,-0.0004811933,0.003706414
1.00163,-0.1667938,-0.1726846,-0.001527826,0.005851743,0.0004163868,0.001795558,7.038476e-05,0.004120006
1.003066,-0.1670222,-0.1725767,-0.0001008459,0.005620984,0.0005789132,0.001623434,0.001705634,0.004603757
1.00434,-0.1665276,-0.177457,0.001163855,0.006109457,-0.004247694,-0.003233842,0.00422313,0.004672747
1.004804,-0.1686839,-0.1827564,0.001617013,0.003943016,-0.009494421,-0.007016852,0.004376654,0.002685452
1.005841,-0.1701825,-0.1802459,0.002643646,0.002430418,-0.006931838,-0.009467166,0.001975816,0.002613758
1.003704,-0.1691712,-0.1762582,0.0004952637,0.003424073,-0.002892618,-0.008480849,-0.0004709856,0.003062922
1.002094,-0.1697105,-0.1747737,-0.001125989,0.002863683,-0.001356841,-0.003297981,-0.0003980615,0.001282284
1.00383,-0.17045,-0.1723279,0.0005972798,0.002099613,0.001140072,-0.00255959,0.003420041,-0.0009589721
1.004641,-0.1720173,-0.1731314,0.001395817,0.0005045156,0.000387138,-0.002663656,0.006012305,-0.004088661
1.004071,-0.1719923,-0.1740354,0.0008120576,0.0004988576,-0.0004666741,-0.00274087,0.00215103,-0.003716772
1.0042,-0.1683169,-0.1730958,0.0009276015,0.004140924,0.0005224266,-0.004627658,-0.001996183,0.0004805498
1.005211,-0.1657452,-0.1730223,0.001924446,0.006676675,0.0006446501,-0.003699327,-0.0001472131,0.002270335
1.005797,-0.1668946,-0.1712396,0.002495891,0.005488787,0.002475271,-0.005144087,0.0006098383,0.004810805
1.004867,-0.1710409,-0.1697387,0.001551521,0.001301458,0.004023154,-0.006946537,-0.001363501,0.004942505
1.001895,-0.1728369,-0.1694943,-0.001435411,-0.0005378129,0.004313311,-0.006327121,0.000139397,0.0001480159
0.9992855,-0.1714252,-0.1709718,-0.004060649,0.0008283791,0.002880067,-0.007829192,0.001724352,-0.001693531
1.001763,-0.1710764,-0.1733189,-0.001599127,0.001129806,0.0005757263,-0.006431015,0.002004366,-0.001105904
1.00589,-0.1743643,-0.1722253,0.002512406,-0.002207161,0.00171018,-0.00194563,0.002111887,0.00109207
1.005913,-0.1789065,-0.1726823,0.002519912,-0.006799677,0.001292359,0.00149457,0.00163845,0.003902548
1.005232,-0.1774175,-0.1744616,0.001822459,-0.005361958,-0.0004496408,0.002097527,0.005137889,0.005174493
1.005742,-0.1725165,-0.1733089,0.002316741,-0.0005126281,0.0007385742,0.001410986,0.006850958,0.005689945
1.005488,-0.1672736,-0.173704,0.002047379,0.004678486,0.0003772053,0.001382245,-0.0002472948,0.005308217
1.00553,-0.1632641,-0.1747394,0.002072526,0.00863612,-0.0006262823,-0.000474131,-0.007425873,0.00632003
1.005287,-0.1658292,-0.1750404,0.001813386,0.006018915,-0.0008971191,0.003560452,-0.007534601,0.002956693
1.00366,-0.1690343,-0.1756299,0.0001691862,0.002761272,-0.00145816,0.01073754,-0.006197833,-0.001499297
1.002318,-0.1730025,-0.1768497,-0.001189787,-0.001259837,-0.002650952,0.01073396,-0.008164635,0.004469251
1.002532,-0.1777986,-0.1798667,-0.0009927998,-0.006109152,-0.005642462,0.009566526,-0.005835709,0.008282376
1.003167,-0.1722539,-0.1794404,-0.0003755298,-0.0006177772,-0.005191658,0.008064975,-0.001272738,0.003052362
1.002997,-0.1666172,-0.1746845,-0.0005628217,0.004965937,-0.0004122851,0.005925804,-0.003087387,-0.0001120642
1.004407,-0.1700409,-0.1696353,0.0008301066,0.001489584,0.004659674,0.002619376,-0.0029157,0.0009205432
1.005672,-0.1700765,-0.165246,0.002077911,0.00140166,0.00907078,-0.001880072,0.001530337,0.0004364288
1.00198,-0.1675485,-0.1657656,-0.001631481,0.003877617,0.008571718,-0.001608861,0.002874616,-0.001341357
0.998535,-0.1682937,-0.1701426,-0.005093088,0.003080694,0.004213776,-0.002295061,-0.000259422,0.001953953
1.000078,-0.1687337,-0.1768745,-0.003566921,0.002589163,-0.002500854,-0.00504806,-0.002761759,0.004728282
1.00161,-0.1714345,-0.1861824,-0.002050637,-0.0001628091,-0.01179336,-0.005871047,0.001450028,0.001401062
1.001189,-0.175371,-0.1843697,-0.002487029,-0.004150183,-0.009966497,-0.005029399,0.004416139,-1.53395e-05
1.001464,-0.1755697,-0.1748454,-0.002226664,-0.004399236,-0.0004288936,-0.0008177089,0.00169744,0.00267047
1.001535,-0.1760037,-0.1749032,-0.002169171,-0.004882703,-0.0004739532,0.001650837,0.0005836182,0.004269064
1.001307,-0.1758691,-0.1760764,-0.002409333,-0.004796338,-0.001634838,0.002662526,0.001583779,0.002152253
1.002475,-0.1724759,-0.1759826,-0.001253154,-0.001450052,-0.001529064,0.005747546,0.003362495,1.481078e-05
1.003214,-0.1713389,-0.1768362,-0.0005243284,-0.0003583806,-0.002371,0.006977544,0.003894322,-0.0006498178
1.003446,-0.1718801,-0.1717793,-0.0003016981,-0.0009431497,0.00269725,0.003517808,0.00126471,-0.002774428
1.00356,-0.1712052,-0.1699691,-0.0001957518,-0.0003101249,0.004518519,-0.002233332,-0.0004938506,-0.002669869
1.002363,-0.1715976,-0.1715961,-0.00140024,-0.0007426604,0.002902097,-0.002593587,0.002428668,0.0001087947
1.001658,-0.1717064,-0.1732398,-0.002110913,-0.0008898312,0.001268501,-0.0009862911,0.005594419,0.001325807
1.001573,-0.171435,-0.1761949,-0.002200908,-0.00065502,-0.001677337,-0.002707751,0.003202906,0.001744329
1.002052,-0.1727968,-0.1738661,-0.001726099,-0.002051607,0.0006601012,-0.002792387,-0.0005175408,0.003003413
1.002875,-0.1738667,-0.1729062,-0.0009058453,-0.003154465,0.001628062,-0.00242321,-0.00331799,0.005546909
1.001078,-0.1738621,-0.1744945,-0.002704623,-0.003180921,4.706082e-05,-0.001302079,-0.00554197,0.00650199
0.9995034,-0.173255,-0.1750397,-0.004279697,-0.002602906,-0.000491502,-0.0005756812,-0.005109474,0.004966654
1.0018,-0.1724269,-0.1772031,-0.001982296,-0.001801731,-0.002648872,-0.003221105,-0.005833144,0.004126654
1.003703,-0.1713304,-0.1760817,-7.741387e-05,-0.000730115,-0.001521978,-0.00376362,-0.006580286,0.00308494
1.002681,-0.170421,-0.17418,-0.001095839,0.0001566529,0.0003848017,-0.003341744,-0.005470983,0.002800089
1.002775,-0.1718418,-0.1734734,-0.0009975303,-0.001284812,0.001096146,-0.002940319,-0.005858641,0.003994864
1.004918,-0.172772,-0.1733165,0.001151589,-0.002233733,0.001257382,-0.001804738,-0.003418058,0.003449124
1.005976,-0.1721195,-0.1748661,0.00221649,-0.001597884,-0.0002882815,-0.003325951,0.002221298,0.003512531
1.005674,-0.1731693,-0.1743186,0.001921661,-0.002662441,0.0002626823,-0.005598678,0.005401427,0.00467058
1.005331,-0.1730601,-0.1742268,0.001586997,-0.002565981,0.0003576513,-0.01052653,0.004738326,0.003527194
1.005957,-0.1691305,-0.1752745,0.002221237,0.001352893,-0.0006874422,-0.01481638,0.001125576,-0.0009441566
1.007664,-0.165763,-0.1750858,0.003937459,0.004711553,-0.0004963423,-0.01112477,-0.0008878108,-0.005330954
1.009403,-0.1693361,-0.1749421,0.005685906,0.001131151,-0.000350712,-0.006009429,-0.0002160574,-0.0002774625
1.008886,-0.1756587,-0.1754356,0.005177728,-0.005197167,-0.0008424448,-0.002868612,0.001265835,0.00672885
1.005102,-0.1764,-0.1778465,0.001402487,-0.005942705,-0.003251842,-0.000925017,0.001618114,0.00272632
1.003109,-0.1761972,-0.1793583,-0.0005824623,-0.005742584,-0.004762234,0.001106284,-0.00111955,-0.001806141
1.004032,-0.1768189,-0.176395,0.0003484328,-0.006365185,-0.001797479,0.004988149,-0.001666025,-0.002736677
1.002615,-0.1756145,-0.1719455,-0.001061007,-0.005159602,0.00265371,0.003648656,-0.0005151862,-0.002846305
1.000588,-0.1744308,-0.1716387,-0.003081545,-0.003972716,0.002962407,0.001069683,0.0002526114,0.0008852377
1.00163,-0.1710241,-0.1737865,-0.002034163,-0.0005605397,0.000816574,0.002821997,0.002163349,0.000996536
1.003624,-0.1679941,-0.17327,-3.404683e-05,0.002477024,0.001334936,0.001368168,0.0003067828,-0.000592934
1.004084,-0.1683899,-0.1712771,0.0004311726,0.002090682,0.003329629,0.0008825736,0.0005996496,0.0008576587
1.002543,-0.1699907,-0.168255,-0.001103889,0.0005009581,0.006353143,0.00304492,0.00334609,-0.0001744188
1.000855,-0.1733197,-0.1679078,-0.00278655,-0.002815479,0.006701344,0.002745648,7.173756e-05,0.000155439
1.002029,-0.1742704,-0.1718125,-0.001608014,-0.003752202,0.002796915,0.003391261,-0.001591845,0.0004390153
1.003825,-0.1722495,-0.1737035,0.0001934425,-0.001715988,0.0009052428,0.0008773962,-0.00207217,-0.001917377
1.00324,-0.1720289,-0.1767242,-0.0003862322,-0.001478657,-0.002117095,-0.003476049,-0.002301229,-0.002375597
1.003095,-0.1720584,-0.1788398,-0.000526683,-0.001490218,-0.004235166,-0.002310918,0.0006888663,-0.002813687
1.002175,-0.1713687,-0.1735167,-0.001440614,-0.0007812845,0.001084818,-0.001820115,-0.0008282471,-0.001973189
1.000992,-0.1707738,-0.1705079,-0.002618803,-0.0001659659,0.004089887,-0.003543659,-0.002258336,-0.0007051423
1.004367,-0.1714957,-0.1717973,0.0007614026,-0.0008663631,0.002796089,-0.0050878,-0.002034988,-0.000400639
1.006481,-0.1730274,-0.1707099,0.002881064,-0.002375611,0.00387847,-0.006925254,-0.00206781,0.000566939
1.004465,-0.1730315,-0.1706545,0.0008711139,-0.002356487,0.003928041,-0.005476874,0.002610308,-0.0004144255
1.003511,-0.1736251,-0.1726114,-7.744056e-05,-0.002925826,0.001964245,-0.003200452,0.003363691,-0.0002266694
1.0035,-0.1733182,-0.1753884,-8.269046e-05,-0.002593879,-0.0008205689,-0.003176841,0.0005036636,0.0006202731
1.003616,-0.1696375,-0.1792477,3.849753e-05,0.00111281,-0.004688565,-0.002576075,2.12514e-05,0.001649622
1.004148,-0.1672733,-0.1806368,0.0005752321,0.003503792,-0.006087012,-0.002200021,-0.0002720615,0.004077497
1.004474,-0.1686532,-0.1791926,0.0009066148,0.002151126,-0.004652584,-0.002148232,0.002067709,-0.0002704413
1.004037,-0.1699444,-0.1768187,0.0004748788,0.0008875434,-0.002288526,-0.0008221883,0.003278334,-0.005078293
1.003818,-0.1675644,-0.1736051,0.0002608963,0.003295245,0.0009154101,-0.0002571588,0.00235859,-0.002399185
1.003762,-0.1661997,-0.1711938,0.0002089286,0.004687589,0.003317265,0.001214237,-0.001096197,2.32069e-05
1.003173,-0.1696528,-0.1708341,-0.0003759337,0.001261816,0.003667605,0.004889865,-0.00808423,0.001146472
1.004522,-0.1718258,-0.1732421,0.0009776054,-0.0008844201,0.001250227,0.00559355,-0.006790042,0.00158709
1.005565,-0.1708399,-0.1776071,0.002024343,0.0001276367,-0.003124317,0.003241052,0.002968025,9.495773e-05
1.005242,-0.1708112,-0.1785786,0.001704473,0.0001818524,-0.004105255,-1.292576e-05,0.009583577,0.0002641552
1.005591,-0.1728195,-0.1757796,0.002056583,-0.001801497,-0.001315679,-0.004353471,0.006642045,0.003085519
1.00364,-0.17391,-0.1757104,0.0001081213,-0.002867621,-0.001255483,-0.005591924,2.755529e-06,0.005102302
1.002036,-0.1717762,-0.1771694,-0.001493414,-0.0007100102,-0.002723104,-0.00273909,-0.003435024,0.002965406
1.003283,-0.1700694,-0.1768542,-0.0002439656,0.001020047,-0.002416118,0.0008356872,-0.009377952,-0.0002469554
1.004667,-0.170812,-0.1793389,0.001141177,0.0003002668,-0.004908325,0.003468707,-0.006581548,0.001015069
1.006019,-0.1709942,-0.1816969,0.002494409,0.0001404212,-0.007273131,0.002239667,0.005456032,0.003895452
1.005774,-0.1699085,-0.1787403,0.002249898,0.001247788,-0.004322198,-0.0005630598,0.00652851,0.002663375
1.005151,-0.1700112,-0.1777911,0.00162687,0.00116611,-0.003377411,0.0003561561,0.007704715,-0.002910838
1.005793,-0.1712107,-0.1785908,0.002268199,-1.311311e-05,-0.004180161,0.0007854268,0.01118918,-0.008007451
1.005554,-0.1702434,-0.1764103,0.002027939,0.0009738524,-0.002001303,-0.002079766,0.008814742,-0.006318237
1.00542,-0.1670006,-0.1775002,0.001892288,0.00423541,-0.003091114,-0.004747484,0.009403353,-0.001922047
1.005523,-0.1647077,-0.1781793,0.001992393,0.006546145,-0.003768657,-0.006633489,0.005533061,-0.0006047063
1.004405,-0.1671426,-0.1733408,0.0008716202,0.004127994,0.001073044,-0.005649914,0.0009442658,0.001463529
1.003178,-0.1724232,-0.1712676,-0.0003596494,-0.001137284,0.003150942,-0.002667002,0.002935324,0.001250053
1.00334,-0.1745101,-0.1726135,-0.0002024581,-0.003210252,0.001811127,-0.002528263,0.002757045,-0.001390007
1.004486,-0.1743568,-0.1741913,0.0009372517,-0.00304412,0.0002405236,-0.002137368,0.004594318,-0.002160446
1.004589,-0.1736097,-0.1754152,0.001034756,-0.002285377,-0.0009751874,0.001929779,0.005965532,-0.005065297
1.00453,-0.1730662,-0.1737116,0.0009683699,-0.001730971,0.0007374127,0.005679225,0.005382736,-0.004685509
1.00509,-0.1740601,-0.1706433,0.00152124,-0.002714736,0.003815494,0.005528222,0.007692574,-0.001882579
1.004085,-0.173581,-0.1667997,0.0005080786,-0.002226001,0.007669488,0.005337897,0.006646958,-0.004116588
1.00347,-0.1729289,-0.1645918,-0.0001154675,-0.001564746,0.009887905,0.006936796,0.003268069,-0.003930561
1.00376,-0.1722489,-0.1682713,0.0001660861,-0.0008759433,0.006218607,0.004693355,0.0003937175,-0.002830284
1.002383,-0.170364,-0.1727799,-0.001220788,0.001017408,0.00171974,0.003375322,-0.001797882,-0.002415305
1.002452,-0.1724317,-0.1736026,-0.00116141,-0.001042022,0.0009057923,0.005581053,-0.001506467,0.0005626684
1.00369,-0.1747669,-0.1738403,6.649456e-05,-0.00336912,0.0006759373,0.003514217,-0.0003867456,-0.0003915716
1.004201,-0.1733337,-0.1756115,0.0005669667,-0.001928098,-0.001088199,0.002339053,0.0004195329,-0.0007950219
1.006122,-0.1733497,-0.1768425,0.002476985,-0.001936295,-0.002313052,0.003796486,0.0002131445,0.002286016
1.005833,-0.1737736,-0.1770407,0.002177952,-0.00235232,-0.00250577,0.003790245,-0.001218217,0.001917984
1.004102,-0.1725362,-0.1788582,0.0004354844,-0.001106866,-0.004318309,0.004634295,-0.002511181,-0.00178187
1.005227,-0.1719518,-0.180507,0.001549701,-0.000514356,-0.005962575,0.003338955,-0.001594348,-0.005347443
1.005741,-0.1722035,-0.1761937,0.002051533,-0.0007576726,-0.001644718,0.001334468,0.0007408094,-0.003418008
1.005182,-0.1723471,-0.1691491,0.001481126,-0.0008926518,0.00540437,0.0002419795,0.003127401,0.0005879882
1.00367,-0.1719701,-0.1674178,-4.302494e-05,-0.000506892,0.007140201,0.000301763,0.002181712,0.0009884836
1.001329,-0.1713116,-0.1674359,-0.002396722,0.0001605613,0.007126218,0.00392915,-0.004498752,0.0008387888
1.001984,-0.1706319,-0.1692978,-0.00175527,0.0008493624,0.00526781,0.005132121,-0.007245423,-0.001980671
1.003469,-0.1708343,-0.1771449,-0.0002825166,0.000656134,-0.00257672,0.00419702,-0.00187623,-0.003736652
1.003693,-0.1721477,-0.1809273,-7.120517e-05,-0.0006480034,-0.006357497,0.002120283,0.002488137,0.002818069
1.00406,-0.1732933,-0.1784733,0.0002821933,-0.001784396,-0.003902485,-0.003161473,-0.001092129,0.007614675
1.003299,-0.1735586,-0.1764987,-0.0004908987,-0.002040315,-0.001927292,-0.005903816,-0.005328601,0.0008832757
1.00147,-0.1718777,-0.1757091,-0.002332741,-0.0003500099,-0.001137302,-0.003459657,-0.003029279,-0.006272089
1.001149,-0.1700556,-0.1767625,-0.002665747,0.001481592,-0.002190496,0.002599935,-0.005893865,-0.00407564
1.002524,-0.1711579,-0.1763507,-0.001302974,0.0003889466,-0.001778463,0.006265259,-0.01001029,-0.004651147
1.003046,-0.1730127,-0.1746773,-0.0007924858,-0.001456233,-0.0001046412,0.004945328,-0.003875146,-0.008649601
1.002386,-0.1736607,-0.1732332,-0.00146334,-0.002094662,0.001339834,0.002547297,0.0002311216,-0.006160976
1.000958,-0.1730083,-0.170251,-0.00290182,-0.001432531,0.004322565,0.001465778,-0.002358672,-0.005857223
0.9994352,-0.1711143,-0.1697904,-0.004434104,0.0004712098,0.004783638,0.003707696,-0.00664831,-0.006404134
1.000035,-0.1694616,-0.1708993,-0.00384294,0.002133772,0.003674905,0.008905153,-0.008438858,-0.004559684
1.001251,-0.1676579,-0.1724094,-0.002634703,0.003947344,0.002164457,0.01621639,-0.004026342,-0.007870987
1.001629,-0.1680793,-0.1746583,-0.002263093,0.003535603,-8.528474e-05,0.0170394,0.0003911279,-0.008494053
1.002559,-0.1723679,-0.1735189,-0.00133851,-0.0007436242,0.001052591,0.01208793,0.001081263,-0.006668709
1.004041,-0.1741699,-0.1731118,0.0001383889,-0.002536685,0.001457534,0.01236324,0.0009333088,-0.007536053
1.005424,-0.1711669,-0.1741787,0.001518429,0.0004747793,0.0003879926,0.009440896,0.001189741,-0.004885878
1.005453,-0.1664456,-0.1732903,0.00154521,0.00520436,0.001273038,0.005884132,-0.0002711859,-0.00215234
1.003689,-0.1647013,-0.1736211,-0.0002195001,0.006956285,0.0009383401,0.005215223,-0.002307089,-0.0002880782
1.002203,-0.169236,-0.1738127,-0.001706288,0.002428637,0.0007423277,-0.0009003692,-0.0006712375,0.0004721256
1.002608,-0.1732298,-0.1740636,-0.001300151,-0.001559092,0.0004863525,-8.5265e-05,0.003886684,-0.003044769
1.003177,-0.1724609,-0.1775596,-0.0007303565,-0.0007850738,-0.003015262,0.002936121,0.007045241,-0.0038342
1.002566,-0.1715593,-0.1808992,-0.001339292,0.0001208667,-0.00636086,-0.002388458,0.003670594,-0.002896062
1.003065,-0.1715249,-0.1803191,-0.0008375785,0.0001588397,-0.005786932,-0.006233356,0.0001180478,-0.003683898
1.004794,-0.1706999,-0.1782808,0.0008952727,0.0009867133,-0.003754547,-0.009235819,0.002042063,-0.003823315
1.005531,-0.170457,-0.1787836,0.00163711,0.001231756,-0.004262918,-0.005904394,0.001486117,-0.004981571
1.004067,-0.1713989,-0.1774038,0.0001774509,0.0002912585,-0.002888002,0.0004076745,0.000503962,-0.004970952
1.001877,-0.1721742,-0.1726131,-0.002006433,-0.0004832621,0.001898477,-0.002696435,0.002706941,-0.004116866
1.002622,-0.1749568,-0.1717673,-0.001255837,-0.003265753,0.002740886,-0.002409538,0.005416086,-0.004522355
1.003425,-0.1767651,-0.1742474,-0.0004459699,-0.005074362,0.00025793,0.000852042,0.007533277,-0.004679156
1.002257,-0.1717734,-0.1745472,-0.001607299,-8.332825e-05,-4.418169e-05,-0.001456401,0.00595058,-0.005861342
1.002537,-0.1677978,-0.1698033,-0.001320084,0.003891538,0.004697863,-0.00190704,0.004277628,-0.005725636
1.001054,-0.1702904,-0.1656147,-0.002794722,0.00139788,0.008884729,-0.002221285,0.002871019,-0.004539207
0.9981789,-0.1719096,-0.1717054,-0.005661082,-0.0002225514,0.002792354,-0.002075428,-0.0008755572,-0.00373659
0.9986066,-0.1704102,-0.1779147,-0.005224066,0.00127526,-0.003418887,0.001245771,-0.002169471,-0.002055202
0.9997119,-0.1705699,-0.1749152,-0.004108528,0.001113652,-0.0004216119,0.00284356,-0.001048686,-0.003045461
1.000173,-0.1713579,-0.1747388,-0.003635946,0.0003233931,-0.0002477401,0.002305841,0.002687569,-0.002038481
1.000144,-0.1699248,-0.1774046,-0.003652759,0.00175398,-0.002916056,-0.001410929,0.007038233,0.002020868
0.9999355,-0.16801,-0.1739954,-0.003847418,0.003665793,0.0004904752,-0.005706329,0.007986656,0.001437477
1.001046,-0.1652108,-0.1702073,-0.002722294,0.006461413,0.004275859,-0.007967242,0.008230198,0.0003707292
1.001837,-0.1650326,-0.1680953,-0.001915154,0.00663546,0.006385126,-0.01006577,0.003772068,0.0004371196
1.002641,-0.1696517,-0.1663446,-0.001093072,0.002011226,0.00813268,-0.005427529,-0.00257796,0.0005052098
1.004766,-0.1717377,-0.1701323,0.001050558,-8.099675e-05,0.004341084,0.0002964008,-0.0002950019,0.003083416
1.006207,-0.1709206,-0.1725276,0.002512009,0.0007288843,0.001941066,-0.003157666,0.003294196,0.003397156
1.005641,-0.1705432,-0.1649547,0.001966154,0.001097951,0.009508121,-0.0052046,0.005187099,-7.371404e-05
1.00515,-0.1708128,-0.1597061,0.001496471,0.0008192253,0.01474962,-0.005069194,0.008630518,-0.001396001
1.006199,-0.1706142,-0.1679603,0.002568102,0.001007688,0.006486596,-0.007305513,0.002463805,-0.001166673
1.007342,-0.1678166,-0.1759371,0.00373275,0.003794352,-0.001501061,-0.003177481,-0.005297867,-0.004773848
1.008306,-0.1659662,-0.1722367,0.00471908,0.005632959,0.00218635,0.001725077,0.001673828,-0.004318843
1.007023,-0.1665073,-0.1717549,0.003457824,0.005079,0.00265324,-0.0009712342,0.006757743,0.001920582
1.004074,-0.1669589,-0.1772645,0.0005302441,0.004613331,-0.002873079,-0.003382991,0.002568853,0.001542604
1.003763,-0.1672164,-0.1761708,0.0002400887,0.004340384,-0.001797764,-0.004093981,0.001323987,-0.0009957666
1.003038,-0.1687029,-0.1741052,-0.0004648611,0.002837103,0.0002480306,-0.005728883,-0.000375612,-0.00207663
1.003018,-0.1701637,-0.1736931,-0.0004659982,0.001358132,0.0006391442,-0.003724238,-0.001459297,-0.002019428
1.005839,-0.1677409,-0.173219,0.002373971,0.003761314,0.001091095,-0.001903101,0.001010273,0.002372338
1.004764,-0.1672251,-0.1760675,0.001317091,0.004256149,-0.001780459,-0.005604014,0.0001985985,0.003661661
1.002322,-0.170176,-0.1764614,-0.001107486,0.001282802,-0.002198198,-0.007950646,-0.0006400268,0.002460609
1.001954,-0.1702236,-0.1740346,-0.001459197,0.001211406,0.0002041453,-0.006178325,-0.001118204,-0.0001600272
1.000972,-0.1712837,-0.1715099,-0.002425442,0.0001262134,0.00270385,-0.003646851,-0.003684076,-0.003994833
1.001919,-0.1731212,-0.170838,-0.001463937,-0.00173753,0.003350385,-0.0008265701,-0.002179931,-0.002508124
1.004332,-0.1735212,-0.1769977,0.0009637305,-0.002164725,-0.002835054,0.001233031,0.001649171,7.77405e-05
1.006071,-0.174199,-0.1824072,0.002716868,-0.00287045,-0.00827072,0.004200646,0.004814267,0.001013744
1.005901,-0.1730339,-0.1801428,0.002560442,-0.001733777,-0.006032432,0.0091327,0.007083038,0.0007732922
1.003983,-0.1726157,-0.1745023,0.0006554861,-0.001344195,-0.0004176295,0.01098574,0.005906282,-0.0008932577
1.00413,-0.1722434,-0.1718591,0.0008142036,-0.00100067,0.00220055,0.009244559,0.005310455,-0.003804038
1.004323,-0.1701705,-0.1722908,0.001018745,0.001043576,0.001744303,0.006401611,0.004433077,-0.006224245
1.003705,-0.1680176,-0.1708467,0.000411332,0.003167971,0.00316444,0.002393666,0.001385538,-0.002507281
1.003394,-0.1638947,-0.1720037,0.0001089524,0.007262381,0.001984031,0.002490464,0.001872377,0.0005889061
1.001443,-0.162897,-0.1745469,-0.001832905,0.008231457,-0.0005823254,0.004349558,0.002229534,-0.0003827861
1.00151,-0.1650387,-0.1716558,-0.001757823,0.006060761,0.00228596,0.00108424,1.499981e-05,0.001246107
1.004373,-0.1660806,-0.1705404,0.001112842,0.004989247,0.003378893,0.0009038256,0.0003691269,0.002857475
1.006217,-0.1708671,-0.1746913,0.002963514,0.0001723253,-0.0007942051,0.001290707,0.002598389,0.001570478
1.005934,-0.1747323,-0.1765864,0.002686793,-0.003723965,-0.002711222,-0.005711498,0.005446569,-0.002359662
1.004941,-0.173198,-0.1706884,0.001698677,-0.002221394,0.003165146,-0.01108669,0.009366548,-0.004928299
1.0058,-0.1715422,-0.1629836,0.00256226,-0.0005976414,0.01084853,-0.01211782,0.01205099,-0.002591526
1.00578,-0.1701379,-0.162923,0.00254667,0.0007745004,0.01088776,-0.0102936,0.01009633,-0.001035768
1.005097,-0.1687948,-0.1664434,0.001866384,0.002085314,0.007345595,-0.004371066,0.007027463,-0.002149001
1.005944,-0.167873,-0.1715734,0.002714919,0.002974899,0.002193013,0.001826204,0.007044073,-0.002036362
1.005424,-0.167677,-0.178691,0.002194956,0.003138651,-0.004948134,0.002045419,0.006926999,-0.001449101
1.005058,-0.167879,-0.177711,0.001828663,0.00290428,-0.003992323,-0.001456809,0.008263979,-0.001984236
1.004068,-0.1653246,-0.1743918,0.0008368968,0.00542608,-0.000697776,-0.0002752046,0.009661134,-0.002100118
1.001935,-0.1630459,-0.1783198,-0.001298187,0.007671939,-0.004650599,-0.001217789,0.005683617,-0.002300639
1.002732,-0.1647209,-0.1784917,-0.0005050973,0.005963545,-0.004847231,-0.002828736,-0.0001194536,-0.002776816
1.00338,-0.1660237,-0.1761331,0.0001380275,0.004626662,-0.002513112,0.0008447921,-0.004018459,-0.002240638
1.003494,-0.1652446,-0.1750846,0.0002462355,0.005370732,-0.001488539,2.979736e-05,-0.002147304,-0.002062014
1.00546,-0.1659665,-0.1680272,0.002206186,0.00461293,0.005545644,0.0008931292,0.004022726,-0.00137857
1.005991,-0.1672375,-0.1646868,0.002729702,0.00330496,0.008863289,0.002246876,0.007384564,-0.0001532709
1.005332,-0.1669649,-0.1682894,0.00206384,0.003539542,0.005238196,-0.00293164,0.008886897,-0.001085418
1.005547,-0.1683997,-0.1712272,0.002269393,0.002065638,0.002277924,-0.002769181,0.009271203,-0.00323537
1.005664,-0.1711322,-0.1746983,0.002376908,-0.0007069461,-0.001215882,-0.0007240755,0.007870666,-0.004822465
1.005467,-0.1712009,-0.174493,0.002169944,-0.0008165361,-0.001033281,-0.001553328,0.006584115,-0.004054976
1.005217,-0.1703198,-0.1733986,0.001908292,2.289067e-05,3.832157e-05,-0.001729044,0.007822843,-0.001785507
1.003813,-0.1700466,-0.1753097,0.0004929401,0.0002539571,-0.001895475,-0.004206291,0.0106803,0.0008567473
1.002165,-0.1692405,-0.1725264,-0.001168784,0.001017614,0.0008652822,-0.008424722,0.00974723,0.005141269
1.002971,-0.1688581,-0.1681072,-0.000376686,0.001357329,0.005262107,-0.01191461,0.007754407,0.00523347
1.004971,-0.1679499,-0.1647829,0.001609495,0.002222578,0.00856413,-0.01200514,0.007752086,0.004011226
1.005865,-0.1660064,-0.1609409,0.002488544,0.004123118,0.01238374,-0.01311,0.006624136,0.008158145
1.005739,-0.1665461,-0.1668243,0.002346792,0.003540221,0.006477306,-0.01616109,0.005046397,0.006567014
1.005144,-0.1683331,-0.1779683,0.001734679,0.00170979,-0.00469075,-0.01212067,0.003636783,0.0005822751
1.005226,-0.1690476,-0.1774438,0.001799657,0.0009516825,-0.00419099,-0.007554563,0.003216652,-0.001869995
1.006551,-0.1706799,-0.1737454,0.003107132,-0.0007244136,-0.0005180605,-0.009695465,0.003874761,-0.00297441
1.007962,-0.1709393,-0.1738618,0.004499962,-0.001027577,-0.0006601665,-0.00971424,0.004098721,0.001111634
1.006763,-0.1687297,-0.1686613,0.003282118,0.001138349,0.004514402,-0.005776277,0.004235425,0.003420418
1.003463,-0.1677997,-0.1644072,-3.837148e-05,0.00202489,0.008742241,-0.0007120461,0.002341765,0.001971854
1.002315,-0.1687821,-0.1642013,-0.00120627,0.0009993314,0.008921318,0.007768242,-0.002286715,0.005741111
1.002901,-0.1694626,-0.162971,-0.000642441,0.000275921,0.01012413,0.01257439,-0.003910368,0.006894431
1.004088,-0.166821,-0.1665715,0.0005230163,0.002874976,0.006494818,0.008047276,0.002604076,0.0006025057
1.006367,-0.1640529,-0.1726209,0.002779556,0.00560085,0.0004153845,0.002241302,0.009769252,-0.005264688
1.00702,-0.1655133,-0.1733103,0.003409554,0.004098401,-0.0003054605,-0.001923403,0.0099794,-0.001142524
1.005267,-0.1666671,-0.1726507,0.001633244,0.002902701,0.0003213843,-0.004536777,0.01150547,0.004914768
1.003407,-0.1664962,-0.1715222,-0.0002506299,0.003031645,0.001416062,-0.005086883,0.01451453,0.002292999
1.003955,-0.1669272,-0.1647426,0.0002731233,0.002558666,0.008160852,-0.007501768,0.01241118,0.004186534
1.004978,-0.1663678,-0.1610879,0.00127109,0.003076048,0.01177974,-0.008676338,0.01229291,0.006897387
1.004595,-0.1657006,-0.1674254,0.0008634245,0.003701168,0.005404986,-0.007954232,0.01266937,0.004521526
1.005873,-0.1653592,-0.171393,0.002115899,0.004000316,0.001398637,-0.008657287,0.0091855,0.006049048
1.00597,-0.166441,-0.1689323,0.002187551,0.0028761,0.003819018,-0.0055339,0.007367907,0.003291645
1.004919,-0.1700736,-0.167342,0.001110889,-0.0007991973,0.005367574,0.0003657696,0.004519695,-0.000844618
1.005622,-0.1725789,-0.1685617,0.001788056,-0.003347359,0.004104554,0.004225655,0.003473165,-0.0001774297
1.003721,-0.1717674,-0.1707413,-0.000139215,-0.002578583,0.001880182,0.005100603,0.005851184,-0.0008709807
1.001799,-0.1684365,-0.1711337,-0.002087827,0.0007098604,0.001441672,0.001155925,0.00365047,0.0004583339
1.002039,-0.1659238,-0.1698288,-0.001873996,0.003180441,0.002699079,-0.001282699,0.001570955,0.002924189
1.001234,-0.1681661,-0.168966,-0.00270543,0.0008966188,0.003513233,0.0008255252,0.0001261063,0.005129435
1.001553,-0.1706958,-0.1688393,-0.002413022,-0.001674289,0.003590141,0.001060752,-0.001399585,0.006453769
1.003727,-0.1692753,-0.1660656,-0.0002642648,-0.0002943347,0.006313035,-0.001927539,0.0005690605,0.004880186
1.006437,-0.1687569,-0.1626778,0.00242025,0.0001841175,0.009648797,-0.005590225,-0.0001213599,0.0056828
1.007318,-0.1691063,-0.164939,0.003276508,-0.0002045551,0.007334297,-0.005849825,0.0003936619,0.006860477
1.004808,-0.1679049,-0.1677499,0.000742439,0.0009583335,0.004468628,-0.002791564,0.001489553,0.006942746
1.002534,-0.1699705,-0.1667628,-0.001554757,-0.001144938,0.005399343,0.0003475663,-0.00500481,0.006979143
1.002521,-0.173684,-0.1667463,-0.001591334,-0.004895242,0.005358084,0.004258909,-0.01008541,0.00313521
1.00335,-0.1743353,-0.1692153,-0.0007853556,-0.005582306,0.00282966,0.007484418,-0.007644584,-0.001207775
1.004525,-0.1749279,-0.1703266,0.0003677017,-0.006209314,0.001657593,0.007463351,-0.001530908,-0.001380005
1.00619,-0.1751074,-0.1690105,0.002011122,-0.006421593,0.00291145,0.005440529,0.001819711,0.001087801
1.006789,-0.1731108,-0.1682174,0.002589695,-0.004455802,0.003641227,0.003882691,0.0004357304,0.0006642787
1.00671,-0.1721663,-0.1645217,0.002489915,-0.003540002,0.007272559,0.001290789,2.458196e-05,0.0006956554
1.006924,-0.1724542,-0.159464,0.002684117,-0.00385431,0.01226459,-0.0020688,-0.0006088762,0.006256401
1.00489,-0.1722468,-0.1623682,0.0006297688,-0.003670976,0.009293444,-0.003163536,-0.004527614,0.007643866
1.00253,-0.173019,-0.1658194,-0.001749266,-0.00446471,0.005773722,-0.004058246,-0.009402044,0.005738392
1.002603,-0.1743084,-0.1637659,-0.001694951,-0.005773112,0.007756922,-0.001375912,-0.01078455,0.003070443
1.003218,-0.1745943,-0.1661333,-0.00109945,-0.006075278,0.005317569,0.003236061,-0.009035735,-0.002308413
1.004602,-0.1759756,-0.1696744,0.000266942,-0.007469968,0.001702726,-0.0001888856,-0.007082629,0.0008219937
1.005699,-0.1766682,-0.1676261,0.00134551,-0.008173006,0.003675726,-0.003509723,0.0006741611,0.005250302
1.003779,-0.173785,-0.1662918,-0.000591532,-0.005297025,0.004933213,-0.002054395,0.007195066,0.003446588
1.001016,-0.1703311,-0.1651837,-0.003370721,-0.00184693,0.005963209,-0.00379912,-0.003088657,0.003876367
1.001,-0.1688001,-0.1629472,-0.003402818,-0.0003165132,0.008120356,-0.003412423,-0.01441432,0.0008158947
1.002198,-0.1702271,-0.1649304,-0.002220654,-0.001740928,0.006056377,0.001622357,-0.00863677,-0.003565101
1.002961,-0.1716465,-0.1697604,-0.001471807,-0.003154784,0.001144167,0.004357943,-0.002894392,-0.001349492
1.004474,-0.1705284,-0.1735764,2.762475e-05,-0.002028305,-0.002755151,0.003943765,-0.004286084,0.004102979
1.003713,-0.1706821,-0.1739218,-0.0007461983,-0.002170868,-0.003184732,0.002850097,-0.003371814,0.007543079
1.001846,-0.1711653,-0.1731005,-0.002624434,-0.002640188,-0.002448188,0.003215545,-0.008606982,0.005219176
1.002844,-0.1705563,-0.1753563,-0.001637307,-0.002014877,-0.004788726,0.003308588,-0.01380834,0.003660606
1.002349,-0.1709455,-0.1743088,-0.002141556,-0.002385383,-0.003825482,0.00345317,-0.008981579,0.003555149
1.001563,-0.1710595,-0.1700559,-0.002935719,-0.002478285,0.000343847,0.006744019,-0.007868684,9.146573e-06
1.003446,-0.1717677,-0.1704288,-0.001059336,-0.003163277,-0.0001116505,0.007605598,-0.01092807,-0.002865766
1.004075,-0.1735321,-0.1713512,-0.0004362995,-0.004902292,-0.001115294,0.00359564,-0.01235937,-0.004915443
1.004731,-0.1735437,-0.1705809,0.0002151489,-0.004886342,-0.0004249286,0.0007261121,-0.0125528,-0.005191744
1.005489,-0.1717382,-0.1708563,0.0009695147,-0.003051189,-0.0007787626,0.002288297,-0.01128992,-0.001614672
1.004476,-0.170408,-0.1712456,-4.64062e-05,-0.001689248,-0.001244853,0.004020041,-0.0112823,0.002140515
1.005137,-0.1719365,-0.1725872,0.000613762,-0.003184033,-0.002661275,0.0002408334,-0.01055767,0.001641492
1.006824,-0.1743373,-0.1736158,0.002299864,-0.005549189,-0.003762851,-0.003692782,-0.008633292,-0.001619684
1.006781,-0.1736057,-0.1711552,0.002257044,-0.004780141,-0.001373015,-0.005605609,-0.003096055,-0.000831016
1.00524,-0.1716703,-0.1684082,0.0007164246,-0.002805334,0.001305669,-0.007981337,0.002403666,8.940085e-05
1.003098,-0.1715272,-0.1705213,-0.001424655,-0.002620954,-0.0008734672,-0.006432823,-0.001813241,-0.001349873
1.002567,-0.1708907,-0.1736735,-0.001954372,-0.001941517,-0.004089222,-0.005209097,-0.006026814,0.0008300273
1.002812,-0.1684147,-0.1733111,-0.001707532,0.0005789405,-0.00378785,-0.007305625,-0.0049388,0.005321305
1.00302,-0.1672458,-0.1719214,-0.001496859,0.001793815,-0.00245657,-0.007491757,-0.005275307,0.00896682
1.004583,-0.1668379,-0.1701151,6.944886e-05,0.002248745,-0.0007058542,-0.005893363,-0.006201527,0.004885192
1.005078,-0.1664153,-0.1696983,0.0005671256,0.002719207,-0.0003417882,-0.002515095,-0.007187163,-0.001621107
1.004062,-0.1689561,-0.1705992,-0.0004446784,0.0002267593,-0.001292511,0.0001613901,-0.008538124,0.0030713
1.004026,-0.1710762,-0.1702224,-0.0004760706,-0.001844668,-0.0009628872,-0.0009318797,-0.009667576,0.005394051
1.005226,-0.171002,-0.172288,0.0007284919,-0.001721723,-0.003072754,-0.001916575,-0.009808465,-0.0002495393
1.006327,-0.1720422,-0.1752923,0.001835029,-0.002713043,-0.00611859,-0.001075754,-0.009725278,-0.001601343
1.007172,-0.1730516,-0.1754182,0.002685339,-0.00367349,-0.006282934,-0.0008282793,-0.01034346,-0.001843186
1.008491,-0.1732914,-0.1751713,0.004009959,-0.003864334,-0.006071473,-0.001017498,-0.006847176,-0.001960351
1.006906,-0.1730888,-0.1766081,0.002430765,-0.003612493,-0.007540285,-0.0004020351,0.000726568,-0.001602674
1.004409,-0.1742988,-0.1773583,-6.093877e-05,-0.004773172,-0.008318872,0.0003005711,0.004243936,-0.002734563
1.005525,-0.1754219,-0.1714362,0.001059548,-0.005846701,-0.002421516,-0.0005197534,0.001334129,-0.001177803
1.005085,-0.171603,-0.1647122,0.0006239369,-0.001977735,0.004281484,-0.005189319,-0.001313334,0.0003176077
1.003431,-0.168338,-0.1666691,-0.001025672,0.001337599,0.002307156,-0.007229614,-0.001023452,-3.062118e-05
1.00447,-0.1695034,-0.1710403,1.772128e-05,0.0002227442,-0.00207821,-0.001346898,-0.002387642,-0.002027629
1.004928,-0.1713236,-0.1737158,0.0004792411,-0.001546787,-0.004764921,0.001926776,-0.003127421,-0.005728384
1.003786,-0.1715391,-0.176197,-0.0006594306,-0.001711571,-0.007254219,0.002531041,-0.001048775,-0.005281697
1.002459,-0.1710637,-0.1759067,-0.001983594,-0.001185652,-0.006968893,0.003803281,-0.001232807,-0.003837625
1.002024,-0.1725192,-0.1752012,-0.002416196,-0.002590801,-0.006265204,0.000746349,-0.001086996,-0.005292556
1.001415,-0.1713935,-0.1768106,-0.00302243,-0.001414882,-0.007872971,-0.001312862,-0.000942314,-0.004511407
0.9993747,-0.1680171,-0.1789925,-0.00505957,0.002011493,-0.01004985,-0.002297426,-0.00532328,-0.002719356
1.000273,-0.1674136,-0.1810614,-0.00415774,0.002664606,-0.01210994,-0.0009023666,-0.007276419,-0.002198121
1.004295,-0.1652767,-0.1792966,-0.0001329237,0.00485059,-0.01033241,0.003469586,-0.007756605,-0.001783797
1.00626,-0.1636198,-0.1748238,0.001836311,0.006555677,-0.005842681,0.002073701,-0.01036861,-0.0020272
1.005884,-0.1668245,-0.1709884,0.001464767,0.003397834,-0.001986134,0.003156298,-0.009659713,0.0006351911
1.004942,-0.170928,-0.1655557,0.0005274705,-0.000660135,0.003471734,0.0070702,-0.00922169,0.002704222
1.004667,-0.1716873,-0.1676879,0.00025738,-0.001375533,0.001368398,0.007919814,-0.009789592,-0.002015484
1.004083,-0.1702128,-0.1739005,-0.0003210885,0.0001412585,-0.004812085,0.008459878,-0.008827609,-0.002737604
1.002936,-0.1709281,-0.1703532,-0.001462995,-0.0005331381,-0.001229599,0.003941068,-0.007352894,0.0002223816
1.003777,-0.1711424,-0.1705494,-0.0006164011,-0.00070814,-0.001387726,0.002501069,0.0003599883,9.546093e-05
1.00437,-0.1703827,-0.1748648,-1.755268e-05,8.935169e-05,-0.005662569,0.003928725,0.008244548,0.002349086
1.004104,-0.1710084,-0.1748087,-0.0002784007,-0.0005000254,-0.005563313,0.0001516916,0.004696734,0.0005996498
1.00431,-0.1698157,-0.1788149,-6.637194e-05,0.0007275303,-0.009523867,-0.00137901,-0.0009629978,-0.001570994
1.00377,-0.16906,-0.1785496,-0.0005995723,0.001516728,-0.009210329,-0.002048164,-1.855511e-05,0.0009282839
1.003601,-0.1695968,-0.1741349,-0.0007632406,0.001011817,-0.004744689,-0.001788337,-0.0003177925,-0.0005736754
1.003789,-0.1695517,-0.1743955,-0.000568632,0.00108741,-0.004951703,-0.002116366,-0.001934112,0.001710051
1.005907,-0.1707806,-0.1722122,0.001556341,-0.0001125888,-0.002712148,-0.004266783,-3.984446e-05,0.00374394
1.007555,-0.1729881,-0.1717686,0.003210712,-0.002292828,-0.002209793,-0.00257922,-6.927073e-05,0.001049176
1.003946,-0.175177,-0.1740222,-0.0003916828,-0.004455711,-0.004402433,-0.002927163,-0.0008551792,0.003249471
1.001669,-0.1753524,-0.1744064,-0.002662247,-0.004606425,-0.004723423,-0.002207316,-0.001193942,0.002785848
1.002926,-0.1744707,-0.1764953,-0.001398871,-0.003701033,-0.00674709,0.002893526,-0.004870544,0.002231381
1.003051,-0.1739406,-0.175966,-0.00126704,-0.003148022,-0.006150596,0.006071834,-0.008406916,0.004396927
1.002956,-0.1715237,-0.1719306,-0.001356097,-0.0007087587,-0.002045924,0.005566232,-0.01072313,0.002145069
1.004503,-0.1700976,-0.1674044,0.0001972712,0.0007390332,0.002551282,0.001573303,-0.01186764,0.001642834
1.006288,-0.1706035,-0.1656876,0.00198964,0.0002544187,0.004340643,0.001558396,-0.0115285,0.001641644
1.005633,-0.1692327,-0.169977,0.001341466,0.001645846,0.0001248243,0.004570179,-0.008376879,0.0006849321
1.004768,-0.1678834,-0.1726431,0.0004828911,0.003015135,-0.002467021,0.005744774,-0.002647165,0.001134072
1.004125,-0.1705314,-0.1733351,-0.0001531773,0.000386349,-0.003084233,0.004095728,-0.001642456,0.0002426257
1.002116,-0.1730197,-0.173342,-0.002156048,-0.002083475,-0.003015919,-0.002901304,-0.004141089,0.001261621
1.002475,-0.1693779,-0.167541,-0.001790906,0.001575872,0.002860457,-0.006275377,-0.006496829,0.001532241
1.00355,-0.1658447,-0.1655049,-0.0007099279,0.005125831,0.004972052,-0.005089998,-0.0071103,-0.001468487
1.003308,-0.1682758,-0.1720246,-0.0009451746,0.002710619,-0.00147254,-0.002945851,-0.004100524,-0.000890573
1.004438,-0.1722375,-0.1753078,0.0001910964,-0.001236382,-0.004681084,0.002376803,-0.003791902,0.004546628
1.00433,-0.1741626,-0.1733451,8.916987e-05,-0.003147761,-0.002644447,0.006291762,-0.00473118,0.007968384
1.002804,-0.1721614,-0.1731487,-0.001430159,-0.001133836,-0.002374675,0.008654907,-0.002686164,0.003661638
1.00275,-0.1695835,-0.1740514,-0.001476931,0.001455903,-0.00320459,0.007025348,-0.00242033,-0.002178845
1.002726,-0.170985,-0.1734801,-0.001494291,6.544387e-05,-0.002561142,0.003150695,-0.001821461,-0.005932884
1.002747,-0.1713737,-0.1738501,-0.001466792,-0.0003129797,-0.002859596,0.001933033,0.002379765,-0.01284264
1.002923,-0.1702335,-0.1759448,-0.001284014,0.0008367475,-0.004883361,-0.00524377,0.008606905,-0.01653828
1.002607,-0.1711151,-0.1787724,-0.001592609,-3.610945e-05,-0.007640605,-0.0159555,0.01853363,-0.01629926
1.003048,-0.1709224,-0.1808403,-0.001144415,0.0001646503,-0.009638563,-0.02223919,0.02440634,-0.02126808
1.003883,-0.1703506,-0.180147,-0.0003012602,0.0007437211,-0.008875418,-0.02406146,0.01688904,-0.02055713
1.005203,-0.1698939,-0.1771592,0.001026708,0.001206961,-0.005817704,-0.0162802,0.009810485,-0.01011629
1.006267,-0.1672171,-0.1728433,0.002098864,0.003889591,-0.001431476,-8.884515e-05,0.009505535,-0.005281228
1.006066,-0.1659956,-0.1699553,0.001907021,0.005116067,0.001526971,0.008725887,0.004768715,-0.004422554
1.006231,-0.1673519,-0.1696016,0.00208013,0.003763835,0.001951333,0.005162967,0.0001565255,-0.00136544
1.005605,-0.1694638,-0.1676513,0.001462502,0.001654761,0.003972027,0.005532516,-0.00365976,0.001732178
1.005049,-0.170838,-0.1667937,0.0009147043,0.0002822351,0.004899507,0.01144099,-0.01052455,0.002710494
1.00596,-0.167391,-0.1721933,0.001833103,0.003729594,-0.000431118,0.01250969,-0.009997877,-8.828484e-05
1.005504,-0.1627438,-0.1776484,0.001383939,0.008375969,-0.005818269,0.01181992,-0.006750759,-0.001964147
1.00532,-0.1634419,-0.1788667,0.001207251,0.007675594,-0.006969763,0.009084825,-0.005751609,-0.003187949
1.005516,-0.1652592,-0.1802179,0.001409879,0.00585429,-0.008254944,0.006369549,-0.0009802058,-0.003405417
1.003553,-0.1660938,-0.1794732,-0.0005479269,0.005013713,-0.007444761,0.006649612,-0.001946629,-0.0007996755
1.002268,-0.1682841,-0.174196,-0.001827641,0.002815384,-0.00210259,0.00398781,-0.005988061,-0.0001585201
1.002683,-0.1660798,-0.1714114,-0.001407846,0.005009561,0.0007468337,0.002872449,-0.005156819,0.002012485
1.00301,-0.1622175,-0.1718075,-0.001076208,0.00885956,0.0004151927,0.004443661,-0.00737272,0.00243966
1.003085,-0.1658703,-0.1745236,-0.000997287,0.005192199,-0.002237089,0.004493062,-0.007584446,-0.0008522665
1.004416,-0.170817,-0.1795375,0.0003380132,0.0002285993,-0.007187637,0.006153743,-0.005828786,-0.0006362757
1.006123,-0.1726209,-0.1759052,0.002048312,-0.001594681,-0.00349245,0.004311765,-0.007070731,-0.002521943
1.004593,-0.1719411,-0.1664138,0.0005219621,-0.0009362342,0.006061268,0.0006878573,-0.005295834,-0.003134477
1.002539,-0.1687791,-0.1632677,-0.001528768,0.002202525,0.009269072,0.002741846,-0.005554457,0.0009922405
1.003115,-0.1688878,-0.1670381,-0.000949681,0.002068887,0.00555931,0.003315909,-0.00577966,0.001372657
1.004575,-0.16828,-0.1739976,0.000512962,0.002650158,-0.001341048,0.001696618,0.0001352425,0.001201256
1.006081,-0.1658206,-0.1733915,0.00202096,0.005081477,-0.0006774179,5.629253e-05,0.004066239,0.001687471
1.005474,-0.1688061,-0.1705954,0.001416676,0.002066409,0.002174348,-0.004240517,0.003270281,0.001270538
1.003264,-0.1713042,-0.1748984,-0.0007911243,-0.000462829,-0.002074688,-0.006326415,0.00100594,0.002754284
1.002515,-0.1707905,-0.1739018,-0.001538639,1.846864e-05,-0.001025917,-0.006714263,0.0003559356,0.002632088
1.002789,-0.170889,-0.1715791,-0.001263425,-0.0001137044,0.001347221,-0.005311766,0.0001363507,-0.002090761
1.003841,-0.1705245,-0.1732687,-0.0002101959,0.0002161864,-0.0002936117,-0.0006803687,0.001458494,-0.006452181
1.004667,-0.1698804,-0.1734627,0.0006168645,0.0008247665,-0.0004407043,-0.0007739407,0.007058872,-0.003865788
1.004956,-0.1682587,-0.1751579,0.0009072331,0.002410351,-0.002090733,-0.0007807468,0.008387869,0.0004532251
1.005824,-0.1679308,-0.1727938,0.001775719,0.002701434,0.0003167674,0.003476478,0.003077697,0.000192505
1.005518,-0.1704779,-0.1691183,0.001470195,0.0001168806,0.004034092,0.005408362,-0.002933678,0.0002309664
1.004408,-0.1730974,-0.171357,0.0003610202,-0.002540496,0.001835419,0.009780294,-0.004574174,-3.928181e-05
1.004057,-0.1734342,-0.1727034,1.021439e-05,-0.002915596,0.000527177,0.01272604,-0.001814622,-0.0007850543
1.004036,-0.1688444,-0.175002,-1.15982e-05,0.001635885,-0.001735143,0.009568255,-0.0003168947,0.00193427
1.004306,-0.164295,-0.1790194,0.000258639,0.006146969,-0.005718044,0.008421353,0.001649851,0.003058222
1.004692,-0.165721,-0.1771403,0.0006433383,0.00468263,-0.003806021,0.003936815,0.001502353,0.002697608
1.006739,-0.1682078,-0.1704083,0.002689402,0.002157231,0.002957474,-0.003461515,-0.001774978,0.004696387
1.008934,-0.169146,-0.1652347,0.00488348,0.001180282,0.008161169,-0.006243709,-0.003026948,0.005856002
1.006779,-0.1712735,-0.1648748,0.002726462,-0.0009861203,0.008549546,-0.009314983,-0.005524352,0.004652801
1.00421,-0.1714477,-0.1684475,0.0001546094,-0.001199373,0.005003379,-0.01048396,-0.004707527,0.00176233
1.005181,-0.1690825,-0.1740948,0.001122528,0.001126771,-0.0006195439,-0.007513689,-0.0002223322,0.001688133
1.005593,-0.169042,-0.1778004,0.001530866,0.001128483,-0.004303041,-0.005895655,0.00110945,0.004300613
1.00422,-0.1679519,-0.1758682,0.0001533496,0.002179902,-0.002350711,-0.005351364,0.001699366,0.002501864
1.002406,-0.1658685,-0.1735359,-0.001665057,0.004224874,-5.837931e-08,-0.001119216,0.001220159,0.0001242096
1.001322,-0.1677096,-0.1743734,-0.002754815,0.002345508,-0.0008208645,0.005420294,0.00296694,0.0009346934
1.002545,-0.1686219,-0.1730009,-0.001537888,0.001394967,0.0005666784,0.005745711,0.006332204,0.0008366172
1.003065,-0.167623,-0.1724156,-0.001023697,0.002355735,0.00116564,0.003278267,0.005409586,0.001358728
1.002715,-0.1672043,-0.1762561,-0.001380413,0.002736393,-0.00266262,0.003235946,0.004578097,0.002383753
1.003896,-0.1663898,-0.1768982,-0.000205386,0.003512847,-0.003293727,0.001755212,0.00574804,0.0009498672
1.004308,-0.1669504,-0.1750706,0.0001997083,0.002914211,-0.00145634,0.001615603,0.006199646,0.0009499672
1.004052,-0.1686247,-0.1743824,-6.229758e-05,0.001201746,-0.0007593311,-0.0008940395,0.002780781,0.002666481
1.003274,-0.1698762,-0.1721302,-0.0008467375,-8.790913e-05,0.00150094,-0.00620998,-0.0001853097,0.002789307
1.002514,-0.16934,-0.1704204,-0.001612149,0.0004100825,0.003217926,-0.004155187,0.001956854,0.003228879
1.003809,-0.1672342,-0.1713583,-0.0003231195,0.00247781,0.002286253,-0.0002134687,0.003191411,0.003207546
1.004127,-0.1665176,-0.1722367,-1.154776e-05,0.003156405,0.00141316,0.002885463,0.005268109,0.002905059
1.00237,-0.1674055,-0.1687275,-0.001773643,0.002230552,0.004926588,0.006558015,0.007394998,0.003111581
1.000954,-0.1685271,-0.1650044,-0.003195094,0.001071127,0.008652798,0.00660057,0.005860068,-0.0003478263
1.002213,-0.1676392,-0.1667828,-0.001940943,0.001921252,0.006876015,0.00824058,0.005707605,-0.003435069
1.004504,-0.1649713,-0.1678456,0.0003464357,0.004551284,0.005813216,0.007694777,0.005760549,-0.0005810304
1.004007,-0.1633951,-0.1681986,-0.0001549271,0.006089783,0.005458362,0.001010974,0.004832636,0.002331518
1.003155,-0.1636775,-0.1685137,-0.001010518,0.005769378,0.005139291,-0.004281681,0.002256967,0.001591934
1.002876,-0.1663155,-0.1626604,-0.001292158,0.003093042,0.01098638,-0.006255572,-0.001114087,0.0004898189
1.003699,-0.1708603,-0.1602953,-0.0004708724,-0.001490467,0.01334291,-0.001554296,8.448639e-06,-0.001284513
1.00625,-0.1750199,-0.1689523,0.002077679,-0.0056891,0.004674512,0.002811064,0.002637929,-0.002445945
1.005649,-0.1746524,-0.1744203,0.001475954,-0.005360623,-0.0008079106,0.0005473245,0.007928444,-0.0007369761
1.003518,-0.1731077,-0.1691645,-0.0006562727,-0.003854633,0.004430607,0.002618852,0.01512503,-0.0004126361
1.003729,-0.1758916,-0.1643188,-0.0004456319,-0.006676558,0.009256169,0.005321574,0.01139295,0.0003751858
1.00349,-0.1753216,-0.1652387,-0.0006855093,-0.006143549,0.008313343,0.004727827,0.003214134,0.001777876
1.001699,-0.1727987,-0.165632,-0.002476106,-0.003656345,0.007893991,0.01011645,0.002895608,-1.266816e-05
1.001701,-0.1733578,-0.1649234,-0.002473645,-0.004249575,0.008573463,0.01519073,0.001662708,-0.0005181436
1.00342,-0.1715901,-0.1656463,-0.0007539265,-0.002514158,0.007818143,0.01046891,8.261423e-05,-0.001860869
1.003039,-0.1717598,-0.1665432,-0.001133906,-0.00271424,0.006885517,0.003363969,0.001008686,-0.003661045
1.003244,-0.1721376,-0.1685655,-0.000926682,-0.003120412,0.004824062,0.0014067,-0.00247297,-0.001764709
1.004832,-0.1697799,-0.1704706,0.0006642272,-0.0007890474,0.002876591,0.002568144,-0.001820143,-0.001598135
1.00428,-0.1711064,-0.1702143,0.0001152347,-0.002139845,0.003087168,0.004388399,0.003760024,-0.001729554
1.004795,-0.1711497,-0.1702711,0.0006328504,-0.002205224,0.00298178,0.00358527,0.006356321,0.0003397114
1.006658,-0.1701023,-0.1685954,0.002500256,-0.001177868,0.004606007,0.001916037,0.007166639,0.002442628
1.008174,-0.1702573,-0.1654706,0.004019745,-0.001350718,0.007676785,0.002307945,0.004118217,0.003991707
1.010177,-0.1680048,-0.1664347,0.006026956,0.0008858577,0.006655907,0.0001071371,0.001441493,0.004591057
1.009322,-0.1676894,-0.1678087,0.005175813,0.001187406,0.005222553,6.851075e-06,-0.0004786322,0.0049859
1.007024,-0.1687014,-0.1680751,0.002881285,0.0001632716,0.004894193,0.003054184,-0.001561448,0.001969969
1.006528,-0.1696688,-0.1709461,0.002387342,-0.000814475,0.001958717,0.001543391,0.003360401,-0.001541282
1.00416,-0.1716682,-0.171617,2.157298e-05,-0.002822587,0.00122107,-0.001687257,0.005709768,-0.00156487
1.001404,-0.17169,-0.1697893,-0.002733804,-0.002851623,0.002980009,-0.005064558,0.007021318,-0.002181408
1.001586,-0.1713865,-0.1692783,-0.002550559,-0.002553557,0.003420308,-0.00776544,0.009914979,-0.0012326
1.002128,-0.1719846,-0.1676858,-0.002008914,-0.003155524,0.004940552,-0.008550024,0.007856186,-0.0006075842
1.003023,-0.1730599,-0.1674837,-0.001114366,-0.004232872,0.005068778,-0.0103888,0.005972226,-0.001725888
1.002977,-0.1741885,-0.1689637,-0.001160925,-0.005361729,0.003513393,-0.01129671,0.004481837,-0.0001379143
1.001516,-0.1735525,-0.168608,-0.002622144,-0.004724084,0.003792314,-0.007270696,0.0008891483,-0.0006237289
1.002308,-0.1735044,-0.1695759,-0.001830703,-0.004672338,0.002746336,-8.160246e-05,-0.002171991,-0.002405023
1.003385,-0.1748121,-0.1701461,-0.0007549068,-0.005974229,0.002096912,0.001856095,-0.00127885,-0.004080201
1.004705,-0.1747842,-0.1684723,0.0005647916,-0.005938296,0.003690587,-0.0001754309,0.003599442,-0.008226568
1.007079,-0.1732533,-0.1664073,0.002938532,-0.004397058,0.005674544,0.001694199,0.005378958,-0.009436891
1.007249,-0.1718205,-0.1656566,0.003108264,-0.002951513,0.006343424,0.00320267,0.004834415,-0.00881676
1.006977,-0.172843,-0.1714336,0.002835379,-0.003958971,0.0004838167,0.001690983,0.00530003,-0.007349238
1.007276,-0.1735196,-0.172994,0.003133565,-0.004618036,-0.001159901,-0.001113577,0.008801853,-0.004402309
1.005788,-0.1689654,-0.1657748,0.001644,-4.406256e-05,0.005975609,-0.005282062,0.01434329,-0.003941863
1.002614,-0.1650116,-0.1661903,-0.001531358,0.003931804,0.005476063,-0.00738605,0.01362278,0.0006588088
1.001841,-0.1665424,-0.1677043,-0.002306321,0.002424956,0.00387768,-0.008575864,0.0087567,0.007724047
1.003894,-0.1686904,-0.165847,-0.0002556673,0.0003024078,0.005650311,-0.01250915,0.004898391,0.005100025
1.004445,-0.1724367,-0.1694542,0.0002933919,-0.003416953,0.001958169,-0.01368996,0.005535025,0.0004879948
1.005707,-0.1777131,-0.1709216,0.001551941,-0.008665258,0.0004056393,-0.009205667,0.01114454,0.001599621
1.006318,-0.1744589,-0.1715126,0.002160332,-0.005381567,-0.0002705842,-0.004914942,0.01291787,0.00120642
1.004754,-0.1674679,-0.1716189,0.0005925273,0.001640486,-0.0004618865,-0.001116466,0.01265694,0.0008099745
1.005483,-0.1679744,-0.1672106,0.001318144,0.001166333,0.003861745,0.000305643,0.01218639,0.001875682
1.003688,-0.1689197,-0.1660827,-0.0004802162,0.0002546516,0.004905577,-0.001837278,0.006873169,0.000781828
0.9998899,-0.1697067,-0.1666051,-0.004282962,-0.0004977765,0.004299475,0.0008509663,0.001622641,0.001298974
1.000092,-0.1723495,-0.1668049,-0.004085427,-0.003105178,0.004016517,0.00513381,2.662215e-06,0.001739524
1.001775,-0.1693625,-0.1663242,-0.002406265,-8.203724e-05,0.00441446,0.007538061,0.0008313526,0.001527878
1.003432,-0.165881,-0.1635004,-0.0007541303,0.003436224,0.007155977,0.00879733,-6.542887e-05,0.002978141
1.003014,-0.1633652,-0.1621687,-0.001175553,0.005989174,0.008405547,0.003580876,-0.003098987,0.001627158
1.002523,-0.1615566,-0.1630392,-0.001670372,0.007835019,0.007453159,0.00103599,-0.001962048,0.000691404
1.005032,-0.1636452,-0.1683216,0.0008355154,0.005783194,0.002088677,0.003072902,0.001794895,0.001588029
1.005998,-0.1624531,-0.1720608,0.001799511,0.007011275,-0.001732473,8.956488e-05,0.004200127,0.001578934
1.00556,-0.163868,-0.1678264,0.001359057,0.005631233,0.002419973,-0.006885682,0.004188154,0.003707942
1.005477,-0.1678512,-0.1636699,0.001274122,0.001681386,0.006494788,-0.01459494,0.003134251,0.005921183
1.005478,-0.1667047,-0.1639906,0.001272414,0.002859498,0.006092684,-0.01272829,0.004064828,0.005815188
1.00576,-0.1693997,-0.165391,0.001552718,0.0001944101,0.004611147,-0.005871421,0.00469267,0.004413921
1.005374,-0.172158,-0.1643126,0.00116497,-0.002535838,0.00560843,-0.005849716,0.004417508,0.001492125
1.00524,-0.1718276,-0.1644101,0.001028963,-0.002178955,0.0054299,-0.004580878,0.003041263,-0.0009797907
1.003886,-0.1742567,-0.1666624,-0.0003265961,-0.004583218,0.00309655,-0.003076605,0.0004543603,0.001969065
1.002027,-0.1755654,-0.1682034,-0.002188654,-0.0058683,0.001474527,-0.0004028617,0.00106104,0.006708756
1.002753,-0.174656,-0.1689215,-0.001464247,-0.004936265,0.0006754831,0.004123306,0.002773106,0.004928821
1.003104,-0.1719114,-0.1614813,-0.001115911,-0.002169806,0.008034937,0.0002865935,0.002825823,0.003908122
1.002538,-0.1701363,-0.1545493,-0.001683394,-0.000373332,0.0148864,-0.00262627,0.002512856,0.005022663
1.003002,-0.1706188,-0.1613257,-0.001220924,-0.0008351235,0.008029285,-0.001763926,0.0003145845,-1.357151e-05
1.004459,-0.1704257,-0.1666858,0.0002340478,-0.0006216702,0.002587963,-0.003277965,-0.00207435,-0.003878463
1.007931,-0.1712426,-0.1633943,0.00370443,-0.001418678,0.005797828,-0.001499285,-0.002428421,-0.002452669
1.010944,-0.173303,-0.1634883,0.006716738,-0.003459711,0.005621615,0.0006337075,-0.002100466,0.0001895518
1.009978,-0.1741074,-0.1675736,0.005749767,-0.004244939,0.001453652,0.002367256,-0.002319044,0.002002606
1.008577,-0.1714946,-0.1676514,0.004346301,-0.001613187,0.001292764,0.004103157,-0.003902247,0.0004054695
1.008424,-0.1699487,-0.1635465,0.004191586,-4.846465e-05,0.005314282,0.001689427,-0.004721195,-0.003338665
1.006455,-0.1712744,-0.1597879,0.002219323,-0.001355312,0.008989359,0.001705035,-0.001292553,-0.006518482
1.006142,-0.170718,-0.160356,0.00190193,-0.0007801365,0.008337295,0.002898732,0.006645064,-0.006258887
1.006547,-0.1707715,-0.1618807,0.00230221,-0.0008149664,0.006728226,-0.0009728199,0.0108631,-0.005067953
1.003069,-0.1710095,-0.1581745,-0.001181688,-0.001034393,0.0103494,-0.00689679,0.002107376,-0.004987917
1.002341,-0.1705828,-0.1575575,-0.00191688,-0.0005891364,0.01088067,-0.01099173,-0.00827565,-0.002689182
1.005046,-0.1710923,-0.1608505,0.0007805669,-0.001080084,0.00750074,-0.005624847,-0.006651846,-0.002469885
1.005914,-0.1713633,-0.1602585,0.001640489,-0.00133269,0.008004826,0.001662287,-0.002713403,-0.004083939
1.005792,-0.1744514,-0.1623818,0.001509916,-0.004402364,0.005792234,-0.002366893,-0.0002629875,-0.005149772
1.005209,-0.1772276,-0.1669812,0.0009171819,-0.007160019,0.001102312,-0.004297883,0.005992645,-0.006106433
1.005272,-0.1742898,-0.1682584,0.0009694718,-0.00420342,-0.0002664866,-0.001429973,0.004931748,-0.00338332
1.004013,-0.1697739,-0.1680227,-0.0003001997,0.0003316726,-0.0001232455,-0.002223603,-0.0068488,-0.004211965
1.001857,-0.1688472,-0.1681326,-0.002467771,0.001278127,-0.0003260281,0.00366314,-0.01904834,-0.005320439
1.002846,-0.1708143,-0.1693301,-0.00148996,-0.0006688093,-0.001616616,0.01175803,-0.02408844,-0.0001369606
1.003493,-0.1718542,-0.1704306,-0.0008548986,-0.001688282,-0.002810129,0.01032965,-0.01561251,-0.001111677
1.004375,-0.1715743,-0.1712475,1.5118e-05,-0.001387712,-0.003719497,0.006021281,-0.005746066,-0.002344765
1.007189,-0.1705931,-0.1706993,0.002816481,-0.000385453,-0.003262811,0.002836949,-0.005403201,-0.0005160166
1.007231,-0.1705051,-0.1692192,0.002845816,-0.0002762676,-0.001873121,-0.0003898212,-0.006498118,-0.003258466
1.005667,-0.1709231,-0.167778,0.001269162,-0.0006728529,-0.0005208259,-0.003347156,-0.009389546,-0.001798068
1.005378,-0.168812,-0.1667003,0.0009679993,0.00145977,0.0004697395,-0.004555295,-0.01116941,-0.0002496126
1.005555,-0.1676321,-0.1710796,0.001131774,0.002661266,-0.003994867,-0.004750177,-0.007702892,-0.00147549
1.005618,-0.1689828,-0.1755263,0.001181859,0.001332069,-0.008524807,-0.005988959,-0.004075863,-0.002137689
1.005524,-0.1698543,-0.1734261,0.001073349,0.0004817693,-0.006505344,-0.003455981,-0.001734595,-0.00612931
1.005367,-0.1697068,-0.1717547,0.000902856,0.0006501152,-0.00491194,0.001385485,-0.004854684,-0.004663693
1.004329,-0.170016,-0.1716257,-0.0001496519,0.0003613281,-0.00485764,0.002037538,-0.007406588,-0.0008850055
1.002097,-0.1711629,-0.1704109,-0.002396031,-0.0007655748,-0.003714294,0.001193597,-0.002416763,-0.001140033
1.000908,-0.1695138,-0.1706355,-0.003598969,0.0009030135,-0.004006779,0.0008573522,0.0004916911,-2.906543e-06
1.002289,-0.1659027,-0.1712553,-0.002232282,0.004533124,-0.004690696,4.379378e-05,-0.0009199263,-0.0008264314
1.00336,-0.1638269,-0.1703947,-0.001175669,0.006627163,-0.003890422,-0.001428304,-0.003754954,-0.0007766347
1.002628,-0.1637123,-0.1690082,-0.001921161,0.006759079,-0.002560407,-0.00259331,-0.009541716,7.672059e-05
1.002624,-0.1669051,-0.1649576,-0.001938475,0.003582321,0.001437666,-0.002401656,-0.01490675,-0.001128128
1.003525,-0.1717452,-0.161997,-0.001049933,-0.001243177,0.00434962,-0.003116502,-0.01253223,0.0006284555
1.00534,-0.1748615,-0.1685806,0.0007528006,-0.00434622,-0.002279088,-0.003393939,-0.005408882,0.002244023
1.007755,-0.1737168,-0.1751017,0.003156451,-0.003189572,-0.00884185,-0.00227939,-0.001160996,0.001888625
1.006994,-0.1708069,-0.1718851,0.002384878,-0.0002687634,-0.005663393,-0.002169381,0.0008854603,-0.0009080465
1.004437,-0.1708512,-0.169105,-0.0001828476,-0.0003030972,-0.002917705,-0.001060067,-0.003101446,-0.002210038
1.003807,-0.1709586,-0.1697611,-0.0008233977,-0.0004012724,-0.003604429,0.000408644,-0.01022291,0.002692078
1.003182,-0.171536,-0.1680096,-0.001457973,-0.0009703671,-0.001879801,0.0007425422,-0.01541952,0.004860695
1.003602,-0.1730782,-0.1667795,-0.001047687,-0.00250481,-0.0006729171,0.001131733,-0.02006598,0.00441302
1.008188,-0.1728457,-0.1667572,0.003529563,-0.002265166,-0.0006702165,0.001298995,-0.009306339,0.002895977
1.012012,-0.1732723,-0.1666454,0.007345275,-0.00268508,-0.0005746645,0.0033471,0.01114251,-0.00074547
1.008038,-0.1713073,-0.1689388,0.003362523,-0.0007137415,-0.002881015,0.004379294,0.01393203,0.00092774
1.002313,-0.1681045,-0.1708866,-0.002371471,0.002495201,-0.004838636,-0.001188944,-0.0006829311,0.001512835
1.004204,-0.1696444,-0.1706708,-0.0004892015,0.0009611313,-0.004629547,-0.005533717,-0.01232137,-0.002139125
1.006143,-0.1714427,-0.1691252,0.001441281,-0.0008315788,-0.003087585,0.0007500658,-0.005095091,-0.002904381
1.004817,-0.1733035,-0.1672367,0.0001059483,-0.0026872,-0.0011995,0.00708938,0.00375809,-0.002831924
1.006067,-0.1758943,-0.1680613,0.001347646,-0.005272985,-0.002021561,0.002213774,0.001478033,-0.00211409
1.005407,-0.1739745,-0.1688254,0.0006783576,-0.003348174,-0.002780204,-0.00115549,0.006053421,-0.001296663
1.003987,-0.1712004,-0.1694266,-0.0007505514,-0.0005689143,-0.003373214,0.001772114,0.006417014,-0.0002247684
1.00364,-0.1724344,-0.1717748,-0.001106078,-0.001797518,-0.005710454,0.001552634,-0.002902728,0.00257282
1.001772,-0.1741529,-0.1719372,-0.002983329,-0.003510265,-0.005859201,0.004695493,-0.003573997,0.003726022
1.002243,-0.1732863,-0.1717659,-0.002521523,-0.002637544,-0.005671432,0.008885235,-0.001443196,0.002655336
1.002559,-0.17062,-0.1718181,-0.00221396,3.523051e-05,-0.005704355,0.002981583,-0.0001472518,-0.0007847519
1.003254,-0.1686895,-0.1701098,-0.001527115,0.001972817,-0.003973938,-0.002537092,-0.00297085,-0.002488078
1.005054,-0.1692775,-0.1687111,0.0002653131,0.001392309,-0.002550186,2.630765e-05,-0.01062225,-7.903274e-05
1.002875,-0.1700645,-0.1642602,-0.001920391,0.0006130102,0.001928336,0.004244689,-0.01385961,0.001677641
1.002432,-0.1700941,-0.1608134,-0.00236987,0.0005913693,0.005405248,0.009462184,-0.01772138,0.004029672
1.004837,-0.1714219,-0.1696766,2.914257e-05,-0.0007284697,-0.00342579,0.01376429,-0.0112721,0.005881579
1.007705,-0.1729164,-0.1784943,0.002892137,-0.002214764,-0.01220944,0.00930395,0.003633668,0.004336371
1.010188,-0.1734203,-0.1719717,0.005370616,-0.002710419,-0.005650829,0.001676748,0.00350464,0.001861681
1.005465,-0.1722035,-0.1652791,0.0006426119,-0.00148511,0.001079818,-0.003740935,0.002027361,0.001549051
1.00092,-0.1699582,-0.1676609,-0.003905862,0.0007689882,-0.001261975,-0.01132369,0.004228313,0.003949662
1.00468,-0.1707893,-0.170104,-0.0001501325,-5.307894e-05,-0.003663289,-0.0110464,0.002232417,0.003432926
1.006991,-0.1724133,-0.1747659,0.002157183,-0.00166782,-0.008281676,-0.006423487,0.007957092,0.002397175
1.004669,-0.17181,-0.1778817,-0.0001681009,-0.001055142,-0.01135224,-0.009477442,0.01339734,0.00473305
1.003494,-0.1714998,-0.1727023,-0.001345658,-0.0007352315,-0.00612564,-0.006383584,0.00968709,0.003617639
1.003129,-0.1710024,-0.1691909,-0.001713983,-0.0002279018,-0.002564956,-0.00253361,0.00734225,0.001520861
1.003982,-0.172212,-0.1693545,-0.0008631719,-0.001427255,-0.00267724,-0.006049852,0.007782595,0.001511828
1.006553,-0.1746907,-0.1694359,0.001705722,-0.00389561,-0.002705302,-0.002540643,0.006194577,-8.977236e-05
1.005437,-0.1733737,-0.171194,0.000587822,-0.002567895,-0.004408388,-0.0005068629,0.004216792,-0.001966056
1.002954,-0.1720284,-0.1730542,-0.001896586,-0.001211458,-0.006211764,-0.002912789,0.005121842,-0.003122001
1.002903,-0.1715998,-0.172484,-0.001948351,-0.0007712288,-0.005583111,0.001221675,0.00502334,-0.002234589
1.002203,-0.170168,-0.1667997,-0.002650215,0.0006725921,0.0001612987,0.003911286,0.001174324,-0.001481745
1.002032,-0.1707444,-0.1637548,-0.002821662,0.0001085154,0.00326781,0.00343817,-0.00414276,-0.000871715
1.001743,-0.1702477,-0.1696153,-0.003110223,0.0006179657,-0.002529839,0.004079624,-0.006839003,0.001183328
1.002931,-0.1687808,-0.1724023,-0.001921259,0.002097809,-0.005253059,0.004032446,-0.0009935364,-0.001750238
1.007119,-0.1695921,-0.1703746,0.002268345,0.001299473,-0.003160707,0.004225182,0.006358846,-0.002906375
1.006763,-0.1692482,-0.1699414,0.001914553,0.001656414,-0.002662063,0.003149465,0.009532244,0.002034598
1.002942,-0.1674396,-0.1674899,-0.001904595,0.003477848,-0.0001443384,-0.001549803,0.01339682,0.006095196
1.001104,-0.1662627,-0.1641358,-0.003739224,0.004667328,0.003276511,-0.00860627,0.008027731,0.009192412
1.003469,-0.166411,-0.1647711,-0.001370931,0.004531063,0.00270828,-0.01136545,-0.002797735,0.004965672
1.00729,-0.1677725,-0.1661842,0.002455345,0.003180912,0.001362161,-0.00752796,0.0009030772,-0.001388317
1.006205,-0.1700812,-0.1650632,0.001374698,0.0008825512,0.002549791,-0.005187463,0.007221291,-0.001029377
1.008207,-0.1731911,-0.1659005,0.003382035,-0.002217894,0.001778463,-0.002989695,0.008289351,-0.0005131396
1.012455,-0.1729056,-0.1675349,0.007635701,-0.001923866,0.0002092693,0.003271511,0.01228818,-6.595368e-05
1.007143,-0.1706411,-0.1659255,0.002328739,0.0003484727,0.001882873,0.007148387,0.008315446,-0.003059621
1.002091,-0.170022,-0.1646261,-0.002717388,0.0009746058,0.003245175,0.00784207,0.001767555,-0.0073159
1.004644,-0.1676574,-0.1627847,-0.0001602489,0.003345554,0.005148074,0.008520857,0.003583691,-0.005035156
1.007268,-0.1680068,-0.1610968,0.002468629,0.003001774,0.006895785,0.006990083,0.008420651,-0.001246794
1.007296,-0.1707212,-0.1600427,0.002500846,0.0002920857,0.008007676,0.002157385,0.02024307,0.001741198
1.006446,-0.1681342,-0.1556492,0.00165493,0.00288287,0.01245644,-0.0032312,0.02548374,0.000646488
1.006113,-0.1671136,-0.1551179,0.001325014,0.003906252,0.01304013,-0.007759114,0.01256566,-0.004118253
1.005431,-0.1678882,-0.1603008,0.000645561,0.003133377,0.007906035,-0.01090495,0.002577652,-0.005420206
1.00577,-0.1659503,-0.164136,0.0009871769,0.005071933,0.004115866,-0.01000614,0.002482909,-0.003693728
1.008601,-0.1666642,-0.166983,0.003819561,0.004357257,0.001309827,-0.00919695,0.00102548,0.000569238
1.009681,-0.1670564,-0.1696025,0.004901173,0.00396284,-0.001272771,-0.01074812,-0.001248093,0.003786136
1.006368,-0.1665805,-0.1707111,0.001588199,0.004435094,-0.002348276,-0.008922046,0.001010219,0.002398096
1.00286,-0.1687567,-0.1658546,-0.001920258,0.002253483,0.002537705,-0.00695359,0.0001290595,0.001558876
