accx,accy,accz,body_accx,body_accy,body_accz,body_gyrox,body_gyroy,body_gyroz
1.036088,-0.009908498,-0.04013246,0.008393816,-0.02599156,-0.04425441,-0.0486873,0.3228732,-0.04842897
1.024671,-0.002616402,0.01878092,-0.00298558,-0.01850487,0.01431821,-0.03696463,0.3208346,-0.06282594
1.015224,-0.002183426,0.03252573,-0.01240232,-0.0178709,0.02773716,-0.01417563,0.2452999,-0.0734839
1.01649,0.002975074,0.01183931,-0.01111089,-0.01250507,0.006739004,0.008550911,0.1420189,-0.0731429
1.023659,0.005793474,0.00256845,-0.003920583,-0.009473256,-0.002830378,0.03544375,0.1285661,-0.07488061
1.039857,-0.0076866,-0.01437415,0.01229396,-0.02273418,-0.02005855,0.08042157,0.1112455,-0.07010356
1.051881,-0.01814631,-0.03681214,0.02433143,-0.03296911,-0.04276865,0.1133793,0.1158954,-0.07144562
1.045729,-0.01321514,-0.0447435,0.01818818,-0.02780722,-0.05095733,0.09827371,0.1687486,-0.07680372
1.039565,-0.00758802,-0.04556487,0.01202684,-0.02194305,-0.05201931,0.04971026,0.1649744,-0.07867832
1.033513,-0.006265487,-0.03831081,0.005973014,-0.02037693,-0.04498715,-0.00981358,0.1590976,-0.08339954
1.017843,0.002556282,-0.03730001,-0.009704741,-0.01130511,-0.0441778,-0.06417989,0.1538892,-0.07373357
1.004693,0.01177271,-0.03271783,-0.02286773,-0.001832562,-0.03977523,-0.07712097,0.119979,-0.05402328
1.000727,0.009802849,-0.02084638,-0.02685081,-0.003540953,-0.02806057,-0.1050375,0.05763206,-0.03096868
1.007521,0.009044149,-0.03535807,-0.02007492,-0.004033746,-0.04270556,-0.1702147,-0.01073513,-0.01444108
1.017902,0.007909878,-0.0462522,-0.009714852,-0.00489853,-0.05370887,-0.1811327,0.0058284,-0.01298789
1.021228,-0.006162101,-0.03596115,-0.006408198,-0.01869812,-0.04350201,-0.1763317,0.02823623,-0.005637694
1.026922,-0.02805591,-0.03033198,-0.0007345339,-0.04031686,-0.03793123,-0.1742487,-0.001477075,-0.005316652
1.031703,-0.04092238,-0.02341627,0.004027801,-0.05290501,-0.03104769,-0.1247165,-0.02437812,-0.009746621
1.028436,-0.03765937,-0.02571693,0.0007421066,-0.04935918,-0.03335429,-0.08146198,-0.05712484,-0.008101437
1.033756,-0.03719249,-0.03282879,0.006043882,-0.04860352,-0.040446,-0.05140345,-0.05310725,-0.01983581
1.041377,-0.03713381,-0.02703646,0.0136466,-0.0482488,-0.03460751,-0.02326253,-0.0258076,-0.02271464
1.040501,-0.02276424,-0.02362286,0.01275279,-0.03357483,-0.0311219,0.00464682,-0.05850029,-0.01460659
1.034394,-0.0120512,-0.01830236,0.006626712,-0.02254844,-0.02570392,0.04749166,-0.08431177,-0.01450999
1.022715,-0.01091892,-0.00590163,-0.005072333,-0.02109385,-0.01318095,0.08627074,-0.08904896,-0.01129953
1.028749,-0.009800696,0.002910919,0.0009407709,-0.01964467,-0.004222534,0.1320752,-0.09562602,-0.007360077
1.042045,-0.00636908,0.005913349,0.01421555,-0.01587397,-0.001052231,0.1380752,-0.05841927,-0.003432864
1.035933,0.001161114,0.01137545,0.008080397,-0.007997204,0.004597853,0.09588629,-0.03470976,-0.0005640241
1.027254,0.01465858,0.04172286,-0.0006230471,0.005853383,0.03515111,0.06146456,-0.07040473,0.01432643
1.005648,0.03415082,0.08408794,-0.02225548,0.02570383,0.07773679,0.01495656,-0.1703058,0.05963455
0.9812289,0.04102654,0.09859348,-0.04670049,0.03294072,0.09247317,-0.001438464,-0.3260762,0.1061328
0.9855922,0.03242733,0.08940002,-0.04236222,0.02470309,0.08351538,-0.0007340212,-0.4107951,0.1323401
0.9992388,0.02589322,0.06856986,-0.02873745,0.01852858,0.06292039,-0.04087336,-0.4035727,0.1356336
1.016697,0.01269524,0.03223387,-0.01129603,0.005686277,0.02681488,-0.06117325,-0.3869328,0.1140315
1.031362,-0.004767487,0.009437523,0.003357231,-0.01142594,0.004241705,-0.05690076,-0.3546935,0.09084669
1.03132,-0.01443886,0.01053109,0.003309669,-0.02075243,0.005550025,-0.04044038,-0.3140647,0.07845668
1.032883,-0.02454607,-0.001546323,0.004871158,-0.03052014,-0.006321343,-0.01343505,-0.2679132,0.06813288
1.036245,-0.02881854,-0.01833063,0.00823694,-0.03445773,-0.02290812,0.003223977,-0.2182906,0.06320373
1.039708,-0.02394563,-0.02427348,0.01170726,-0.02925357,-0.02866117,0.02867524,-0.2057761,0.06735204
1.042063,-0.02066056,-0.03939145,0.01407288,-0.02563992,-0.04359569,0.03639648,-0.1925845,0.06477849
1.040161,-0.01719704,-0.03823561,0.01218316,-0.02184978,-0.04226099,0.02685689,-0.1448201,0.05393526
1.040419,-0.01363579,-0.02375347,0.01245446,-0.0179634,-0.0276027,0.03051267,-0.1014669,0.0454765
1.033722,-0.01088953,-0.03065711,0.005771235,-0.01489324,-0.03433133,0.02226827,-0.07740769,0.0319822
1.0228,-0.00559914,-0.02474888,-0.005137004,-0.009280145,-0.02824798,0.0106562,-0.08633124,0.02118099
1.022184,-0.001684497,-0.01076757,-0.005738889,-0.005044172,-0.01409044,0.009263681,-0.115564,0.01955094
1.024022,-0.003034255,-0.01593612,-0.003886429,-0.006074343,-0.01908106,0.01209547,-0.1381015,0.02049653
1.024186,-0.007247583,-0.01862611,-0.003707823,-0.009970235,-0.02159105,0.02827567,-0.161613,0.02626645
1.029197,-0.01024759,-0.02882466,0.001317808,-0.01265525,-0.03160711,0.04481974,-0.1410408,0.0254094
1.033607,-0.01311945,-0.04082932,0.005742676,-0.01521466,-0.04342603,0.05166854,-0.09370722,0.01687595
1.031268,-0.01339472,-0.03810112,0.003418871,-0.01518001,-0.04050771,0.06823525,-0.08041327,0.009418658
1.029541,-0.009191752,-0.03629728,0.001707193,-0.01066955,-0.03850817,0.08445799,-0.0500248,0.004982581
1.031913,-0.008061469,-0.03267346,0.004094467,-0.009234241,-0.03468196,0.07347507,-0.01627952,0.002177729
1.032448,-0.005895436,-0.03081361,0.004643884,-0.006765758,-0.03261217,0.06039199,-0.002663809,-0.01459542
1.03141,-0.002528468,-0.02943503,0.003619134,-0.003099165,-0.03101549,0.05806724,0.02283874,-0.03115315
1.03115,-0.005214579,-0.02427984,0.00337278,-0.005488805,-0.0256336,0.05483078,0.01649827,-0.03455999
1.031441,-0.007486359,-0.02827631,0.00367535,-0.007467591,-0.02939452,0.06487521,0.01392449,-0.04334262
1.035652,-0.01034347,-0.03248872,0.007896819,-0.0100354,-0.03336233,0.07554812,0.06201748,-0.05001034
1.039789,-0.01255291,-0.03384378,0.01204293,-0.0119593,-0.03446348,0.07594606,0.1023067,-0.05116513
1.034028,-0.01103122,-0.03604921,0.006289701,-0.01015581,-0.03640532,0.07765615,0.1220699,-0.05305653
1.027761,-0.01470402,-0.03530101,2.758122e-05,-0.01355046,-0.03538345,0.0809787,0.1350031,-0.05155966
1.031635,-0.01766046,-0.03492385,0.003904624,-0.01623226,-0.03472219,0.09307106,0.1534218,-0.05694083
1.032984,-0.01387851,-0.0346234,0.005255198,-0.01217896,-0.03412693,0.100235,0.1572025,-0.0661737
1.027784,-0.01302523,-0.04250567,5.312894e-05,-0.01105741,-0.04170344,0.08936273,0.1434758,-0.06910657
1.025022,-0.02243886,-0.05183234,-0.002712397,-0.02020567,-0.05071301,0.08261173,0.1732974,-0.07709666
1.022629,-0.03520323,-0.04384211,-0.005110579,-0.0327072,-0.04239376,0.09363801,0.2075005,-0.09748521
1.020549,-0.03578138,-0.03454238,-0.007198195,-0.03302427,-0.03275256,0.1208745,0.2214718,-0.121716
1.021257,-0.02583666,-0.03604601,-0.006498031,-0.02281926,-0.03390212,0.1533949,0.2475011,-0.1379494
1.022515,-0.01312949,-0.03655062,-0.00524886,-0.009851893,-0.03404015,0.1660343,0.2512004,-0.1433436
1.024206,-0.0009392941,-0.03422073,-0.003567406,0.002598527,-0.03133136,0.1529756,0.2467563,-0.1422429
1.024097,0.000812676,-0.0285718,-0.003685889,0.004610297,-0.02529149,0.1433088,0.2448856,-0.138966
1.023877,-0.002874535,-0.01826516,-0.003914652,0.001181695,-0.0145824,0.1401025,0.2257351,-0.1306393
1.025344,-0.0001517471,-0.01253744,-0.002457019,0.004161125,-0.008441653,0.129138,0.1988966,-0.1104193
1.023097,0.00460545,-0.01048971,-0.004712601,0.009172243,-0.005971541,0.1237918,0.1657389,-0.08450152
1.019968,0.006590726,-0.006624939,-0.007849484,0.01140788,-0.001676511,0.1132391,0.1368289,-0.05385044
1.019008,0.001738872,-0.00660235,-0.008815357,0.006801942,-0.001217309,0.09686802,0.08545132,-0.02720939
1.019206,-0.007151274,-0.009048588,-0.008622715,-0.001847495,-0.003222127,0.09430576,0.02532235,-0.02507551
1.026388,-0.009498129,-0.01447464,-0.001444687,-0.003959269,-0.00820336,0.08668137,0.01704433,-0.01976745
1.036107,-0.01230245,-0.02225423,0.008273128,-0.006534266,-0.01553586,0.0728776,0.03343432,0.003037486
1.035564,-0.01493883,-0.01944652,0.007729377,-0.008946999,-0.01227964,0.06284306,0.04186095,0.01493355
1.028675,-0.00923607,-0.01163259,0.0008412354,-0.003026147,-0.004016466,0.05473077,0.03176335,0.02377716
1.024073,-0.005319822,-0.006193639,-0.003759238,0.001102724,0.001871567,0.0450332,0.01128869,0.03562719
1.020065,-0.0006790055,-0.0003381419,-0.00776495,0.005950563,0.008174837,0.02008953,-0.000219756,0.03955135
1.017185,0.001208624,0.0001006927,-0.01064111,0.008039286,0.009058777,-0.008707768,-0.008875718,0.033851
1.015164,-0.004072063,0.00693881,-0.01265681,0.002953347,0.01633786,-0.0477595,0.0009268411,0.01747729
1.012712,-0.0006441596,0.0211622,-0.01510267,0.006569287,0.03099641,-0.1026488,0.004007892,-0.0009833314
1.008375,-0.0008481441,0.02089502,-0.01942978,0.00654632,0.03115666,-0.13862,-0.034314,-0.01930365
0.9957968,-0.007086741,0.02011879,-0.03199582,0.0004814611,0.03079802,-0.1505001,-0.101034,-0.03326885
0.9904404,-0.009001102,0.02197924,-0.03733536,-0.001266559,0.03306414,-0.1418317,-0.1813042,-0.04054606
1.011219,-0.02416897,-0.001058033,-0.01653403,-0.01627532,0.0104189,-0.1166268,-0.2279591,-0.04074621
1.051554,-0.04598294,-0.03796895,0.02382944,-0.03793675,-0.02611459,-0.07107301,-0.2251837,-0.02882081
1.087477,-0.05504332,-0.06315354,0.0597857,-0.04684975,-0.05093589,-0.01726627,-0.1481005,-0.02111782
1.090115,-0.04989626,-0.07779864,0.06246048,-0.04155846,-0.06522999,-0.02024146,0.06785298,-0.01629042
1.082888,-0.04305685,-0.09120338,0.05527033,-0.03457597,-0.07829316,-0.06710159,0.2871902,-0.01471416
1.06771,-0.03063629,-0.07171295,0.04012505,-0.02201187,-0.05846734,-0.1241883,0.2947968,-0.02916018
1.00348,0.007299914,0.002216664,-0.02407703,0.01606916,0.01579397,-0.192367,0.1775983,-0.0411248
0.9704256,0.03226176,0.05655453,-0.05710836,0.04117672,0.07046007,-0.22039,0.1245567,-0.04861074
1.009277,0.02627825,0.06293281,-0.01823753,0.03533813,0.07716069,-0.2163473,0.1042644,-0.05474193
1.024245,0.02627017,0.06904957,-0.003252013,0.03547205,0.08358994,-0.2154127,0.08734276,-0.06293624
1.016293,0.01847062,0.06555261,-0.01118727,0.02780956,0.0803914,-0.1980485,0.073001,-0.08039581
1.022512,-0.003580066,0.04267581,-0.004951226,0.005889515,0.0577951,-0.1540987,0.04111771,-0.0885674
1.031122,-0.01120898,0.01814074,0.003675615,-0.001615963,0.03351974,-0.1017844,0.1111074,-0.09638693
1.043733,-0.008430937,0.009577525,0.01630332,0.001278239,0.02519376,-0.08569144,0.2326192,-0.1119751
1.045492,-0.009586531,0.02253056,0.0180781,0.0002316986,0.0383608,-0.07852274,0.2653312,-0.1184373
1.038018,-0.01065142,0.03357967,0.0106194,-0.0007310419,0.04960001,-0.04171948,0.2827995,-0.1121883
1.029063,-0.005853548,0.04306442,0.001676916,0.004162284,0.05924993,-0.02632944,0.2849976,-0.09469739
1.011275,0.00593694,0.05112272,-0.01609986,0.01604157,0.06744704,-0.02991495,0.242995,-0.07580687
1.004563,0.02172339,0.05055139,-0.0228028,0.03190982,0.06698649,-0.02243796,0.1926478,-0.05779753
1.01499,0.02323098,0.05171159,-0.01236642,0.03349132,0.06822773,-0.02925542,0.1685171,-0.05336417
1.017514,0.0167595,0.05052238,-0.009834382,0.02708467,0.0670883,-0.05990024,0.1849513,-0.0654543
1.00477,0.0232276,0.05431279,-0.02256868,0.03360744,0.07089584,-0.09378619,0.1450473,-0.06470571
0.9968785,0.02149005,0.06108482,-0.03044868,0.03191338,0.07765107,-0.1017503,0.05710494,-0.05563965
1.003087,0.007929208,0.05352413,-0.02422614,0.01838396,0.07003838,-0.08142268,-0.008415667,-0.04143962
1.01343,-1.663904e-05,0.04172859,-0.01386525,0.01045703,0.05815467,-0.05195903,-0.03984382,-0.02663496
1.026366,-0.003851972,0.02769703,-0.0009064503,0.006628129,0.04399836,-0.01616842,-0.00114347,-0.03005636
1.038652,-0.002838838,0.01726746,0.01140605,0.007635618,0.03340783,0.007372683,0.02248364,-0.02506773
1.034487,-0.005360243,0.02279429,0.007271233,0.005097002,0.03873841,0.02141613,-0.01215411,-0.01088116
1.022922,-0.006633821,0.02617902,-0.004259412,0.003795222,0.04189276,0.04354141,-0.02282409,-0.00754605
1.025873,0.0007108503,0.02362834,-0.001272003,0.01110128,0.03907866,0.03040255,-0.01400241,-0.0004032021
1.029638,0.008579173,0.02771875,0.002532516,0.018921,0.04287363,-0.001727111,-0.01327708,0.001342114
1.029288,0.02167175,0.03503955,0.002223276,0.03195503,0.04986792,-0.01942754,-0.0203394,-0.006216684
1.029979,0.02510744,0.0417366,0.002957053,0.03532183,0.05620814,-0.05647321,-0.03235452,-0.005109176
1.024031,0.01641476,0.03871063,-0.002946056,0.02654925,0.05279553,-0.07543495,-0.04469745,-0.006533626
1.025965,0.01423685,0.032201,-0.0009663692,0.0242799,0.04586994,-0.07663553,-0.04379681,-0.01140456
1.028541,0.01046948,0.04152677,0.001656704,0.02040929,0.05475106,-0.08368413,-0.0340411,-0.005600765
1.02394,0.009143063,0.04778074,-0.002896669,0.01896781,0.06053234,-0.05770265,-0.04383235,-0.002003994
1.026744,0.01105607,0.04117977,-4.415605e-05,0.02075407,0.05343107,-0.03440778,-0.04870118,-0.00412413
1.024846,0.009491487,0.04094404,-0.00189349,0.0190512,0.05266793,-0.02333463,-0.04580886,-0.003138395
1.024276,0.01280476,0.04225636,-0.002414303,0.02221485,0.05342633,-0.01879751,-0.0516236,-0.002643048
1.029394,0.01588052,0.0400487,0.002753711,0.02512978,0.05063898,-0.02874778,-0.04349332,-0.001359053
1.02816,0.0178123,0.03572599,0.001570058,0.02688955,0.04571161,-0.01880285,-0.03353695,-0.002422691
1.02705,0.01573253,0.03098447,0.0005097721,0.0246266,0.04034146,-0.02159488,-0.0272564,-0.005999465
1.022556,0.009129026,0.03889514,-0.003934494,0.01782875,0.04760069,-0.02982868,-0.02703214,-0.0055051
1.019712,0.01294249,0.05129507,-0.006728391,0.02143693,0.05932742,-0.02458053,-0.04055667,-0.004357261
1.020254,0.01937245,0.05309634,-0.006137271,0.02765091,0.06043445,-0.03521869,-0.05033474,0.001423163
1.018723,0.02061405,0.04951061,-0.007618231,0.02866597,0.05613388,-0.03362791,-0.06798558,0.008334297
1.023887,0.01764242,0.04396396,-0.002404722,0.02545723,0.04985228,-0.03247189,-0.07829551,0.005186167
1.02629,0.009481862,0.03578695,4.830444e-05,0.01704907,0.04092096,-0.03077141,-0.06550524,0.002829573
1.024609,0.009111202,0.03180088,-0.001581925,0.01642064,0.03616236,-0.01344763,-0.05892843,0.006663567
1.026227,0.0151227,0.03238682,8.705386e-05,0.02216469,0.03595894,-0.01581438,-0.053792,0.007399238
1.026303,0.01934708,0.02762405,0.0002140505,0.02611236,0.0303915,-0.02154697,-0.05342543,0.006814178
1.026774,0.02213824,0.02453046,0.0007355922,0.02861775,0.02647956,-0.02878593,-0.06069462,0.008378696
1.026001,0.01846615,0.02926423,1.344964e-05,0.0246509,0.03038301,-0.03773367,-0.05853077,0.008944677
1.025266,0.01493847,0.02986398,-0.0006718307,0.0208196,0.03014211,-0.03393374,-0.05936583,0.009845855
1.024946,0.01459402,0.02858677,-0.0009421421,0.02016297,0.02801547,-0.03509676,-0.06241411,0.01359354
1.02249,0.01042592,0.0293784,-0.003348813,0.01567453,0.02795032,-0.02942796,-0.06445894,0.01712182
1.022247,0.007404032,0.02803488,-0.00354261,0.0123247,0.02574413,-0.02617207,-0.07217089,0.01724027
1.021936,0.009479284,0.02937059,-0.003806018,0.01406511,0.02621268,-0.04673996,-0.07722322,0.01998242
1.020806,0.01479115,0.03758053,-0.004887681,0.01903592,0.03355225,-0.07641713,-0.08291688,0.03260314
1.015492,0.01907293,0.04938978,-0.01015359,0.02297093,0.04448894,-0.08724698,-0.1107762,0.04774702
1.008499,0.02015443,0.05388229,-0.0170992,0.02370026,0.04810725,-0.05807651,-0.1720032,0.05983634
1.012493,0.02021353,0.04912553,-0.01305649,0.02340198,0.04247489,-0.02691478,-0.2062244,0.06827576
1.020614,0.0180869,0.03827368,-0.004886361,0.02091291,0.03074629,-0.01877196,-0.1593125,0.06535828
1.028727,0.01410843,0.01954099,0.003278386,0.01656719,0.0111364,-0.004726138,-0.09942182,0.05470847
1.036377,0.01031017,0.01192241,0.01098046,0.01239727,0.002641484,0.009927227,-0.08365514,0.04092749
1.033045,0.009531377,0.01866634,0.007700741,0.01124296,0.008511768,-0.005617799,-0.08952577,0.02230636
1.029201,0.006977512,0.02114065,0.003909757,0.008310426,0.01011696,-0.03674911,-0.09218025,0.007581858
1.031319,-0.001567988,0.02552056,0.006080193,-0.0006160872,0.01363388,-0.03597256,-0.07551274,0.0006613318
1.02735,-0.004318403,0.0251593,0.002162845,-0.003748843,0.01241706,-0.00286487,-0.06619801,0.005703824
1.023578,-0.003676077,0.0172427,-0.001559002,-0.003488989,0.00365356,0.04007796,-0.09364334,0.02093794
1.024865,-0.006921511,0.01850679,-0.0002226935,-0.007115781,0.004080657,0.08765918,-0.1339291,0.036373
1.027265,-0.007670702,0.01164501,0.002225391,-0.008243968,-0.003606823,0.1247064,-0.1541893,0.05841068
1.034985,-0.009142402,-0.006196719,0.00999164,-0.01009105,-0.02226143,0.1325236,-0.1359886,0.06727652
1.037687,-0.01110436,-0.01370778,0.01273885,-0.01242354,-0.03057057,0.1154704,-0.1190649,0.05538611
1.031357,-0.01186171,-0.01783088,0.00645203,-0.01354531,-0.03547456,0.1146851,-0.1275839,0.05667079
1.031345,-0.01747317,-0.03408656,0.006480134,-0.01951386,-0.05249131,0.1184243,-0.09820615,0.04735318
1.039523,-0.01993932,-0.05315482,0.01469486,-0.02232844,-0.07229778,0.08667917,-0.03014288,0.01600234
1.044565,-0.01081999,-0.04290828,0.01977075,-0.01354757,-0.0627632,0.04458557,0.007843224,8.728951e-05
1.031276,0.001116903,-0.01414812,0.006511467,-0.001938149,-0.03468552,-0.002748333,-0.01129188,-0.004581361
1.015721,0.005331499,-0.003427589,-0.009018305,0.001960509,-0.02461576,-0.04378288,-0.057546,-0.001483957
1.025234,0.003950638,-0.01225514,0.0005160366,0.0002753521,-0.03406111,-0.06807508,-0.07435442,0.002172929
1.036193,0.003977581,-0.0262805,0.01149178,9.597862e-06,-0.04867034,-0.09922114,-0.04594124,0.0003903653
1.033968,0.003550105,-0.01657924,0.009280335,-0.0006990312,-0.03951786,-0.121852,-0.01324132,0.009688639
1.029109,-0.001031483,-0.0005578158,0.004430675,-0.005550249,-0.0240091,-0.1409818,-0.02701853,0.0133187
1.020014,-0.006757671,-0.004585324,-0.004659952,-0.01153445,-0.02851263,-0.1518408,-0.0467999,0.008366667
1.021827,-0.008250249,0.00295584,-0.002845434,-0.01327313,-0.02141081,-0.1472275,-0.03376088,0.008091413
1.030926,-0.006325593,0.007876183,0.006251178,-0.01158228,-0.01689336,-0.1399683,-0.05549467,0.00975071
1.030379,-0.006736489,0.002717924,0.005699057,-0.01221429,-0.02241853,-0.1059188,-0.07388389,0.01410234
1.032489,-0.008046154,0.004970169,0.007799143,-0.01373207,-0.02049779,-0.0783526,-0.03608474,0.01171147
1.03297,-0.009169126,-0.0006305767,0.008268051,-0.01504986,-0.0263952,-0.06254776,-0.006905917,0.005552266
1.030784,-0.01186865,0.0005202976,0.006065738,-0.01793057,-0.02550664,-0.03218782,0.01610408,-0.004087968
1.03591,-0.01073349,0.0006200632,0.01117242,-0.01696264,-0.02563532,-0.02605504,0.05134197,-0.01931104
1.036106,-0.008488264,-0.009649259,0.01134515,-0.01487036,-0.03609965,-0.03280929,0.07636749,-0.02573797
1.032556,-0.009497754,-0.009420071,0.007767756,-0.0160183,-0.03603234,-0.055132,0.07167088,-0.03113332
1.02806,-0.006361191,-0.007685242,0.003240349,-0.01300558,-0.03442643,-0.09100197,0.04515471,-0.03344792
1.021463,-0.003448024,-0.005111377,-0.003392212,-0.01020164,-0.03194878,-0.08973566,0.02170045,-0.02660559
1.021101,-0.009197478,-0.009923086,-0.003792914,-0.01604581,-0.03682434,-0.07707517,-0.00132587,-0.01935103
1.023987,-0.01632257,-0.02319921,-0.0009489711,-0.02325116,-0.05013226,-0.07200593,0.003003419,-0.003401411
1.027601,-0.01954737,-0.02674544,0.00261986,-0.0265416,-0.05367823,-0.05344849,0.002097216,0.008366293
1.025939,-0.02317845,-0.02768584,0.000911417,-0.03022333,-0.05458606,-0.02687956,-0.0426596,0.007983197
1.021243,-0.02598122,-0.0271681,-0.003833837,-0.03306121,-0.05400308,-0.0152423,-0.06700501,0.02096066
1.023696,-0.02203514,-0.02794036,-0.001432052,-0.02913419,-0.0546772,-0.02217232,-0.06534339,0.0378923
1.02669,-0.0173495,-0.02916859,0.001510024,-0.02445109,-0.05577422,-0.01347693,-0.06140845,0.03777103
1.030994,-0.01688385,-0.02903433,0.005760125,-0.02397126,-0.05547561,0.003717041,-0.0649256,0.03395046
1.031157,-0.01199782,-0.03230147,0.005868542,-0.01905434,-0.05854523,0.004262839,-0.06306836,0.03398549
1.023388,-0.004152294,-0.02342039,-0.001956556,-0.01116143,-0.04943351,0.003269967,-0.04679678,0.02880639
1.022273,-0.003986741,-0.01302343,-0.00312784,-0.01093253,-0.03877314,0.008247335,-0.06814706,0.01958661
1.027483,-0.007304462,-0.01713349,0.002024431,-0.01417163,-0.04258775,0.01820312,-0.08043639,0.01409785
1.036097,-0.004291328,-0.02654523,0.01058047,-0.0110653,-0.05167293,0.02873186,-0.04587344,0.0143573
1.039593,-0.00261261,-0.03427973,0.01401843,-0.009279497,-0.05905045,0.02864659,-0.01437163,0.0188012
1.032655,-0.007392078,-0.02777408,0.007020749,-0.01393872,-0.05215782,0.01589864,0.01294976,0.02080438
1.028028,-0.007446125,-0.01772366,0.002333011,-0.01386004,-0.04169091,-0.001694678,0.02448324,0.01430745
1.025734,-0.006145961,-0.01978606,-2.250863e-05,-0.01241526,-0.04330811,-0.01331887,0.02307965,0.006543925
1.027478,-0.008276726,-0.0229086,0.001657756,-0.01439008,-0.04595778,-0.0138884,0.01840032,0.004951379
1.031037,-0.009126899,-0.02497262,0.005153131,-0.01507353,-0.04752225,-0.009320375,0.01411797,0.002433602
1.027937,-0.01194715,-0.02713056,0.001988231,-0.01771676,-0.04915486,-0.008289671,0.02958774,-0.00389377
1.02617,-0.01095941,-0.02789445,0.0001557631,-0.01654208,-0.04936847,-0.008930377,0.03672928,-0.007884588
1.024398,-0.005216946,-0.02890211,-0.001682143,-0.01060318,-0.04980168,-0.01417455,0.02515089,-0.008998208
1.021305,-0.00293328,-0.02473362,-0.004841777,-0.008114111,-0.04503537,-0.02425928,-0.001315565,-0.004631586
1.021558,-0.003107309,-0.01836022,-0.004654886,-0.008074458,-0.03804172,-0.0310687,-0.03160947,0.003068992
1.023207,-0.006869061,-0.01949694,-0.003071379,-0.01161498,-0.0385369,-0.03996642,-0.04083659,0.007269673
1.028248,-0.009228792,-0.02391016,0.001904565,-0.01374657,-0.04228855,-0.04564833,-0.04545123,0.01171871
1.030786,-0.009533849,-0.02559936,0.004378507,-0.01381706,-0.04329732,-0.04483773,-0.04052338,0.01077828
1.030338,-0.0122184,-0.0263438,0.003867105,-0.01626103,-0.04334354,-0.05014094,-0.02375401,0.00131831
1.03306,-0.01108342,-0.02889224,0.006527171,-0.01487976,-0.0451769,-0.05574279,-0.01429978,-0.005197677
1.033397,-0.01049543,-0.03268749,0.006801988,-0.0140401,-0.04824112,-0.05596723,-0.00637466,-0.008483431
1.032021,-0.01165196,-0.02822434,0.00536431,-0.01493989,-0.04303176,-0.0550123,0.004217178,-0.008879533
1.029739,-0.009735982,-0.01800109,0.003021664,-0.01276242,-0.03204802,-0.05303158,0.01769216,-0.00560814
1.026151,-0.00976051,-0.01506994,-0.0006271146,-0.01252108,-0.02834326,-0.04884911,0.01712975,-0.002369299
1.025324,-0.01067113,-0.01654509,-0.001514564,-0.01316182,-0.02903311,-0.04139578,0.0003439597,-0.001323413
1.024684,-0.01127209,-0.02254847,-0.002214762,-0.01348925,-0.03424097,-0.03464471,-0.0054258,-0.004233487
1.025257,-0.01144252,-0.03088973,-0.001701078,-0.01338284,-0.04177775,-0.03136409,0.002111603,-0.007241843
1.027196,-0.01064089,-0.03010518,0.0001792647,-0.01230136,-0.04018066,-0.02720153,0.007024438,-0.01077694
1.028054,-0.01139303,-0.02819788,0.0009797984,-0.01277098,-0.03745355,-0.01895603,-0.003879475,-0.01109072
1.029149,-0.0111333,-0.03159828,0.002019002,-0.01222635,-0.0400276,-0.01738915,-0.01287985,-0.005522841
1.029032,-0.01085724,-0.0325809,0.001846354,-0.01166333,-0.04017805,-0.02813597,0.002359015,-0.004440221
1.029247,-0.01143542,-0.03101464,0.002007261,-0.01195283,-0.03777446,-0.03760523,0.01409426,-0.003910065
1.029544,-0.01068991,-0.02832491,0.002251108,-0.01091719,-0.03424293,-0.03574433,0.00870237,-0.002780259
1.029658,-0.0102967,-0.02538616,0.002313344,-0.01023275,-0.03045867,-0.0233076,0.01103471,-0.003940785
1.030662,-0.009532877,-0.02592701,0.003266147,-0.009176912,-0.03015122,-0.01588923,0.0168804,-0.001967793
1.027846,-0.009790265,-0.0280935,0.0003997865,-0.009141852,-0.03146754,-0.0141189,0.008616143,-0.002240943
1.025218,-0.01190968,-0.03048598,-0.002277489,-0.01096872,-0.03300882,-0.007488834,0.002847258,-0.002904798
1.0265,-0.01316973,-0.03449836,-0.001044052,-0.01193643,-0.03616973,-0.009128345,0.01380679,-0.004154304
1.026709,-0.01484786,-0.03381462,-0.0008816941,-0.0133226,-0.03463481,-0.009907329,0.02131588,-0.007566393
1.026177,-0.0173693,-0.02920191,-0.00145984,-0.01555258,-0.02917176,-0.002304017,0.01574591,-0.003015674
1.026179,-0.01720124,-0.0289923,-0.001502976,-0.01509359,-0.02811327,-5.810751e-05,0.01325751,0.0007943378
1.025643,-0.01004156,-0.02920902,-0.002082505,-0.007643544,-0.02748327,0.002491769,0.01632431,-0.002359218
1.024816,-0.002623992,-0.02889802,-0.002951226,6.362404e-05,-0.02632845,0.0008776819,0.01596245,-0.005177241
1.025736,-0.005374295,-0.02984122,-0.002070873,-0.002398332,-0.02643143,-0.002798104,0.01509338,-0.00688891
1.027209,-0.009294769,-0.02961685,-0.0006367079,-0.006032273,-0.0253711,-0.00354405,0.01670565,-0.006367843
1.027112,-0.008454907,-0.02935298,-0.0007700039,-0.004908153,-0.0242762,-0.009344748,0.01687203,-0.007096031
1.02754,-0.009474315,-0.02125714,-0.0003763456,-0.005645926,-0.01535496,-0.009693679,0.01618183,-0.00813484
1.026343,-0.008871146,-0.00688868,-0.001606887,-0.004764051,-0.0001676149,-0.01127376,0.0114771,-0.00484494
1.024059,-0.006379491,-0.003937394,-0.003921657,-0.001996925,0.003594686,-0.01983353,-0.001409703,-0.00330654
1.024971,-0.005654059,-0.01306393,-0.00303867,-0.0009996026,-0.004730292,-0.02151177,-0.01051664,-0.003458818
1.026002,-0.005369566,-0.02064433,-0.002034447,-0.0004471916,-0.01151999,-0.02017599,-0.007656585,0.0009031196
1.027118,-0.008568108,-0.02010418,-0.0009433115,-0.00338217,-0.01020102,-0.01899644,-0.004248437,0.005349992
1.029366,-0.01091374,-0.0180469,0.001281359,-0.005468886,-0.007377574,-0.01849721,-0.005093223,0.003491797
1.028677,-0.009471819,-0.01723938,0.0005715839,-0.003772861,-0.005817269,-0.0181948,-0.0005888344,0.0005734097
1.027251,-0.01060184,-0.01494467,-0.0008733188,-0.004653709,-0.002783902,-0.01683835,0.004289472,0.001334116
1.026481,-0.01172642,-0.01814387,-0.001660599,-0.005534145,-0.005259332,-0.0172502,0.004694338,0.0006720005
1.024323,-0.01190038,-0.02473836,-0.003833855,-0.005469035,-0.01114556,-0.01475939,0.009185722,-0.0005584413
1.025515,-0.01279698,-0.0251689,-0.002655718,-0.006131629,-0.01088376,-0.01124302,0.00892105,0.001279698
1.027382,-0.01213788,-0.02121565,-0.0007998563,-0.005243579,-0.006254322,-0.01046934,0.002842652,0.002940911
1.024586,-0.01014543,-0.018358,-0.003605706,-0.00302721,-0.002736915,-0.01228864,-0.002898044,0.004421415
1.022816,-0.0070149,-0.02023545,-0.005383577,0.0003221463,-0.003971356,-0.01426262,-0.01352233,0.004742021
1.022252,-0.007395599,-0.02375598,-0.005953498,0.0001550439,-0.006865975,-0.008160594,-0.01644503,0.004429493
1.022754,-0.01158812,-0.02686494,-0.005455317,-0.003829277,-0.009366296,0.003820046,-0.01928671,0.009016481
1.02541,-0.01180644,-0.03219223,-0.002801235,-0.003844893,-0.0141022,0.01094087,-0.02730178,0.01144516
1.025113,-0.009472872,-0.0329816,-0.003097314,-0.001314096,-0.01431722,0.003997058,-0.008571686,0.003647027
1.024713,-0.01008457,-0.02900586,-0.003494335,-0.001734063,-0.009783822,-0.003163852,0.01224256,-0.006861644
1.025881,-0.01284699,-0.02925475,-0.00232013,-0.004310253,-0.009491448,0.008563568,6.1751e-05,-0.009144754
1.027378,-0.01536653,-0.03117477,-0.000815512,-0.006649011,-0.01088634,0.01464348,-0.005015424,-0.003646106
1.029612,-0.01490464,-0.03186919,0.001428341,-0.006011625,-0.01107152,-0.0008795528,0.01283935,-0.0005110936
1.026828,-0.009466189,-0.02996153,-0.001343732,-0.0004027855,-0.008670194,-0.01284508,0.0181912,-0.0003538689
1.023385,-0.005751722,-0.02458928,-0.004773281,0.003477013,-0.002819609,-0.009732092,0.005407004,0.001441124
1.025939,-0.009601122,-0.02343302,-0.002203665,-0.0002122173,-0.00120025,-0.003749954,-0.003006465,0.002379331
1.02912,-0.013631,-0.0255158,0.0009947717,-0.004087189,-0.00283515,-0.003718528,0.004505537,-4.639545e-05
1.030727,-0.0130233,-0.02557914,0.002620696,-0.003329798,-0.002465864,-0.005113028,0.01375025,-0.003420004
1.029415,-0.01382331,-0.02707825,0.00132953,-0.003985193,-0.003547529,-0.005875664,0.01321028,-0.003268404
1.026692,-0.01718651,-0.030984,-0.001371969,-0.007208675,-0.007050892,-0.006016863,0.01701644,-0.00557392
1.028615,-0.01658169,-0.03351562,0.0005741352,-0.006468779,-0.009194887,-0.002611037,0.01988445,-0.01109881
1.030219,-0.01318158,-0.0327905,0.00220082,-0.00293796,-0.008096522,-0.0009008593,0.01698967,-0.008120404
1.028556,-0.01084995,-0.03069439,0.0005624457,-0.0004797908,-0.005641111,-0.0003304251,0.02315349,-0.003825705
1.029193,-0.008631264,-0.02620256,0.001223819,0.001861318,-0.0008035489,-0.0002738159,0.02554609,-0.006234339
1.028983,-0.008676968,-0.02369907,0.001038505,0.001933858,0.002032302,-0.002796134,0.02407593,-0.007871819
1.026049,-0.01099289,-0.02930204,-0.001869851,-0.0002680848,-0.003251588,-0.002978977,0.02301511,-0.007749701
1.024481,-0.01322831,-0.03200321,-0.003412144,-0.002393828,-0.005646806,-0.003992648,0.008287044,-0.007255448
1.024792,-0.0129099,-0.02906349,-0.003075797,-0.001969969,-0.002413969,-0.005725337,-0.002332707,-0.007670471
1.026554,-0.01034066,-0.02885969,-0.001288556,0.000700586,-0.001929565,-0.004351218,-0.002955267,-0.007222589
1.027494,-0.009832397,-0.02888414,-0.0003219104,0.001306088,-0.00168565,0.0001548765,-0.002627702,-0.003324318
1.027981,-0.009535532,-0.02745394,0.000191109,0.001696103,9.080073e-07,0.003771942,0.001046365,-0.00214126
1.029046,-0.01029458,-0.02583605,0.001282345,0.001026094,0.001863363,-0.001284907,0.0004636283,-0.003356374
1.029034,-0.01184826,-0.02602689,0.001297206,-0.0004426682,0.001905429,-0.003270002,0.001894945,-0.005247028
1.029406,-0.01210216,-0.02686865,0.001695627,-0.0006157131,0.001285058,0.001934905,0.006607287,-0.008688859
1.029154,-0.01470622,-0.02508451,0.00146896,-0.003142887,0.003279191,0.002878432,0.01074287,-0.008253292
1.028535,-0.0135005,-0.02417642,0.0008758516,-0.001864062,0.004386023,0.002968659,0.01783189,-0.008080241
1.02777,-0.01101122,-0.02254148,0.0001360801,0.0006946838,0.006208505,0.003674809,0.01842419,-0.01113476
1.025388,-0.01303558,-0.01981569,-0.002220835,-0.0012637,0.00911067,0.006730269,0.01913266,-0.009931584
1.025312,-0.01062898,-0.02069273,-0.002272481,0.001205465,0.008398779,0.01051535,0.02134198,-0.007436106
1.025349,-0.00867714,-0.021354,-0.002211814,0.003216505,0.007891372,0.009397936,0.01478166,-0.007161469
1.024545,-0.01003723,-0.02157471,-0.002992533,0.001912253,0.007813196,0.009839167,0.01113769,-0.005121063
1.026303,-0.008669615,-0.02674419,-0.001211103,0.003332299,0.002774998,0.01133741,0.01277818,-0.0009360994
1.02648,-0.008281654,-0.03363623,-0.00101163,0.003769247,-0.003996792,0.01181367,0.01617868,0.002627301
1.025307,-0.009141599,-0.03358672,-0.002161758,0.002954789,-0.003837599,0.01400363,0.02256057,-0.0008533522
1.024892,-0.01009114,-0.0270664,-0.002553816,0.002047196,0.002782425,0.01631207,0.02510754,-0.007883853
1.024378,-0.009930718,-0.02343813,-0.003045822,0.002246047,0.006500878,0.01761477,0.0221349,-0.007490791
1.023529,-0.00941106,-0.02568887,-0.003872155,0.002800632,0.00433105,0.02081598,0.01350017,-0.00532379
1.022636,-0.01120052,-0.03021691,-0.004742075,0.001042644,-0.0001251115,0.02621518,0.001732509,-0.00431677
1.027235,-0.01215295,-0.03260367,-0.0001202057,0.0001183025,-0.002448675,0.02033086,-0.0002387492,-0.001121155
1.032516,-0.01271784,-0.0292246,0.005184446,-0.0004217553,0.0009853674,0.008168322,0.01323228,-0.00141015
1.028965,-0.01254221,-0.02179831,0.001656807,-0.0002243621,0.008458847,0.007371707,0.02386218,-0.0009744854
1.026187,-0.01100499,-0.01873629,-0.001098763,0.001331697,0.01156046,0.007935835,0.01714634,0.002260862
1.029354,-0.01027616,-0.02560153,0.002092032,0.002076575,0.004727223,0.002775601,0.01198103,0.001459978
1.029743,-0.009259363,-0.03110605,0.002503817,0.003106717,-0.0007527679,-0.00442609,0.01485167,0.001456525
1.028796,-0.009667523,-0.02480274,0.00157825,0.00270922,0.005567882,-0.009108888,0.00665742,0.003654202
1.030332,-0.01010772,-0.01944218,0.003136561,0.002277034,0.01093887,-0.007058689,-0.002038171,0.002844102
1.030837,-0.009315404,-0.02294006,0.003661987,0.003074736,0.007444608,-0.006523996,0.005541659,0.001330139
1.030301,-0.01029744,-0.02404563,0.003146323,0.002095509,0.006335922,-0.006544164,0.01240498,0.0007621809
1.029678,-0.01153302,-0.02275906,0.002542251,0.0008602227,0.007612723,-0.003031714,0.01111021,-0.0003361749
1.028661,-0.01231146,-0.02320289,0.001542942,7.965301e-05,0.007152637,0.002041926,0.01339604,-0.002260479
1.027712,-0.01028535,-0.01818069,0.0006103954,0.002101361,0.0121522,0.008364172,0.01343172,-0.004598319
1.024987,-0.006907091,-0.01319513,-0.002098821,0.005473031,0.01710874,0.01077035,0.005549734,-0.003708182
1.023091,-0.00846505,-0.01524842,-0.003981191,0.003906303,0.01501986,0.01522854,0.0004868188,2.374474e-05
1.02623,-0.009989511,-0.01574088,-0.0008290771,0.002370865,0.01448504,0.02141644,0.0006050157,0.001573234
1.029124,-0.00931925,-0.0129468,0.002077122,0.003027956,0.01722981,0.01885282,-0.001080255,0.004957693
1.02719,-0.008989333,-0.01231746,0.0001549479,0.003342551,0.01780268,0.01611508,-0.007900756,0.01112125
1.02413,-0.004326558,-0.01436385,-0.002893891,0.007987863,0.01569248,0.01533513,-0.01486314,0.01214863
1.021547,0.0003115833,-0.01598394,-0.005466955,0.01260628,0.0140011,0.01021418,-0.01915896,0.01003319
1.020008,-0.002149119,-0.015861,-0.006997062,0.01012333,0.01404522,0.001249207,-0.0342307,0.01043166
1.023164,-0.005323256,-0.0183336,-0.00383114,0.006924127,0.01148631,-0.01316233,-0.04657088,0.009449538
1.029214,-0.006284839,-0.02493847,0.002228235,0.005934482,0.004787803,-0.02143896,-0.01074167,0.003825191
1.033359,-0.009957947,-0.0309078,0.006382542,0.002230284,-0.001282073,-0.01725455,0.04437843,-0.004678807
1.032826,-0.01270569,-0.03294669,0.005858781,-0.0005514742,-0.003427793,-0.01827791,0.05224753,-0.01915131
1.030451,-0.01161267,-0.03263306,0.003492056,0.0005048465,-0.003226433,-0.02370278,0.05355122,-0.03272611
1.031498,-0.01312759,-0.03409013,0.004547741,-0.001049181,-0.004800338,-0.02609451,0.08961559,-0.03421062
1.030833,-0.01673601,-0.03716906,0.003889047,-0.004698784,-0.007999794,-0.03632186,0.1039313,-0.03670182
1.029479,-0.01873795,-0.03679857,0.002541599,-0.006743571,-0.007752611,-0.04501168,0.08203288,-0.04258423
1.031672,-0.02045341,-0.03706252,0.004739863,-0.008503017,-0.008141703,-0.04774125,0.07209308,-0.04184172
1.03121,-0.02354629,-0.04373505,0.004281107,-0.01164042,-0.0149403,-0.06571098,0.09436726,-0.04332673
1.030864,-0.02700924,-0.04498696,0.003937022,-0.01514774,-0.01631817,-0.0940799,0.1097226,-0.04212511
1.027666,-0.02184426,-0.03124319,0.0007402533,-0.01002622,-0.00269925,-0.1122072,0.06905028,-0.0280256
1.019171,-0.01170931,-0.01430548,-0.007756037,6.679079e-05,0.01411536,-0.1146686,0.003635201,-0.00842993
1.0182,-0.0100821,-0.01015006,-0.008728463,0.001653859,0.0181494,-0.1099466,-0.03266064,0.007760269
1.020456,-0.01160425,-0.01350985,-0.006475134,9.338132e-05,0.01466947,-0.1056314,-0.03591893,0.01502279
1.020594,-0.01305788,-0.01546465,-0.006340939,-0.001396813,0.01259518,-0.09037151,-0.03921985,0.01787719
1.025235,-0.01637614,-0.02543368,-0.001702642,-0.004749856,0.002506951,-0.06142399,-0.05684042,0.01605876
1.033448,-0.01848789,-0.03753876,0.006507396,-0.006894491,-0.009717081,-0.0387676,-0.03245511,0.008977641
1.040184,-0.02048001,-0.04251871,0.01324107,-0.008917336,-0.01481525,-0.03082079,0.03138928,-0.000605174
1.039626,-0.01929251,-0.04364893,0.01267969,-0.007758104,-0.01606213,-0.0173115,0.06204813,-0.01949615
1.036792,-0.01739203,-0.03345006,0.009841613,-0.005883115,-0.005977464,0.009530026,0.06348039,-0.02985184
1.037793,-0.01545645,-0.01969074,0.01083742,-0.003970044,0.007670718,0.01810337,0.08055008,-0.02677791
1.037349,-0.005772932,-0.01059505,0.01038584,0.005694001,0.01665838,0.004613447,0.1211062,-0.03132762
1.035617,0.004392022,-0.001799789,0.008643435,0.01584225,0.02534821,-0.003493463,0.1391052,-0.02748687
1.030475,0.007307029,0.003911907,0.003489194,0.01874265,0.03095609,-0.01128107,0.1220271,-0.01749551
1.018032,0.00460344,0.01355042,-0.008968274,0.01602564,0.04049112,-0.02151208,0.1040244,-0.02133816
1.00867,0.002445877,0.02075684,-0.0183474,0.01385492,0.0475928,-0.02064213,0.06014651,-0.02034638
1.011188,0.002923676,0.01739261,-0.01584813,0.01431905,0.04412076,-0.0145565,-3.813318e-05,-0.0125976
1.018303,-0.001167002,0.01565327,-0.008752147,0.01021356,0.04226874,-0.007332172,-0.02669833,-0.008482782
1.0218,-0.00487968,0.01130307,-0.005273186,0.006484432,0.03779944,0.004866621,-0.03312695,-0.003466504
1.024382,-0.008329868,-0.0052617,-0.00270896,0.003015894,0.02110797,0.01714247,-0.0331283,-0.004134395
1.028795,-0.01450247,-0.02391812,0.0016866,-0.003177004,0.002316712,0.02898717,-0.02394177,-0.006842791
1.035478,-0.01140235,-0.02520443,0.008354107,-9.895505e-05,0.0008876886,0.03762937,-0.002482207,-0.004819729
1.040287,-0.005637818,-0.02105863,0.01314691,0.005641907,0.004883637,0.03134543,0.03440552,-0.009455698
1.034868,-0.0001606858,-0.02658941,0.007713163,0.01109381,-0.0008033356,0.01192221,0.06228954,-0.01661271
1.028787,0.01465539,-0.01450686,0.001615653,0.02588278,0.01111743,-0.01765506,0.06208513,-0.02110789
1.029511,0.02027891,0.002515796,0.002324189,0.03147657,0.02797313,-0.05072679,0.05360463,-0.03169208
1.02425,0.01058919,-0.00362345,-0.002954261,0.02175346,0.0216617,-0.07322632,0.04221416,-0.03688556
1.018448,0.005661793,-0.008395272,-0.008772696,0.01678806,0.01671219,-0.08664679,0.01463996,-0.02782104
1.024452,0.003745744,-0.008933771,-0.002786112,0.01482878,0.01599034,-0.08165983,-2.966e-05,-0.02118149
1.030631,-0.001666159,-0.01306461,0.00337532,0.009368112,0.01167056,-0.07305092,0.01567677,-0.02459805
1.029872,-0.005322384,-0.01083637,0.002600082,0.005657505,0.01370448,-0.08745971,0.0376273,-0.02623695
1.025784,-0.006212515,-0.004159552,-0.001504727,0.004707517,0.02018176,-0.09132308,0.04098548,-0.02242292
1.01937,-0.002760142,0.006759839,-0.007935152,0.008094807,0.03089642,-0.07971908,0.0009328989,-0.01581222
1.018671,0.001859718,0.008964717,-0.008650999,0.01264455,0.03289101,-0.0673648,-0.04963441,-0.001391447
1.02412,0.002574133,-0.006524227,-0.003216914,0.01328385,0.01718572,-0.04512936,-0.04666231,0.007694172
1.025835,-0.0002613209,-0.016387,-0.001515372,0.01036824,0.007100374,-0.03360802,-0.02349366,0.003265755
1.025768,-0.004499099,-0.009646291,-0.001595242,0.006045257,0.01361256,-0.02019384,-0.0291873,0.004420985
1.028511,-0.003146642,-0.001729845,0.001135542,0.007307622,0.02129496,0.009594625,-0.02623554,0.008583676
1.03248,-0.0007077627,-0.002537771,0.005094005,0.009651733,0.02024763,0.02907677,-0.00618816,0.007023624
1.032992,-0.0003285949,-0.003270659,0.005596258,0.009931623,0.01927003,0.03833271,0.01063955,0.003132414
1.030145,0.004894045,-0.0005373967,0.002741178,0.01505055,0.02175328,0.04048339,0.02920153,-0.004602766
1.028525,0.00722314,0.002037181,0.001112601,0.01727145,0.02407252,0.04095995,0.03890574,-0.006844296
1.024838,0.007974323,0.009173075,-0.002582912,0.01790977,0.03094765,0.04076821,0.04562405,-0.006345627
1.023701,0.01130223,0.01111233,-0.003727441,0.02111989,0.03262038,0.02198843,0.03672134,-0.01202794
1.027266,0.01168182,-0.0001530362,-0.0001693936,0.02137642,0.02108239,-0.009541081,0.01803523,-0.01449936
1.025873,0.01411832,-0.006628886,-0.001568464,0.02368423,0.01432764,-0.04056738,0.02650152,-0.01927123
1.024051,0.01087309,0.006010432,-0.0033967,0.02030431,0.02668195,-0.049453,0.01873385,-0.02593071
1.022867,0.0001474477,0.02043899,-0.004585436,0.009437714,0.04081941,-0.02604644,0.002177664,-0.0202225
1.021051,-0.002918119,0.01540981,-0.006406105,0.006225016,0.03549267,-0.008916148,0.01491421,-0.01200608
1.022913,-0.002110948,0.01107231,-0.00454723,0.006879247,0.03085059,-0.00286087,0.009881891,-0.005908608
1.022979,-0.003500144,0.01221238,-0.004483176,0.005331794,0.03167862,0.03622522,-0.02295582,0.00330212
1.025768,-0.006339901,-0.002675164,-0.001694531,0.002328991,0.01647145,0.08917245,-0.04495155,0.008585668
1.032246,-0.006534731,-0.01355701,0.00478484,0.001966913,0.005262646,0.0935875,-0.01340478,0.01011862
1.032694,-0.004163145,-0.009953088,0.005235582,0.00416767,0.008533029,0.07527466,0.02643728,0.01111421
1.030315,-0.004455985,-0.006101998,0.002859671,0.003700987,0.01204494,0.08076385,0.0009157681,0.01080702
1.025686,0.003059461,0.002758375,-0.00176499,0.01104004,0.02056126,0.07636776,-0.01387242,0.007423901
1.020389,0.01201511,0.01374725,-0.00705764,0.01981696,0.03120162,0.06390512,0.004508161,0.001902665
1.022058,0.008420816,0.01238288,-0.005383243,0.01604156,0.02948429,0.06574698,-0.006033796,0.00119862
1.027434,0.006960359,0.001368838,-8.280129e-07,0.01439741,0.0181127,0.0550655,-0.007273717,0.001087945
1.03293,0.01033836,-0.002538721,0.005502449,0.017589,0.0138431,0.04421186,0.008294974,-0.0007797342
1.037075,0.009491481,-0.002747557,0.009655647,0.01655287,0.01326816,0.04542442,0.01118421,-0.002568419
1.032521,0.00652567,-0.003448566,0.00511067,0.01339484,0.01219757,0.04324225,0.01150621,-0.007173945
1.026291,0.0007634982,0.00153551,-0.001111286,0.007437503,0.01680914,0.04352131,0.002858282,-0.005493484
1.030405,-0.005963861,0.00247087,0.003011937,0.0005122522,0.01736956,0.04344031,0.001335558,0.0003600623
1.031498,-0.00656878,0.002800402,0.004112464,-0.0002927789,0.01732206,0.04152569,0.01588405,0.002327429
1.024614,-0.002834052,0.004358701,-0.002764131,0.003240251,0.01850152,0.03464998,0.02172151,0.002852492
1.020062,0.0003624707,0.005017835,-0.007308682,0.006234059,0.01878026,0.0224539,0.01175289,0.001610858
1.016495,0.003907817,0.01045238,-0.01086844,0.009576058,0.02383302,0.02295972,-0.01798482,0.007645555
1.018169,0.003099329,0.008213583,-0.009187126,0.008563811,0.0212111,0.03580749,-0.05135411,0.01672412
1.022138,-0.001256924,0.005029162,-0.005209315,0.004003558,0.01764227,0.05162949,-0.06350454,0.02128344
1.022578,-0.0009659059,0.005702652,-0.004760714,0.004090579,0.01793018,0.05725296,-0.0484212,0.02892436
1.026468,0.001171074,-6.812391e-05,-0.0008607878,0.006023873,0.0117729,0.04837659,-0.0318639,0.0285732
1.028142,0.003292664,-0.000961781,0.0008247248,0.00794235,0.01049219,0.04497481,-0.04584404,0.02405041
1.025021,0.002666063,0.004632673,-0.002283402,0.007113381,0.01569947,0.05197331,-0.05715759,0.02740971
1.023534,0.0006721829,0.01040281,-0.003756412,0.004918016,0.02108269,0.06103363,-0.05413389,0.02647355
1.026562,0.005457456,0.00954708,-0.0007137188,0.009502829,0.01984042,0.06667226,-0.05185686,0.02446711
1.03092,0.008093175,0.006011028,0.003659294,0.01193919,0.01591823,0.06457528,-0.03840486,0.02210099
1.027145,0.004575144,0.008171099,-9.810514e-05,0.008222857,0.01769267,0.06043387,-0.03834454,0.0149339
1.023805,0.002626822,0.0003956691,-0.003421449,0.006077275,0.009532281,0.06148068,-0.04012279,0.0154558
1.026271,0.00166645,-0.009803591,-0.000937436,0.004920761,-0.001050877,0.06584508,-0.02911502,0.0169099
1.027526,-0.0004553268,-0.01384889,0.0003365742,0.002604133,-0.005478286,0.06857425,-0.03181334,0.01219307
1.030645,-0.004075268,-0.02296175,0.003474292,-0.001209105,-0.01497039,0.06556082,-0.02311772,0.01151034
1.030242,-0.004548715,-0.02294789,0.003091388,-0.001873926,-0.01533156,0.05985901,-0.01088426,0.01255531
1.026132,-0.004098913,-0.01661338,-0.0009992765,-0.001613137,-0.00936649,0.06091975,-0.01741604,0.01356112
1.026406,-0.006673544,-0.01926781,-0.0007052168,-0.004373971,-0.01238349,0.06224411,-0.02310357,0.01498356
1.027483,-0.005323067,-0.01796019,0.0003916241,-0.003206432,-0.0114305,0.05960893,-0.03015612,0.01233016
1.02892,-0.003796324,-0.01314153,0.001848299,-0.001858928,-0.00695756,0.0614082,-0.02327632,0.01064682
1.029698,-0.003826927,-0.01552421,0.002646742,-0.002064712,-0.009676238,0.05931131,-0.007166036,0.0141083
1.028995,-0.001884334,-0.01636948,0.001963076,-0.0002929557,-0.01084713,0.04777564,-0.004984509,0.0166678
1.030183,-0.002925302,-0.0149406,0.003169207,-0.001500197,-0.009732836,0.03206905,0.003420552,0.01163182
1.030688,-0.003204853,-0.01678109,0.003693274,-0.001941277,-0.01187628,0.0189449,0.01337309,0.002603379
1.029646,-0.00217211,-0.01608468,0.002668048,-0.001065141,-0.01147065,0.01167594,0.01757336,-0.002425742
1.028833,-0.003230804,-0.01611478,0.001871623,-0.002275367,-0.01177886,0.004397441,0.02204628,-0.003529514
1.029217,-0.002988264,-0.01768795,0.002271885,-0.00217915,-0.01361699,0.005401683,0.01507699,-0.003885812
1.030381,-0.004423555,-0.01527182,0.003449786,-0.003755411,-0.01145229,0.008555404,0.01223658,-0.00546204
1.029887,-0.006400844,-0.01258728,0.002969761,-0.005868154,-0.009005296,0.0008387567,0.01927479,-0.0055181
1.026926,-0.005466882,-0.007815736,2.073562e-05,-0.005063926,-0.004457286,-0.002017851,0.01878435,-0.004421872
1.023144,-0.005148013,-0.005426603,-0.003751397,-0.004868866,-0.002277715,-0.003260927,0.01276846,-0.006309256
1.023869,-0.004663791,-0.01041745,-0.003016704,-0.004502359,-0.007464365,-0.007150669,0.007148069,-0.006733242
1.027096,-0.002970599,-0.01392252,0.0002191758,-0.002920674,-0.01115164,-0.007027207,0.01331796,-0.006135914
1.0264,-0.00234569,-0.01611073,-0.0004689772,-0.00240102,-0.01350849,-0.01269199,0.02186967,-0.005773701
1.026061,-0.003272117,-0.01687346,-0.00080173,-0.003426463,-0.01442621,-0.0222018,0.01314819,-0.004054284
1.027334,-0.00469822,-0.01590407,0.0004773854,-0.004945359,-0.01359801,-0.03060512,0.002738475,-0.00544459
1.028757,-0.005879257,-0.01624038,0.001906261,-0.006212947,-0.01406162,-0.0308617,-0.001879202,-0.006181418
1.030773,-0.005923073,-0.01125519,0.003927147,-0.00633701,-0.009189798,-0.02605974,0.0004098862,-0.004480448
1.026679,-0.004763285,-0.00585835,-0.0001627809,-0.005251094,-0.003892547,-0.02850363,0.002998394,-0.001857174
1.019496,-0.003876539,-0.00655244,-0.007343353,-0.004431813,-0.00467279,-0.02020372,-0.0205112,0.004789171
1.019355,-0.002463285,-0.007774061,-0.007480874,-0.003079649,-0.005967608,-0.00792695,-0.04090646,0.008354355
1.025004,-0.002203778,-0.01462375,-0.001829401,-0.002874954,-0.01287797,-0.008439063,-0.02246433,0.006180569
1.031423,-0.003813651,-0.02355145,0.004591582,-0.004533496,-0.02185401,-0.005422887,-0.002974025,0.004829329
1.033034,-0.004312724,-0.01798222,0.006204985,-0.005075209,-0.01632075,-0.000703193,-0.003844379,0.002995974
1.029058,-0.005863834,-0.008873024,0.00223105,-0.006663006,-0.007235078,0.003365058,0.001496365,-0.002426623
1.025351,-0.00589639,-0.01145689,-0.001474431,-0.006726328,-0.009830207,0.006847909,0.006854809,-0.005409184
1.022672,-0.002926337,-0.01362848,-0.004152449,-0.003781147,-0.01200114,0.006196893,-0.005805094,0.0005447606
1.021607,-0.002610517,-0.01530421,-0.005217032,-0.003484398,-0.0136646,0.008004651,-0.01542711,0.00764065
1.024098,-0.002755784,-0.02102938,-0.002725418,-0.003643096,-0.01936609,0.003987725,-0.01231082,0.008045705
1.027635,-0.002672952,-0.01795335,0.0008130989,-0.003568243,-0.01625503,0.0005676602,-0.0008027357,0.005652275
1.030226,-0.003087473,-0.009438517,0.003404601,-0.003985475,-0.007693913,0.007376068,0.01244059,0.003440665
1.029971,-0.001713927,-0.004746117,0.003150564,-0.002609564,-0.002944316,0.007795078,0.004331322,-0.0001013939
1.027365,0.0007887191,-0.008387514,0.0005456816,-9.969874e-05,-0.006518196,-0.006522632,-0.009255512,-0.003247111
1.026044,0.004688472,-0.01544287,-0.0007746146,0.003811809,-0.01349634,-0.02855677,-0.008337142,-0.0004992415
1.026049,0.004789137,-0.009686358,-0.0007691077,0.003928322,-0.007653352,-0.03625041,-0.008747054,0.003143112
1.026816,0.001317807,-0.005546402,-1.201949e-06,0.0004764396,-0.003418119,-0.02827522,-0.007806931,0.001003664
1.027438,0.0007511915,-0.009783108,0.0006206412,-6.755079e-05,-0.007551289,-0.02400149,-0.004809227,-0.0001294446
1.027837,-0.001293928,-0.006113189,0.0010203,-0.002087182,-0.00377017,-0.01474663,-0.003370605,0.0005157066
1.028736,-0.003728894,-0.004456366,0.001919057,-0.004494005,-0.001995093,-0.004173469,0.0004121448,0.0005902218
1.027226,-0.002602582,-0.006659538,0.0004090368,-0.003337018,-0.004073605,-0.003240349,-0.0004142422,0.00555874
1.024932,-0.001606769,-0.007067004,-0.001884781,-0.002308084,-0.004350641,0.0008740114,-0.002176163,0.01036861
1.025224,-0.001233807,-0.01040376,-0.001593741,-0.001899673,-0.007551754,0.001984037,-0.002689696,0.007882014
1.02806,-0.001354995,-0.01189906,0.00124128,-0.001983235,-0.008906621,-0.002767835,-0.002539303,0.00337167
1.031824,-0.001491399,-0.01226513,0.0050045,-0.002079993,-0.009127805,-0.001082019,0.002508911,0.0008011416
1.031699,-0.0007541237,-0.01086571,0.00487913,-0.001301208,-0.007579315,-0.002218763,0.004567418,0.0006600656
1.029353,0.001210494,-0.006782134,0.002531248,0.0007066074,-0.003342802,-0.006574243,0.002871562,0.002452879
1.027858,0.002940385,-0.007760515,0.00103426,0.002481152,-0.004164773,-0.007955114,-0.0003686366,0.002384649
1.026176,-0.0004992524,-0.01343429,-0.0006509792,-0.0009126496,-0.009679096,-0.01466505,-0.005105334,-3.546488e-05
1.027709,-0.003978202,-0.01797773,0.0008788322,-0.004344801,-0.01406031,-0.01910451,-0.004481123,-0.004324545
1.030137,-0.0001551426,-0.01478078,0.003302732,-0.0004740898,-0.01069845,-0.01765891,0.0005110372,-0.008780908
1.028275,0.003078329,-0.01012727,0.001436211,0.002807776,-0.005877431,-0.01814658,0.004653797,-0.007898407
1.026911,0.001562828,-0.01408884,6.724904e-05,0.001341199,-0.009669045,-0.01682224,0.004431039,-0.006139604
1.028187,0.003544864,-0.01869316,0.001337155,0.003372417,-0.01410115,-0.01694198,0.00602229,-0.007355618
1.027869,0.006143707,-0.02152008,0.001013321,0.0060204,-0.01675364,-0.01843497,0.01302922,-0.004401905
1.027256,0.001064643,-0.02305238,0.0003923625,0.0009901044,-0.01810913,-0.01739134,0.01356397,-0.001399684
1.02757,-0.003432903,-0.02032475,0.0006989866,-0.003459287,-0.01520213,-0.01824306,0.009681439,-0.004050517
1.027752,-0.001312542,-0.01803818,0.0008729621,-0.001291453,-0.01273345,-0.0180155,0.003786013,-0.006410513
1.029547,-0.0005552987,-0.01452003,0.002659187,-0.0004874124,-0.009030453,-0.01780498,-0.005185442,-0.005811583
1.029786,-0.002590155,-0.01374735,0.002888482,-0.002476153,-0.008070303,-0.01942472,-0.004479648,-0.002465672
1.02878,-0.004330339,-0.0170709,0.001871973,-0.004170885,-0.01120399,-0.01805399,-0.003009342,-0.001648355
1.031272,-0.007826594,-0.01461863,0.004353014,-0.00762225,-0.008559668,-0.01103421,-0.007621103,-0.004958029
1.032655,-0.009620331,-0.01552871,0.005725252,-0.009371434,-0.009275697,0.00198379,-0.000925112,-0.004712718
1.031744,-0.006796329,-0.0213975,0.004801209,-0.006502917,-0.0149486,0.008213009,0.01195983,-0.005809585
1.03191,-0.003716943,-0.02423752,0.00495398,-0.003378795,-0.01759093,0.005337027,0.02717055,-0.009664205
1.031619,-0.0009508595,-0.02492226,0.004648083,-0.0005676363,-0.01807604,0.007539415,0.04174981,-0.009134317
1.03,-0.002090771,-0.01644907,0.003012712,-0.001662154,-0.009401113,0.00546191,0.02538662,-0.009328717
1.027708,-0.006013258,-0.009347116,0.0007029163,-0.005538974,-0.002095382,-0.01563712,0.002360681,-0.009014153
1.026546,-0.002700116,-0.009580836,-0.0004783604,-0.002179881,-0.002123621,-0.04242687,0.01033643,-0.005253481
1.0246,0.003018767,0.002914879,-0.002444263,0.003585229,0.01057866,-0.04871804,-0.0005382164,-0.0007596639
1.021035,0.006321023,0.01888815,-0.006030484,0.006933806,0.02675861,-0.03490404,-0.03566527,0.005085188
1.022563,0.006624121,0.01304462,-0.00452376,0.007282945,0.02112047,-0.02835262,-0.03658395,0.004345668
1.028254,0.001597227,-0.005189976,0.001144613,0.002301397,0.00308848,-0.02957242,-0.01580225,0.000798508
1.032644,-0.001125481,-0.01276978,0.005512243,-0.0003769632,-0.004292471,-0.02622149,0.003058211,0.000868392
1.034229,-0.00313436,-0.01108684,0.007075428,-0.002342611,-0.002414801,-0.02503037,0.01663878,-0.00606149
1.031136,-0.004099678,-0.008965088,0.003958707,-0.003265792,-0.0001025531,-0.02223718,0.01427255,-0.01053427
1.028166,-0.000204049,-0.009779284,0.0009659101,0.0006709509,-0.0007306326,-0.01790355,0.01519497,-0.005588363
1.027626,0.002020934,-0.0115065,0.0004013814,0.002936032,-0.002276252,-0.01461283,0.02166516,-0.003610365
1.025786,0.006274086,-0.006537191,-0.001463434,0.007228135,0.002870005,-0.005465075,0.02039997,-0.001560355
1.026234,0.005408473,-0.003733374,-0.001040567,0.00640006,0.005845929,-0.002283287,0.01449332,0.0002642369
1.027772,-0.002247499,-0.003907667,0.0004719864,-0.001220061,0.005838591,0.002951965,0.000789181,-0.002306847
1.026677,-0.004235172,-0.003801183,-0.0006488337,-0.003173673,0.006106513,0.02076663,-0.00411966,-0.003648824
1.026142,-0.008760626,-0.008759023,-0.001209491,-0.007666726,0.001304272,0.02602005,0.005202923,-0.003272945
1.025395,-0.005844013,-0.006226496,-0.00198237,-0.004719092,0.003986352,0.02669859,0.007780351,0.002872481
1.024345,0.006388233,-0.001851523,-0.003057553,0.007543023,0.008504664,0.03275865,0.002581522,0.01220405
1.023322,0.006295236,-0.0009461311,-0.004106135,0.007478689,0.009546929,0.02660767,-0.009221006,0.01161549
1.02179,0.004925158,0.004865224,-0.00566223,0.006135779,0.01548831,0.01747185,-0.01983519,0.007909195
1.023143,0.006214385,0.003143245,-0.004333352,0.007450353,0.01388902,0.007024989,-0.0160312,0.009324976
1.026069,0.004787309,0.0002361709,-0.001429131,0.006046515,0.0110968,-0.00605832,-0.01138119,0.006438364
1.029573,0.006205443,0.001405785,0.002053488,0.007485519,0.01237302,-0.01774909,-0.0113648,-0.001080314
1.032548,0.005483707,-0.004758461,0.00500822,0.006782046,0.006306853,-0.04168492,0.004312882,-0.00665493
1.028886,0.006558396,-0.009520492,0.001326854,0.007872162,0.001634282,-0.05517995,0.02123159,-0.007723126
1.024287,0.009606031,-0.008740402,-0.00328982,0.01093215,0.002495343,-0.04440545,0.006330775,-0.005606407
1.026469,0.009705757,-0.00798477,-0.001125607,0.01104087,0.003323713,-0.03996239,-0.009093226,-0.007734101
1.027224,0.01018241,-0.009204735,-0.0003876091,0.01152283,0.002168512,-0.0380914,-0.0001267761,-0.009069439
1.024548,0.00771695,-0.01081962,-0.00307897,0.009058658,0.0006106913,-0.02805003,-0.003625056,-0.005708748
1.025744,0.001662389,-0.01111339,-0.001897312,0.003001185,0.000366621,-0.01803205,-0.01690545,-0.003699451
1.028966,-0.004800024,-0.01340137,0.001311329,-0.003468321,-0.001878669,-0.002422656,-0.01302628,0.0002305142
1.032151,-0.004331894,-0.01477362,0.004484054,-0.003011169,-0.003214768,0.008880943,0.001387515,-0.0004110633
1.033041,-0.0004491982,-0.01200563,0.005362733,0.0008570754,-0.0004167186,0.004763298,0.01561323,-0.00551939
1.030642,-0.003836794,-0.0008105498,0.002953412,-0.002548072,0.01080271,0.01049147,0.01278708,-0.002618318
1.029785,-0.003344172,0.01218334,0.002085417,-0.002075766,0.02381526,0.02291948,8.8123e-05,0.0009108731
1.026462,-0.001155467,0.003991793,-0.001247646,9.02026e-05,0.01563627,0.01181077,0.001661748,0.0008031137
1.023751,-0.002501682,-0.006439164,-0.003968038,-0.001280871,0.005211306,0.001718613,0.00668925,-5.821501e-05
1.028679,0.003030703,0.004623575,0.0009502796,0.004224765,0.01627328,0.006061277,0.0135256,-0.002159194
1.032072,0.005476962,0.008756012,0.004334277,0.006642496,0.02039804,-0.001974386,0.0234761,-0.005216845
1.030716,0.002653122,0.003026935,0.002970207,0.003788329,0.01465405,-0.01610728,0.02500256,-0.007844541
1.02497,0.002504674,0.004448417,-0.002784364,0.003607715,0.01605306,-0.02775036,0.02076064,-0.004940782
1.018791,0.001652429,0.002611806,-0.008972316,0.002721484,0.01418623,-0.03004492,0.002575861,-0.004465026
1.023857,0.0009080855,-0.0006046313,-0.00391366,0.001941402,0.0109317,-0.01392603,-0.01689261,-0.007921413
1.032268,-0.001494577,-0.008479129,0.00448973,-0.0004986394,0.003011319,0.0007310126,-0.01173454,-0.008180911
1.034377,-0.003991867,-0.02400787,0.006592154,-0.003034752,-0.01257069,0.005480262,0.01577756,-0.01119882
1.033938,-0.004520335,-0.02407859,0.006147249,-0.003603195,-0.0127012,0.003059968,0.04230993,-0.01231966
1.028585,-0.005611809,-0.01508056,0.0007884452,-0.004735444,-0.003768321,-0.001647117,0.02736584,-0.009916204
1.02263,-0.003944103,-0.01433236,-0.005172641,-0.003108939,-0.003089669,-8.513956e-05,-8.204669e-05,-0.009972186
1.024638,-0.001973542,-0.01242453,-0.003171422,-0.00117968,-0.001255038,-0.003468093,0.004367298,-0.008459011
1.026377,-0.001976879,-0.009329538,-0.001437829,-0.001224179,0.001763652,-0.00996479,0.009652196,-0.00452221
1.024077,0.0004164143,-0.009483066,-0.003742706,0.001128256,0.001531168,-0.01214461,0.01096644,-0.001130975
1.025027,0.003488675,-0.009778252,-0.00279784,0.004160033,0.001154712,-0.01418685,0.00220602,-0.002470605
1.025575,0.0005298694,-0.009554111,-0.002253845,0.001161101,0.001295586,-0.01195362,-0.02226761,-0.004145353
1.02434,-0.004096123,-0.007737238,-0.003493134,-0.003504664,0.003027495,-0.010466,-0.02684894,-0.001674806
1.025365,-0.001281395,-0.006239777,-0.002470253,-0.0007292502,0.004438529,-0.006736389,-0.02718362,0.002438779
1.02504,0.002235126,-0.006014986,-0.002797773,0.002748548,0.004575591,-0.0006686548,-0.03094401,0.008544302
1.024673,0.002916979,-0.004547963,-0.003164925,0.003392294,0.005953685,-0.007932887,-0.02453072,0.009086439
1.025575,0.003401005,-0.0009701442,-0.002262668,0.003838748,0.009441412,-0.0132779,-0.02416927,0.006850459
1.025621,0.002150505,0.001771349,-0.002215345,0.002551103,0.01209158,-0.005630802,-0.01955639,0.00918081
1.026538,0.00271961,-0.002552106,-0.001294983,0.003083394,0.00767539,-0.0001717233,-0.01471395,0.01113823
1.025746,0.002278877,-0.006493094,-0.002084073,0.002606104,0.003640158,0.001808569,-0.01858203,0.01447255
1.024275,0.0006885443,0.001575344,-0.003549672,0.0009794204,0.01161284,0.009384647,-0.01837189,0.01441106
1.025223,0.002650723,0.007844852,-0.002594773,0.00290543,0.01778498,0.02015734,-0.02268129,0.01012011
1.025126,0.003112647,5.045644e-05,-0.002684571,0.003331341,0.009891339,0.0212694,-0.0211779,0.008155778
1.02477,0.00241691,-0.005835919,-0.003031934,0.002599688,0.003903615,0.02167488,-0.007788568,0.003730508
1.025179,0.002012502,-0.002198131,-0.002612311,0.002159406,0.007437949,0.03354924,-0.001998895,0.002635155
1.02492,0.0009590017,-0.002351516,-0.002860461,0.001070048,0.007179113,0.04558697,-0.008113347,0.005928246
1.024286,0.002691564,-0.006565441,-0.003481821,0.00276677,0.002857846,0.04881494,-0.0185842,0.006633345
1.021469,0.007940929,-0.006019962,-0.006283794,0.007980268,0.003294259,0.0301928,-0.01900204,0.009952305
1.019017,0.01377449,-0.0008303687,-0.008720282,0.01377773,0.008373267,0.004087752,-0.01993016,0.01184168
1.022986,0.01363034,0.004779982,-0.00473415,0.01359685,0.01387159,0.002487481,-0.02507362,0.01069608
1.028867,0.01053247,0.001578358,0.001166568,0.01046109,0.0105564,0.0007385003,-0.01961103,0.01140036
1.029242,0.01039047,-0.009757254,0.001562951,0.01027964,-0.0008944342,-0.008547213,-0.0194684,0.009433554
1.028656,0.006984163,-0.01598596,0.0009999668,0.006831982,-0.007239798,-0.007886501,-0.01609605,0.007074131
1.030262,0.002224611,-0.01403443,0.002629575,0.002029034,-0.005405817,-0.02056304,-0.003918018,0.004401836
1.031609,-0.00137309,-0.0107309,0.004001969,-0.001614071,-0.002220083,-0.02823459,-0.002558424,-0.003332718
1.033105,-0.004663561,-0.01296877,0.005523705,-0.004951705,-0.004575426,-0.01254537,0.0015313,-0.008542073
1.029563,-0.002388674,-0.01548286,0.002007866,-0.002725351,-0.007206152,-0.007402411,0.005005665,-0.00439627
1.024042,-0.001879242,-0.01448049,-0.003487342,-0.002265418,-0.006319037,-0.007580871,0.003324334,0.001201906
1.026333,-0.004015682,-0.01572361,-0.001169797,-0.004451957,-0.00767549,-0.003414204,0.006896269,-0.0001811208
1.02797,-0.001821458,-0.0134587,0.0004932945,-0.002308092,-0.005521458,-0.001034261,0.006419687,-0.0007640342
1.027093,-0.001900659,-0.01116534,-0.0003567158,-0.002437591,-0.003336071,0.003474203,0.005601851,0.00119558
1.030069,-0.001343704,-0.01302162,0.002645655,-0.001930609,-0.005297087,0.005191397,0.002978995,-0.0007077368
1.028967,0.001645971,-0.0103542,0.001569351,0.001009625,-0.002730892,0.010079,-0.001313823,0.00160739
1.024595,0.002921458,-0.009076133,-0.002776725,0.002236319,-0.001550329,0.01151811,0.003442542,0.007095057
1.023216,0.005385293,-0.009781056,-0.004129928,0.004652014,-0.002348909,0.002958762,0.006129313,0.005989619
1.023069,0.00513309,-0.008272188,-0.004251746,0.004352244,-0.0009297733,-0.002249451,0.002594086,0.001573811
1.024284,0.004844996,-0.006618921,-0.003011462,0.004017026,0.0006377155,-0.007123259,-0.003224211,-0.00104359
1.024581,0.005467649,-0.004710018,-0.002689812,0.004592874,0.002464747,-0.007007322,-0.008818925,-0.001242759
1.024923,0.002304369,-0.006977388,-0.002322418,0.00138301,0.0001193002,-0.00125952,-0.009320376,0.0008285393
1.026573,0.002469097,-0.009457418,-0.0006464252,0.001501337,-0.002435114,0.0008675065,-0.008280326,0.004375073
1.026533,0.003514098,-0.009901495,-0.0006610828,0.002500129,-0.0029499,0.006903052,-0.00452058,0.003441941
1.028266,0.003121203,-0.01114242,0.001098096,0.002061232,-0.004257795,0.009576233,0.00419517,-0.0002426491
1.029581,0.004815655,-0.009948798,0.00243848,0.003709877,-0.00312733,0.004900969,0.00909114,0.0003378553
1.026788,0.003800925,-0.006923439,-0.0003288585,0.002649502,-0.0001612446,0.005443895,0.004393589,0.000952632
1.024059,0.002035874,-0.002847923,-0.003032406,0.0008389386,0.003858825,0.005868399,-0.002505789,0.002077193
1.023065,0.002311193,-0.003243206,-0.004000608,0.001068895,0.003411722,0.002947078,-0.006308384,0.003824948
1.024651,0.006256849,-0.005719371,-0.002389052,0.004969366,0.0008870989,-0.001698618,-0.00565356,0.002726718
1.025956,0.01188143,-0.002033328,-0.001058852,0.01054886,0.004527794,-0.01182138,-0.0003226675,0.001792964
1.02661,0.01020153,0.00221604,-0.0003795758,0.008823719,0.008734641,-0.01617712,0.0003009227,-0.0006304278
1.029333,0.008256409,0.005065895,0.002367912,0.006832894,0.01154438,-0.01717218,-0.0002303886,-0.004408197
1.028973,0.01055252,-0.000854525,0.002032973,0.009082565,0.005585715,-0.03102345,0.00431199,-0.005518026
1.025166,0.008739912,-0.01084827,-0.001749005,0.007222543,-0.004444785,-0.04047823,0.006513697,-0.002647263
1.022857,0.006075032,-0.004313084,-0.004033308,0.004509096,0.00205502,-0.02521827,0.006510083,0.001095502
1.024098,0.001764329,0.001301574,-0.002767524,0.0001485987,0.007635624,-0.005260636,0.005861514,0.001191635
1.026035,-0.005159869,-0.004851678,-0.000806568,-0.006826488,0.001449474,-0.003281058,0.008300842,0.0005252058
1.02474,-0.003739133,-0.00726084,-0.002077384,-0.00545738,-0.0009916049,-0.002905446,0.01469924,-0.0005429503
1.024618,-0.0008413751,-0.01045913,-0.002175422,-0.002611541,-0.004220847,0.0007995476,0.02134552,-0.001617661
1.025568,-0.00299364,-0.0111044,-0.001202083,-0.004815621,-0.004895967,-0.004886921,0.02634435,0.0003565926
1.024794,0.001726157,-0.007610282,-0.001951487,-0.0001472212,-0.001430394,-0.0003771854,0.02173852,0.0008962898
1.026132,0.007315953,-0.008789279,-0.0005892276,0.005391784,-0.002636494,0.005444327,0.01807996,-0.0009315169
1.027935,0.004912923,-0.006692617,0.001237332,0.002938574,-0.0005654024,-0.005505754,0.02231879,-0.003807901
1.028571,0.002386454,-0.004148787,0.001896961,0.0003624688,0.001954405,-0.007353125,0.01743849,-0.00666824
1.027975,0.001541074,-0.0003171957,0.001324667,-0.0005320052,0.005763428,0.0009862539,-0.0003593185,-0.001718847
1.023839,0.003728879,0.007862837,-0.002787879,0.001607319,0.01392207,0.007720714,-0.02048791,0.01078079
1.021435,0.007914556,0.001477953,-0.005167954,0.005745156,0.007516497,0.006819118,-0.02575515,0.01926689
1.025222,0.007270374,-0.009822163,-0.001358314,0.005053687,-0.003804021,-0.003277603,-0.02416157,0.01710969
1.029584,0.005017988,-0.0112766,0.003026376,0.00275442,-0.005278671,-0.008885201,-0.02698437,0.0110579
1.029465,0.000982136,-0.0142781,0.002929896,-0.001327989,-0.008299966,-0.01278142,-0.01343517,0.008201312
1.027824,-0.00568138,-0.0123879,0.001310972,-0.008037641,-0.006428795,-0.009005176,-0.0022552,0.004181771
1.027705,-0.005181277,-0.007065629,0.001214544,-0.007582945,-0.001124465,0.002666648,-0.008520395,-0.0002866128
1.027694,-0.001663904,-0.008704005,0.001224386,-0.004109842,-0.002779503,0.007421979,-0.003996655,-0.0021542
1.027658,-0.002672353,-0.004528998,0.001208863,-0.005161074,0.001380179,0.008812928,0.001223451,-0.002028756
1.026959,-0.0001467408,0.003091401,0.0005300065,-0.002676501,0.008986513,0.007316925,-0.005068017,0.003442142
1.026123,0.003551506,0.002279207,-0.0002871955,0.0009826049,0.008161226,0.01181134,-0.01104625,0.007505908
1.027338,0.001322912,-0.002736768,0.0009456435,-0.001283185,0.003132733,0.01617974,-0.01362557,0.007956439
1.028195,-0.001789892,-0.007255405,0.001820565,-0.004431229,-0.001398121,0.007377459,-0.01188837,0.009484871
1.027724,-0.003303023,-0.006594776,0.001365807,-0.005977548,-0.0007494796,0.004684138,-0.01029943,0.004255779
1.027669,-0.001639262,-0.006055648,0.001326991,-0.004344741,-0.0002220691,0.009341519,-0.006240024,-0.001793318
1.027846,0.002228668,-0.01118942,0.001518571,-0.0005053786,-0.005367215,0.01334,0.002231837,0.0008484582
1.027634,0.003255699,-0.01297905,0.00131976,0.0004955054,-0.007167702,0.01481326,0.007118741,0.002697196
1.026617,0.003088891,-0.01224174,0.0003153506,0.0003048951,-0.006440468,0.01757905,0.003811565,0.001091664
1.025291,0.003452693,-0.007861427,-0.00099845,0.0006471151,-0.002069164,0.03092083,-0.007918415,0.00261061
1.025334,0.003679899,-0.0002435239,-0.0009449018,0.0008548325,0.005540927,0.03762619,-0.0196032,0.005313347
1.028609,0.0009896968,-0.004679434,0.002339297,-0.001852884,0.001098298,0.02975871,-0.02338509,0.004516585
1.032202,-0.002471782,-0.008435791,0.00594168,-0.005329948,-0.002663843,0.01877409,-0.0177406,0.004438433
1.032376,0.001474048,0.002421078,0.006123146,-0.00139773,0.008188068,0.01564074,-0.01365891,0.006413171
1.032246,0.006339848,0.006426102,0.005999632,0.003456446,0.01218872,0.01694888,-0.01701728,0.006491553
1.031993,0.005822965,-0.004623027,0.005751366,0.002929791,0.001135388,0.003431103,-0.01545042,0.006081169
1.029656,0.006256721,-0.01429179,0.003417121,0.003355381,-0.008537662,-0.01056528,-0.0137294,0.006160998
1.028719,0.007355321,-0.01102119,0.002481743,0.004447156,-0.005271316,-0.008284507,-0.01380994,0.005317094
1.029253,0.005709716,-0.005773219,0.003014583,0.002795798,-2.73065e-05,-0.001699355,-0.004960067,0.00300134
1.029174,0.0005506204,-0.00765993,0.002933447,-0.002368185,-0.001917515,0.004457924,0.005414535,0.001738223
1.029205,-0.003915009,-0.00669059,0.002959507,-0.00683788,-0.0009511586,0.01242047,0.008355634,0.001696471
1.029114,0.0001019993,-0.01133667,0.002862222,-0.002823985,-0.005599649,0.01566706,0.006116633,-0.0004866775
1.029165,0.005227575,-0.01908673,0.002905133,0.002299556,-0.01335135,0.008800795,0.004813361,-0.003869441
1.029246,0.002549881,-0.009468414,0.002975717,-0.0003791091,-0.003733562,0.00608416,0.003180244,-0.005289955
1.02905,0.001666566,-0.002088382,0.002767739,-0.001262418,0.003647316,0.007065444,0.001854908,-0.003813649
1.029258,0.003932385,-0.009099934,0.002962372,0.001004325,-0.003362006,0.001742121,0.00331388,-0.00347691
1.028791,0.002136703,-0.01147477,0.002479275,-0.0007895729,-0.005733285,-0.004332969,0.0007620158,-0.003409606
1.027321,0.00124076,-0.009363303,0.00099166,-0.001682925,-0.003616849,-0.01286888,0.0009113864,-0.001519403
1.026306,-0.0005263448,-0.01177763,-4.2391e-05,-0.003446632,-0.006024682,-0.01156402,0.005157957,-0.002070975
1.02786,-0.005351713,-0.0162921,0.001490646,-0.008267706,-0.01053097,0.00350116,0.006966614,-0.003417432
1.030184,-0.005200087,-0.01559018,0.003793162,-0.008110678,-0.009818913,0.01547224,0.01151946,-0.006843784
1.029006,-0.000979014,-0.007547266,0.002591061,-0.003882826,-0.001763642,0.01957744,0.01265253,-0.009272424
1.027355,0.002740762,-8.756746e-06,0.0009147045,-0.0001547239,0.005789516,0.01642863,0.01018872,-0.002169212
1.026243,0.002451191,-0.001863421,-0.0002233044,-0.0004344252,0.00395154,0.01853702,0.005866008,0.003570263
1.024152,0.00219335,-0.005880367,-0.002341604,-0.0006809519,-4.704771e-05,0.0195664,-0.001448481,0.001166904
1.025043,0.007256695,-0.003295592,-0.001478827,0.004395012,0.002557453,0.010918,0.0037623,6.474388e-06
1.027568,0.007867011,-0.003501467,0.001017455,0.005019021,0.002372431,0.008989656,0.0107051,0.0004308075
1.031508,0.005266205,-0.002945485,0.004926986,0.002432671,0.002950138,0.006292582,0.006260964,-0.003644588
1.035557,0.003442737,0.00297666,0.008946255,0.0006241522,0.008894581,0.00223363,0.007665804,-0.00924998
1.029781,-0.002552034,0.003235577,0.003138561,-0.005355311,0.009175963,0.005703794,0.01037292,-0.01057159
1.022579,-0.004213831,0.00250487,-0.004094671,-0.007001388,0.00846739,0.01134511,0.005089335,-0.008213056
1.026264,-0.001163478,0.003252166,-0.0004430705,-0.003934715,0.009235995,0.02076259,0.001892682,-0.003317024
1.029604,0.0006066972,0.003223845,0.002864167,-0.002147449,0.009227697,0.02645061,0.00196743,0.001145161
1.02823,0.003664035,0.004725588,0.001455575,0.0009278052,0.01074774,0.02896419,0.001033486,0.003952565
1.02688,0.00348661,0.003125067,7.163925e-05,0.0007690564,0.009163352,0.03169765,-0.004050452,0.004654549
1.024106,0.002109627,0.002213403,-0.002737506,-0.0005886101,0.008265281,0.03082476,-0.009280442,-0.0005066076
1.024757,0.005049485,0.003327945,-0.002121266,0.002371079,0.009390553,0.03243144,-0.004524808,-0.00361435
1.027842,0.006268685,0.003432734,0.0009293723,0.00361047,0.009502925,0.02812639,0.001053604,-0.0001483181
1.027506,0.005274714,0.002645499,0.0005592466,0.00263684,0.008719857,0.02045342,-0.0005435297,0.002687217
1.026881,0.005573756,-0.005634924,-0.0001004453,0.002956151,0.000440008,0.01886541,0.005356429,0.003961003
1.025311,0.00560793,-0.01436414,-0.001704186,0.003010322,-0.008292156,0.01430857,0.0128955,0.003646216
1.024059,0.005324094,-0.01112331,-0.002990381,0.002746024,-0.005057401,0.0144684,0.003396389,0.0005293394
1.024654,0.004715076,-0.004548206,-0.002428431,0.002155921,0.001508992,0.01635946,-0.005572953,-0.003542364
1.023191,0.003836541,-0.003838306,-0.003923594,0.001295549,0.002207864,0.005505933,0.0003653937,-0.003582226
1.023307,0.004109031,-0.004088749,-0.00383848,0.00158536,0.001944226,-0.002064284,0.002466999,-0.001622905
1.025083,0.004176218,-0.004349889,-0.002092805,0.001668959,0.001667813,0.005163092,0.00142221,-0.002228711
1.027619,0.003150167,-0.006459621,0.0004139774,0.0006583573,-0.0004591543,0.01309582,0.01320487,-6.783562e-05
1.032079,0.002517908,-0.007018054,0.004846633,4.055655e-05,-0.001036628,0.01216959,0.02305283,0.0002772499
1.0305,0.00272246,-0.007246825,0.003241757,0.0002585821,-0.001286033,0.01104432,0.01388094,-0.003024274
1.025483,0.002931952,-0.007243186,-0.001801303,0.0004805841,-0.001304394,0.01363892,0.0001989588,-0.002550958
1.023639,0.00269632,-0.00798725,-0.003669557,0.000256518,-0.002071594,0.01463421,-0.001043519,-0.00253393
1.022217,0.002927353,-0.009427918,-0.005114736,0.0004981914,-0.003536292,0.0177024,0.005799492,-0.001526108
1.023381,0.003761479,-0.007983046,-0.003971794,0.001342044,-0.002116082,0.02116045,0.01110022,0.0006637727
1.025964,0.004354686,-0.009646095,-0.001409299,0.001944053,-0.003804165,0.01948267,0.01187017,-0.0008463199
1.026649,0.004310264,-0.0105848,-0.0007436555,0.001907472,-0.004768016,0.01831438,0.01037347,-0.001867177
1.027048,0.003797575,-0.006296246,-0.0003616483,0.00140162,-0.0005044475,0.02037894,0.006753816,-0.002524735
1.027804,0.003146694,-0.004084666,0.0003780569,0.0007565443,0.001682467,0.02154679,0.0003832797,-0.002003385
1.029774,0.001707139,-0.00207425,0.002334547,-0.0006782274,0.003668571,0.02045212,0.001969371,0.0007761034
1.029657,0.0005024384,-0.001513203,0.002203968,-0.001879105,0.004205571,0.02041855,0.005921487,0.002256371
1.028342,0.0003437745,-0.0001985255,0.0008775529,-0.002034788,0.005496317,0.02182523,-0.001839748,0.002086242
1.029491,0.0008405969,0.003821826,0.00201514,-0.001535685,0.009492635,0.02038171,-0.005308995,0.0003307536
1.028128,0.004055773,-0.0004249693,0.0006424777,0.001681188,0.005221428,0.01391548,-0.002119282,0.0003179214
1.025657,0.008347172,-0.005114577,-0.001837482,0.005973708,0.0005068001,0.006688552,-0.003854302,0.001797076
1.023837,0.01106882,-0.002235789,-0.003665934,0.008695747,0.003359877,0.004016325,-0.006382426,0.002961688
1.021167,0.01104742,-0.002192903,-0.006343157,0.008673712,0.003376355,0.001761412,-0.01163873,0.005442123
1.022951,0.005262641,-0.0040664,-0.004565903,0.002886943,0.00147573,0.0001294918,-0.01526428,0.004442472
1.027549,0.0007953921,-0.005064379,2.789769e-05,-0.001583804,0.0004499112,0.0005813602,-0.01398776,0.001225917
1.03069,0.003240364,-0.00772996,0.003164679,0.0008561903,-0.002244138,-0.001954773,-0.01011538,0.0004599816
1.030117,0.005410595,-0.007534846,0.002589554,0.00302006,-0.002077957,0.0006517846,3.14291e-05,0.0005972022
1.025409,0.006657167,-0.00604511,-0.002120373,0.004258913,-0.0006174222,0.004843698,0.005452264,0.001665886
1.023767,0.008431448,-0.007207839,-0.003763002,0.006024053,-0.001809444,-0.001432171,0.001888795,0.001206925
1.023629,0.008440462,-0.005138772,-0.003900123,0.006022374,0.0002303868,-0.005272953,-0.002364861,0.0009532649
1.021558,0.008279449,0.001281736,-0.005969793,0.005848958,0.006621782,-0.002896379,-0.01327095,0.005045238
1.022392,0.008352926,0.007631141,-0.005132773,0.005908176,0.01294206,-0.003983882,-0.03177822,0.009450666
1.024973,0.007419338,0.007383217,-0.002547919,0.004958347,0.01266462,-0.008154316,-0.03483639,0.009977138
1.027949,0.003899676,-0.005686121,0.0004346362,0.001420394,-0.0004350483,-0.01093957,-0.01274544,0.006282405
1.030071,0.0001678648,-0.01598328,0.002563588,-0.002331707,-0.01076347,-0.006967475,0.003095203,0.003988994
1.028078,0.001774595,-0.007900303,0.0005789598,-0.0007470729,-0.002712372,-0.00140663,-0.002266666,0.005057834
1.025922,0.00407992,-1.760095e-05,-0.001567887,0.00153458,0.005138191,-0.003124021,-0.004783865,0.004566724
1.025551,0.002901402,-0.003700053,-0.001928098,0.0003309936,0.001423461,-0.009747991,-0.002504188,0.003341949
1.025259,0.00506282,0.0005300047,-0.002208457,0.002466068,0.005621056,-0.01395794,-0.01432162,0.002358354
1.02769,0.007884802,0.008442771,0.0002348774,0.005260498,0.01350102,-0.009160519,-0.02477789,0.002994153
1.031192,0.003963589,0.0004271945,0.003750136,0.001310527,0.005452001,-0.002989226,-0.01151662,0.005324967
1.030779,0.0004783816,-0.007956315,0.003351752,-0.002204606,-0.002965837,-0.00599691,0.003709645,0.002114924
1.029129,0.0005041548,-0.008691256,0.001715707,-0.002209761,-0.003735945,-0.007809284,0.006384131,-0.006158925
1.02862,-0.002842171,-0.0122609,0.001221609,-0.005587748,-0.007341295,-0.004066968,0.01256934,-0.009837161
1.02642,-0.006707579,-0.01152829,-0.0009628334,-0.009485184,-0.006644521,-0.0007888373,0.01895382,-0.008235418
1.024193,-0.004306391,-0.0092139,-0.003174837,-0.007115925,-0.004365655,0.004976486,0.01421686,-0.008488369
1.024947,-0.0005854994,-0.0111765,-0.002405595,-0.003426402,-0.006363103,0.005780843,0.008973799,-0.007470343
1.026384,-0.0002623104,-0.01109312,-0.0009540194,-0.003133693,-0.006313552,0.002355634,0.01298299,-0.003688333
1.026272,0.002628947,-0.01058452,-0.001050045,-0.0002718311,-0.005837429,0.00523623,0.01243727,0.0004333428
1.025468,0.005135054,-0.008414586,-0.001838669,0.002206039,-0.00369834,0.0040011,0.0009691238,0.006835394
1.024801,0.003402254,-0.004747265,-0.002489347,0.000446135,-6.00315e-05,0.0001522195,-0.005586123,0.003053321
1.024613,0.004362862,-0.004367179,-0.002661157,0.001380704,0.0002929283,-0.002326375,-0.0004078453,-0.005384551
1.024196,0.004586235,-0.003906717,-0.003060822,0.001579038,0.0007281009,-0.009334133,0.005907703,-0.002371436
1.02237,0.003627662,-0.00034179,-0.004870002,0.0005963576,0.004269465,-0.01008781,0.0004592274,0.0005819837
1.021701,0.005660311,0.007919851,-0.005520702,0.002605761,0.01250903,-0.006389676,-0.008184878,0.005016413
1.022913,0.005615276,0.01510115,-0.004290916,0.002538257,0.01966923,-0.004578527,-0.01238555,0.00794085
1.02394,0.005278945,0.009482295,-0.003243937,0.002180117,0.01402951,-0.003622483,-0.01870243,0.00347886
1.025611,0.004913285,-0.002612849,-0.001553165,0.001793204,0.001913024,-0.007971331,-0.01782593,0.006198541
1.026291,0.003346451,-0.007619148,-0.0008514458,0.0002055941,-0.003115418,-0.01181592,-0.01147024,0.008118104
1.026081,0.003491932,-0.006129621,-0.001039393,0.0003307438,-0.001648772,-0.014536,-0.006749433,0.006812569
1.026792,0.002584838,-0.003388688,-0.0003055239,-0.0005962304,0.001068732,-0.01431009,-0.00118238,0.004203436
1.026261,0.002450447,-7.161667e-05,-0.000813149,-0.0007500217,0.004361935,-0.007654487,-0.0001960732,-0.003531762
1.026191,0.003594586,0.005557164,-0.000858791,0.0003752381,0.009966343,-0.002393745,-0.0001736608,-0.001272012
1.026737,0.004607394,0.00669633,-0.0002880093,0.001369703,0.01108038,0.004146896,-0.003494084,0.0005316161
1.02611,0.007968792,-0.0003731008,-0.0008892576,0.004713247,0.003984733,0.006236752,-0.01054787,-0.003079915
1.026829,0.009020032,-0.002748768,-0.0001443286,0.005746976,0.001581539,0.002419637,-0.01708665,0.004148006
1.02829,0.007043992,-0.0008536795,0.001342665,0.003753558,0.003447763,0.001779515,-0.0228142,0.008297485
1.029491,0.006647551,-0.001617606,0.002570191,0.003339673,0.002653669,-0.008014786,-0.007775982,0.002574794
1.029236,0.007005461,-0.001159755,0.002341259,0.003679928,0.003080078,-0.01532755,0.008111325,-0.001597422
1.026671,0.007390818,-0.001535908,-0.0001973927,0.004047297,0.002671239,-0.003714661,-0.007321521,-0.001278208
1.025144,0.008644823,-0.001673253,-0.001698091,0.005282847,0.002499998,4.933096e-05,-0.01891629,0.0005262199
1.024705,0.01027358,-0.001899295,-0.002110863,0.006892523,0.002238895,-0.01737228,-0.01251356,0.00308782
1.02493,0.00911357,-0.003909486,-0.00186069,0.005712593,0.0001925501,-0.032324,-0.01850349,0.009237338
1.025328,0.00456361,-0.004283211,-0.001437934,0.001141717,-0.0002183063,-0.02489416,-0.02778686,0.01116703
1.025229,0.0004445748,-0.005994604,-0.001511625,-0.002999264,-0.001967636,-0.01406824,-0.01684668,0.007581705
1.027775,-0.001149249,-0.006086358,0.001059631,-0.004615899,-0.002097915,-0.01271772,-0.002637474,0.003651051
1.030123,-0.001434119,-0.004762196,0.003432613,-0.004924149,-0.0008126327,-0.003212593,0.002394129,-0.00178106
1.029222,-0.002544126,-0.006079293,0.002555247,-0.006057755,-0.002168749,0.003521365,0.006315421,-4.460817e-05
1.028789,-0.001997798,-0.007245026,0.002146538,-0.005534888,-0.003373432,0.006752522,0.00456257,0.004807521
1.029534,0.002776626,-0.01425701,0.002914135,-0.0007834702,-0.01042402,0.01442789,0.000816089,0.002671576
1.029966,0.007060006,-0.02163828,0.003368776,0.003477526,-0.01784305,0.007080542,-9.822625e-05,0.002829532
1.029742,0.006245325,-0.01573955,0.003166196,0.002641066,-0.01198057,0.002235144,-0.0009591408,0.005140757
1.029118,0.004372773,-0.009214004,0.002562141,0.0007472397,-0.005489096,0.00502709,0.0009801097,0.004220602
1.028712,0.004762629,-0.0126357,0.002174984,0.001116251,-0.008942223,-0.001555605,0.0004027612,0.003068372
1.028428,-0.0002703105,-0.01151628,0.001908446,-0.003937107,-0.007851306,0.0006235371,-0.00099538,0.0002217752
1.027796,-0.005642099,-0.004978677,0.001292585,-0.009328751,-0.001339037,0.005371229,-0.002116351,-0.002519839
1.028309,0.002491304,-0.005202991,0.001820469,-0.001214369,-0.00158543,0.005073812,-0.005739476,-0.0004353657
1.029847,0.01149734,-0.005963349,0.00337114,0.007773652,-0.002364667,0.007380632,-0.001943616,0.001880354
1.028616,0.009659931,-0.005627313,0.002152318,0.005919099,-0.002044393,0.005353603,0.001206569,0.001636235
1.026082,0.006207294,-0.009433227,-0.0003719228,0.002449906,-0.005863001,0.0055383,-0.005898285,0.004334629
1.024635,0.005153543,-0.01377448,-0.001810182,0.001379967,-0.01021383,0.003091431,-0.01101919,0.007106295
1.024426,0.005301537,-0.01673627,-0.002011492,0.001512037,-0.01318188,-0.004975881,-0.00991484,0.006602648
1.025254,0.005350028,-0.01569711,-0.001178177,0.00154481,-0.01214531,-0.006476116,-0.008772129,0.006611878
1.023115,0.002812265,-0.01610414,-0.003311641,-0.001008499,-0.01255089,-0.005898809,-0.009835142,0.004268065
1.021638,0.0004013922,-0.01847889,-0.004784387,-0.003434712,-0.01491977,-0.004368325,-0.008288245,0.0009815766
1.024888,0.001448659,-0.01107307,-0.001531278,-0.002402464,-0.00750335,-0.003513846,-0.004857411,0.0005594443
1.028259,0.002831296,-0.000331249,0.001843088,-0.001034377,0.003253917,-0.00377478,-0.004427348,0.0006645435
1.02968,0.002658672,0.002920326,0.003265901,-0.001220981,0.006525532,-0.001508726,-0.005081776,0.0011472
1.027103,0.002930886,-0.001182251,0.0006916834,-0.0009621168,0.002447043,-9.029157e-05,-0.0101934,0.0005973495
1.02348,0.002772195,-0.004779463,-0.002930201,-0.001133478,-0.00112258,0.00510105,-0.01680629,0.0004019868
1.024437,0.001370455,-0.002722103,-0.001972758,-0.002547159,0.0009654657,0.007603421,-0.01303643,0.001203344
1.028996,-0.003262944,-0.004910707,0.00258713,-0.007191668,-0.001189669,-0.0007515988,-0.002645941,-3.921236e-05
1.033286,-0.007926866,-0.00795127,0.006877424,-0.01186562,-0.004194234,-0.005561686,0.003134883,-0.002947076
1.030828,-0.001963304,-0.003033613,0.004419284,-0.005910647,0.0007617581,0.001592156,-0.0005049054,-0.005607635
1.026865,0.006371279,-0.0003917326,0.000455399,0.002417092,0.003444091,0.005021693,-0.006080594,-0.002117088
1.027973,0.004663381,-0.005062983,0.001561615,0.0007041223,-0.001184902,-0.01378714,-0.003927584,0.004368265
1.0262,0.003861397,-0.0113878,-0.0002142044,-0.0001012972,-0.007465902,-0.03182902,-0.00671832,0.006382141
1.024385,0.006611378,-0.01379754,-0.002032514,0.002646731,-0.0098303,-0.02307128,-0.02347984,0.008647495
1.025782,0.004477127,-0.01146637,-0.0006399998,0.0005118511,-0.007452089,-0.01387397,-0.03417885,0.01092769
1.024729,0.003216759,-0.007644361,-0.001697637,-0.000747973,-0.003581202,-0.01275986,-0.02304061,0.008780354
1.026096,0.003810851,-0.00501675,-0.0003360968,-0.0001522618,-0.0009028554,-0.0004373907,-0.006992531,0.003165669
1.028671,0.002294773,-0.007874473,0.002233446,-0.001665703,-0.003708099,0.00733953,-0.006431532,-0.001076311
1.027415,0.002636503,-0.01285134,0.0009717611,-0.001320352,-0.008630843,0.003248933,-0.005597567,0.0004911343
1.026184,0.003155313,-0.01400505,-0.000265486,-0.0007969527,-0.009728759,0.004133446,-0.001123,0.005268064
1.025916,0.002467653,-0.01536827,-0.0005401711,-0.001479078,-0.01103432,0.004505068,-0.006983423,0.009112623
1.027062,0.002194428,-0.01581035,0.000598063,-0.001745843,-0.01141665,0.0008078653,-0.003853474,0.007377063
1.028011,-0.0007691784,-0.01272685,0.001540319,-0.00470205,-0.008271069,0.0006964825,0.0004484771,0.004341431
1.027398,-0.003974958,-0.01203752,0.0009195369,-0.007899395,-0.007517161,0.004286375,-0.007307334,0.006556026
1.026369,-0.002557554,-0.01277285,-0.0001167196,-0.006472322,-0.008185355,0.009192243,-0.007749991,0.006172659
1.02469,0.0006594094,-0.01317996,-0.0018038,-0.003244241,-0.008522716,0.007414794,-0.009977096,0.003940691
1.025155,0.001822531,-0.01696778,-0.001347775,-0.002068438,-0.01223811,0.004386696,-0.01323593,0.00453848
1.02537,0.001559627,-0.01984586,-0.001140533,-0.002317086,-0.01504093,0.006593044,-0.01275134,0.004505343
1.025363,0.0003013116,-0.01733012,-0.001156352,-0.003559593,-0.01244683,0.004011128,-0.01564031,0.005583398
1.027592,-0.003140729,-0.01266348,0.001064773,-0.006984259,-0.007698532,0.00172911,-0.01226749,0.005848759
1.02799,-0.006149131,-0.01004859,0.001454178,-0.009973596,-0.004998613,0.001128072,-0.01202275,0.005778814
1.029201,-0.003603004,-0.01029038,0.002657784,-0.007406491,-0.005152133,-0.003025661,-0.0140948,0.008469493
1.029037,0.0004817871,-0.01166245,0.00248546,-0.003298603,-0.00643287,-0.001656297,-0.01616162,0.009895862
1.027134,-0.0008805705,-0.0134399,0.0005739076,-0.004635659,-0.008116087,0.002976092,-0.02364418,0.01105445
1.030813,0.0002262038,-0.01551422,0.004244934,-0.003501384,-0.01009337,0.005970002,-0.01727698,0.01107075
1.032366,0.004659765,-0.01810427,0.005789146,0.0009618132,-0.01258358,0.009077376,-0.008024427,0.007957504
1.027752,0.002676291,-0.01880502,0.001166522,-0.0009900387,-0.01318157,0.01131761,-0.007888929,0.001911103
1.023391,0.0009786415,-0.01679688,-0.003204381,-0.002654272,-0.01106762,0.0167946,-0.004533668,-0.004875546
1.02341,-0.0007075059,-0.01455064,-0.003195577,-0.004305337,-0.008712418,0.02179048,-0.00243921,0.0003821195
1.027905,-0.006058644,-0.01167463,0.00128925,-0.009619742,-0.005724331,0.01843263,-0.002018809,0.008765303
1.030298,-0.003825209,-0.01190494,0.003671741,-0.007347808,-0.005839572,0.01474195,-0.002705367,0.004498652
1.030161,0.001720066,-0.01535451,0.003523766,-0.001762136,-0.009171286,0.01521996,-0.003111794,0.0008992596
1.030487,0.003152054,-0.01816002,0.003838461,-0.0002878598,-0.01185627,0.01057988,-0.001083712,-0.0009493687
1.030688,0.003462855,-0.02080038,0.004027077,6.695391e-05,-0.01437343,0.003481807,-0.001752977,-0.003377574
1.03065,0.001652728,-0.01552939,0.003977304,-0.001697656,-0.008976464,0.004575331,-0.002605534,-0.0001709619
1.030125,-0.0003452919,-0.00895866,0.003438693,-0.00364883,-0.002276981,0.01107247,-0.005835974,-0.0001638131
1.029853,-0.003393431,-0.01738853,0.003153428,-0.006648875,-0.01057551,0.0144767,-0.005724235,-0.001061662
1.028915,-0.005675245,-0.02443234,0.002200066,-0.008881299,-0.0174855,0.009883897,0.01006922,-0.0004343666
1.028833,-0.003447881,-0.02003117,0.002101921,-0.006603113,-0.01294796,0.004400764,0.0229482,-0.0003136794
1.029324,-0.003753077,-0.02009881,0.002576552,-0.006855911,-0.01287648,0.006219475,0.01035076,0.002471223
1.027048,-0.004018956,-0.0228496,0.0002821096,-0.007067711,-0.01548527,0.004366975,-0.005455905,0.001038938
1.025856,-0.001962106,-0.02070064,-0.0009284418,-0.004955027,-0.01319132,-0.001198543,-0.0001593285,0.003845892
1.026599,-0.003916114,-0.01598338,-0.0002052451,-0.006851405,-0.008325998,0.001984486,-0.0008493771,0.00955441
1.027538,-0.004739594,-0.01115742,0.0007142679,-0.007615423,-0.003348984,0.007130445,-0.009946229,0.003331311
1.029008,-0.003596513,-0.01324534,0.002163178,-0.006410992,-0.005283162,0.01165725,-0.0006685162,-0.001799387
1.029361,-0.003490111,-0.0174943,0.00249511,-0.006241301,-0.009376015,0.01722475,0.006618201,-0.002405186
1.029225,-0.002396348,-0.01401296,0.002337428,-0.005082296,-0.005736454,0.01553156,0.004891086,-0.0002024395
1.028509,-0.00269163,-0.01089272,0.001599015,-0.005310409,-0.002456141,0.01343996,0.005969046,0.004206959
1.026845,-0.003055671,-0.01000687,-8.854751e-05,-0.005605402,-0.001408698,0.0157188,0.003860235,-0.001422313
1.02612,-0.002530148,-0.009580015,-0.000837065,-0.005008999,-0.0008191667,0.01530886,0.005918054,-0.005017079
1.027966,-0.002910674,-0.01353949,0.0009854866,-0.005316867,-0.004615322,0.01510617,0.006742899,0.0007741447
1.029667,-0.002573998,-0.01511067,0.002662397,-0.004905815,-0.006022871,0.01540236,-0.0005418759,0.002723741
1.028512,-0.001842327,-0.01664426,0.001482217,-0.004098122,-0.007392741,0.0155328,-0.003711841,-0.0009264671
1.028175,-0.001365829,-0.0206042,0.001120452,-0.003544053,-0.01118897,0.0171636,0.001382125,-0.004188522
1.026838,-0.002100933,-0.02188427,-0.0002411528,-0.004200153,-0.01230528,0.01825188,0.008592625,-0.002547798
1.024508,-0.003320219,-0.02565828,-0.002596774,-0.005339115,-0.01591535,0.01979307,0.006696034,-0.002162359
1.025627,-0.002029991,-0.02441078,-0.001503556,-0.003967321,-0.01450349,0.01959073,0.004866539,-0.005034194
1.026723,0.001034945,-0.01839212,-0.0004325269,-0.0008196833,-0.008319783,0.01889169,0.007773202,-0.005634868
1.02827,0.00363174,-0.01863229,0.001088872,0.00186076,-0.008394136,0.01982952,0.0004723973,-0.005429864
1.029323,0.003662347,-0.01637107,0.002117389,0.001975653,-0.005966379,0.01843194,-0.009393915,-0.001307327
1.028594,0.003766869,-0.01540392,0.001363819,0.002164742,-0.004832123,0.01555286,-0.01390928,0.003108393
1.029881,0.006411716,-0.01812438,0.002625805,0.004894059,-0.007385088,0.009118057,-0.008240491,-0.0003573629
1.029994,0.005667913,-0.01505498,0.002714877,0.004234229,-0.004147995,0.00189409,0.003334638,-0.004098489
1.030059,0.002847951,-0.0132605,0.002755354,0.001497349,-0.00218583,-0.0002827731,0.0007977253,-0.003404663
1.028767,0.002831813,-0.01482384,0.00143949,0.001563085,-0.003581757,-0.005218475,-0.001346831,-0.003051981
1.022986,0.002553933,-0.01733136,-0.004366575,0.001365642,-0.005922394,-0.01123389,0.003260323,-0.002959289
1.021685,0.002768736,-0.01674447,-0.005690956,0.00165925,-0.005169346,-0.008813359,-0.0001418297,-0.001615418
1.025317,0.003102616,-0.01329153,-0.002083031,0.002070124,-0.001551112,-0.005637195,-0.002267783,-0.000506783
1.028036,0.001811975,-0.01789716,0.0006127583,0.0008545018,-0.005992513,-0.007620126,-0.005780372,0.002298104
1.027835,0.0001927319,-0.01997206,0.0003886509,-0.0006918247,-0.00790438,-0.007657895,-0.01070935,0.005903491
1.027014,-0.003081745,-0.01768706,-0.0004539574,-0.003895525,-0.005457593,-0.008315567,-0.006718864,0.00384536
1.029035,-0.003641593,-0.02023369,0.001546436,-0.004386662,-0.007843691,-0.01143972,-0.002145495,0.0002582248
1.0279,-0.001183356,-0.01917338,0.0003906712,-0.001861641,-0.006624082,-0.009985462,-0.0006544617,0.0005546867
1.025815,0.0004164824,-0.0229244,-0.001714188,-0.0001968435,-0.01021702,-0.007174882,-0.009672315,9.133009e-05
1.027311,0.003548578,-0.02746604,-0.0002372165,0.002998392,-0.01460167,-0.006553544,-0.01933996,-0.0008445474
1.027888,0.002383575,-0.02017313,0.0003206218,0.001894614,-0.007152634,-0.01375374,-0.0005837421,-0.0003293676
1.029194,-0.00212045,-0.01601078,0.001609494,-0.002550207,-0.002834879,-0.02237688,0.0165838,0.0001619196
1.028063,-0.002442145,-0.01411983,0.0004610268,-0.002814723,-0.0007893302,-0.009961886,-0.0004963021,0.001057119
1.024939,-0.003807469,-0.01261869,-0.002679098,-0.004124782,0.0008653427,0.0003328465,-0.01179952,-0.0004121759
1.026473,-0.003970898,-0.01466438,-0.001161496,-0.004234697,-0.001028199,-0.0174061,0.0006932929,-0.001493533
1.026021,0.0008090168,-0.0116821,-0.001628076,0.0005971382,0.002104542,-0.03122223,0.004233137,0.005043809
1.024037,0.00392781,-0.01026786,-0.003626098,0.003766306,0.003667197,-0.02456897,-0.0003084987,0.01051868
1.02534,0.001838789,-0.01158918,-0.002336482,0.001726017,0.002491867,-0.01585216,0.00419249,0.005390274
1.025124,-0.005198385,-0.01137043,-0.002564529,-0.005264155,0.002853812,-0.01053044,0.009568786,-0.00207467
1.024704,-0.01026084,-0.01399625,-0.002995807,-0.01028123,0.000368072,-0.007400078,0.01284457,-0.005208969
1.02526,-0.008426335,-0.01651527,-0.002449677,-0.008402635,-0.002014199,-0.006367884,0.0149966,-0.006299096
1.024507,-0.00553986,-0.01895585,-0.003211112,-0.00547295,-0.004321456,-0.0006549231,0.01452103,-0.00431977
1.023227,-0.005371935,-0.02340806,-0.004498494,-0.005262384,-0.008643707,0.003056759,0.01340276,-0.002396868
1.021743,-0.005347869,-0.02643504,-0.00598824,-0.005196024,-0.01154387,-0.002169795,0.01013727,-0.002919193
1.023163,-0.003596946,-0.02447198,-0.004571713,-0.003402986,-0.009456785,-0.003491464,0.01014938,-2.202544e-05
1.028975,-0.002353656,-0.02041775,0.001238467,-0.002117649,-0.005280946,-0.003443119,0.01122151,0.0007716989
1.033062,-0.002594729,-0.01916701,0.005324759,-0.002316695,-0.003910781,-0.005523569,0.007771093,-0.0009432364
1.029589,-0.003003932,-0.01835393,0.001852461,-0.002683883,-0.002980385,-0.003627538,0.008802082,0.001490843
1.023963,-0.002823865,-0.01764799,-0.003770843,-0.002461798,-0.002159226,-0.005510983,0.009494801,0.001096153
1.02515,-0.00251675,-0.01691043,-0.002579785,-0.00211265,-0.001308555,-0.005929438,0.006324684,0.001392123
1.028485,-0.002849225,-0.01654368,0.0007595091,-0.002403073,-0.0008308888,0.0007557468,0.005293631,0.003091394
1.029144,-0.001825777,-0.01603652,0.001424461,-0.001337558,-0.0002150777,0.006853392,0.002056691,0.001274617
1.028491,-0.0005949998,-0.01330236,0.0007780742,-6.472726e-05,0.002625336,0.008429179,0.001503153,0.002638142
1.025259,0.0005748743,-0.01202841,-0.00244627,0.001147107,0.004002962,0.002460761,0.003423235,0.00224774
1.024244,0.003947738,-0.005690059,-0.003452025,0.004561687,0.01044212,-0.002397766,0.001991747,0.001239418
1.026076,0.00563592,0.0003478151,-0.001610812,0.006291094,0.01657747,-0.002621887,0.004895217,0.002602959
1.027398,0.004698048,-0.005778055,-0.0002779438,0.005393629,0.01054508,-0.002436123,0.009496577,0.0005638925
1.029863,0.003525062,-0.01050791,0.002198374,0.004259894,0.005904142,-0.0004810101,0.009348563,0.001170602
1.028735,0.00221334,-0.01291957,0.001081991,0.002986,0.003576445,-0.001461521,0.003135677,0.001431116
1.026247,0.00114436,-0.0140397,-0.001393016,0.001953235,0.002535218,-0.003059346,-0.004638312,0.001053885
1.026855,0.0006431758,-0.01083424,-0.0007722206,0.001486539,0.005814445,-0.002858697,-0.001523839,0.003137088
1.026355,-7.565592e-06,-0.01433248,-0.001258347,0.0008684985,0.002384841,-0.003187146,0.004346459,-0.0009515572
1.027711,-0.002151553,-0.01934957,0.0001114537,-0.001244586,-0.002568742,-0.001943981,0.00444418,-0.004104394
1.028792,-0.002775726,-0.02294508,0.001207562,-0.001839598,-0.006105671,-0.001743212,0.006755543,-0.002303064
1.026585,-0.002264872,-0.02403504,-0.0009852069,-0.001301214,-0.007141559,-0.001541553,0.00806543,-0.002172543
1.026139,-0.002616113,-0.02010177,-0.001415352,-0.001626437,-0.003158272,-0.0001196931,0.004163866,-0.001377934
1.024873,0.0009340012,-0.02258436,-0.002666193,0.001948279,-0.005594461,0.001424544,-0.006211991,0.0008063871
1.024378,0.003464424,-0.02486437,-0.003145654,0.004501897,-0.007831287,0.001431846,-0.01063546,0.003087472
1.027067,-0.0008693937,-0.02494709,-0.0004409292,0.0001897904,-0.007873594,-0.004639174,0.007305632,0.003256757
1.02818,-0.004307717,-0.02659055,0.0006884993,-0.003228341,-0.009478907,-0.009386203,0.01994656,0.0006014251
1.029517,-0.003085554,-0.02339013,0.002042562,-0.001987405,-0.006242142,-0.006945284,0.01034052,-0.002161918
1.029739,-0.00284265,-0.02422644,0.002280937,-0.001726988,-0.007043463,-0.007132941,0.00556358,-0.002633577
1.027842,-0.003744573,-0.02266719,0.0004011692,-0.002612503,-0.005450219,-0.01796,0.007506919,-0.001321491
1.026905,0.001917789,-0.0130417,-0.0005193196,0.003065275,0.004208491,-0.02653045,-0.002216464,-0.000609596
1.024833,0.00709341,-0.009004741,-0.002573934,0.008255298,0.008277885,-0.0163284,-0.01251686,0.001484738
1.026889,0.0003077173,-0.01245824,-0.0005019704,0.001482815,0.004855767,-0.005479065,-0.002547924,0.001537073
1.031125,-0.00564044,-0.0206453,0.003750707,-0.004453452,-0.003301241,-0.008455415,0.009876887,-0.0004578326
1.028872,-0.002858112,-0.02170199,0.001514177,-0.001660477,-0.004329242,-0.00425646,0.008150459,0.001197264
1.028242,-0.003468075,-0.0189746,0.0009001969,-0.00226085,-0.001574395,0.006818484,0.01082481,0.000873226
1.028999,-0.007099322,-0.02024252,0.001672865,-0.005883372,-0.0028159,0.008738733,0.01302886,0.0003701083
1.026082,-0.005535897,-0.01230747,-0.001229484,-0.004311853,0.005144599,0.01265691,0.008211082,0.002567233
1.026407,-0.004706763,-0.007552863,-0.0008893309,-0.003474995,0.00992358,0.0185673,0.0111263,0.002623414
1.028572,-0.006048431,-0.01255149,0.001289314,-0.004809086,0.004947967,0.01471301,0.0169874,0.00287069
1.029426,-0.003418867,-0.0149067,0.002156839,-0.002171899,0.002614108,0.009465441,0.02236748,0.001106787
1.028997,-0.002030096,-0.01604758,0.001740848,-0.0007753209,0.001492759,0.002338378,0.02205814,-0.001812854
1.026038,-0.002900581,-0.01470914,-0.001205946,-0.001637751,0.002848862,-0.004962876,0.01013519,-0.001405357
1.024511,-0.001790735,-0.01425763,-0.0027209,-0.0005195777,0.003316113,-0.002585825,0.004445062,-0.0001372948
1.025757,-0.001540526,-0.01378572,-0.001463657,-0.0002607636,0.003801815,0.0007376238,0.009990946,0.002888647
1.026767,-0.003023529,-0.01202906,-0.0004425696,-0.00173489,0.0055702,0.00395494,0.01118427,0.004322969
1.025578,-0.004879494,-0.01490459,-0.001621237,-0.003581686,0.00270425,0.006138123,-0.004401211,0.003340638
1.024295,-0.00424991,-0.01720802,-0.002894377,-0.002942565,0.0004081859,0.002797474,-0.01979263,0.004686505
1.025254,-0.002604317,-0.0171431,-0.001925997,-0.001286971,0.0004782989,0.002248705,-0.008936695,0.003040384
1.025144,-0.003009346,-0.01528557,-0.002025773,-0.001681483,0.002338941,0.001353264,0.001051774,-0.001919749
1.024682,-0.002574707,-0.01523951,-0.002478724,-0.001235791,0.002386107,0.00181365,-0.006328745,-0.003763942
1.02529,-0.002909175,-0.01869705,-0.00186114,-0.001558666,-0.001072278,0.007493425,-0.004723145,-0.002039066
1.024855,-0.003967926,-0.01967285,-0.002286114,-0.002605272,-0.002050757,0.0105512,-0.002170757,4.288336e-05
1.024979,-0.004065482,-0.01977616,-0.002151655,-0.002690098,-0.002158383,0.0139743,-0.007905652,-8.883122e-05
1.025497,-0.004352412,-0.01837835,-0.001623234,-0.002963661,-0.0007663115,0.01722622,-0.009573664,0.003309195
1.026964,-0.003028753,-0.01804445,-0.0001460642,-0.001625941,-0.0004393564,0.02085129,-0.01101268,0.008306123
1.030254,-0.002439859,-0.01856281,0.003155334,-0.00102227,-0.0009657391,0.02655026,-0.008525956,0.004448843
1.031254,-0.002980668,-0.01569844,0.004166402,-0.001547599,0.001889661,0.02781155,-0.0001852411,0.0001724765
1.030146,-0.002627177,-0.01647892,0.003070003,-0.001177948,0.001099329,0.02868012,0.002539572,0.0009103834
1.029008,-0.002900658,-0.01715929,0.001942294,-0.001434616,0.0004082599,0.02724681,0.0002076437,-0.0006104957
1.026391,-0.002726807,-0.01497146,-0.0006638263,-0.001243323,0.002584592,0.02487246,-0.007128796,0.0006144063
1.024547,-0.002718799,-0.01446988,-0.002497831,-0.00121727,0.003073858,0.02968552,-0.01485778,0.004075808
1.027503,-0.003109878,-0.01556383,0.0004684339,-0.001589728,0.001966758,0.03164365,-0.01226971,0.002327345
1.030623,-0.003843737,-0.0246044,0.003598203,-0.002304404,-0.007087759,0.02850323,-0.004356559,0.001490273
1.028698,-0.006363291,-0.03306788,0.001682157,-0.004804194,-0.01556573,0.02702994,0.01001966,0.002371701
1.026753,-0.007380353,-0.02611259,-0.0002548416,-0.005800821,-0.008624905,0.02903813,0.0236122,-0.0009311359
1.026466,-0.005990199,-0.01798703,-0.0005333896,-0.004389418,-0.0005132185,0.0284891,0.007671878,-0.002350926
1.026283,-0.005102947,-0.02022267,-0.0007086961,-0.003479968,-0.00276186,0.01331696,-0.01350709,0.003218847
1.028288,-0.005553193,-0.01701334,0.001302833,-0.003906984,0.0004354205,-0.0004795061,-0.006529789,0.009051889
1.028922,-0.005646924,-0.0112475,0.001943796,-0.003976392,0.006190151,0.007236073,-0.01673845,0.008714514
1.027355,-0.004409321,-0.01827218,0.0003825387,-0.002713328,-0.0008448486,0.01707802,-0.04582629,0.007052515
1.027794,-0.004683698,-0.0252664,0.0008275842,-0.002961085,-0.007848682,0.0134623,-0.04137846,0.008039183
1.028922,-0.00773977,-0.0295455,0.001959495,-0.005989359,-0.01213651,0.01287128,-0.02786314,0.006307907
1.029338,-0.01082192,-0.03403167,0.002380512,-0.009042443,-0.01663006,0.01742873,-0.02511064,0.004334104
1.028706,-0.01022875,-0.02947023,0.001752093,-0.00841876,-0.01207405,0.01901353,-0.01924807,0.003656405
1.026693,-0.008583056,-0.0268708,-0.0002582807,-0.006740858,-0.009477513,0.02380455,-0.02069696,0.001000416
1.025887,-0.008972033,-0.02849083,-0.001061998,-0.007095753,-0.0110975,0.02264296,-0.01606982,-0.0005055895
1.027095,-0.00626705,-0.02724441,0.0001472133,-0.004354693,-0.009847772,0.0161956,-0.003414874,-0.003152479
1.026913,-0.003445872,-0.02767054,-3.386707e-05,-0.001495411,-0.01026704,0.01622011,0.0007731294,-0.001371248
1.025437,-0.004435213,-0.02570097,-0.001509743,-0.002444699,-0.008286809,0.01484348,0.002108397,0.004884849
1.025738,-0.003945756,-0.02236247,-0.001208879,-0.001913372,-0.004933707,0.01503953,0.0004395354,0.002533927
1.025082,-0.003127508,-0.0218585,-0.001865451,-0.001051586,-0.004411177,0.01376519,0.0009142381,0.002766282
1.024306,-0.002778601,-0.02209304,-0.002642336,-0.0006576324,-0.004623256,0.007096179,0.001613108,0.007279168
1.025981,-0.002559678,-0.02348802,-0.0009685452,-0.0003923421,-0.005991979,0.004831929,-0.003469541,0.006429274
1.02664,-0.004249037,-0.0264354,-0.0003109946,-0.002034195,-0.008909368,0.00211966,-0.002028779,0.006629619
1.027997,-0.005200245,-0.03049495,0.001045595,-0.0029369,-0.01293514,0.002183681,0.00535671,0.002371508
1.028527,-0.005772424,-0.02997677,0.001573834,-0.003459663,-0.01237923,0.002777975,0.01392585,-0.003422669
1.026923,-0.005418323,-0.02795562,-3.052969e-05,-0.00305528,-0.01031616,-0.004928183,0.01892656,-0.003176801
1.028134,-0.003364272,-0.03082613,0.001179242,-0.0009501273,-0.01314037,-0.01083672,0.01702629,-0.004411356
1.027835,-0.003061092,-0.03097003,0.0008788198,-0.0005951244,-0.01323344,-0.01287698,0.01535677,-0.005349784
1.026134,-0.005202986,-0.02978285,-0.0008244151,-0.002684599,-0.01199069,-0.01244996,0.01109119,-0.004550849
1.025779,-0.007995326,-0.03019039,-0.00118049,-0.005424008,-0.01233778,-0.01324258,0.007202563,-0.004497803
1.024333,-0.007162603,-0.02752958,-0.002628213,-0.004537833,-0.009611516,-0.01718855,0.01072016,-0.00659565
1.025582,-0.004571503,-0.02333697,-0.001381384,-0.001892722,-0.005348476,-0.0163837,0.01330816,-0.009799741
1.028093,-0.00324598,-0.01786795,0.001127819,-0.0005126546,0.0001957646,-0.01341736,0.01393723,-0.009691735
1.029099,-0.0004317951,-0.01730592,0.002132838,0.00235648,0.0008374143,-0.0112125,0.01771409,-0.008723044
1.028071,-0.001020406,-0.0238133,0.001103149,0.00182301,-0.005586439,-0.01441467,0.01766337,-0.00664341
1.025128,-0.003365965,-0.026146,-0.001841141,-0.0004674566,-0.007832072,-0.01977198,0.0106217,-0.002632894
1.026323,-0.002311996,-0.02492795,-0.0006471511,0.0006413631,-0.00652361,-0.01533942,0.005221886,0.001927839
1.027398,-0.002955653,-0.02497345,0.0004261125,5.216618e-05,-0.006475499,-0.01352246,0.005593792,0.004886904
1.026447,-0.002837813,-0.02583664,-0.0005262069,0.0002239448,-0.007242003,-0.01897617,0.007328335,0.003130221
1.028085,-0.001379172,-0.02678891,0.001110595,0.001735871,-0.008094656,-0.01994997,0.005486365,0.000380647
1.025857,-0.001603297,-0.02531778,-0.001118261,0.001564232,-0.006521074,-0.01689181,0.00299772,-0.006392329
1.022029,-0.001219898,-0.02456542,-0.004947614,0.001999153,-0.005663554,-0.01518592,0.003627618,-0.01233112
1.022217,-0.00241524,-0.02521598,-0.004761068,0.0008542137,-0.006206391,-0.02309994,0.009378231,-0.005719806
1.023235,-0.002182263,-0.02346949,-0.003743333,0.001136344,-0.004349809,-0.03281716,0.01764162,2.940523e-05
1.02492,0.002882767,-0.01793129,-0.002058401,0.006249141,0.001300626,-0.03029533,0.01436824,-0.002951734
1.025542,0.005768953,-0.01166255,-0.001434911,0.009181471,0.007683308,-0.02426362,0.009158313,-0.005148072
1.025636,1.935124e-05,-0.01282239,-0.001339959,0.003476054,0.006638513,-0.01611956,0.01408074,-0.004605876
1.027151,-0.008001186,-0.01478281,0.0001781709,-0.004502493,0.004793529,-0.001024039,0.01336768,-0.004527299
1.028235,-0.008021959,-0.01230476,0.001265116,-0.004483437,0.007386725,0.006913137,0.01276302,-0.005991945
1.029309,-0.008004069,-0.01757624,0.002343062,-0.004427652,0.002229535,0.003501917,0.01694934,-0.006162092
1.02848,-0.007294987,-0.0233576,0.001518285,-0.003682346,-0.003438851,0.002858446,0.01612245,-0.0073894
1.026135,2.574653e-05,-0.01962942,-0.000822123,0.003673126,0.0004007418,0.005096924,0.01823326,-0.01069764
1.0262,-0.001130097,-0.01845012,-0.000752462,0.002550559,0.001689755,0.001592248,0.02390381,-0.01019362
1.026606,-0.003566764,-0.02111101,-0.0003407035,0.0001456241,-0.0008633222,-0.004272649,0.02810217,-0.009074522
1.026241,-0.0005039968,-0.02079702,-0.0007001818,0.003238508,-0.0004435983,-0.008227212,0.02366421,-0.009170972
1.026809,-0.004677025,-0.01979692,-0.000126369,-0.0009060611,0.0006600457,-0.009679165,0.01555493,-0.007026962
1.028184,-0.005129334,-0.01962244,0.001254207,-0.001331563,0.0009357349,-0.009434421,0.02269469,-0.006131795
1.029658,-0.002967655,-0.0210662,0.002734171,0.0008553358,-0.0004092847,-0.008821048,0.02817616,-0.006993548
1.029448,-0.006144238,-0.02247017,0.002530941,-0.002297541,-0.001717071,-0.004509807,0.02441908,-0.00769945
1.028343,-0.005039433,-0.0194714,0.001432039,-0.001170452,0.001375275,-0.0004693101,0.02711661,-0.009618303
1.027423,-0.003106788,-0.0153362,0.0005182662,0.0007831512,0.005601355,-0.002506203,0.02495587,-0.01077266
1.024694,0.0001770805,-0.01373612,-0.002205081,0.004086689,0.007289381,-0.007513482,0.01840547,-0.009352646
1.022454,0.003944446,-0.01216332,-0.004439195,0.007872336,0.008946851,-0.01255935,0.01602746,-0.00662756
1.022768,0.002228296,-0.01152943,-0.004120391,0.006172855,0.009661743,-0.01274718,0.0120599,-0.004029253
1.024596,0.001460268,-0.01135819,-0.002286011,0.00541962,0.009909883,-0.01179598,0.009866929,-0.003480672
1.027367,-0.0003618715,-0.009557727,0.0004912296,0.003610197,0.01178271,-0.01679018,0.01058658,-0.00391705
1.026866,-0.002448386,-0.01205778,-3.443462e-06,0.001534213,0.009350085,-0.02052858,0.01167711,-0.002198857
1.02542,-0.00101938,-0.01665906,-0.001442919,0.002971538,0.004810954,-0.02087503,0.01140345,-0.001507419
1.027353,-0.0007766883,-0.01624224,0.0004965006,0.003220347,0.005284486,-0.01871536,0.009045185,-0.004921227
1.028206,0.001088425,-0.01583724,0.001356637,0.005089354,0.005740702,-0.01315657,0.009063688,-0.007634094
1.028696,0.003765463,-0.01463526,0.001853803,0.007767984,0.006988381,-0.01090266,0.01219435,-0.008737838
1.027269,0.00298653,-0.01065666,0.0004344111,0.006988189,0.01100707,-0.009847037,0.01413316,-0.009094806
1.02341,0.001519698,-0.009602186,-0.003417243,0.005517868,0.01209587,-0.003707303,0.006018176,-0.006368892
1.024906,-0.0009088712,-0.009614,-0.001913822,0.003083069,0.01211236,0.003314621,-0.005563316,-0.004772559
1.026138,-0.005490485,-0.01378177,-0.000674529,-0.001507499,0.007966658,0.004071081,-0.0002970096,-0.004317239
1.024812,-0.005452386,-0.02164569,-0.001993327,-0.001480913,0.0001184846,-0.001635438,0.01964339,-0.002176399
1.026148,0.002472282,-0.01950716,-0.0006487878,0.006429896,0.002266615,-0.005229614,0.03010344,-0.003393389
1.02499,0.007183327,-0.01312025,-0.001798675,0.01112479,0.008657227,-0.006327243,0.006145827,-0.005941002
1.023878,0.003166412,-0.01228833,-0.002902269,0.007089259,0.009487115,-0.01704797,-0.02346895,-0.004137767
1.02398,-0.000248167,-0.01070879,-0.002792207,0.003653418,0.01105887,-0.03351769,-0.01402226,0.001238296
1.021352,0.002378216,-0.00652385,-0.005410752,0.006255822,0.01523015,-0.03367079,-0.01214532,0.005186587
1.022754,0.003299552,-0.002503256,-0.003998684,0.00715044,0.01923098,-0.02093508,-0.03207601,0.005156146
1.027508,-0.001622213,-0.008067151,0.0007651265,0.002199194,0.0136409,-0.01515134,-0.01977603,0.004818614
1.029928,-0.003802499,-0.01950218,0.003196843,-1.327647e-05,0.002173045,-0.01073876,-0.006758805,0.0002063498
1.029837,-0.002873608,-0.01918532,0.003117246,0.000880916,0.002450568,-0.006046309,-0.009819212,-0.006591183
1.028366,-0.00352525,-0.01819716,0.001658709,0.0001923089,0.003393256,-0.006651638,-0.001767282,-0.006070569
1.029304,-0.003996369,-0.02188461,0.002608789,-0.0003177964,-0.0003453462,-0.001907181,-0.003590844,-0.005141731
1.029489,-0.002768702,-0.0219581,0.002806507,0.0008691086,-0.0004752046,0.00403495,-0.003280552,-0.005403676
1.027767,-0.0004159211,-0.02553026,0.001096949,0.00317956,-0.004108382,-0.000466174,0.002259733,-0.003968917
1.028828,-0.001243069,-0.0230573,0.002169566,0.002308653,-0.001700482,-0.006534057,-0.005943858,-0.004104193
1.029344,-0.002492664,-0.01595705,0.002696789,0.001013975,0.005331222,-0.00334065,-0.007886905,-0.0009697282
1.029116,-0.002464132,-0.0193985,0.002479719,0.0009962276,0.001818112,0.004957732,-0.009382173,0.002516575
1.029338,-0.004669349,-0.02191184,0.002712897,-0.001256297,-0.0007697006,0.01076864,-0.01026893,0.0008244761
1.028693,-0.002723712,-0.01960357,0.002076869,0.0006412047,0.001461635,0.01129017,-0.003792001,-0.001202159
1.028525,-1.67455e-05,-0.0154535,0.001918269,0.003299382,0.005532639,0.009978277,-0.000386062,-0.001608694
1.027095,-0.00183659,-0.01082298,0.0004956125,0.001430198,0.01008213,0.0148925,0.006911709,-0.0006989745
1.025706,-0.001577997,-0.01402406,-0.0008859561,0.001638971,0.006798075,0.0175133,0.001025775,0.0016097
1.025156,-0.0006672429,-0.01979042,-0.001430342,0.0024995,0.0009467943,0.01484359,-0.01269033,0.005010091
1.025456,0.0003099202,-0.02254197,-0.00112512,0.003426087,-0.00189146,0.01605777,-0.008935358,0.004951669
1.028264,0.002929558,-0.02237284,0.001687427,0.005994797,-0.001810462,0.01312436,-0.008429858,-0.001108475
1.029001,0.003276281,-0.01859542,0.002428261,0.006290168,0.001877795,0.009462917,-0.01125044,-0.002734699
1.028959,0.001705215,-0.01536879,0.002389692,0.004667206,0.005014537,0.007402938,-0.007721661,0.0006903224
1.029689,-0.0007612259,-0.01361522,0.003122393,0.002148243,0.00667762,0.003062428,-0.007835052,-0.0006505424
1.028015,-0.003161131,-0.0127748,0.001449293,-0.0003047922,0.007426957,0.005753801,-0.006500485,0.0004402927
1.0257,-0.0005388995,-0.01245369,-0.0008643534,0.002263812,0.007656337,0.006473727,-0.004813381,0.003796034
1.022743,0.00401774,-0.01313791,-0.003821445,0.006766411,0.00687965,0.004698754,-0.006524801,-0.00159009
1.023511,0.003010809,-0.01757999,-0.003054775,0.005704998,0.002344338,0.007311252,-0.004839493,-0.005625761
1.028364,0.001961167,-0.02288718,0.001796407,0.004600327,-0.003056768,0.007747709,0.001931557,-0.00386168
1.02968,0.003480864,-0.02495838,0.003110859,0.006064357,-0.005222231,0.01134942,0.008304976,-0.00501295
1.029207,0.00180495,-0.02457493,0.002635451,0.004332063,-0.004932953,0.01342862,0.006844535,-0.01016822
1.028103,-0.001333018,-0.0233539,0.001528603,0.001136972,-0.003805495,0.01116669,0.00173075,-0.01396856
1.027264,-0.005414789,-0.02208343,0.0006861587,-0.00300258,-0.002627578,0.01268599,0.0003079363,-0.006714803
1.028338,-0.007834313,-0.02356162,0.001755716,-0.005480296,-0.004196929,0.01146719,0.0007570003,0.000261503
1.028671,-0.006190759,-0.02494987,0.002083935,-0.003894971,-0.005674613,0.005277122,0.00514357,-0.002972287
1.030285,-0.006141498,-0.01867533,0.003692195,-0.003903589,0.0005125457,-0.0002520941,0.005692559,-0.0004456053
1.030638,-0.005642352,-0.01275638,0.004038958,-0.00346163,0.006346343,0.0007599224,-0.008785843,0.004584216
1.027453,-0.004007291,-0.01483636,0.0008468612,-0.001882779,0.004183391,0.001636134,-0.02032216,0.003001809
1.025735,-0.001735736,-0.01461509,-0.0008799644,0.0003337538,0.004323697,-0.009741818,-0.02001027,0.004783888
1.026276,0.003000332,-0.01295204,-0.0003476362,0.005016071,0.005907624,-0.01684889,-0.02224997,0.009978156
1.027762,0.002302371,-0.02143864,0.001128609,0.004265567,-0.002656368,-0.006031304,-0.02354355,0.01048379
1.027934,0.0007859249,-0.03086139,0.001290217,0.002697642,-0.01215473,0.005167369,-0.01601755,0.008778916
1.027585,0.004009935,-0.02809919,0.0009294812,0.005871097,-0.009465956,0.004774326,-0.002608756,0.007307251
1.027675,0.002136115,-0.02251176,0.001008337,0.003947497,-0.003949272,0.006230594,0.008111856,0.004200353
1.025763,-0.001612561,-0.01759942,-0.0009163075,0.0001496887,0.0008953389,0.01302938,0.003957852,0.003640194
1.024538,-0.003021189,-0.01054775,-0.002153998,-0.001307446,0.007882333,0.01094204,-0.006146876,0.00335059
1.024895,-0.00364493,-0.01475509,-0.001810302,-0.00197897,0.003613152,0.008341394,-0.006579211,0.0006375763
1.02517,-0.00199679,-0.02185965,-0.001549223,-0.000377747,-0.003550652,0.009792703,-0.004862326,0.001392994
1.025061,-0.002812341,-0.01789388,-0.00167146,-0.001239222,0.0003583958,0.005282987,-0.001439752,0.002527358
1.02457,-0.003387478,-0.01869868,-0.002175918,-0.001859178,-0.0005006021,0.002114906,0.004765446,0.003147543
1.02435,-0.002186301,-0.02104468,-0.002408851,-0.0007016068,-0.002898263,-0.002044766,0.0005700684,0.003556289
1.023268,-0.004150992,-0.01714521,-0.003504588,-0.002708584,0.0009520949,-0.006222825,-0.002842049,-9.715069e-05
1.023365,-0.00443915,-0.01958648,-0.003420073,-0.003037592,-0.00153572,-0.003489912,0.001583704,-0.001207635
1.024085,-0.003882587,-0.02564765,-0.002711401,-0.002520302,-0.007640869,-0.004800857,0.0006803913,0.002083107
1.023253,-0.00413396,-0.03005312,-0.003555128,-0.002809236,-0.01208756,-0.005531555,-0.001799336,0.004376816
1.023702,-0.002068818,-0.02807586,-0.003115791,-0.0007798347,-0.0101484,-0.00381434,-0.002946855,0.003445393
1.024297,-0.001202433,-0.02210939,-0.00252997,5.267871e-05,-0.004216511,-0.007280786,-0.0008038314,-0.001602611
1.026023,-0.002097623,-0.025103,-0.0008120007,-0.0008745175,-0.007240952,-0.008562231,0.004002805,-0.004036902
1.028309,-0.003245873,-0.02456816,0.001467843,-0.002052922,-0.006733048,-0.00824205,0.003475739,-7.829957e-05
1.025284,-0.002987941,-0.02007752,-0.001563151,-0.001823278,-0.002265341,-0.0081993,0.003846208,0.003185665
1.022697,-0.002224829,-0.02421254,-0.004155116,-0.001086556,-0.006419258,-0.007249316,0.005871867,0.002974323
1.026395,-0.003229164,-0.02526585,-0.0004602228,-0.002115366,-0.007487412,-0.006903245,0.005163841,0.001671288
1.029183,-0.002494748,-0.0251811,0.0023254,-0.001403501,-0.007413384,-0.005224668,0.00397187,-9.817826e-05
1.027759,-0.001826323,-0.02624072,0.0009004642,-0.0007556982,-0.008479466,-0.004006016,0.002740104,-0.003083439
1.028159,-0.00223771,-0.02218223,0.001299817,-0.0011858,-0.004423117,-0.002990805,0.005208603,-0.004814789
1.029805,-0.001862515,-0.02072642,0.002946128,-0.000827449,-0.00296509,-0.00152942,0.008620873,-0.002221721
1.027802,-0.002679771,-0.02103313,0.000944762,-0.001659712,-0.003265343,-0.0002634485,0.008491988,-0.002469809
1.025393,-0.003578906,-0.02149361,-0.001463628,-0.002572038,-0.003715274,0.0005182886,0.008417208,-0.004473743
1.02474,-0.004415407,-0.02285866,-0.002114495,-0.0034199,-0.005065828,0.0001122294,0.004928729,-0.002036646
1.024766,-0.003503052,-0.02344083,-0.002085441,-0.002517035,-0.00562965,0.0007133798,-0.003999825,-0.00319903
1.025861,-0.001924736,-0.02929738,-0.0009878989,-0.0009463083,-0.01146402,0.0001314019,-0.005121649,-0.004416424
1.027571,-0.003328604,-0.03551197,0.0007261317,-0.002355881,-0.01765246,-0.0002401294,0.009081622,-0.004914528
1.029838,-0.003763362,-0.03097647,0.002997305,-0.00279448,-0.01308653,0.000428409,0.02115334,-0.009400299
1.029753,-0.004089274,-0.01942708,0.002915985,-0.003122369,-0.001502129,-0.001291133,0.0156188,-0.006724492
1.027968,-0.003771482,-0.01263076,0.001136206,-0.002804672,0.005333703,-0.003794948,0.008201613,-0.0007276245
1.027758,0.001137306,-0.01455951,0.0009302173,0.002105886,0.003448528,-0.01275564,0.006962065,0.004306091
1.026049,0.005742219,-0.01677643,-0.0007730685,0.006714283,0.001278666,-0.02190288,-0.0007052311,0.008009026
1.026014,0.005608746,-0.01527793,-0.0008036429,0.00658568,0.00282717,-0.01600007,-0.001865839,0.00401078
1.029065,0.0002222303,-0.01740402,0.002252087,0.001205028,0.0007535836,-0.008701497,0.004986262,0.001855767
1.029308,-0.00493848,-0.02188779,0.002500024,-0.003949083,-0.003675562,-0.01129517,0.003154915,-0.001298359
1.029187,-0.005366555,-0.02279897,0.002382608,-0.004369855,-0.004530248,-0.01017056,0.009024129,-0.008167435
1.029111,-0.004790071,-0.0253483,0.002310816,-0.003785259,-0.007021287,-0.006450852,0.01754673,-0.007164141
1.02777,-0.004494447,-0.02562696,0.0009741537,-0.003480587,-0.007239875,-0.007464815,0.0145192,-0.005617907
1.026965,-0.004083896,-0.02002636,0.0001723175,-0.003059958,-0.001577375,-0.002194638,0.01301934,-0.00555659
1.025834,-0.003471152,-0.01882728,-0.0009561477,-0.002436041,-0.0003146746,0.003426329,0.007039212,-0.002695396
1.026759,-0.003841801,-0.01969439,-2.849705e-05,-0.002794385,-0.001116637,0.001085242,0.003785588,-0.003863554
1.028214,-0.003968447,-0.02020622,0.001428695,-0.002907571,-0.001562049,0.003762758,0.009091222,-0.006441024
1.027622,0.0006529734,-0.02153406,0.0008387223,0.001728461,-0.002822387,0.007091269,0.007836525,-0.006117883
1.027259,0.004306605,-0.02042899,0.0004764216,0.005397735,-0.001648897,0.002674759,0.007868531,-0.005089271
1.027391,0.00195937,-0.020717,0.0006091071,0.003066918,-0.001867714,-0.002253939,0.008114997,-0.002881641
1.028301,-0.002298802,-0.0201739,0.001520163,-0.001174329,-0.001254805,-0.002245883,0.006320197,-0.00164373
1.027399,-0.005200704,-0.01893779,0.0006176012,-0.004058928,5.157395e-05,0.001561283,0.007330563,-0.001705994
1.025331,-0.004597,-0.02101101,-0.001450721,-0.003437513,-0.0019511,0.006958386,0.005457578,0.0007717114
1.024171,-0.003425757,-0.0228258,-0.002611937,-0.002248062,-0.003695218,0.01245841,0.006835192,0.0008780949
1.02348,-0.00411249,-0.02277216,-0.003304306,-0.002916023,-0.003570829,0.007909131,0.01095491,-0.001948118
1.027439,-0.002570737,-0.01661517,0.0006532691,-0.001354893,0.002656891,-0.00300916,0.01322543,-0.002237255
1.030645,-0.0004639428,-0.01034209,0.003858402,0.0007718765,0.0090005,-0.007915576,0.01296775,-0.006069843
1.028923,-0.001435615,-0.01513192,0.00213482,-0.0001792881,0.004280583,-0.01287271,0.01159907,-0.01171468
1.028879,-0.001794139,-0.02253555,0.002088781,-0.0005168657,-0.003054156,-0.01993877,0.02274423,-0.01344635
1.029401,-0.001888791,-0.02834454,0.002607904,-0.0005902098,-0.008795411,-0.0301392,0.04222486,-0.01530414
1.029124,-0.006013132,-0.03412377,0.002328524,-0.004692914,-0.01450788,-0.03938741,0.05336343,-0.01593009
1.029136,-0.009951151,-0.0269377,0.002337047,-0.008608889,-0.0072556,-0.0378697,0.05146111,-0.01858423
1.029493,-0.009567217,-0.013171,0.002690543,-0.008202279,0.006577042,-0.03419948,0.04813245,-0.02227602
1.03108,-0.009139464,-0.01457924,0.004273273,-0.00775092,0.005234393,-0.02829963,0.06067497,-0.02086431
1.031794,-0.009354874,-0.01981381,0.004981499,-0.007941512,6.472168e-05,-0.0195391,0.09075065,-0.02164279
1.029579,-0.005239881,-0.01714923,0.002760291,-0.003800263,0.002793223,-0.01836849,0.1223501,-0.02203658
1.02692,-0.001562128,-0.01074142,9.369101e-05,-9.471274e-05,0.009263718,-0.007564392,0.1189959,-0.0225131
1.029314,-0.005358974,0.001026893,0.002479716,-0.00386226,0.02109303,0.02617866,0.09310569,-0.02955995
1.031283,-0.008070949,0.005439339,0.004439352,-0.006543478,0.02556397,0.05821357,0.09110882,-0.03229575
1.02596,-0.003241273,0.003332522,-0.0008949422,-0.001681566,0.02351206,0.07227779,0.08852731,-0.02884036
1.020964,0.002124945,0.002354293,-0.005902449,0.003718333,0.02258403,0.07403107,0.07537841,-0.02095554
1.020648,0.004698864,-0.006138173,-0.006230778,0.006327142,0.0141361,0.05426564,0.06539729,-0.01191777
1.023605,0.008152699,-0.006393356,-0.003286015,0.009816647,0.01391913,0.009071972,0.05160179,-0.01190455
1.026203,0.01271788,0.006488575,-0.0007010548,0.01441769,0.02683244,-0.0315942,0.05378172,-0.009381461
1.023657,0.01486134,0.02272292,-0.003260105,0.01659648,0.04309059,-0.05139217,0.04301227,-0.0006018363
1.017389,0.01910983,0.03798791,-0.009539877,0.02087892,0.05837048,-0.06429594,-0.0003338294,0.002103427
1.009346,0.02717308,0.03255752,-0.01759536,0.02897372,0.0529442,-0.07986004,-0.03972879,0.01176401
1.006934,0.02607891,0.02466993,-0.02001813,0.02790754,0.04504799,-0.09932892,-0.08041425,0.03135812
1.01545,0.01597293,0.0275755,-0.01151028,0.01782484,0.04793057,-0.1097497,-0.1040153,0.03416572
1.026231,0.008254904,0.01600148,-0.0007354332,0.01012451,0.03631792,-0.09252565,-0.09488195,0.02702534
1.032389,0.0009471066,0.008550949,0.005419571,0.002828452,0.02881226,-0.05968857,-0.07969251,0.02951726
1.031163,-0.005329181,0.01149721,0.004193466,-0.003442006,0.03168646,-0.02834653,-0.05918794,0.02814731
1.027008,-0.001880754,0.007055678,4.037525e-05,6.704257e-06,0.02715578,0.001018796,-0.04566925,0.02650631
1.027227,0.006371399,0.005778569,0.0002629693,0.008253991,0.02577244,0.01928132,-0.04252776,0.03044473
1.027909,0.00679476,0.001450162,0.0009507872,0.008667531,0.02132087,0.03128626,-0.04211534,0.02846498
1.031146,0.005701797,-0.004420795,0.004194843,0.007559802,0.01531021,0.0402953,-0.06575877,0.02964689
1.036267,0.0084684,-0.005731596,0.009323743,0.01030666,0.01384378,0.0343831,-0.09122137,0.03388945
1.033668,0.005991004,-0.01024005,0.006734173,0.0078045,0.009164595,0.03314256,-0.08099066,0.03997651
1.027925,0.004550526,-0.005524964,0.001001078,0.006334237,0.01369479,0.0377278,-0.07751485,0.05760126
1.021955,0.004904071,-0.004330253,-0.004959257,0.006653036,0.01469133,0.03360852,-0.1154483,0.06902456
1.018614,0.002786651,-0.01935231,-0.008290445,0.004496033,-0.000541245,0.03440303,-0.1357739,0.06262417
1.023191,0.004703954,-0.02980905,-0.003702903,0.006369079,-0.01121969,0.02583371,-0.09268791,0.05001764
1.028391,0.002512665,-0.03407085,0.001508103,0.00412904,-0.01571272,0.0008214726,-0.03062103,0.03319673
1.033122,-0.0001198396,-0.0386505,0.006250303,0.00144351,-0.02053114,-0.02228959,-0.01344258,0.01500196
1.032964,0.001832194,-0.04019605,0.006104417,0.003338527,-0.02232087,-0.03562908,-0.02982186,0.005739718
1.025797,-0.002058091,-0.02817911,-0.001049522,-0.0006124323,-0.01055149,-0.02978312,-0.02743963,0.0005712405
1.023291,-0.005440069,-0.01411141,-0.003544005,-0.004058349,0.003266964,-0.02430695,-0.01711774,-0.001662749
