accx,accy,accz,body_accx,body_accy,body_accz,body_gyrox,body_gyroy,body_gyroz
0.9936876,-0.2237015,0.1461282,-0.005534726,0.001030157,0.01500024,-0.04757916,-0.1001726,0.04119388
0.9964334,-0.2270193,0.1431187,-0.002819913,-0.002575421,0.01272129,-0.04884482,-0.1076448,0.0431783
0.9958172,-0.2331567,0.1450367,-0.003467239,-0.008999204,0.01534403,-0.05816148,-0.1072671,0.04144424
0.9947077,-0.2331401,0.1461428,-0.004607824,-0.009266678,0.01712817,-0.04464058,-0.1072837,0.04623035
0.9946366,-0.2335378,0.1469419,-0.004709522,-0.009944943,0.0185779,-0.02641151,-0.1184462,0.05056284
0.9960346,-0.2357453,0.1455685,-0.003341528,-0.01242852,0.01782694,-0.02880296,-0.1187576,0.05247672
0.9979982,-0.2382983,0.1448868,-0.001406928,-0.01525213,0.01773907,-0.02802487,-0.1172732,0.05148953
0.9957645,-0.2399939,0.1440644,-0.003668616,-0.01721181,0.01748121,-0.02467701,-0.1154602,0.05079594
0.993641,-0.2408978,0.1418933,-0.005818941,-0.01837218,0.01584518,-0.02169294,-0.1113497,0.05201839
0.9932524,-0.2437688,0.1433822,-0.006232932,-0.02149096,0.01783953,-0.02036401,-0.1120521,0.04919976
0.9967426,-0.2454238,0.1437953,-0.00276634,-0.02338402,0.01872815,-0.01492049,-0.1125664,0.04820341
1.000959,-0.2429633,0.1438921,0.001427698,-0.02115068,0.01927068,-0.002887497,-0.1158754,0.04593937
0.9998109,-0.2373121,0.1453544,0.0002600575,-0.01571493,0.0211487,0.0002815632,-0.1164052,0.04217526
0.9966151,-0.2305885,0.1440735,-0.002954024,-0.009194298,0.0202537,-0.003833942,-0.1144496,0.0432189
0.9942946,-0.2291085,0.1432599,-0.00529105,-0.007904502,0.01979612,-0.01162817,-0.1143218,0.04428808
0.9943829,-0.2334118,0.1405549,-0.005217516,-0.01238516,0.01741738,-0.0169769,-0.1125251,0.04619932
0.9966538,-0.2347673,0.1357072,-0.002959327,-0.0139051,0.01286664,-0.01357485,-0.1129995,0.04580083
0.9985225,-0.2362292,0.1368528,-0.001101238,-0.01551828,0.01428036,-0.008061862,-0.1108652,0.04156283
0.9982361,-0.2398951,0.1378996,-0.001396115,-0.01932211,0.01556699,-0.005050664,-0.109935,0.03923086
0.9974272,-0.2364772,0.1349559,-0.002211478,-0.01602852,0.01283556,-0.006413648,-0.113415,0.0390568
0.9975865,-0.2340078,0.1366078,-0.002056672,-0.01366963,0.01467289,-0.004267763,-0.1147406,0.04813616
0.9955196,-0.2405131,0.139521,-0.004126115,-0.02027138,0.01774535,0.004699383,-0.1217495,0.06492703
0.9941272,-0.2452664,0.1392626,-0.005518945,-0.02510696,0.01762062,0.01203356,-0.1330609,0.07077999
0.998133,-0.2441028,0.1350931,-0.001511545,-0.0240112,0.0135598,0.01441996,-0.1383815,0.06054857
1.001514,-0.2436756,0.1270653,0.001873486,-0.023637,0.005616535,0.01480283,-0.1324603,0.05164556
1.000003,-0.2456001,0.1259087,0.0003679417,-0.02559933,0.004521359,0.01795339,-0.1231695,0.05339698
0.9987716,-0.2482249,0.1269302,-0.0008563039,-0.02824648,0.005582273,0.02110854,-0.1171768,0.05234488
0.9978762,-0.2580186,0.1211455,-0.00174276,-0.03804679,-0.0001836542,0.02519777,-0.1027432,0.04711603
0.9949106,-0.2680373,0.1192629,-0.004697793,-0.04805555,-0.002066916,0.0358404,-0.09450858,0.04354097
0.9952612,-0.2637873,0.1197452,-0.00433503,-0.04377831,-0.001603214,0.05682599,-0.1069914,0.03977843
0.9971677,-0.2576803,0.1178543,-0.002414747,-0.03762566,-0.003529147,0.08574242,-0.1198329,0.04621163
0.9974286,-0.2525233,0.1204826,-0.002138487,-0.03240422,-0.0009511336,0.09588278,-0.1229785,0.06193781
1.00086,-0.236658,0.1235465,0.001309437,-0.01645525,0.002048891,0.07982845,-0.1162998,0.07975874
1.002803,-0.2211909,0.1236773,0.003271303,-0.0008858462,0.002103102,0.06510323,-0.1081373,0.1000694
1.001399,-0.2117952,0.128753,0.001887219,0.008629757,0.007090603,0.05314735,-0.1082781,0.1050201
1.002389,-0.2082334,0.1354221,0.002897129,0.01232728,0.01366079,0.02407739,-0.1081554,0.09149679
1.002272,-0.2182352,0.1315172,0.002801471,0.002475119,0.009646635,-0.01637482,-0.1060259,0.07627285
1.00107,-0.2317216,0.1268863,0.001621036,-0.01084944,0.004896898,-0.04326086,-0.09902971,0.0590089
0.9993246,-0.2380137,0.1327216,-0.0001021516,-0.01696861,0.01060412,-0.05395359,-0.08485852,0.03979458
0.9940282,-0.2407036,0.1345558,-0.005376509,-0.01947522,0.01230181,-0.06099073,-0.07781025,0.02268174
0.9923481,-0.2434829,0.1305692,-0.007034359,-0.02206116,0.00817059,-0.06352683,-0.07715722,0.003322612
0.9964247,-0.2488966,0.1303224,-0.002935082,-0.02727149,0.007771546,-0.06266604,-0.07502619,-0.01312547
0.9997947,-0.2528865,0.1300828,0.0004581907,-0.03104815,0.007372608,-0.05932367,-0.07033325,-0.01547062
0.9998142,-0.2538135,0.1288994,0.0005013498,-0.03175175,0.006023397,-0.04788547,-0.06625061,-0.01825058
0.9974161,-0.2554998,0.1273533,-0.001872516,-0.03320428,0.004305552,-0.03456463,-0.07018272,-0.03172171
0.9957614,-0.2571082,0.1277478,-0.003502663,-0.0345684,0.004523007,-0.03014357,-0.07203724,-0.03872477
0.9941534,-0.2560737,0.1308996,-0.005085744,-0.03327853,0.007493038,-0.03310301,-0.06995551,-0.04217769
0.9938631,-0.2508843,0.1305584,-0.005350549,-0.02782275,0.006965992,-0.03564954,-0.0687063,-0.03926935
0.9959355,-0.2478434,0.1277458,-0.003252032,-0.02450418,0.003963771,-0.0371718,-0.06335879,-0.02519165
0.9950214,-0.2489527,0.1229149,-0.00413914,-0.02532484,-0.001059836,-0.04089403,-0.06633996,-0.0249082
0.9939029,-0.2493755,0.1163604,-0.00522987,-0.02544831,-0.007809452,-0.04352549,-0.07551397,-0.02449169
0.9947205,-0.2498954,0.1140087,-0.004383516,-0.02565852,-0.01035785,-0.04324133,-0.08073638,-0.0144799
0.9943126,-0.2473946,0.1157995,-0.004761545,-0.02283784,-0.008764094,-0.04580198,-0.08379229,-0.01141564
0.994489,-0.244614,0.1181951,-0.004554262,-0.01972757,-0.00656512,-0.05080953,-0.08188783,-0.0004206344
0.994675,-0.245977,0.1186211,-0.004336185,-0.02075178,-0.006334157,-0.05770851,-0.08201262,0.005009626
0.9951905,-0.2461345,0.118498,-0.003787267,-0.02056168,-0.006650026,-0.07226094,-0.07153368,0.001215768
0.9955875,-0.2456085,0.1190812,-0.003355579,-0.01967999,-0.006256639,-0.0877672,-0.03867545,0.004089169
0.9922004,-0.2463936,0.11897,-0.006706786,-0.02010164,-0.006554075,-0.09375849,-0.01238781,-0.005737908
0.9897651,-0.2496419,0.120641,-0.009104758,-0.0229794,-0.005065123,-0.08932806,-0.011683,-0.01231741
0.9939257,-0.2561789,0.1229548,-0.004905287,-0.02913899,-0.002928821,-0.08332533,-0.01752013,-0.01227383
0.9996321,-0.2598255,0.1216536,0.0008416727,-0.03240173,-0.004402352,-0.08245792,-0.01002762,-0.02454469
1.000111,-0.2563723,0.1172598,0.001362421,-0.028558,-0.008963202,-0.07269153,-0.00635469,-0.0282785
0.9994668,-0.2519755,0.1137041,0.0007617554,-0.02376409,-0.01268014,-0.05407787,-0.009300863,-0.02608269
1.000578,-0.2517051,0.11352,0.001917714,-0.02309021,-0.01301914,-0.04252163,-0.01328119,-0.01813365
1.000111,-0.2504258,0.1155397,0.001495587,-0.02140144,-0.01114745,-0.02875325,-0.03464797,0.002639841
1.001623,-0.2490863,0.1213535,0.003052549,-0.01964684,-0.005474216,-0.008526218,-0.04446402,0.01492244
1.00355,-0.2492452,0.1292816,0.005025946,-0.01938557,0.002321018,-0.001241237,-0.03671266,0.0185368
1.000986,-0.2463917,0.1310141,0.002507319,-0.0161072,0.003928134,-0.005368204,-0.04547438,0.02454237
0.996442,-0.2441732,0.1289127,-0.001991454,-0.01345977,0.001708718,8.068402e-06,-0.06329255,0.03015571
0.9904134,-0.2416355,0.1275987,-0.007975325,-0.01048997,0.0002835035,0.002726367,-0.0775718,0.02747782
0.9878782,-0.2386071,0.1243996,-0.01046608,-0.007026822,-0.003020008,-0.007957151,-0.07107738,0.02598843
0.9927059,-0.2436867,0.1256997,-0.005593953,-0.01167016,-0.001817816,-0.007996235,-0.05822813,0.03368042
0.9961147,-0.2478986,0.1300121,-0.002140479,-0.01544487,0.002403098,0.002937259,-0.07005131,0.04057988
0.9952087,-0.2375784,0.1281708,-0.003001591,-0.004687354,0.0004765295,0.01206075,-0.08226938,0.05179803
0.9982313,-0.2274942,0.1286908,6.631979e-05,0.005833624,0.0009172768,0.01283006,-0.0907905,0.05579545
1.003358,-0.2324072,0.1305966,0.005238109,0.001355687,0.002749411,0.009395701,-0.09508275,0.04857754
1.001969,-0.2376913,0.1290222,0.003895332,-0.003496205,0.001106708,0.01481957,-0.08904518,0.04569541
1.000961,-0.239605,0.1311326,0.002932049,-0.004981402,0.003153911,0.00982399,-0.09027013,0.03510051
1.003984,-0.2456826,0.1307069,0.006000008,-0.01063499,0.002669723,0.002858762,-0.07195338,0.02617774
1.002612,-0.2469114,0.1278114,0.004670839,-0.01144473,-0.0002798609,0.01156619,-0.04383586,0.0224994
1.001149,-0.2488839,0.1280163,0.003250534,-0.01300324,-0.0001246805,0.01244255,-0.04553503,0.008969281
1.001898,-0.2543175,0.1269145,0.004040198,-0.0180281,-0.001272309,0.01323906,-0.04645032,-0.0002567392
1.000701,-0.2525481,0.1262101,0.002881805,-0.01585513,-0.002018518,0.01610177,-0.03883633,-0.004851737
1.000107,-0.2530447,0.1247317,0.002324988,-0.01595323,-0.003534927,0.008906606,-0.03462727,-0.01042332
0.9971345,-0.2519003,0.1240202,-0.0006118994,-0.01441535,-0.004280658,0.0004338249,-0.02570748,-0.0116483
0.9933671,-0.244276,0.1250797,-0.004345946,-0.00640255,-0.003251503,-0.007368987,-0.02322172,-0.005108254
0.993567,-0.2453096,0.1226929,-0.004114531,-0.007052811,-0.00566498,-0.01007795,-0.03106045,0.005039485
0.9930431,-0.2469894,0.1217083,-0.004608361,-0.00835457,-0.006672261,-0.01526966,-0.04446663,0.007428927
0.9932255,-0.2448267,0.1198989,-0.004397077,-0.005819544,-0.008500439,-0.02356091,-0.05272338,0.01044094
0.9961232,-0.2468981,0.1186605,-0.001471696,-0.007524549,-0.00975349,-0.028609,-0.05673114,0.01167716
0.9976566,-0.2490236,0.1252141,8.862648e-05,-0.009289683,-0.003210363,-0.03574967,-0.06757907,0.006977969
0.9966496,-0.2531671,0.12628,-0.000892418,-0.01307907,-0.002150486,-0.03248056,-0.07588404,0.006764435
0.995421,-0.2561313,0.1204962,-0.002095756,-0.01569526,-0.007936232,-0.03115638,-0.09218079,-0.004134234
0.9976622,-0.2552456,0.1180884,0.0001697839,-0.01446745,-0.01034169,-0.04660114,-0.1075278,-0.02417869
0.9990724,-0.2564922,0.1147526,0.001603715,-0.01537764,-0.01367078,-0.0614031,-0.08799443,-0.03147374
0.9956427,-0.2529587,0.1117349,-0.001803101,-0.01151316,-0.01667709,-0.06742999,-0.05814045,-0.02558878
0.994533,-0.2469151,0.111066,-0.002890736,-0.005143876,-0.01732962,-0.05577344,-0.04220898,-0.01504801
0.999754,-0.2482234,0.1077025,0.002351745,-0.006131778,-0.02067123,-0.04409457,-0.03373964,-0.01039531
1.003597,-0.2499655,0.1029534,0.006215897,-0.00755898,-0.0253924,-0.05117274,-0.04244992,-0.01716712
0.9969359,-0.2499409,0.0995408,-0.00042581,-0.007225059,-0.02877034,-0.05399896,-0.06036184,-0.03361346
0.9903128,-0.2528505,0.09710579,-0.007029953,-0.009831119,-0.03116315,-0.0549605,-0.06655067,-0.04330461
0.9959095,-0.2536387,0.0956941,-0.001415164,-0.01032132,-0.03252424,-0.05954382,-0.066425,-0.03463332
0.9989538,-0.2513317,0.09487528,0.001646565,-0.007721882,-0.03328317,-0.05329896,-0.06578398,-0.01924185
0.9935048,-0.2494221,0.09190518,-0.00378563,-0.005525297,-0.03618323,-0.045527,-0.06716502,0.00212006
0.9922612,-0.2465457,0.0892794,-0.005012821,-0.002367546,-0.03872795,-0.04494737,-0.07270706,0.02096927
0.9942954,-0.2472569,0.09303337,-0.002962686,-0.002803066,-0.03488101,-0.05039407,-0.07535931,0.02049909
0.9938576,-0.2509727,0.09572678,-0.003384623,-0.006248973,-0.032082,-0.05915873,-0.08370259,0.01284275
0.9898442,-0.252808,0.09213288,-0.00738207,-0.007820396,-0.03555708,-0.06468612,-0.09545223,0.003577894
0.9850023,-0.257705,0.09067251,-0.01220785,-0.01245933,-0.03688493,-0.06641898,-0.1006075,-0.01056766
0.986734,-0.2603476,0.0915969,-0.01045926,-0.0148495,-0.03581385,-0.06364303,-0.1095433,-0.01366252
0.9941947,-0.2578112,0.09397087,-0.002980717,-0.0120659,-0.03327857,-0.05925885,-0.1040417,-0.005272994
1.001919,-0.25597,0.1013501,0.004763076,-0.009982335,-0.02572317,-0.05957137,-0.07636422,-0.002018515
1.005687,-0.2515236,0.1054982,0.008551243,-0.005298177,-0.02138421,-0.06349434,-0.06145687,0.0003676048
1.003908,-0.2514731,0.09856074,0.006793562,-0.00501441,-0.0281162,-0.07184387,-0.06517992,0.006070348
1.003582,-0.254714,0.09098929,0.006488286,-0.008026701,-0.03546798,-0.0811924,-0.0651137,0.008499474
1.004919,-0.2528,0.09189386,0.007846677,-0.005888467,-0.03432954,-0.08251269,-0.05205313,0.01140208
1.004267,-0.257911,0.09202866,0.007214184,-0.01077974,-0.0339466,-0.08479976,-0.04323205,0.0126485
1.006819,-0.2637939,0.08896081,0.009785961,-0.01644702,-0.03675196,-0.09171562,-0.04411772,0.008982378
1.00862,-0.2599094,0.0888433,0.01160481,-0.01235087,-0.03659257,-0.0925163,-0.03622777,0.003673582
1.003568,-0.2569355,0.08874945,0.006568259,-0.009168681,-0.03639504,-0.09797093,-0.02830345,-0.006542048
0.9986295,-0.2552884,0.0888532,0.001643902,-0.007316528,-0.03598539,-0.1086488,-0.02645029,-0.01463714
0.9981956,-0.2557158,0.08919657,0.001221287,-0.007541975,-0.03532164,-0.111809,-0.02354265,-0.01214564
0.9974428,-0.2580862,0.08848298,0.0004775367,-0.009713466,-0.03570044,-0.1200143,-0.02447342,-0.009132126
0.9948031,-0.2570369,0.08862319,-0.002155448,-0.008468181,-0.03521117,-0.1309717,-0.02144384,-0.01006072
0.9955731,-0.2583617,0.08531277,-0.001380747,-0.0095997,-0.03815841,-0.1325076,-0.01930322,-0.008234267
0.9967162,-0.260786,0.07920283,-0.0002346873,-0.01183337,-0.04389112,-0.135665,-0.02745606,-0.008704552
0.9954578,-0.2601384,0.07642947,-0.001491818,-0.01099744,-0.04627315,-0.1409236,-0.03242017,-0.01341564
0.9978128,-0.2620417,0.07758958,0.000862869,-0.01271467,-0.04470741,-0.1392688,-0.03026694,-0.01414831
0.999475,-0.2670124,0.07862275,0.002523481,-0.01750114,-0.04325415,-0.1318229,-0.02290337,-0.01419111
0.9982692,-0.2742888,0.07739419,0.001314698,-0.02459465,-0.04404809,-0.1167316,-0.01507695,-0.01290236
0.9986769,-0.2832187,0.0786111,0.001718098,-0.03334251,-0.04238199,-0.09124313,-0.01569189,-0.01182164
0.9986086,-0.283451,0.07994578,0.001644119,-0.03339232,-0.04058365,-0.06778336,-0.0197574,-0.0182966
0.998769,-0.2757428,0.07994752,0.001797579,-0.02550035,-0.04010394,-0.05406154,-0.01873701,-0.0215191
0.9995848,-0.2730078,0.0855447,0.002605205,-0.02257918,-0.03401476,-0.03684681,-0.01621936,-0.01882236
1.000119,-0.2716635,0.09092349,0.003130076,-0.02104593,-0.02813046,-0.01922508,-0.01816306,-0.01290965
0.9985088,-0.2695188,0.08848743,0.001509001,-0.01870889,-0.03004819,-0.01378378,-0.01965362,-0.006211988
0.9907124,-0.2700076,0.08323977,-0.006299392,-0.01900176,-0.03476548,-0.009443717,-0.02201395,-0.009355691
0.9838907,-0.268044,0.08092466,-0.01313403,-0.01683852,-0.03653883,-0.00456017,-0.02659807,-0.01288614
0.9880048,-0.2655659,0.08015388,-0.00903322,-0.01415693,-0.03675698,-0.007333197,-0.02608592,-0.01305658
0.9969741,-0.2616798,0.07772156,-7.712639e-05,-0.01006359,-0.03862619,-0.007723985,-0.02558127,-0.01431408
1.000093,-0.2591973,0.07759707,0.003028902,-0.007370307,-0.03817746,-0.00657433,-0.02235931,-0.01031627
1.000214,-0.2627533,0.08222659,0.00313702,-0.01071221,-0.03296498,-0.008969314,-0.01512472,-0.008198786
1.00068,-0.2628205,0.08446906,0.003591491,-0.01056248,-0.03013028,-0.006345342,-0.01462914,-0.00811957
1.001178,-0.2632401,0.08301374,0.004076795,-0.01076251,-0.03098474,-0.006706085,-0.009069086,-0.006582342
1.003708,-0.2634317,0.08600594,0.006595273,-0.01073215,-0.02738375,-0.01529089,0.001585095,-0.009471986
1.002563,-0.2598653,0.08905663,0.005436934,-0.006941687,-0.02371709,-0.01982108,0.001462618,-0.01176409
0.9984572,-0.2640109,0.08658247,0.001318373,-0.01086132,-0.02556897,-0.01412495,0.0006626654,-0.01237965
0.9950352,-0.2669335,0.0859207,-0.002117418,-0.01355642,-0.02560301,-0.005599911,0.001766112,-0.01439818
0.9916841,-0.2645031,0.08605627,-0.005482706,-0.01089708,-0.02483507,-0.007166273,-0.003900901,-0.01557995
0.9950092,-0.2652523,0.08556254,-0.002172169,-0.01141593,-0.02469256,-0.005509586,-0.005981021,-0.01473034
0.9983184,-0.2642793,0.08517438,0.001122403,-0.01021147,-0.02444136,0.004473236,-0.0006107675,-0.01336388
0.9966256,-0.2626033,0.08406737,-0.0005850715,-0.008303063,-0.02490657,0.005185689,0.00256888,-0.01473377
0.9972687,-0.262269,0.08754817,4.357161e-05,-0.007735454,-0.02078224,0.00796902,0.0002531195,-0.01634969
0.9964309,-0.2624067,0.09104386,-0.0008087243,-0.00763942,-0.01664203,0.01417235,-0.005737565,-0.01735639
0.9954113,-0.2628233,0.09188433,-0.001842509,-0.007822087,-0.01515688,0.01462441,-0.008956568,-0.01691871
0.9973746,-0.2616438,0.09199379,0.0001068004,-0.006408645,-0.01440353,0.01738988,-0.007654006,-0.01107668
0.9988179,-0.259966,0.08892131,0.001536358,-0.004497159,-0.01683383,0.01771725,-0.009507565,-0.007033168
0.9988983,-0.2572352,0.08733429,0.001603342,-0.001533374,-0.01778119,0.01395424,-0.01846596,-0.01313263
0.9967019,-0.2556315,0.08561593,-0.0006062495,0.0003022074,-0.01886309,0.001488109,-0.03116581,-0.03162046
0.9966111,-0.2541274,0.08395087,-0.000709955,0.002036575,-0.01989548,-0.0211242,-0.04124201,-0.0517839
0.998739,-0.2523958,0.08621169,0.001405272,0.003996197,-0.01700622,-0.03134514,-0.0454303,-0.05409263
1.0004,-0.2573907,0.08724524,0.003054238,-0.0007733167,-0.01534897,-0.02906607,-0.04045801,-0.05185192
1.003771,-0.2615422,0.08681691,0.006412977,-0.004702736,-0.01515884,-0.02752344,-0.02729621,-0.06088606
1.005715,-0.2578905,0.08016805,0.008344601,-0.0008324711,-0.02119496,-0.01906427,-0.01190228,-0.06268221
1.012301,-0.2538795,0.06360472,0.0149173,0.003393341,-0.03715148,-0.004204224,0.002930317,-0.05934325
1.022775,-0.2521056,0.05394684,0.02537791,0.005377909,-0.04620821,0.005577576,0.00706241,-0.06215388
1.016285,-0.2529723,0.06632307,0.01887203,0.004717266,-0.03323572,0.01346112,-0.0009425229,-0.06385183
1.00131,-0.2560168,0.08369954,0.00387877,0.001873669,-0.01526732,0.02163359,-0.01142303,-0.06627967
0.997638,-0.2575285,0.08293025,0.0001849952,0.0005575782,-0.01544897,0.02639186,-0.02111226,-0.05987493
0.9979964,-0.2580166,0.07762699,0.0005190508,0.0002593906,-0.02016922,0.03015473,-0.02025309,-0.04478648
0.9989806,-0.2617975,0.07802947,0.001476127,-0.003337287,-0.01918872,0.03504346,-0.01373009,-0.04032374
0.9995151,-0.2689105,0.07701094,0.001981032,-0.01027184,-0.01963446,0.05513767,-0.01530316,-0.03407076
0.9999124,-0.2692738,0.07848028,0.002346346,-0.01046207,-0.01759775,0.08585591,-0.01391578,-0.01557307
1.005358,-0.2587677,0.07885222,0.007757972,0.0002119149,-0.01666406,0.0979226,-0.004813614,-0.003347869
1.006203,-0.2513443,0.07956408,0.008566704,0.007798202,-0.01539631,0.0977204,0.004997831,-0.01048112
1.003041,-0.2554089,0.08463533,0.005365805,0.003891283,-0.009775342,0.1009428,0.01270319,-0.01961754
1.002706,-0.2588779,0.08705332,0.004989411,0.0005744743,-0.00681421,0.1147987,0.01537492,-0.01609222
1.001371,-0.2530142,0.08856279,0.003610999,0.006584754,-0.004768744,0.1340859,0.02058823,-0.01605983
0.9988177,-0.2452082,0.08745572,0.001012012,0.01453144,-0.005347579,0.130783,0.02698279,-0.01455042
0.99497,-0.2391519,0.08026294,-0.002883644,0.02072193,-0.01202047,0.116449,0.02729231,-0.00665584
0.9976868,-0.2370631,0.06891298,-0.0002166094,0.0229378,-0.02285917,0.1015709,0.03189434,-0.00353105
1.003444,-0.2419878,0.0629524,0.005489138,0.01813201,-0.028317,0.07910991,0.03676763,0.004223116
1.001095,-0.2462145,0.06793625,0.003087835,0.01401549,-0.02283846,0.07779981,0.03416905,0.01118188
1.001735,-0.2493829,0.06861849,0.00367405,0.01094786,-0.0216691,0.08115641,0.03409568,0.01157358
1.003068,-0.2510576,0.07037246,0.004951458,0.009364308,-0.01943516,0.06406435,0.03297068,0.01359836
0.9974699,-0.2486323,0.07775667,-0.0007034028,0.01187113,-0.01157793,0.054719,0.02046475,0.02105888
0.9937433,-0.2496188,0.0743045,-0.004487577,0.01095634,-0.01456398,0.04899536,0.0007768122,0.0330388
0.9937807,-0.2458366,0.07173327,-0.004508482,0.01480041,-0.01667601,0.04480736,-0.01478431,0.03428821
0.9970575,-0.2366525,0.07490914,-0.001290307,0.02403623,-0.01304788,0.04373196,-0.02211531,0.03406005
1.004801,-0.2304869,0.073272,0.006394779,0.0302432,-0.01423967,0.01165349,-0.02014613,0.04021159
1.014859,-0.2242173,0.07401215,0.0163934,0.03654292,-0.01306106,-0.03691464,-0.005506534,0.03440874
1.016194,-0.2343901,0.08054528,0.01766927,0.02638813,-0.006096413,-0.05934167,0.01711333,0.02547169
1.009552,-0.2551205,0.09417397,0.01096803,0.005663076,0.007956585,-0.05554288,0.03755283,0.01938326
1.008016,-0.2563804,0.1075619,0.009369627,0.004395727,0.02176085,-0.05697572,0.04312722,0.01276271
0.9992794,-0.2431431,0.10859,0.0005699084,0.01761347,0.02319615,-0.07376954,0.0474194,0.01097488
0.9864937,-0.2288269,0.1111889,-0.01228087,0.03189806,0.02619151,-0.09115988,0.06193529,0.001498276
0.9887012,-0.2235708,0.1200653,-0.01013939,0.03711036,0.03545201,-0.1289671,0.04665871,-0.02041879
0.9905233,-0.2305467,0.1221189,-0.008383695,0.03007781,0.03787552,-0.1606645,0.008799031,-0.03773285
0.987694,-0.242226,0.1244202,-0.01127906,0.01832844,0.04053094,-0.1385895,-0.004168425,-0.03696492
0.9905708,-0.2560931,0.1264298,-0.008467276,0.004377862,0.04287679,-0.1205985,0.004649765,-0.02546001
0.9926514,-0.2585849,0.1184631,-0.006450131,0.001789622,0.03522687,-0.1314718,0.02167271,-0.02262172
0.9944038,-0.2533697,0.1115866,-0.004759055,0.006896568,0.02864623,-0.1450025,0.03218792,-0.03137637
0.9997068,-0.2549647,0.1128,0.0004849134,0.005182196,0.03013358,-0.173367,0.04260227,-0.04431804
1.003925,-0.2510559,0.1150993,0.004646444,0.008961419,0.03268424,-0.1816418,0.06520497,-0.05407071
1.001139,-0.2506405,0.1097166,0.001805793,0.009237789,0.02752958,-0.1502235,0.07932685,-0.05598788
0.994587,-0.2594996,0.09790693,-0.004797704,0.0002308292,0.01592435,-0.1176655,0.08413122,-0.05617477
0.9944948,-0.2597493,0.08820368,-0.004939774,-0.0001747117,0.006401927,-0.08242062,0.07909478,-0.05730475
0.9995374,-0.2622672,0.08507799,5.553084e-05,-0.002855555,0.003434063,-0.03975701,0.06952903,-0.05557703
1.003804,-0.2663409,0.08643195,0.004277435,-0.00709812,0.004923758,0.01005906,0.06092985,-0.04670862
1.00548,-0.2654087,0.08046532,0.005910871,-0.006339545,-0.000928197,0.06736611,0.04255126,-0.03428214
1.005144,-0.268774,0.07579966,0.005534315,-0.009882274,-0.00549909,0.09405715,0.03414339,-0.02716853
1.005086,-0.265845,0.07559209,0.00543756,-0.007133149,-0.005630485,0.09327044,0.01970082,-0.01220771
1.001173,-0.2618641,0.06809645,0.00148647,-0.003333545,-0.01306708,0.09752208,-0.007612032,0.0104675
0.9967086,-0.2641315,0.07302722,-0.003013881,-0.005782803,-0.008092886,0.09983461,-0.009004216,0.01182501
0.9983187,-0.2594585,0.08303568,-0.001438754,-0.001291501,0.00194483,0.09695626,-0.009154573,0.0002123066
0.9975739,-0.2491677,0.08462586,-0.002217045,0.008818521,0.003551242,0.0849614,-0.02317431,-0.0001381168
0.99481,-0.2403382,0.08850231,-0.005012908,0.01746818,0.007431689,0.06028153,-0.02689202,0.003766746
0.9969377,-0.2402213,0.07926198,-0.002915606,0.0174061,-0.001816219,0.03279202,-0.02563342,0.007379984
0.9988813,-0.2440226,0.07228846,-0.001000637,0.01342623,-0.008808095,0.0109082,-0.02155941,0.009981986
0.9987716,-0.2448618,0.08338138,-0.001137073,0.01240859,0.002256662,0.008548728,-0.01014534,0.005499322
0.9992978,-0.2506206,0.08844284,-0.0006357138,0.006471291,0.00728103,0.00961701,-0.0008271645,0.0007324819
0.9994383,-0.2557421,0.08533686,-0.0005182856,0.001171309,0.004129626,0.000794169,0.003700521,-0.004118284
0.9982099,-0.2582415,0.08204469,-0.001767983,-0.001506371,0.0007841926,0.008160045,0.009229299,-0.01498888
0.9972339,-0.2627389,0.08266985,-0.002763526,-0.006181412,0.001348803,0.02105156,0.007646852,-0.02079159
0.9964215,-0.2646307,0.0823857,-0.003593588,-0.008249396,0.0009974577,0.02767521,0.0007550495,-0.01705489
0.9952993,-0.2689543,0.08062677,-0.00473153,-0.01274713,-0.0008347044,0.04919142,-0.004023431,-0.01270799
0.9960371,-0.272618,0.08353781,-0.004007398,-0.01658202,0.001997672,0.07660524,-0.0149515,-0.004235373
0.9970236,-0.2675702,0.08328035,-0.003032524,-0.01170143,0.001656705,0.1009151,-0.02218917,0.008504271
0.9971731,-0.2619461,0.08569004,-0.002892429,-0.006239844,0.003978522,0.1095169,-0.02044835,0.00858678
0.9978491,-0.2577196,0.09098323,-0.002223668,-0.002170456,0.00917986,0.09327658,-0.01799544,0.003208548
0.998828,-0.2554184,0.09457425,-0.001249775,-2.076233e-05,0.01267523,0.08921622,-0.01268122,0.007222574
1.000144,-0.257406,0.1000058,6.307556e-05,-0.00215415,0.01800727,0.09296071,-0.007410188,0.006402586
0.9986352,-0.2563203,0.09938993,-0.001446313,-0.001208429,0.01728794,0.08524785,-0.003546187,0.003984635
0.996036,-0.2544386,0.09891318,-0.004044479,0.000539021,0.01670336,0.08064243,-0.003024124,0.006799648
0.9976912,-0.2549523,0.0976042,-0.002386285,-0.0001031441,0.01528195,0.06873446,-0.001975082,0.003130997
0.9991736,-0.2522598,0.09231494,-0.0008989394,0.002466629,0.009875514,0.05930763,0.00671378,-0.0008745195
0.9980135,-0.2491449,0.09589951,-0.002052243,0.00546425,0.01333815,0.05388366,0.01371729,-0.00468544
0.9962782,-0.2490096,0.09887092,-0.003778876,0.005487641,0.01618289,0.03942486,0.01773797,-0.008262912
0.9949786,-0.2507709,0.09831266,-0.005068057,0.003619305,0.01549318,0.03980247,0.01662923,-0.004469285
0.9969932,-0.2508518,0.1002296,-0.003041179,0.003435951,0.01727375,0.03902903,0.0100119,-0.0037424
1.000657,-0.2489276,0.09976527,0.0006365945,0.005262076,0.01666812,0.02723454,0.01139359,-0.007546234
1.003376,-0.2502892,0.1014055,0.00337152,0.003806549,0.01816194,0.02359186,0.01396253,-0.01371565
1.00266,-0.2496416,0.1072781,0.002672953,0.004364008,0.02388278,0.01756915,0.01685258,-0.02268229
0.9991191,-0.2446947,0.1157013,-0.0008493272,0.009224352,0.03214857,0.01361263,0.02450648,-0.02734686
0.999882,-0.2413961,0.1192405,-6.684499e-05,0.01243951,0.03552423,0.0044918,0.02305701,-0.03088861
1.001048,-0.2379679,0.1134694,0.001119475,0.01578698,0.02958257,-0.01426776,0.0230532,-0.03250772
1.000995,-0.2354236,0.1065672,0.00108769,0.01825236,0.02250213,-0.02315227,0.02861874,-0.02596164
1.003812,-0.2377563,0.09813579,0.00392725,0.01584197,0.01388471,-0.02865295,0.02262947,-0.01658197
1.001736,-0.2472175,0.09302671,0.001873343,0.006303534,0.008581809,-0.0283264,0.01702236,-0.01245655
0.9957078,-0.2562804,0.09249177,-0.004132833,-0.00283641,0.007845749,-0.02509648,0.01622948,-0.01561414
0.9919161,-0.2529579,0.09023258,-0.007902023,0.0004091594,0.00537878,-0.02445032,0.005730455,-0.01765566
0.9929982,-0.2480053,0.09404001,-0.006797011,0.005285132,0.008972458,-0.01722158,-0.002852703,-0.0134313
0.9998241,-0.2490703,0.09602746,5.230412e-05,0.004143947,0.0107408,-0.01751182,0.00298823,-0.0103651
1.002457,-0.2492257,0.09203054,0.002708945,0.003912735,0.006519946,-0.01821238,0.00728265,-0.01008252
1.000448,-0.2530676,0.09083148,0.0007253356,-4.64499e-06,0.00509266,-0.01165569,0.002644302,-0.007387038
0.9995947,-0.2583221,0.08706217,-0.000103341,-0.005334104,0.001091478,-0.004851918,0.002215799,-0.001655309
0.9996755,-0.2570971,0.09085273,2.700612e-06,-0.004183384,0.004647229,0.01163505,0.003747608,0.003569361
1.000274,-0.2549461,0.09861059,0.0006266933,-0.002105489,0.01216796,0.01944462,0.003627189,0.00314623
0.9978535,-0.2539405,0.09438598,-0.001768634,-0.00117173,0.007704355,0.01721135,0.005415972,0.001223611
0.9972247,-0.2521131,0.09335478,-0.002372037,0.0005854996,0.006432614,0.02031307,-0.001049578,0.002801363
1.001145,-0.2521782,0.09548416,0.001574017,0.0004518344,0.008320283,0.01723795,-0.007167249,0.002130473
1.0033,-0.2513796,0.09379504,0.003753537,0.001183608,0.006388636,0.01743083,0.00310304,0.001849109
1.001058,-0.2474762,0.09524188,0.001537349,0.005021864,0.007592504,0.01841086,0.01132951,0.002941755
0.9956958,-0.2440211,0.09732744,-0.003800405,0.008413346,0.009434941,0.007921935,0.004819029,-0.001524241
0.9941972,-0.2398493,0.1001193,-0.00527462,0.01252294,0.0119838,-0.0016336,0.0007634114,-0.006332286
0.9954396,-0.2378735,0.1014133,-0.004007954,0.01443726,0.01303491,-0.01233885,0.00541713,-0.006883753
0.9978722,-0.2427997,0.101884,-0.0015512,0.00944994,0.013263,-0.02600454,0.006171938,-0.004533545
1.00336,-0.2478441,0.1052854,0.003960527,0.004344295,0.01642196,-0.03506322,0.004413939,-0.002396991
1.002849,-0.2493249,0.1046342,0.003473755,0.00280196,0.01552839,-0.03531526,0.004433727,-0.00315001
0.9978546,-0.2487359,0.1049702,-0.00149679,0.003328999,0.01562186,-0.03176427,0.00144035,-0.002810965
0.9939089,-0.2470874,0.113743,-0.005418947,0.00491527,0.0241519,-0.0318447,0.0004222666,-0.002207916
0.9918564,-0.2483295,0.1196518,-0.007448256,0.003610569,0.02981736,-0.02398313,-0.0003538526,-0.001822468
0.9951143,-0.2531864,0.1118257,-0.004167102,-0.001309285,0.02174657,-0.01443376,-0.002873201,-0.0004548852
0.998648,-0.2596219,0.09837012,-0.0006100343,-0.007807841,0.008044734,-0.0128452,3.016886e-06,-0.001647112
1.000559,-0.260975,0.09491273,0.001324985,-0.009223784,0.004339378,-0.005641042,0.002994916,-0.002714389
1.000539,-0.25553,0.09684828,0.001328555,-0.003840848,0.006025656,0.002256407,0.006981276,-0.003829103
0.9981942,-0.252954,0.0921349,-0.0009922983,-0.001325721,0.001062238,0.002902299,0.0123261,-0.007105054
0.9983315,-0.2526585,0.08759481,-0.0008310297,-0.001089657,-0.003728066,8.956298e-05,0.008342217,-0.00855885
0.9966598,-0.2526846,0.09266647,-0.002478914,-0.001173666,0.001093899,-0.0002523761,0.001006314,-0.008931664
0.9930924,-0.2555375,0.1004031,-0.006022374,-0.004082724,0.008582015,0.0062351,-0.002239247,-0.008276509
0.9936191,-0.2575574,0.09942175,-0.005471724,-0.006156912,0.007353674,0.01318155,-0.003561029,-0.005094138
0.9974772,-0.2586154,0.0914563,-0.001589229,-0.007267109,-0.0008569537,0.01721649,-0.003732492,4.422177e-05
1.001369,-0.2558996,0.08333147,0.002327377,-0.00460105,-0.009224743,0.0168959,-0.005175891,0.0054625
0.9996045,-0.2498225,0.08035955,0.0005878117,0.001428981,-0.01243667,0.01245141,-0.006012108,0.004015443
0.9972957,-0.2485432,0.08337471,-0.00169572,0.00266392,-0.009657633,0.007311886,-0.004788397,-0.002426378
1.000374,-0.2527741,0.08511713,0.001407639,-0.001608752,-0.00814656,0.002970553,-0.002169151,-0.006686483
1.001357,-0.2566078,0.08805726,0.00241625,-0.005481733,-0.00543223,-0.001701508,0.006086303,-0.01033046
1.000603,-0.2515182,0.09157395,0.001686999,-0.000428859,-0.002135263,-0.01200778,0.01434171,-0.01063412
0.9992016,-0.2463055,0.08944631,0.0003109513,0.004749654,-0.004476146,-0.02541645,0.0162426,-0.01146128
0.9961968,-0.2518897,0.08930938,-0.002669257,-0.0008662995,-0.004819541,-0.03750318,0.01994821,-0.01838448
0.9978671,-0.254259,0.0892629,-0.0009747623,-0.00326499,-0.005065401,-0.03969393,0.02345799,-0.02050893
0.9993711,-0.2511049,0.08830633,0.0005530385,-0.0001380812,-0.006213973,-0.02990088,0.01921511,-0.01769867
0.9962768,-0.2518726,0.09150033,-0.002517777,-0.0009307842,-0.003204347,-0.0212469,0.01223432,-0.01357089
0.9952455,-0.2550716,0.09194092,-0.003525855,-0.004152511,-0.002940311,-0.009287284,0.005294345,-0.004710275
0.9963106,-0.2578901,0.09209767,-0.002437795,-0.006991433,-0.002952204,0.001996916,9.025365e-05,0.002335338
0.9978794,-0.2560837,0.09404735,-0.0008461705,-0.005203155,-0.00116322,0.004153343,-0.005316993,0.006903189
1.000023,-0.2526143,0.09353609,0.001319645,-0.001749244,-0.001827274,0.007042196,-0.01311283,0.009801003
1.000763,-0.2526718,0.09108166,0.002082192,-0.001819616,-0.004426618,0.004228047,-0.01529743,0.007661484
1.001237,-0.2527779,0.08781404,0.002578542,-0.001936014,-0.007831291,-0.0006010588,-0.01967193,0.004745894
1.002006,-0.2518425,0.08733582,0.003369475,-0.001008462,-0.00843859,0.00257093,-0.025859,0.002568804
1.001971,-0.2484593,0.08646311,0.003356172,0.00236931,-0.009432218,0.003290277,-0.01608616,0.001969797
1.002112,-0.2442898,0.08554763,0.003517049,0.006535554,-0.01046027,0.0007572592,-0.00696003,0.002620086
1.002254,-0.2454069,0.08668247,0.003678463,0.005417038,-0.009429429,-0.002404285,-0.008399965,0.0005360796
1.00133,-0.246887,0.08568708,0.002772686,0.003936923,-0.01052009,-0.006939127,-0.0006951621,-0.003780251
1.00002,-0.2455671,0.08727872,0.001479515,0.005257895,-0.009014837,-0.01238639,0.01131375,-0.009857665
0.9993561,-0.2479098,0.09175489,0.0008312909,0.002916976,-0.004616129,-0.01651727,0.01424633,-0.01323312
1.000209,-0.2516041,0.09572472,0.001698018,-0.0007749755,-0.0007149276,-0.0138859,0.01345513,-0.01021802
0.9998588,-0.2525521,0.09652119,0.001361136,-0.001720237,2.146221e-05,-0.01141182,0.01148659,-0.008407104
0.9967442,-0.2530724,0.09489415,-0.001741989,-0.002237415,-0.001657514,-0.01159661,0.004657275,-0.008322674
0.995496,-0.2527659,0.09832931,-0.002979957,-0.001927311,0.001733423,-0.007385361,0.0009293509,-0.006992013
0.9965485,-0.2531015,0.09896596,-0.001918333,-0.002258753,0.002333107,-0.002793645,0.004063596,-0.008848134
0.9976644,-0.2557193,0.0951069,-0.0007942658,-0.004871735,-0.001556136,0.001181643,0.005657488,-0.008617761
0.9980406,-0.2570582,0.09425612,-0.0004107627,-0.006205182,-0.002430756,0.004952606,0.008545347,-0.005068798
0.9993077,-0.254604,0.09380777,0.0008629236,-0.00374454,-0.002896892,0.005912731,0.01432403,-0.005086077
1.002421,-0.2514445,0.09498989,0.003982104,-0.0005775126,-0.001726788,0.007568827,0.01617791,-0.005249658
1.00051,-0.252597,0.09419952,0.002076438,-0.001721402,-0.002523656,0.00752843,0.01358829,-0.006569417
0.9968996,-0.253674,0.09196392,-0.001530103,-0.002788688,-0.004760504,0.007349112,0.01165561,-0.009620507
0.9973995,-0.2520473,0.09141718,-0.00102691,-0.001151202,-0.005303425,0.01014717,0.01395242,-0.007416362
0.9969788,-0.2529449,0.08825048,-0.001445075,-0.002036926,-0.008461344,0.008209825,0.01511445,0.0002747373
0.997243,-0.2531077,0.08656467,-0.00117902,-0.002186881,-0.01013344,0.00367333,0.01391222,0.005900532
0.9975165,-0.2520728,0.08527645,-0.0009041328,-0.001138044,-0.01140294,0.0006026744,0.0143628,0.001585075
0.9965876,-0.2519471,0.08563558,-0.001832205,-0.0009972921,-0.01101996,-0.0007507529,0.01442336,-0.00461398
0.99671,-0.2491863,0.09113305,-0.001709241,0.001779385,-0.005493416,-0.0003168356,0.01450359,-0.005916788
0.9954213,-0.2480009,0.09269941,-0.002997595,0.002981428,-0.003892788,-0.002470218,0.01502442,-0.006182907
0.9955965,-0.2497974,0.09045524,-0.002822132,0.001202241,-0.006097675,-0.001680641,0.01403814,-0.003425714
0.9968804,-0.2506389,0.08970182,-0.001537923,0.0003785551,-0.006807006,0.0003020887,0.01111399,-0.003648786
0.9980847,-0.2518332,0.09100287,-0.0003332,-0.0007977563,-0.005457214,-0.003796416,0.007943552,-0.005125076
1.000992,-0.2531322,0.09321359,0.002574392,-0.002078488,-0.00319327,-0.007740367,0.009127134,-0.001575923
1.000757,-0.2529194,0.0948106,0.002339961,-0.001847194,-0.001538815,-0.01236376,0.0138788,-0.001953529
1.000935,-0.251356,0.09512435,0.002519083,-0.0002650292,-0.001163725,-0.01966291,0.01794112,-0.003282044
1.003878,-0.2502405,0.09372977,0.005463222,0.0008694608,-0.002493417,-0.02672157,0.01916221,-0.004646987
1.00259,-0.2498987,0.09366853,0.004174575,0.001230357,-0.002486579,-0.02952674,0.01715903,-0.01033522
1.000273,-0.2504745,0.0901011,0.001857702,0.0006737236,-0.005983004,-0.02651961,0.01693049,-0.01268895
1.00003,-0.2538658,0.08364961,0.001613748,-0.002698447,-0.01236072,-0.02253279,0.0186512,-0.01029288
0.9998165,-0.2574422,0.08450857,0.001398632,-0.006255671,-0.01142517,-0.008175175,0.01862996,-0.005609781
1.001099,-0.2603015,0.08723921,0.002678683,-0.009095646,-0.008614973,0.01302659,0.02141644,-0.004033705
1.001797,-0.2633116,0.08765238,0.00337369,-0.012086,-0.008119205,0.01991715,0.02591812,-0.009014619
1.001157,-0.2623051,0.08779951,0.002728977,-0.01105881,-0.007886434,0.01469224,0.02839053,-0.01324791
1.000946,-0.2556498,0.08855347,0.002513437,-0.004381409,-0.007043829,0.006483698,0.03135661,-0.01200555
0.9987143,-0.2462763,0.09481084,0.0002757687,0.005015619,-0.0006949269,-0.0001339439,0.03077271,-0.009673795
0.9965,-0.240845,0.09999033,-0.001945474,0.01047183,0.004578685,-0.006202598,0.02817179,-0.01183232
0.9981027,-0.2445895,0.09476608,-0.0003505141,0.006753123,-0.0005493116,-0.009470836,0.02891301,-0.01446799
1.000273,-0.2488603,0.08905307,0.001811505,0.002508399,-0.006164401,-0.007086145,0.02697911,-0.01544943
1.000506,-0.2469056,0.09270259,0.00203518,0.004489228,-0.002415552,-0.008601963,0.02459688,-0.01261516
1.001563,-0.2472819,0.09436341,0.00308242,0.004138638,-0.0006542135,-0.00660847,0.0265197,-0.006221161
1.002779,-0.2479991,0.08965061,0.004287354,0.003446643,-0.005265516,-0.004741656,0.0270768,-0.008641002
0.9993662,-0.2446589,0.08823096,0.0008630132,0.006811297,-0.006582882,-0.009306533,0.02660045,-0.0119717
0.9958217,-0.2463453,0.08797061,-0.002693837,0.00514828,-0.006740209,-0.005104968,0.02480679,-0.00992751
0.9982182,-0.2502358,0.09098492,-0.0003104805,0.001279784,-0.003622157,-0.0008759548,0.01937692,-0.01175744
1.000369,-0.2517123,0.09770258,0.001826721,-0.0001761456,0.003199837,0.003138487,0.01713024,-0.01000689
0.9990979,-0.2518377,0.09793793,0.0005412116,-0.0002824964,0.003539823,0.00501675,0.01782002,-0.008537742
0.9991904,-0.2488011,0.09613524,0.0006189357,0.002771766,0.001841645,-0.002442844,0.01400555,-0.01234903
1.000357,-0.2481822,0.09480697,0.001770371,0.00340696,0.0006173481,-0.001000362,0.009220204,-0.01155117
0.9999278,-0.2489291,0.09210112,0.001325221,0.00267482,-0.001985355,-0.001493229,0.009652925,-0.009805511
0.9989045,-0.2484521,0.09283652,0.0002856952,0.003164959,-0.001147851,-0.005683857,0.01082775,-0.008223358
0.9986111,-0.2498393,0.09469092,-2.434957e-05,0.001789211,0.000807464,-0.002756189,0.01001049,-0.004787949
0.9994212,-0.250084,0.09719181,0.0007687378,0.00155435,0.003407884,-0.004629441,0.01233616,-0.004344398
1.00077,-0.2500476,0.09855348,0.00210058,0.00159882,0.004867427,-0.002840041,0.01383181,-0.004690302
1.001836,-0.2500733,0.09389775,0.003149041,0.001579565,0.0003076029,0.0009223926,0.01249882,-0.003291691
1.003072,-0.2497339,0.09251302,0.004366417,0.001923704,-0.0009834444,0.002037459,0.01588352,-0.00263386
1.003185,-0.2503334,0.09612229,0.00446114,0.001327338,0.002717175,0.006038835,0.01851106,-0.001182142
1.002325,-0.2492459,0.09391095,0.00358227,0.002416279,0.0005947312,0.008091994,0.01606598,0.0009569728
1.002896,-0.2473159,0.09163432,0.004133038,0.00434621,-0.001595589,0.01376245,0.01535404,-0.002890169
1.002983,-0.2452279,0.09363477,0.004198843,0.006432404,0.000488556,0.0155989,0.01700397,-0.006460828
1.002462,-0.2453801,0.09754072,0.003656714,0.006276567,0.004475524,0.01236194,0.01821053,-0.0007268576
1.002996,-0.2476198,0.1062562,0.004167574,0.004031329,0.01326913,0.01454368,0.01754627,0.004090444
1.002575,-0.2470646,0.1074895,0.003723172,0.004578812,0.01457726,0.01251915,0.01756512,0.00315289
1.001744,-0.2473306,0.1025552,0.002867348,0.004303026,0.009713903,0.008073756,0.01928456,0.003118556
1.001321,-0.2484411,0.1048076,0.002417946,0.003180489,0.01203273,0.002182632,0.01960356,0.0017475
1.001121,-0.2488087,0.1042017,0.002190962,0.002798772,0.01148839,-0.004547116,0.0196462,-0.00220522
1.001294,-0.2508291,0.1021096,0.002336499,0.0007620496,0.009452554,-9.232827e-05,0.01940342,-0.001072373
0.9995565,-0.2518257,0.1014986,0.0005692864,-0.0002529751,0.008892209,0.004116658,0.01882149,0.002311407
0.9979002,-0.252431,0.09776824,-0.00111727,-0.0008783853,0.00520671,0.0005488122,0.01813568,0.001795931
0.9986419,-0.2526233,0.09887099,-0.0004066154,-0.001092523,0.006348443,0.0007439701,0.01665763,0.001601296
0.999024,-0.2508948,0.1016236,-5.612815e-05,0.0006127165,0.009134166,0.00330341,0.01704096,-0.0009222069
0.999341,-0.2492369,0.1048852,0.0002287022,0.0022461,0.01242282,0.004081683,0.01673753,-0.004361032
1.000283,-0.2478448,0.1087662,0.001138072,0.003612543,0.01632475,0.0048566,0.01379559,-0.002364715
1.000534,-0.2471532,0.1066843,0.001356163,0.004277277,0.01425729,0.003590187,0.01213653,-0.001725107
1.001526,-0.2472561,0.1068352,0.002314828,0.004146313,0.01441582,0.003115546,0.01180911,-0.00243268
1.003415,-0.2491265,0.1103672,0.004170504,0.002246747,0.01794838,0.007045782,0.01125377,-0.0009557946
1.003096,-0.2511619,0.1109686,0.003818324,0.0001808496,0.01854272,0.01333837,0.01137674,-0.001459949
1.002176,-0.2517515,0.1088146,0.002864206,-0.0004403133,0.01637401,0.0255652,0.01628764,-0.003277089
1.003118,-0.2540948,0.1061958,0.003772459,-0.002816195,0.01373244,0.03879048,0.02447502,-0.001921644
1.003024,-0.2548668,0.1099329,0.003643358,-0.003621362,0.01743842,0.04377585,0.0289428,0.005021694
1.003341,-0.2531216,0.1155174,0.003925142,-0.001909832,0.02298347,0.04647693,0.03139315,0.01126716
1.004611,-0.2516416,0.1156896,0.005158831,-0.0004636143,0.02310749,0.04501594,0.03052406,0.01125294
1.002301,-0.2487325,0.1142634,0.002811771,0.002411661,0.02162401,0.034713,0.02054792,0.009850082
0.9977983,-0.2468295,0.1107768,-0.00172794,0.00428091,0.01807076,0.02829682,0.01005848,0.009720561
0.99466,-0.2457904,0.106945,-0.004904254,0.005286234,0.0141628,0.03128797,0.008981342,0.01025479
0.9953052,-0.2451101,0.107927,-0.004297288,0.005932575,0.01505906,0.03410361,0.01102799,0.01086207
0.996836,-0.2469104,0.1092219,-0.002804635,0.004097929,0.01625885,0.03813168,0.009416673,0.00954991
0.9953254,-0.2485518,0.1079012,-0.004353075,0.002421687,0.01483392,0.0443962,0.009474806,0.008427844
0.9956397,-0.2492957,0.1081581,-0.004076028,0.001642512,0.01497742,0.03688274,0.01163411,0.009385456
0.9960655,-0.2454494,0.1087986,-0.003686552,0.005453018,0.0154957,0.02387866,0.0102929,0.009310393
0.9934908,-0.2391668,0.108315,-0.006296417,0.01169911,0.0148812,0.02370946,0.004422781,0.00959461
0.9934645,-0.240714,0.1102009,-0.00635653,0.0101146,0.01662764,0.02350795,-0.006594299,0.01331205
0.9965374,-0.2406555,0.1118528,-0.00331572,0.01013454,0.0181319,0.01997273,-0.01363756,0.01964192
0.9997671,-0.2362866,0.1108311,-0.0001162937,0.01446332,0.01695424,0.01761406,-0.01109162,0.02437372
0.9993885,-0.2418988,0.1100562,-0.000523155,0.008809011,0.01601543,0.007769982,-0.008008234,0.01912665
0.9983556,-0.2463128,0.1101075,-0.001582417,0.004350588,0.01589488,-0.007066262,-0.005253853,0.009460155
1.000401,-0.2402165,0.1122783,0.0004382412,0.01040011,0.01788623,-0.02080949,-0.004834299,0.004958391
0.9975492,-0.2374663,0.114891,-0.002435953,0.01310098,0.02031195,-0.02766821,-0.006992753,0.000344019
0.9948786,-0.2403973,0.1135661,-0.005127255,0.01011796,0.01879266,-0.0267238,-0.005564346,-0.00127476
1.000245,-0.243692,0.1105975,0.0002203823,0.006768305,0.01562232,-0.02910225,-0.006028739,0.00250466
1.004534,-0.2477836,0.1092563,0.004492961,0.002618648,0.01407229,-0.0331114,-0.004967096,0.003358839
1.003976,-0.2511809,0.1096435,0.003919139,-0.0008395493,0.01424381,-0.03188703,0.0002445602,0.002710705
1.000305,-0.249288,0.1109416,0.0002346147,0.0009898475,0.01531965,-0.03127967,-0.0002420505,0.002779306
0.9979033,-0.2454008,0.1113498,-0.002179245,0.004811252,0.01549961,-0.0324977,-0.0002477943,0.00291163
1.001245,-0.2458344,0.1110074,0.001151188,0.00430983,0.01492299,-0.03245748,0.003613244,0.003484776
1.004101,-0.2459815,0.111139,0.003997845,0.004092909,0.0148147,-0.03614201,0.003760849,0.002873845
1.001719,-0.2460134,0.1109458,0.001606937,0.003989366,0.01437646,-0.04543414,0.002763366,0.00270091
0.996767,-0.248964,0.1101674,-0.003353121,0.0009654339,0.01334796,-0.05269095,0.003851089,0.003068867
0.9943757,-0.2512031,0.1098825,-0.005751316,-0.001348418,0.01280824,-0.04734969,0.007171827,0.002051924
0.9991473,-0.2539475,0.1113302,-0.0009857091,-0.004168802,0.01399688,-0.03290165,0.01273953,0.0001864029
1.004944,-0.2560671,0.1131087,0.004805971,-0.006365179,0.01551233,-0.02834267,0.01504691,-0.001561527
1.001284,-0.2548502,0.1112049,0.001142677,-0.005225173,0.01334167,-0.03312675,0.0108525,-0.00415011
0.9967976,-0.2526275,0.1074541,-0.003347146,-0.003079091,0.009320684,-0.03474435,0.006033442,-0.009639105
0.9992407,-0.252473,0.1053531,-0.0009063325,-0.003000534,0.006946458,-0.03240399,0.003750731,-0.01283394
0.9977335,-0.2541938,0.1041926,-0.002414927,-0.00479635,0.005510136,-0.0274843,0.002583508,-0.009947996
0.9952355,-0.2541909,0.1046661,-0.004913404,-0.004866927,0.005706023,-0.0252712,0.002956987,-0.007086635
0.9968939,-0.2541584,0.1068688,-0.003254557,-0.004906285,0.007629796,-0.02574366,0.002689886,-0.004654582
0.9980643,-0.2543345,0.1085081,-0.002082512,-0.005152311,0.0089893,-0.02443938,0.0007824461,-0.001703592
1.000942,-0.2538412,0.105965,0.0007978358,-0.004726441,0.006166042,-0.02141282,-0.001529078,-0.002017555
1.0006,-0.254309,0.1016997,0.0004597762,-0.00525922,0.001620659,-0.01840284,-0.002182506,-0.002635528
0.9988441,-0.2531314,0.102508,-0.001291127,-0.004143652,0.002149457,-0.01934017,-0.0005015446,-0.004170715
1.000831,-0.2522198,0.1033441,0.0007012038,-0.003291085,0.002707265,-0.01932421,-0.001466201,-0.007039105
0.9998327,-0.252072,0.1009153,-0.0002899866,-0.003199101,2.029753e-06,-0.01781995,-0.001059745,-0.005361315
0.9994415,-0.2509859,0.0999094,-0.0006737633,-0.002165587,-0.001278099,-0.01756412,0.00409093,-0.004402568
0.9997091,-0.2514142,0.1000671,-0.0003979301,-0.002643075,-0.001391603,-0.01478139,0.006142059,-0.004797455
0.9974736,-0.252045,0.1024843,-0.002624508,-0.003319801,0.000757866,-0.01354784,0.004508563,-0.003814758
0.996947,-0.2539439,0.104626,-0.003141515,-0.005261286,0.002635764,-0.01015205,-0.0002564735,-0.005230945
0.9955678,-0.2561195,0.1063164,-0.004510388,-0.007475828,0.004066818,-0.002021483,-0.005317935,-0.002884375
0.9955991,-0.2538177,0.1123211,-0.004467785,-0.005209447,0.009816623,0.001351707,-0.005171943,0.0002745032
0.9983225,-0.2507994,0.112112,-0.001732198,-0.002222768,0.009357165,-0.002233445,-0.005377691,0.0002081746
0.9988211,-0.2513337,0.1052041,-0.001220361,-0.002784792,0.002203469,-0.005806172,-0.007218423,0.00332214
0.9989111,-0.2527152,0.1054692,-0.001116094,-0.004190432,0.002227363,0.0001189524,-0.004233334,0.006284011
0.9994187,-0.252766,0.1072527,-0.0005932029,-0.004261555,0.003774289,0.005757252,0.003007019,0.007238975
0.9994321,-0.2525469,0.1058569,-0.0005636565,-0.004059015,0.002146801,0.002306121,0.005479513,0.001689546
0.9967952,-0.2506196,0.1072055,-0.003183584,-0.002144666,0.003268744,0.0003270987,-0.002183455,-0.006503715
0.9938135,-0.246968,0.107989,-0.006147466,0.001497716,0.0038306,-0.005320433,-0.009002647,-0.00430325
0.998651,-0.2440256,0.1067023,-0.00129118,0.004434091,0.002327502,-0.01731337,-0.004128651,-0.002836806
1.003019,-0.2429817,0.1067094,0.003096336,0.005475087,0.002123439,-0.02482714,0.0007682807,-0.005397303
0.9976231,-0.2475986,0.1064233,-0.002278774,0.0008579225,0.001631506,-0.02760176,-0.003258643,-0.003752083
0.9938275,-0.2555467,0.1033881,-0.006053107,-0.007088284,-0.001604126,-0.02373295,-0.004702106,-0.004349959
0.9967875,-0.2575592,0.1001681,-0.003070969,-0.009096574,-0.005018955,-0.01673055,-0.006415087,-0.004587309
0.999444,-0.2511305,0.1001605,-0.0003913562,-0.002661203,-0.005215552,-0.01681485,-0.01201204,-0.001855486
1.001933,-0.244482,0.09777707,0.002121914,0.003996424,-0.007781789,-0.01796269,-0.009390134,-0.001882995
1.003217,-0.2457486,0.09255815,0.003429662,0.002741271,-0.01317685,-0.0164045,-0.005432115,-0.002101046
0.998926,-0.2495006,0.09351221,-0.0008359203,-0.0009973383,-0.01239178,-0.01671578,-0.005494319,-0.0008269194
0.9956857,-0.2502606,0.09410037,-0.004050834,-0.001742212,-0.01196489,-0.01514996,-0.005076509,0.001464731
0.9977771,-0.2503192,0.09106483,-0.001933759,-0.001784016,-0.01515344,-0.01246166,-0.006385425,0.004238082
0.9994639,-0.2490009,0.09630376,-0.0002208266,-0.0004474746,-0.01005878,-0.01208915,-0.005210722,0.003370035
1.000122,-0.2463515,0.1027917,0.00046329,0.002221653,-0.003706064,-0.014216,-0.00225429,0.001496438
1.000353,-0.2444171,0.1015333,0.0007214141,0.004177003,-0.00509036,-0.01803671,0.0007830664,0.002672436
0.999666,-0.2475852,0.1018079,6.094115e-05,0.001030788,-0.004932631,-0.01803845,0.003180756,0.002115395
1.000064,-0.2540507,0.1061858,0.0004855398,-0.005412085,-0.0006624998,-0.01876778,0.001138893,0.000128661
1.000165,-0.254148,0.1101012,0.0006129802,-0.005486065,0.003153841,-0.02155153,0.001311132,-0.000463532
0.9995953,-0.2525024,0.1115672,7.003137e-05,-0.003816244,0.004529168,-0.02012738,0.001919498,-0.002858269
0.9992525,-0.2533491,0.1122878,-0.0002465281,-0.004637937,0.00516694,-0.01953382,-0.001198269,-0.003976367
0.9983253,-0.2524344,0.1127909,-0.001147725,-0.003697055,0.005594456,-0.0150816,-0.001782222,-0.002994569
0.9984149,-0.2537401,0.109412,-0.001032489,-0.00497559,0.002146665,-0.005658995,-2.718777e-05,-0.003882904
0.9989407,-0.2546586,0.1072142,-0.0004814232,-0.005865657,-0.0001138852,-0.003408524,0.001784318,-0.003743006
0.99842,-0.2527921,0.1086937,-0.0009771035,-0.003969426,0.001308752,-0.004119103,0.0005509222,-0.003158469
0.998593,-0.2527508,0.1087411,-0.0007794286,-0.003897131,0.00130487,-0.00282492,-0.001108186,-0.002109823
0.9987652,-0.2524684,0.1099736,-0.0005827891,-0.003582328,0.002491162,-0.001349596,0.002026766,0.0007912553
0.9980833,-0.2517526,0.1114404,-0.001240665,-0.002832736,0.003916704,0.002021936,0.003385265,0.001262061
0.9969222,-0.2502141,0.1083296,-0.00237801,-0.001259078,0.000768982,0.004182687,0.001527382,0.002266334
0.9954713,-0.2484083,0.1021489,-0.003805504,0.0005830779,-0.005444413,0.002961654,-0.001547668,0.004186173
0.9967863,-0.2489167,0.0984287,-0.002467149,0.0001121559,-0.009193192,0.0002152866,-0.00516686,0.002242864
0.9998069,-0.2493697,0.1007797,0.0005766923,-0.0003025033,-0.006866659,-0.003191974,-0.004452313,0.001487304
1.000186,-0.2500794,0.1025373,0.0009787356,-0.0009730162,-0.005129116,-0.003229831,-0.003930493,0.001795888
0.9990576,-0.2494213,0.09997564,-0.0001264519,-0.0002752413,-0.007706473,-0.0007079377,-0.006934262,-0.0003866851
0.998286,-0.2474721,0.09588864,-0.0008752328,0.001714151,-0.01180467,-0.002366429,-0.008271563,-0.0006697592
0.9986606,-0.2470649,0.08902996,-0.0004781529,0.00216183,-0.0186698,-0.005477917,-0.008100215,-0.002445826
0.9996379,-0.2454555,0.08563058,0.0005214764,0.003811802,-0.02207044,-0.0135481,-0.006926398,-0.007279354
0.9991732,-0.2453016,0.09040874,7.869476e-05,0.00400602,-0.01728776,-0.03078576,-0.005372809,-0.007220049
0.998435,-0.247953,0.09469733,-0.0006378355,0.001394505,-0.01298832,-0.03666292,-0.005707891,-0.006068948
0.9986482,-0.2526297,0.09722914,-0.0004033553,-0.003242981,-0.01043903,-0.02743827,-0.004685672,-0.006843179
0.999961,-0.2588722,0.09950625,0.0009302618,-0.009447012,-0.008137711,-0.02028553,-0.0006830496,-0.00448343
1.002134,-0.2566967,0.09676464,0.003123998,-0.007233385,-0.01084844,-0.01464965,0.003354001,-0.003050876
1.002726,-0.2505979,0.09445453,0.003735292,-0.001096576,-0.01312103,-0.01258982,0.004839516,-0.003813853
1.000227,-0.2514773,0.09470244,0.001255663,-0.001937981,-0.01282896,-0.01119083,0.004685605,-0.003819666
0.9974842,-0.2516034,0.090684,-0.001468908,-0.002026149,-0.01679652,-0.00176716,0.007034729,-0.004248666
0.998413,-0.2508447,0.08936352,-0.0005225672,-0.001229507,-0.01805925,0.001575998,0.008131307,-0.003423917
0.9993696,-0.2518591,0.09928933,0.0004506263,-0.002205971,-0.008068669,0.000703457,0.004856586,-0.001270699
0.9980474,-0.2500743,0.1106121,-0.0008557193,-0.0003831717,0.00332583,0.00416244,0.001533696,-0.0002106996
0.9988656,-0.2497309,0.1106298,-2.241547e-05,-2.033743e-06,0.003421655,-0.0001431169,-0.002465764,-0.001830227
0.9998162,-0.2497246,0.1071092,0.0009426566,4.200828e-05,-1.519009e-05,-0.00378189,-0.004793381,-0.005732656
0.999842,-0.2470115,0.1089816,0.0009820968,0.002792495,0.001945827,-0.001143168,-0.002747344,-0.00863851
1.000236,-0.2453245,0.1089986,0.001389394,0.00451651,0.002055774,-0.00250913,-0.0008962466,-0.008382579
0.9990061,-0.2449731,0.1102917,0.0001712283,0.004904173,0.003445392,-0.004518893,-3.355008e-05,-0.006609701
0.9995471,-0.2449937,0.1141408,0.0007234914,0.004918911,0.007393864,-0.006422395,0.002148822,-0.00827673
1.002244,-0.2440467,0.1119874,0.003430905,0.005900006,0.005342065,-0.006777179,0.003789132,-0.01028003
1.003114,-0.2448198,0.1098642,0.004310385,0.005159518,0.003321816,-0.006122021,0.001943354,-0.009160013
1.00201,-0.2452499,0.1085126,0.003214629,0.004760193,0.002074059,-0.008303161,0.0009541731,-0.009931653
1.000565,-0.2423965,0.1043453,0.001777037,0.007642343,-0.001989174,-0.009080201,0.002462632,-0.01081123
1.000237,-0.243505,0.1023174,0.001455787,0.006560364,-0.003912868,-0.009765054,0.002487903,-0.01060741
0.9982468,-0.2459794,0.1024929,-0.0005299058,0.004110007,-0.003633334,-0.007097928,0.002888361,-0.009700085
0.9965273,-0.2492068,0.1055383,-0.002245811,0.0009040478,-0.0004841741,-0.001246153,0.004826373,-0.007001146
0.9992611,-0.2532057,0.1094132,0.0004906009,-0.00307615,0.003494162,0.0005446157,0.007139677,-0.006259839
1.000828,-0.2498383,0.1111246,0.002059479,0.0003075831,0.005308147,0.002398638,0.0069474,-0.007112689
0.9998133,-0.247503,0.1103297,0.001045135,0.002656816,0.004614709,0.004457349,0.004736421,-0.007848624
1.000205,-0.2493594,0.1076487,0.00143686,0.0008122032,0.002033578,0.006133444,0.004826652,-0.007030273
1.001926,-0.249885,0.1116311,0.003156438,0.0002961046,0.00611383,0.007069068,0.004551984,-0.006883536
1.002969,-0.2496057,0.1149329,0.004197414,0.0005829639,0.009511249,0.004772132,0.006002318,-0.008627573
1.001107,-0.2442244,0.1066092,0.002332159,0.005969672,0.001280377,0.003383006,0.01004984,-0.008025076
0.9991261,-0.239847,0.1000311,0.0003463266,0.01035049,-0.005207939,0.003325201,0.01000831,-0.007169348
1.000161,-0.2418037,0.1008544,0.001375727,0.008394971,-0.004297748,0.005754086,0.008038304,-0.001377504
1.001852,-0.2435421,0.1020439,0.003059974,0.006655091,-0.00302429,0.008365362,0.004466534,0.00612979
1.004017,-0.2448294,0.1013423,0.005216894,0.005363511,-0.003644487,0.006583583,-0.0005714379,0.002827662
1.006332,-0.2461272,0.100931,0.007523105,0.004058563,-0.00397691,0.005537687,-0.0002264204,-0.0002312087
1.004612,-0.2452806,0.1019156,0.005791821,0.004895103,-0.002915807,0.005675294,0.001068043,0.001035482
1.001167,-0.2436943,0.1011549,0.00233503,0.006468372,-0.003602182,0.004248551,-0.001069781,-0.004367047
1.000329,-0.2442781,0.1015804,0.001482921,0.005868618,-0.003104475,0.002112243,-0.001358739,-0.01078717
0.9997485,-0.243515,0.1036089,0.000886705,0.006612823,-0.001005707,0.001896495,-0.001727744,-0.01060502
0.9996436,-0.2395435,0.1040747,0.0007647131,0.01056217,-0.0004715942,0.003123766,-0.002613544,-0.008769208
0.9995112,-0.2382519,0.1037589,0.0006137749,0.01182847,-0.0007209298,0.0007654293,-0.0008471685,-0.00773383
0.9980101,-0.2388559,0.1026333,-0.0009071501,0.01119572,-0.001781991,-0.003454152,0.0004443938,-0.0045145
0.9985819,-0.2394237,0.1058427,-0.0003563138,0.01059528,0.001490043,-0.007398523,0.002117274,-0.001402226
0.9989888,-0.2409133,0.1110867,2.858396e-05,0.009069214,0.006794647,-0.006900958,0.002122052,-0.001518981
0.9983947,-0.2428111,0.1112555,-0.0005883715,0.007130845,0.007021926,0.001513296,-0.001485222,-0.002083468
0.9999024,-0.2438558,0.1093255,0.0008958334,0.006041489,0.005147888,0.00954782,-0.002353441,0.00024351
1.001162,-0.2426183,0.1079255,0.002130905,0.007230401,0.003801114,0.01694804,-0.002253305,0.002300172
1.00162,-0.2423925,0.1099675,0.00256457,0.007403649,0.005893395,0.02338462,-0.002490929,0.002867658
1.001489,-0.240503,0.1122772,0.002408296,0.009236677,0.00825011,0.02068637,-0.001895213,0.005066647
1.000763,-0.2357742,0.1104196,0.001656053,0.01390502,0.006436128,0.01491313,-0.00204045,0.004635818
0.9998209,-0.236419,0.10875,0.0006878684,0.01319578,0.004806479,0.01291282,-0.001365774,0.002357674
0.9980119,-0.241021,0.1060026,-0.001148053,0.008525186,0.002095318,0.01254786,-0.002201882,0.002667026
0.998294,-0.2442498,0.1027476,-0.0008932836,0.005223415,-0.001127124,0.01387281,-0.003183593,0.003350379
0.9992066,-0.2436276,0.1032568,-8.297582e-06,0.005768559,-0.0005891309,0.01729552,-0.002559973,0.004690002
0.9987799,-0.2419885,0.1063542,-0.0004627977,0.007326726,0.002533696,0.01998416,-0.0005125073,0.003997916
1.001467,-0.2430764,0.1094938,0.002196959,0.006154015,0.005695394,0.01790448,0.004227299,0.001770251
1.004738,-0.2401976,0.1078834,0.005439645,0.008944487,0.004103796,0.01242879,0.005514261,0.004362499
1.004292,-0.2353201,0.1029198,0.004965371,0.01373002,-0.0008443965,0.005169609,0.007560107,0.009453795
1.002576,-0.2340533,0.1005783,0.003221684,0.01490129,-0.003173595,-0.004885117,0.01306361,0.01193521
1.000806,-0.233448,0.1009255,0.001422914,0.01540732,-0.002817143,-0.01130756,0.01372133,0.01189164
0.9994585,-0.2367128,0.1035772,4.628857e-05,0.01203923,-0.0001587718,-0.01202573,0.01561501,0.009895484
0.999668,-0.2432082,0.1093936,0.0002263913,0.005436433,0.005661889,-0.01269266,0.01916827,0.002733978
0.9991298,-0.2463428,0.115183,-0.0003414973,0.002190524,0.01145309,-0.01104765,0.01747053,-0.004657674
0.9963479,-0.2471357,0.111625,-0.003153113,0.001282615,0.007894304,-0.007368595,0.0149268,-0.005370662
0.9952864,-0.2485968,0.1042192,-0.004244383,-0.000296534,0.0004848209,-0.001882839,0.0117433,-0.005125676
0.9971312,-0.2485181,0.1070487,-0.00242897,-0.0003384255,0.003307791,0.01214425,0.006749214,-0.004984903
0.998666,-0.2463259,0.1085919,-0.0009231354,0.001731024,0.004841637,0.02728131,0.004156265,-0.0042191
0.9997172,-0.2465331,0.106188,9.971182e-05,0.00139941,0.002425624,0.03442739,0.001087358,-0.003073457
1.000278,-0.2451118,0.1089585,0.0006334178,0.002695155,0.005181305,0.03611416,-0.007784165,0.0009921095
0.9999682,-0.2395832,0.105886,0.000296292,0.008097175,0.002091281,0.03257863,-0.01402087,0.002218073
0.999928,-0.235777,0.1028363,0.0002299344,0.01177602,-0.0009785846,0.02679731,-0.008899877,0.001526449
1.000045,-0.2312017,0.1088874,0.0003212233,0.01622298,0.005050024,0.02174182,-0.004591337,0.003731442
1.000191,-0.2286434,0.1153727,0.0004430203,0.0186517,0.01151041,0.0156662,-0.01091234,0.006247125
1.000679,-0.2296571,0.1187598,0.0009071628,0.01750675,0.01487005,0.00808913,-0.01542639,0.007259831
1.000961,-0.2268222,0.1122673,0.001165251,0.02020841,0.008347236,0.000155573,-0.0128505,0.005508584
1.000753,-0.2267382,0.1060266,0.0009347848,0.02015648,0.002073124,-0.005912419,-0.01272926,0.002314665
1.001294,-0.2322613,0.1140471,0.001453249,0.01449456,0.01005712,-0.01351866,-0.01332487,-0.003030574
1.001858,-0.2363502,0.1195349,0.001996418,0.01026351,0.0155051,-0.02013537,-0.01047744,-0.006135985
1.000917,-0.2375428,0.1154054,0.001034068,0.008925407,0.01133234,-0.01812512,-0.009129635,-0.001902718
1.000427,-0.2376908,0.1128005,0.0005232617,0.008628826,0.00868045,-0.01472242,-0.01014957,-0.0004036278
1.000209,-0.2395912,0.1134072,0.0002858972,0.006576727,0.009236378,-0.01403531,-0.01018025,-0.004426734
1.000658,-0.2382814,0.1144926,0.0007153228,0.007732132,0.01026699,-0.01795482,-0.007692313,-0.009790037
1.002904,-0.2369161,0.1139286,0.002941269,0.008940573,0.009644215,-0.02771516,-0.004157561,-0.01574129
1.003119,-0.2419347,0.1106038,0.003137934,0.003762712,0.006256559,-0.03047775,-0.0004152049,-0.01645433
1.002436,-0.2448845,0.1088547,0.002436391,0.0006516277,0.004440719,-0.02878892,0.003694754,-0.0127307
1.003005,-0.2475139,0.1099624,0.002986561,-0.002140555,0.005477737,-0.02717837,0.005908282,-0.01153388
1.002684,-0.2512395,0.1097767,0.002647139,-0.00602985,0.005217891,-0.0204923,0.006624861,-0.01455875
1.002212,-0.2497789,0.1096037,0.002156414,-0.004733218,0.00496723,-0.01894924,0.00948588,-0.01696211
0.9998604,-0.2467527,0.1103974,-0.0002142215,-0.001870598,0.005680174,-0.02088085,0.01329262,-0.01427783
0.995853,-0.245147,0.1122333,-0.004240419,-0.0004273447,0.007432148,-0.01912286,0.01428795,-0.01188752
0.9956293,-0.2453902,0.1145187,-0.004482925,-0.00083157,0.009630791,-0.01792769,0.01699264,-0.01285572
0.998866,-0.244078,0.1117847,-0.001264757,0.0003214443,0.006807104,-0.01478288,0.02045396,-0.01226511
1.000904,-0.2402168,0.1072463,0.0007547052,0.004025709,0.002176126,-0.01340285,0.01668274,-0.01096833
1.000077,-0.2387864,0.1063545,-8.911956e-05,0.005301392,0.001189226,-0.01687877,0.01156932,-0.01068071
0.999356,-0.2389745,0.1073197,-0.0008273974,0.004960983,0.002056982,-0.0196583,0.008906456,-0.007473295
0.9992494,-0.2400017,0.1089868,-0.0009504362,0.003783787,0.003624634,-0.02057115,0.008769598,-0.0027941
0.9976078,-0.2412977,0.1093728,-0.002607928,0.002340108,0.003909549,-0.01735767,0.01167062,-0.0009514696
0.9977267,-0.2405311,0.106347,-0.002504115,0.002961554,0.0007813266,-0.008418864,0.009567022,-0.0006684496
1.000092,-0.2373398,0.1028161,-0.0001536265,0.006010144,-0.002853334,0.002117976,0.005257682,-0.0003331374
1.000371,-0.2356825,0.1042984,0.000112482,0.00752715,-0.001475452,0.007535285,-0.0003456514,0.001056676
0.9997397,-0.2401418,0.1078757,-0.0005317467,0.002929957,0.001997123,0.009863987,-0.00650476,0.003390182
1.000427,-0.2449901,0.108494,0.0001435219,-0.002053951,0.002510514,0.01385921,-0.002846638,0.004172986
1.001831,-0.2444515,0.108629,0.001536256,-0.001648411,0.002540887,0.0148305,-0.0008611065,0.003299344
1.002893,-0.2407817,0.1082025,0.002588286,0.001891086,0.002009919,0.01598917,-0.003744899,0.001156006
1.00126,-0.2368369,0.1080749,0.0009450909,0.005708348,0.001778355,0.01814049,-0.0003952531,-0.0004026118
0.9993726,-0.235182,0.1091441,-0.0009511437,0.007238581,0.002744262,0.01693961,0.001538454,-3.952497e-05
1.001774,-0.2361644,0.1097819,0.001441864,0.006134119,0.003279315,0.01922824,0.001582305,-0.003674723
1.003839,-0.2365562,0.1116922,0.003498186,0.005622629,0.005087779,0.02149989,0.002145987,-0.008335426
1.002357,-0.235719,0.111577,0.002007884,0.006342465,0.00487147,0.02093663,0.001233641,-0.004596464
1.001603,-0.2360012,0.1101374,0.001246804,0.005945079,0.00333162,0.0202283,0.001723738,0.000433462
1.00148,-0.2354403,0.1107347,0.001115251,0.006392725,0.003829309,0.01497078,-0.0005819258,0.001480347
1.001263,-0.2341262,0.1094176,0.0008911006,0.007595418,0.002413521,0.01373001,-0.00270084,0.004301984
1.002484,-0.2353819,0.1112395,0.002104182,0.006229916,0.004137555,0.01649342,0.00127777,0.008336822
1.003076,-0.2375706,0.1202134,0.002688576,0.003932957,0.01301436,0.01416323,0.006791368,0.009490182
1.002701,-0.2387525,0.1266599,0.002306177,0.002644217,0.01936436,0.009646767,0.01267872,0.002139408
1.002769,-0.2358208,0.1216072,0.002366122,0.0054704,0.0142152,0.004440937,0.0167295,-0.007119551
1.002774,-0.2318893,0.1133743,0.002362574,0.009297736,0.005885333,0.007036826,0.01292355,-0.003976507
1.002443,-0.234995,0.1148595,0.002022248,0.006089064,0.007272774,0.0150351,0.007812405,-0.0003973451
1.000984,-0.2376778,0.1148403,0.0005542481,0.003304299,0.007155052,0.01571983,0.01201575,-0.002233255
0.999784,-0.2354767,0.1110646,-0.0006551817,0.005404414,0.003280052,0.01424376,0.01775059,0.004798883
1.001627,-0.2359179,0.113424,0.001177325,0.004863242,0.005539407,0.01413108,0.02125718,0.01006105
1.00333,-0.2366265,0.1133905,0.002870086,0.004055455,0.005405124,0.01940396,0.02592452,0.006633369
1.000848,-0.235687,0.1162922,0.0003771924,0.00489659,0.008205359,0.0263109,0.02023143,0.00698627
0.998074,-0.2359088,0.1233997,-0.002407739,0.004577395,0.01521062,0.02110958,0.01267205,0.00781532
0.9983421,-0.2340605,0.1234668,-0.002151118,0.006329002,0.01517455,0.01302786,0.01592586,0.006499606
0.9983134,-0.2306083,0.1241816,-0.002191526,0.009685131,0.01578492,0.006647644,0.01728941,0.006070326
0.9987154,-0.2291039,0.1216149,-0.001801129,0.011094,0.01311191,-0.002006716,0.02046571,0.004384599
1.001436,-0.2289943,0.1155781,0.0009073814,0.01110824,0.006966758,-0.002216855,0.02411099,0.00422963
1.001718,-0.2297904,0.1180337,0.001178018,0.01021672,0.009311839,0.004591489,0.01302423,0.008370303
0.9991323,-0.2322225,0.1192229,-0.001418425,0.007688818,0.01038843,0.009693044,0.002737348,0.0155994
0.9981096,-0.2358638,0.11706,-0.002452151,0.003951183,0.008110652,0.01281111,0.00519232,0.01865821
0.9987948,-0.2366991,0.1187162,-0.001777611,0.003019032,0.009649863,0.01506762,0.005982988,0.01078466
0.9996771,-0.2333284,0.1206374,-0.0009056712,0.006292319,0.01145184,0.01843854,0.001964652,0.00179341
1.000183,-0.229831,0.1236177,-0.0004091703,0.009691993,0.01431076,0.01959376,-0.0004492082,0.003423013
0.9998853,-0.2275955,0.1268667,-0.0007166868,0.01182911,0.01743582,0.0172413,-0.005466272,0.007732305
0.9989991,-0.2278232,0.127553,-0.001611624,0.0115024,0.01799549,0.01634925,-0.009759535,0.006005564
0.9981928,-0.231249,0.1292083,-0.002426163,0.007976505,0.01952116,0.01854939,-0.00360037,0.00643532
0.9976507,-0.2344351,0.1290466,-0.002975801,0.004689227,0.01922633,0.02326497,0.001942844,0.008456537
0.9969217,-0.2348906,0.1250029,-0.003711673,0.004131358,0.01504564,0.02622733,-8.258773e-05,0.004754244
0.9959697,-0.2318999,0.1222561,-0.004669512,0.007018704,0.01215778,0.0251466,-0.002376855,0.003641248
0.9948471,-0.2295966,0.1185374,-0.005796967,0.009217764,0.008294029,0.0243869,-0.01002172,0.007607732
0.9952881,-0.2317028,0.1164838,-0.005359495,0.007006201,0.006091488,0.02518451,-0.01870752,0.01037757
1.000696,-0.2335415,0.1192069,4.596321e-05,0.005061081,0.008662063,0.02546976,-0.01340534,0.01143048
1.006133,-0.2333289,0.1189486,0.00548224,0.005166368,0.008247849,0.02371517,-0.001831242,0.01055626
1.003632,-0.2330008,0.1190675,0.002982049,0.005386148,0.008207797,0.01784451,0.002865923,0.008334614
1.000208,-0.2309905,0.1205097,-0.0004402249,0.007287419,0.009488225,0.007848944,0.004311095,0.00187013
1.002182,-0.2264283,0.1198012,0.001536812,0.01173968,0.008615189,-0.002884207,0.009098108,-0.008478412
1.003404,-0.2202107,0.1221763,0.002761729,0.0178464,0.01082331,-0.01518349,0.01446909,-0.0127197
1.003774,-0.2145649,0.1232892,0.003135311,0.02337987,0.01176688,-0.02867616,0.01110634,-0.009848444
1.00295,-0.2132433,0.1238749,0.002315236,0.02458723,0.01218093,-0.03852799,0.003501094,-0.005690123
0.9991353,-0.2178529,0.1293317,-0.001495277,0.0198606,0.01746387,-0.04392661,0.002223204,0.002677594
0.9985087,-0.2248385,0.1336881,-0.002117494,0.01275473,0.02164382,-0.03941915,-0.002436367,0.01615564
0.9983728,-0.2294874,0.1339555,-0.002248866,0.007981955,0.0217321,-0.03139447,-0.008134757,0.01956159
0.9973167,-0.2314587,0.1266147,-0.003300038,0.005883352,0.01420903,-0.03202326,-0.006143611,0.01004501
1.000286,-0.2322907,0.1174363,-0.0003253785,0.004920608,0.004844993,-0.03076927,-0.009651811,0.00444521
1.001514,-0.2321265,0.1193138,0.0009081198,0.004951139,0.006533959,-0.02819491,-0.01321376,0.001549463
1.001062,-0.2312768,0.1231036,0.0004623691,0.005664432,0.01013242,-0.02658625,-0.009581831,-0.000714277
1.001846,-0.2304423,0.1219019,0.001252181,0.006360098,0.008736993,-0.01933252,-0.007270256,0.0003668795
1.000911,-0.2293086,0.1226988,0.0003243402,0.007352871,0.009338039,-0.01850442,-0.004201831,-0.003703538
1.0005,-0.2287416,0.1192664,-7.976092e-05,0.00777701,0.005707857,-0.02163226,-0.001827583,-0.007104004
0.999964,-0.2286687,0.1138763,-0.0006094428,0.007705184,0.0001183507,-0.02004619,-7.892139e-05,-0.007548161
0.9995694,-0.2282465,0.121217,-0.0009970787,0.007981009,0.007258586,-0.01949806,-0.0008373347,-0.009714409
1.000463,-0.2295249,0.1281722,-9.611875e-05,0.006554581,0.01401247,-0.0172532,-0.005481396,-0.007822601
0.9998005,-0.2319498,0.1208793,-0.0007518029,0.003980409,0.006517555,-0.01401118,-0.004736731,-0.004339278
0.9998916,-0.2374233,0.1115975,-0.0006534568,-0.001643606,-0.002966632,-0.01311903,-0.005801676,-0.0007156928
1.000288,-0.2435167,0.1075225,-0.0002496358,-0.007888204,-0.007243982,-0.01077124,-0.009527553,0.0005019709
0.999886,-0.2388158,0.1116065,-0.0006442022,-0.003338471,-0.003361581,-0.006857736,-0.0066698,-0.001462327
1.001061,-0.2331577,0.1183489,0.0005388011,0.002169042,0.003180658,-0.006885105,-0.006749007,0.0006897535
1.00166,-0.2375928,0.1144991,0.001144727,-0.002415583,-0.0008673558,-0.008672574,-0.009761161,0.0009589369
1.00119,-0.240515,0.1096682,0.000682594,-0.005485909,-0.005894063,-0.00550359,-0.008849984,-0.0002287385
1.000465,-0.2415518,0.1085097,-3.488586e-05,-0.006668843,-0.007245582,-0.003046453,-0.009288239,0.002262225
0.9996829,-0.2424831,0.1061991,-0.0008092663,-0.007743793,-0.009745637,-0.002000236,-0.007562454,0.005201685
0.9998217,-0.2381015,0.1125198,-0.0006631054,-0.003502797,-0.003610147,-6.791127e-05,-0.001946192,0.008703094
0.9992228,-0.2338521,0.1206923,-0.001254588,0.0006094641,0.004381692,-0.0006850267,-0.001638243,0.004962725
0.9984291,-0.231806,0.1210925,-0.002040928,0.002522085,0.004606178,0.002473347,-0.002032509,-0.001102161
0.9994274,-0.2345491,0.1190071,-0.001035183,-0.0003507197,0.002349801,0.01070484,-0.0006407181,0.002111466
1.000479,-0.2399136,0.1151457,2.430537e-05,-0.00584109,-0.001677731,0.02050702,-0.004520383,0.003185025
1.000009,-0.2366717,0.1137599,-0.0004386058,-0.00272112,-0.003224914,0.0286581,-0.007845568,0.0009001696
1.000091,-0.232656,0.1114647,-0.0003485544,0.001176931,-0.005676354,0.02799692,-0.007473113,0.0007838108
1.002022,-0.2325829,0.1064534,0.001590378,0.001136569,-0.01083863,0.02019476,-0.006275726,-0.001194135
1.002547,-0.2327807,0.1084438,0.0021222,0.000829673,-0.008993334,0.00915874,-0.006069352,0.0001064139
0.9993167,-0.236882,0.111698,-0.001100061,-0.003376589,-0.005877968,0.001594205,-0.006843358,0.003764596
0.9958899,-0.236651,0.1142661,-0.004519316,-0.003246271,-0.00344226,0.002190551,-0.00423437,0.003951131
0.99703,-0.2339956,0.1200977,-0.003371633,-0.000687229,0.002263649,0.005021492,-0.003563283,0.005270687
0.9990903,-0.2347076,0.1220124,-0.001303737,-0.001491147,0.004059198,0.008041281,-0.005907764,0.00632208
0.9982778,-0.2307001,0.1203786,-0.002108257,0.002428824,0.002312597,0.00786881,-0.009251616,0.002197872
0.9988368,-0.227998,0.1196817,-0.001541037,0.005047678,0.001508797,0.005302929,-0.01306243,-0.001153866
0.9998022,-0.230356,0.1201527,-0.000567002,0.002610479,0.001878675,0.007184674,-0.008761787,0.003508975
0.9998182,-0.2346539,0.1230501,-0.0005420873,-0.001762809,0.004680339,0.01005893,-0.006069817,0.009865216
1.000454,-0.2392471,0.1268545,0.000103126,-0.006427753,0.008394235,0.01016228,-0.007831609,0.009052249
0.9997169,-0.2376638,0.1263065,-0.0006245267,-0.00491231,0.00776046,0.007392073,-0.005998676,0.006069825
0.999907,-0.2346814,0.1223996,-0.000424563,-0.001993873,0.003771962,0.004153635,-0.007692265,0.003122493
1.000912,-0.2320476,0.1177051,0.0005906255,0.0005800518,-0.001000201,0.0007536778,-0.005275629,-0.001447947
1.002259,-0.2276172,0.1104112,0.001948272,0.004954595,-0.008367998,-0.003658956,-0.0007691161,-0.001490524
1.005055,-0.2287427,0.1108376,0.004753859,0.003776779,-0.008011564,-0.003642102,-0.002883188,0.0005351048
1.003432,-0.23148,0.1219221,0.003141123,0.0009906057,0.003006964,-0.003009098,-0.002234556,0.0004126738
1.000754,-0.2310259,0.1270864,0.0004730847,0.001398944,0.008109485,-0.003727912,-0.002436119,0.001400364
1.001635,-0.2323784,0.1238736,0.001363526,3.730631e-06,0.004838613,-0.002704864,-0.003272659,0.002192702
1.001179,-0.2331556,0.1203018,0.0009165477,-0.0008134797,0.00121219,-0.004793524,-0.001101928,0.002316757
1.000353,-0.2322132,0.1208286,9.97505e-05,9.176054e-05,0.001687484,-0.007353334,0.0005832783,0.00207619
0.999604,-0.2330394,0.1227637,-0.0006416781,-0.0007690412,0.003573947,-0.008157957,0.001179292,0.001238918
0.9978892,-0.233743,0.1214175,-0.002349026,-0.001504537,0.002181774,-0.008208379,-0.00309041,0.001891151
0.9971844,-0.2347701,0.1234448,-0.003046762,-0.002561093,0.004165593,-0.007546397,-0.004321003,0.003344531
0.998689,-0.2352308,0.1249549,-0.001535298,-0.003048587,0.005634521,-0.008380142,-0.00114626,0.004371214
1.003638,-0.2334009,0.1215069,0.003420316,-0.001243044,0.002147271,-0.007711448,-0.000913526,0.003356926
1.006702,-0.2337072,0.122155,0.006490349,-0.001571041,0.002757898,-0.005788284,0.001971165,0.002820025
1.003454,-0.2334346,0.1230681,0.003248907,-0.001317653,0.003635057,-0.0008361955,0.003309143,0.006431001
0.9998191,-0.2308666,0.1233866,-0.0003810543,0.001233578,0.003919064,0.005385831,0.002632808,0.008397642
0.9996417,-0.2310698,0.1260223,-0.0005539752,0.001015907,0.006521388,0.004857259,0.006388323,0.006597265
1.000409,-0.2340056,0.1250483,0.0002174725,-0.001932165,0.005514923,0.005674336,0.008800467,0.003066314
1.001014,-0.2372839,0.1244367,0.0008256761,-0.00522073,0.004871583,0.008701231,0.01047777,-0.001078227
1.00233,-0.2363075,0.1255362,0.002143818,-0.004252431,0.005939684,0.00615617,0.008786125,-0.0003541905
1.002534,-0.2327022,0.1238506,0.002350357,-0.0006530146,0.00422289,0.006097091,0.002622138,0.001247748
1.001458,-0.2307372,0.1205092,0.001275838,0.001308234,0.0008503277,0.01084364,0.002572735,-0.001318527
1.000756,-0.2282296,0.1168767,0.0005733511,0.003814106,-0.002813388,0.01347799,0.002254004,-0.001729686
0.9981176,-0.2295965,0.1174896,-0.002064835,0.002447186,-0.00223153,0.01364138,-0.004096516,0.0001178247
0.9963912,-0.2346486,0.1201327,-0.003792141,-0.002603384,0.000380792,0.01594244,-0.01885951,0.004031058
0.9993334,-0.2364052,0.1189817,-0.0008512567,-0.004356963,-0.0008005472,0.0208992,-0.03951223,0.01159076
1.001263,-0.2345711,0.117878,0.001076385,-0.00251853,-0.001934109,0.02015602,-0.03796219,0.01432615
1.001116,-0.2302273,0.1155568,0.0009271429,0.001831085,-0.00428465,0.015623,-0.02657149,0.0120981
1.00126,-0.2289865,0.1130103,0.001069273,0.003079094,-0.0068596,0.01507495,-0.02628432,0.01110955
0.9989834,-0.2306366,0.1168983,-0.001209974,0.001437321,-0.002998936,0.01225679,-0.01307512,0.007559054
0.9979177,-0.2302432,0.1201678,-0.002278505,0.001839967,0.0002444041,0.009747752,-0.003993066,0.004747464
1.00096,-0.2301779,0.1184987,0.0007609549,0.001915242,-0.001449327,0.01166203,-0.006500914,0.00938167
1.001506,-0.2270124,0.1176163,0.001303509,0.005091256,-0.002355023,0.008188753,-0.000282397,0.01317148
0.9984578,-0.2241883,0.1189378,-0.001748207,0.007926185,-0.001055363,0.003991523,-0.005224996,0.01071057
0.9964264,-0.2287262,0.1229126,-0.003783111,0.003399132,0.002898987,0.002229881,-0.008716248,0.008246574
0.9972796,-0.2318907,0.1271243,-0.002933355,0.0002449767,0.007091661,-0.007120411,-0.004597253,0.007395838
0.9996203,-0.2297357,0.1271438,-0.0005958326,0.002409945,0.007093185,-0.01828905,-0.00760531,0.006367261
1.000263,-0.2281786,0.1252818,4.380757e-05,0.003976512,0.00521384,-0.02065365,-0.001113275,0.005577052
1.00039,-0.230017,0.1243573,0.0001686396,0.002146794,0.004272477,-0.01766508,-0.003010513,0.003833545
1.002152,-0.2322212,0.121688,0.001928118,-4.956696e-05,0.001586442,-0.01683744,-0.007927464,0.002884382
1.004945,-0.2335162,0.1200975,0.004718994,-0.00133743,-2.069748e-05,-0.01717819,0.002890165,0.003556898
1.005986,-0.2341173,0.1239836,0.005757287,-0.00193222,0.003848783,-0.01584895,0.003660763,0.001879619
1.002582,-0.2328145,0.1261161,0.00235058,-0.0006237839,0.0059646,-0.01399902,-2.587698e-05,0.0006028639
0.9999152,-0.2342464,0.1248768,-0.0003185973,-0.002050533,0.004708354,-0.01050724,-0.005585821,0.003545784
0.999783,-0.2355759,0.1257938,-0.0004540365,-0.003375392,0.00560795,-0.0073455,-0.01309669,0.008881347
0.9979605,-0.2340819,0.1264104,-0.002280035,-0.001877024,0.006206602,-0.00519335,-0.01073192,0.01359542
0.9963974,-0.2355359,0.1243437,-0.003846967,-0.003326766,0.004121084,-0.003701942,-0.007859616,0.01323318
0.995919,-0.2374801,0.1210556,-0.004329267,-0.005266738,0.0008131017,-0.0056144,-0.00306172,0.009246699
0.9965462,-0.2393716,0.1201295,-0.003705807,-0.007153691,-0.0001336584,-0.006257793,-0.005104459,0.006510383
0.9985076,-0.2394635,0.1212007,-0.001747759,-0.007240705,0.0009158634,-0.006717584,-0.01101684,0.005859993
0.9984377,-0.2371915,0.1207828,-0.001820588,-0.004962936,0.0004755153,-0.008305833,-0.007784172,0.007344969
0.9980921,-0.2384124,0.1207392,-0.00216855,-0.006176981,0.0004088091,-0.004795172,-0.009025205,0.009989841
0.9991104,-0.2381727,0.1209592,-0.001152072,-0.005929257,0.0006050808,-0.002412667,-0.0078247,0.01182123
0.9991089,-0.2358836,0.1216095,-0.00115467,-0.003630668,0.001231088,-0.003194977,-0.002218597,0.008106031
1.000596,-0.2349537,0.1253956,0.000331682,-0.002689743,0.004992513,-0.005280008,-3.272699e-05,-2.49862e-05
1.002378,-0.2333752,0.1281828,0.00211418,-0.001098641,0.007754355,-0.0148835,0.003952708,-0.002387663
1.000134,-0.23321,0.1238715,-0.0001294828,-0.000919412,0.003417051,-0.02545559,0.005483706,0.0003255946
0.9987554,-0.23424,0.1186299,-0.001506595,-0.001933786,-0.001851488,-0.02524686,0.00466454,0.002549544
0.9979272,-0.2381005,0.1216396,-0.002333101,-0.00577741,0.001130525,-0.01341249,-0.0007490221,0.006288297
0.9947311,-0.2436022,0.1238287,-0.005527034,-0.01126075,0.003291209,0.0002709328,-0.009032138,0.009551273
0.9956368,-0.2439056,0.1209783,-0.004618449,-0.01154395,0.0004118685,0.00411979,-0.0114051,0.007974457
0.9976368,-0.2418608,0.1214683,-0.002614687,-0.009476902,0.000872151,0.0004380076,-0.008737101,0.003301009
0.9968352,-0.2404517,0.1210776,-0.003411583,-0.008043171,0.0004513738,-0.0005710703,-0.005000128,0.000325085
0.9974685,-0.238352,0.1198477,-0.002772461,-0.005916246,-0.0008090809,0.00125583,-0.009486696,0.001681915
0.9981711,-0.2382815,0.1206479,-0.002062963,-0.00581582,-3.976866e-05,0.003215789,-0.01418068,0.006442248
1.001386,-0.239594,0.1189391,0.00116007,-0.007095527,-0.001779678,0.007442271,-0.01086777,0.00887217
1.005709,-0.2381831,0.1190949,0.005492051,-0.005649099,-0.001654939,0.006502501,-0.009049159,0.004946567
1.003399,-0.2356718,0.121207,0.003191652,-0.003099424,0.0004261272,-0.001686734,-0.006231214,-0.001278669
1.00006,-0.2337243,0.1247906,-0.0001367402,-0.001110908,0.003979022,-0.008200701,-0.007068565,-0.007272322
0.9989929,-0.2338151,0.1317389,-0.001193224,-0.001158054,0.01089668,-0.01153819,-0.01143868,-0.008690584
0.9964857,-0.238197,0.13089,-0.003689341,-0.005494062,0.010017,-0.007849314,-0.009992916,-0.002743004
0.9966168,-0.2400056,0.1255085,-0.003546707,-0.007254475,0.00460424,-0.002715204,-0.009998447,0.002083789
0.9979504,-0.2383764,0.1268857,-0.002201095,-0.005574877,0.005949364,-0.002375431,-0.009282181,0.003388781
0.9958891,-0.2388013,0.1271113,-0.004249747,-0.005947215,0.006141925,0.0003283437,-0.005906776,0.00160255
0.995386,-0.2380648,0.1246845,-0.004739523,-0.005155868,0.003681007,-4.708708e-05,-0.005269594,-0.002448197
0.9964211,-0.2369247,0.1233099,-0.003690371,-0.003958765,0.002271188,-0.001644764,-0.005653501,-0.003804077
0.996808,-0.2368425,0.1193529,-0.003288387,-0.003817356,-0.001722202,0.0004469802,-0.00710299,-0.005580544
0.9999167,-0.2367508,0.1172197,-0.0001635465,-0.003664517,-0.00389271,-0.0005445116,-0.006303546,-0.003990379
1.003414,-0.2377291,0.1171689,0.003350479,-0.004579757,-0.003981407,0.0005274427,-0.005225221,0.001041957
1.004245,-0.2375117,0.115358,0.004199959,-0.00429749,-0.00583056,0.003104074,-0.00652429,-0.001469904
1.001735,-0.2363802,0.1145343,0.001708104,-0.003099375,-0.006692453,0.004340775,-0.006758532,-0.004666312
0.9988101,-0.2359318,0.1102172,-0.001198465,-0.002582759,-0.0110472,0.007614653,-0.008791075,-0.004352392
1.000887,-0.2360147,0.1065407,0.0008974301,-0.002596018,-0.01476028,0.008538932,-0.009281235,-0.004744202
1.002371,-0.2366517,0.1111419,0.002400412,-0.003162114,-0.01019391,0.006543581,-0.006205397,-0.002599497
1.000837,-0.2374234,0.114795,0.0008850231,-0.003861827,-0.006573377,0.001431029,-0.005268024,0.0003515622
1.001255,-0.2380106,0.1182804,0.001321602,-0.004375891,-0.003117928,-0.003080579,-0.00719188,0.002701579
1.000735,-0.2367526,0.1221296,0.0008196951,-0.00304381,0.0007039938,-0.002105764,-0.01227145,0.002218337
0.9994449,-0.2347608,0.1181942,-0.0004519649,-0.000977047,-0.003255858,-0.004628616,-0.01514648,-2.962028e-05
1.000253,-0.2341962,0.1148304,0.000373579,-0.0003367262,-0.006641316,-0.009147891,-0.01106648,0.002366107
1.001059,-0.2363292,0.1166594,0.001196675,-0.002393537,-0.004831196,-0.005011567,-0.006806855,0.00366988
1.001499,-0.2400583,0.1175977,0.001653768,-0.006045995,-0.003908925,0.0009684941,-0.00547576,0.00245804
1.001378,-0.2394325,0.117874,0.001548833,-0.005343331,-0.003645635,0.002638478,-0.003437568,0.001781739
1.000316,-0.2346056,0.1192496,0.000502867,-0.0004392244,-0.002279979,0.006144562,-0.002469958,-0.001552009
0.999772,-0.2297527,0.1209347,-2.611265e-05,0.004491214,-0.0006018518,0.007533676,-0.00376924,-0.005747273
1.000149,-0.2299092,0.1198432,0.000365367,0.004412099,-0.001697535,0.005020339,-0.00223393,-0.009204729
1.001168,-0.2355363,0.117432,0.001397325,-0.001138072,-0.004110151,0.006776351,-0.001428819,-0.008252393
1.002521,-0.2363493,0.1181392,0.002763604,-0.001874831,-0.003401746,0.007471717,-0.003096599,-0.00550923
1.003121,-0.2327626,0.1184599,0.003375728,0.001787294,-0.003077054,0.006588331,-0.001788338,-0.007356693
1.002734,-0.2296348,0.117829,0.002999409,0.004989455,-0.003701406,0.007489365,-0.002643909,-0.004911432
1.002642,-0.2286086,0.1198564,0.002917736,0.006088752,-0.001664908,0.002615816,-0.004930471,0.0002672696
1.002732,-0.2336336,0.1196342,0.003016812,0.001135171,-0.00187543,-0.003957677,-0.004643897,0.0001069849
1.001669,-0.2370146,0.1160928,0.001961879,-0.002176259,-0.005402733,-0.005522267,-0.003356258,0.001110658
1.000348,-0.2370035,0.1116478,0.0006468088,-0.002097536,-0.009831179,-0.001049007,0.001014023,0.003598858
1.0006,-0.2376784,0.1072666,0.000903883,-0.002706664,-0.01419329,0.004187022,0.002092669,0.00169337
1.0017,-0.2363894,0.1103376,0.002007454,-0.0013537,-0.01110029,0.002248678,-0.0009570912,-0.001930444
1.001613,-0.2359607,0.1156083,0.001923086,-0.0008628312,-0.005804195,0.002018611,-0.001914348,-0.0009047564
1.001072,-0.2369238,0.1132852,0.001382926,-0.001765493,-0.008098651,0.004857,-0.003298988,0.002934325
1.001689,-0.2405683,0.1104571,0.002000653,-0.005351179,-0.01089447,0.005472735,-0.00398757,0.006324612
1.002385,-0.2446667,0.1096693,0.002694408,-0.009392344,-0.0116465,0.01281725,-0.005522678,0.01153534
1.00249,-0.2423149,0.1097735,0.002797691,-0.006984519,-0.01150254,0.02158777,-0.00851222,0.01473507
1.001259,-0.2371398,0.1138003,0.001562347,-0.001754296,-0.007432037,0.01800451,-0.005769841,0.01163353
0.9992072,-0.2310882,0.1171444,-0.0004948396,0.004351683,-0.004040219,0.009721007,-0.001126789,0.00739729
0.9998088,-0.2262511,0.1188016,0.0001002009,0.009242147,-0.002331208,0.007660533,-0.00114111,0.006360595
1.000597,-0.226327,0.1212425,0.0008804882,0.009218322,0.0001651056,0.009555446,-0.002307343,0.004737333
0.9995545,-0.2288582,0.1196513,-0.0001704707,0.006737312,-0.001367309,0.01256994,-0.003743629,0.002654947
0.9998978,-0.2326165,0.1158297,0.0001631534,0.003026955,-0.005127112,0.01258871,-0.006331513,0.0039652
0.9991506,-0.2353708,0.1147422,-0.0005946377,0.0003182231,-0.00614996,0.01173643,-0.007129861,0.006604927
0.997122,-0.2365155,0.1150144,-0.002634562,-0.0007833977,-0.00581043,0.01730435,-0.01073066,0.01015595
0.9970838,-0.239691,0.1163709,-0.002684762,-0.003918223,-0.004384042,0.02344169,-0.01743335,0.0133524
0.997433,-0.2427985,0.1143343,-0.002347911,-0.006987172,-0.006348303,0.0300034,-0.01586865,0.01412771
0.9986629,-0.2401585,0.1100836,-0.001130462,-0.004310623,-0.01052418,0.03484819,-0.009680284,0.0114627
1.001956,-0.2339514,0.111828,0.002150336,0.001931389,-0.008702456,0.03086558,-0.007322088,0.00504877
1.005392,-0.2286938,0.1142647,0.005573473,0.007222304,-0.006185969,0.02564653,-0.00343647,-0.0002012757
1.005968,-0.2254592,0.1178671,0.006136625,0.0104885,-0.00250128,0.01618395,0.002544035,-0.005602766
1.003038,-0.2262317,0.1233419,0.003192661,0.009745406,0.003058035,0.003758952,0.006675878,-0.008488633
0.9998341,-0.2273844,0.121185,-2.49657e-05,0.00861962,0.0009876738,-0.001157004,0.007358461,-0.003765876
0.9968473,-0.2276029,0.1222583,-0.003026244,0.008425027,0.002148882,-0.003505506,0.002336715,-0.000962125
0.9949531,-0.2302842,0.126716,-0.004935441,0.005764492,0.006695564,-0.002934255,-0.001423624,-0.0007591206
0.9958443,-0.2313259,0.1214632,-0.004059476,0.004740156,0.001532158,-0.0004781396,0.0004816998,-0.000216957
0.9963819,-0.2322399,0.1167225,-0.003536975,0.003839993,-0.003119025,-0.0005911806,-0.0006566696,-0.002916282
0.996441,-0.2354093,0.1136095,-0.003492612,0.0006810224,-0.006142695,-3.291957e-05,-0.005207231,-0.002574189
0.9978998,-0.2363914,0.1095065,-0.002048045,-0.0002940988,-0.01015656,8.585138e-05,-0.006400355,0.00223445
0.9994109,-0.2356806,0.1105909,-0.0005505216,0.0004205587,-0.008983004,0.0002355319,-0.002680261,0.004815148
1.001089,-0.2323776,0.1100984,0.00111467,0.003724458,-0.009386136,-0.0005103471,0.002022034,0.003372432
1.002048,-0.2288742,0.1085481,0.002061408,0.00722584,-0.0108465,-0.00626052,0.001786685,0.001320013
1.001143,-0.22879,0.1143754,0.001145135,0.007305063,-0.004928744,-0.01174776,0.0007492295,0.002652336
1.001192,-0.2278966,0.120634,0.00118313,0.008190436,0.00142101,-0.01152912,0.002775295,0.003803952
1.001752,-0.2288053,0.1180362,0.001732441,0.007270417,-0.001084928,-0.01127491,0.004062798,0.004542798
1.001129,-0.2335156,0.1147295,0.001099213,0.002545587,-0.004299604,-0.01513066,0.005107865,0.006861036
1.001243,-0.2357912,0.1158641,0.001202834,0.0002520914,-0.003072686,-0.01665337,0.005410372,0.005484626
1.000659,-0.23567,0.1149193,0.0006087472,0.0003524272,-0.003925215,-0.01205302,0.004624012,0.002983601
0.9994893,-0.2387011,0.1149086,-0.0005700965,-0.002702473,-0.003843549,-0.005906369,0.005293483,0.0006326849
1.000078,-0.2431469,0.1149898,9.639378e-06,-0.007174517,-0.003670092,-0.003335914,0.006693725,-0.004992852
0.9999728,-0.2412003,0.1138733,-0.0001050812,-0.005256186,-0.004694409,-0.000610841,0.006295325,-0.006207219
0.998929,-0.2377793,0.1191171,-0.001157683,-0.001864947,0.0006413608,0.005747171,-0.001072243,-0.0005179156
0.998986,-0.238949,0.1251645,-0.001109245,-0.003065415,0.006780491,0.008483877,-0.01018403,0.00559083
1.001323,-0.2372875,0.1258673,0.00121931,-0.001435598,0.007574143,0.008327241,-0.008870935,0.008043397
1.004512,-0.2348451,0.124702,0.004400494,0.0009745937,0.006498509,0.006318274,-0.006127025,0.005980574
1.003793,-0.2355542,0.1239608,0.003673996,0.000232861,0.005845275,0.0003938445,-0.007804223,0.002727067
1.001554,-0.2345765,0.1219209,0.001427233,0.001177648,0.003891079,0.000122809,-0.004645428,-0.0009065077
1.001134,-0.2341773,0.1180866,0.0009995388,0.001543612,0.0001399353,0.0006845121,-0.004065794,-0.002492733
0.9999369,-0.2342589,0.1187443,-0.0002058589,0.00142866,0.0008782148,-0.004343465,-0.005200306,-0.0005845923
1.000321,-0.2328208,0.1192001,0.000170614,0.002833211,0.001411789,-0.006180688,0.003081972,-0.001861973
1.001903,-0.2337773,0.1142966,0.001744216,0.001843055,-0.003416609,-0.0062674,0.00794289,-0.003434271
0.9995331,-0.2365246,0.1126912,-0.0006343162,-0.0009381726,-0.00494972,-0.003384106,0.003242174,-0.0001589445
0.9979772,-0.238949,0.1124394,-0.002198695,-0.003396523,-0.005131738,0.00405512,-0.0008424512,0.003692184
1.000683,-0.2390279,0.1108469,0.0004984849,-0.0035092,-0.006656806,0.01008561,-0.000755936,0.008236197
1.001919,-0.2355747,0.1136472,0.001726212,-8.956956e-05,-0.003791016,0.01176313,0.0005315412,0.01041436
1.000449,-0.2331791,0.1192091,0.0002479064,0.002273063,0.001834493,0.005800914,-0.0004853354,0.008094192
0.9994835,-0.2341177,0.122272,-0.0007261477,0.001301981,0.004959238,0.001398303,5.558969e-05,0.006877732
1.000045,-0.2360784,0.1205577,-0.00017289,-0.0006907459,0.003304779,0.003928353,0.000349253,0.004515341
1.000266,-0.236553,0.1179342,3.913921e-05,-0.001196726,0.0007389691,0.006911845,-0.002949198,0.004285807
0.9997169,-0.2358275,0.1163056,-0.0005178115,-0.0005021169,-0.0008343012,0.009033414,-0.005280361,0.008024806
1.000116,-0.236315,0.1147744,-0.0001265061,-0.001019747,-0.002312387,0.00758583,-0.006117451,0.00543559
1.000078,-0.2371519,0.1170011,-0.0001726517,-0.001885968,-3.477409e-05,0.007074314,-0.00211899,0.0002039473
0.9998083,-0.2370458,0.1191769,-0.0004504333,-0.00180841,0.002189787,0.004469522,0.002932987,-0.003027946
1.000191,-0.2350616,0.1179144,-7.536645e-05,0.0001482719,0.000973966,-0.001416916,0.002867708,-0.00239542
0.9998964,-0.2329884,0.1187256,-0.000377386,0.002194948,0.00182959,0.001854124,0.003564555,0.004334675
0.9999872,-0.2366271,0.1200722,-0.0002937731,-0.001469238,0.003218338,0.002848748,0.003300649,0.006188276
1.000103,-0.2403991,0.118956,-0.0001845722,-0.005265781,0.00214196,0.0002334742,0.002528774,0.004157711
1.000042,-0.2370012,0.1171523,-0.0002525598,-0.001891378,0.0003757467,0.002511292,0.006250162,0.003441217
1.001003,-0.234413,0.1145071,0.0007022108,0.0006746516,-0.00223439,0.0003281747,0.007825779,0.001548292
1.001438,-0.2350158,0.1134114,0.001130583,5.096628e-05,-0.003297207,-0.0004566273,0.002820865,0.002273797
1.00022,-0.2338691,0.1158569,-9.276108e-05,0.001177998,-0.0008208935,0.0007268365,-0.005554371,0.002609642
0.9978068,-0.2348939,0.1176613,-0.002512203,0.0001346481,0.001012403,-9.325512e-05,-0.01136057,0.0007250203
0.9969417,-0.2382334,0.1174434,-0.003382765,-0.003222275,0.0008215389,0.001360173,-0.01107272,0.0009875848
0.9991108,-0.2388667,0.1180639,-0.001218758,-0.003871842,0.001467355,-0.0003619609,-0.008932937,0.003519194
1.000718,-0.2373251,0.1184276,0.0003841606,-0.002345174,0.001854427,-0.002743588,-0.006898469,0.00487301
1.000229,-0.2353997,0.1177533,-0.0001088497,-0.0004333023,0.001201779,-0.003063272,-0.004265343,0.002439268
1.000524,-0.2357427,0.1180941,0.0001823294,-0.0007884884,0.001562333,-0.002458231,-0.005057845,-0.0001126927
1.001906,-0.2368661,0.1182244,0.001560411,-0.001922701,0.001710506,-0.0003625278,-0.005847374,-0.003436179
1.001347,-0.2360019,0.1180161,0.0009990125,-0.001067979,0.001518409,-0.00109077,-0.001140064,-0.003585892
1.000073,-0.2378365,0.1190833,-0.0002773653,-0.002910701,0.002599816,0.001222818,0.001622399,0.006110898
1.000057,-0.2398743,0.1191802,-0.0002952721,-0.004955143,0.002709246,0.01138692,0.001303091,0.01314074
0.9998238,-0.2385973,0.11677,-0.0005309773,-0.003683202,0.0003096232,0.01917887,0.00561172,0.007945934
0.9991574,-0.2387763,0.1150993,-0.001199078,-0.003865706,-0.001352328,0.01287843,0.00980602,-0.002670409
0.9956805,-0.2385658,0.1190683,-0.004677435,-0.003656982,0.002623698,0.002552197,0.004775383,-0.008009898
0.9923423,-0.2358522,0.1252987,-0.008016484,-0.0009434233,0.008859518,0.005509821,-0.0009963195,-0.005635442
0.9973523,-0.2333146,0.1258631,-0.003006756,0.001595912,0.009427407,0.006190771,0.004268693,-0.003286331
1.00326,-0.2333708,0.1229592,0.002901342,0.001543111,0.00652481,-0.002392002,0.008398114,-0.003232935
1.002287,-0.2348401,0.1180314,0.001930501,7.867522e-05,0.001595941,-0.00606481,0.005283913,-0.002906406
1.004008,-0.2341487,0.1117942,0.003653787,0.0007761423,-0.004644736,-0.008955132,0.006126659,-0.000770845
1.008395,-0.2358187,0.1130418,0.008043552,-0.0008865825,-0.003402691,-0.0101597,0.006935743,0.00138039
1.00511,-0.2398909,0.1164163,0.004761199,-0.004950479,-3.569722e-05,-0.008666377,0.006880118,0.0009794703
1.000478,-0.2411715,0.1141064,0.0001316911,-0.006221704,-0.002354598,-0.006255615,0.007914861,0.001439756
0.9999082,-0.2425573,0.1152073,-0.0004356969,-0.007596679,-0.001264087,0.003969945,0.002738521,0.0034577
0.9962048,-0.2422654,0.1183787,-0.004137012,-0.007292611,0.001895762,0.01142351,0.0001186296,0.003801749
0.9933837,-0.2387587,0.1193698,-0.006956022,-0.003771946,0.002874186,0.009687024,0.002258929,0.004175226
0.9966926,-0.2379882,0.1229271,-0.003644994,-0.002985652,0.006417676,0.008081725,-0.002391831,0.008039006
0.9999988,-0.2394306,0.1229909,-0.0003362221,-0.004410359,0.006466523,0.008951641,-0.006034146,0.009378054
1.000431,-0.2395315,0.1196018,9.84564e-05,-0.004491639,0.003061066,0.009926228,0.0003696055,0.004845314
0.9996457,-0.2409565,0.1210578,-0.0006830518,-0.0058952,0.004499284,0.01104524,0.007891428,0.004588638
0.9990447,-0.2433259,0.1234567,-0.001280256,-0.008241163,0.006878804,0.01354715,0.00900216,0.006250141
0.9984936,-0.2416761,0.1243837,-0.001827196,-0.006565714,0.007784758,0.01224098,0.007461825,0.002152873
0.9983626,-0.239804,0.1246858,-0.001953519,-0.004665729,0.00806395,0.007505643,0.006106596,0.001707251
0.9990755,-0.2380538,0.1223251,-0.001235463,-0.002885275,0.005678299,0.004036955,0.003089979,0.005313495
0.9993978,-0.2333151,0.1187886,-0.0009074605,0.001885793,0.00211465,0.002828341,0.001263814,0.00383473
0.9996414,-0.2347298,0.1167267,-0.0006576622,0.0005056657,2.35328e-05,0.003299375,0.002335318,0.00304357
0.9976286,-0.2380047,0.1203203,-0.002663761,-0.002732998,0.003585786,-0.001575359,0.002005795,0.003377275
0.9951566,-0.2352425,0.1261211,-0.00512844,6.70605e-05,0.009353476,-0.005089201,4.926195e-05,0.0009957196
0.9983837,-0.2362104,0.1248116,-0.001893379,-0.0008615373,0.008008786,-0.001898388,-0.001126932,0.004698823
1.00151,-0.2387307,0.1237369,0.001241538,-0.003341326,0.006896695,-0.0005864363,-0.00134428,0.008250223
0.9996135,-0.2382847,0.1261647,-0.0006453319,-0.002853605,0.009284891,0.001034659,-0.0004788017,0.004284659
0.9978721,-0.2373408,0.1236386,-0.002376568,-0.001866931,0.006716729,0.0005413173,0.0001727863,-0.0002880265
0.9952951,-0.2334529,0.1228573,-0.004942767,0.002064772,0.005890849,-0.002969788,-0.00064217,-0.005279467
0.9923822,-0.2323819,0.1249756,-0.007844073,0.003180482,0.007962002,-0.004033776,-0.002481566,-0.003396038
0.9962691,-0.2340739,0.1257016,-0.003944601,0.001533535,0.008638112,-0.005712369,-0.003423879,0.002685136
1.00071,-0.2330045,0.1287849,0.0005103817,0.00264837,0.01166888,-0.005868116,-0.001120808,0.002310106
0.9983673,-0.2334932,0.1277755,-0.00181776,0.002204995,0.01060403,-0.004523867,0.001265319,0.002933017
0.9976104,-0.2346393,0.1240079,-0.002558731,0.001104079,0.006777836,-0.003409448,-0.0005878973,0.002821121
0.9985864,-0.2359343,0.1235962,-0.001565706,-0.0001462926,0.006304427,1.827905e-05,-0.005036441,0.002968172
0.9971039,-0.2387229,0.1227323,-0.003030149,-0.002890781,0.005375773,0.001409426,-0.01030921,0.0067125
0.9996579,-0.2400834,0.1221516,-0.0004570134,-0.004207669,0.004727283,0.001069019,-0.01279308,0.007580637
1.002825,-0.2397608,0.1201322,0.002730197,-0.00384194,0.002637267,0.001351499,-0.007020829,0.009065134
1.001034,-0.2357716,0.1182636,0.0009598258,0.0001900847,0.0006952812,-0.001408372,-0.001334094,0.006554765
1.000027,-0.2317109,0.1184978,-2.589635e-05,0.004293083,0.0008538585,-0.004719845,-0.004096406,0.001080082
1.00019,-0.2336656,0.1177117,0.0001593365,0.002380222,-9.834279e-06,-0.008301822,-0.005413082,-0.0003535442
0.9995382,-0.2368452,0.120082,-0.0004700343,-0.0007582914,0.002281132,-0.01433582,-0.004166087,-0.002982576
0.9992349,-0.2376344,0.1215904,-0.0007505931,-0.001507326,0.003708807,-0.0139645,-0.006678867,-0.001458695
0.9985932,-0.2367014,0.1192616,-0.001369482,-0.000534933,0.001298005,-0.009070857,-0.005877887,0.001353171
0.9992193,-0.2346777,0.1182862,-0.0007201857,0.001527159,0.000239615,-0.01025636,-0.001522153,0.001101624
1.000631,-0.2350372,0.1167819,0.0007143957,0.001205105,-0.001348459,-0.009665782,0.0008084366,0.002755562
0.9999576,-0.2386157,0.1167111,6.478251e-05,-0.002336945,-0.001503525,-0.005784385,0.001039685,0.001664293
0.9996957,-0.2410888,0.1194128,-0.0001736233,-0.004774533,0.001113827,-0.005374407,-0.002728692,0.002456281
1.000324,-0.2397227,0.1235259,0.0004778225,-0.003373815,0.005142602,-0.002159073,-0.007221509,0.004491616
0.9996683,-0.237964,0.127208,-0.0001542958,-0.001581286,0.00874055,0.0002662403,-0.009099577,0.004329064
0.999063,-0.2390298,0.1251431,-0.000736502,-0.00261376,0.006591576,-0.001882936,-0.01143812,0.009368372
0.9983225,-0.2402245,0.1214888,-0.001454069,-0.003775686,0.002853074,-0.001129206,-0.01412427,0.01517633
0.9974369,-0.2428276,0.1194717,-0.002316917,-0.006346525,0.0007516121,0.0003993923,-0.01500489,0.0193263
0.9974406,-0.2472688,0.1160532,-0.002290576,-0.01075563,-0.002751073,0.002428515,-0.01448785,0.0180304
0.9979002,-0.2454105,0.113033,-0.001808438,-0.008864975,-0.005855202,0.004438375,-0.01439374,0.01331327
0.9989767,-0.2418922,0.1131301,-0.0007094409,-0.005313933,-0.005841243,0.002515882,-0.01429942,0.01553403
0.9988393,-0.2431913,0.1154915,-0.0008243945,-0.006579415,-0.003561822,0.001813594,-0.01457392,0.01196795
0.9985244,-0.2413781,0.1173074,-0.001116805,-0.004731699,-0.001826397,0.0004304895,-0.01509626,0.005236506
1.000695,-0.2394076,0.119817,0.001075987,-0.002725668,0.0006045719,-0.002796269,-0.01075245,0.006098
1.001565,-0.2415292,0.1197168,0.001968673,-0.004810723,0.0004276467,-0.003116451,-0.003407194,0.001180783
0.9996061,-0.2419911,0.1164901,3.149088e-05,-0.005234815,-0.002873763,-0.006599179,-0.0005284717,-0.004616019
0.9981041,-0.2412528,0.1186974,-0.001448823,-0.004457609,-0.0007390122,-0.01145441,-0.002269629,-0.003499667
0.9992975,-0.2398194,0.1206197,-0.0002340325,-0.002984095,0.001112881,-0.01050289,-0.003070761,-0.003576303
1.000997,-0.238867,0.1195659,0.001486875,-0.001990328,-9.018575e-06,-0.009338456,-0.001521675,-0.004108195
1.000656,-0.2414877,0.1178804,0.001166459,-0.00456848,-0.001760379,-0.009630788,-0.00188724,-0.002536254
1.001585,-0.2433944,0.111853,0.002115319,-0.006431459,-0.007851246,-0.006793242,-0.002308264,-0.0002800941
1.002639,-0.2397244,0.1114847,0.003188475,-0.002716568,-0.008280373,-0.002432615,-0.001570317,0.0003275861
1.00162,-0.2358748,0.114952,0.002189092,0.001179076,-0.004870944,-0.0004032272,-0.002915273,-0.0004013035
1.00125,-0.2389289,0.1145933,0.001836643,-0.001827931,-0.00528436,0.0001195606,-0.003919914,-0.001074502
1.000153,-0.2427655,0.1177322,0.0007565614,-0.005616489,-0.002196639,0.001457299,-0.00440162,-0.002504091
0.9984479,-0.2431366,0.1196231,-0.0009324888,-0.005938654,-0.0003535182,0.001962548,-0.004158909,-0.002052072
0.9967051,-0.2432809,0.1177869,-0.002660281,-0.006033078,-0.002234076,0.001125435,-0.002022292,0.0007452319
0.9950689,-0.2418733,0.1154597,-0.004282189,-0.004574562,-0.004602255,0.002079641,-0.001195391,0.003201518
0.9960904,-0.2409114,0.1131602,-0.003247168,-0.003560576,-0.006939126,0.004062024,-0.002121128,0.003755175
0.9968554,-0.2401989,0.1165913,-0.002469018,-0.002794965,-0.003541885,0.00490169,-0.004943877,0.001092122
0.9962564,-0.238297,0.1195252,-0.003055266,-0.0008388148,-0.0006382133,0.005843612,-0.007420783,-0.0007469537
0.9958731,-0.2396702,0.1175342,-0.003425892,-0.002156908,-0.002655893,0.006911731,-0.006643804,0.001838094
0.995657,-0.240838,0.1168761,-0.003629384,-0.003268819,-0.003337042,0.006933116,-0.004809711,0.003496135
0.9969625,-0.2387511,0.117073,-0.002311126,-0.001125289,-0.003159817,0.003010077,-0.002296984,0.0007252525
0.9973758,-0.2367682,0.1182414,-0.001884906,0.0009147297,-0.002007545,-0.005019604,-0.0009473577,-0.001914345
0.9961669,-0.2357884,0.1195872,-0.003080568,0.001952159,-0.0006746759,-0.008925362,-0.002708983,-0.003325655
0.9956422,-0.2369042,0.1169859,-0.003591637,0.0008941045,-0.003285559,-0.005732303,-0.005225007,-0.006381373
0.9958483,-0.2388136,0.1137927,-0.003371477,-0.0009576036,-0.006485217,-0.001516736,-0.007193055,-0.007190691
0.9971329,-0.2409593,0.1141336,-0.00207222,-0.00304586,-0.006147607,0.000793218,-0.007774105,-0.002908946
0.9983264,-0.2439559,0.1134553,-0.0008634869,-0.005985123,-0.006825831,0.002473293,-0.007014548,0.001238025
0.9988539,-0.243346,0.1118641,-0.0003201419,-0.005318138,-0.008413648,0.003737917,-0.006538758,0.001958359
0.9990964,-0.2403418,0.1145367,-6.114578e-05,-0.002256958,-0.005734226,0.004651542,-0.007349339,-0.0008980387
1.000107,-0.2401008,0.1161886,0.0009659369,-0.001958899,-0.004071853,0.004988807,-0.01014306,-0.003842043
1.002133,-0.2401583,0.1143936,0.00300981,-0.001959433,-0.005852903,0.003920502,-0.01310513,-0.002036987
1.00161,-0.2392436,0.1118743,0.00250442,-0.0009878594,-0.008354598,0.003875622,-0.01096508,0.0006612656
1.000082,-0.2386696,0.1068286,0.0009935745,-0.0003571887,-0.01337914,0.002735713,-0.005521856,0.001558962
0.9982493,-0.2378843,0.1040483,-0.0008217435,0.0004845773,-0.01613439,-0.00213499,-0.003851577,0.001193173
0.9953753,-0.2383424,0.1058261,-0.003678526,8.254815e-05,-0.0143273,-0.005436029,-0.004216062,-0.002342401
0.9987811,-0.2391145,0.1060105,-0.0002556371,-0.0006340906,-0.01410907,-0.006432749,-0.004795345,-0.003890604
1.003426,-0.238919,0.1061582,0.004406589,-0.0003836939,-0.01392247,-0.006076859,-0.005927901,-0.001508889
1.000291,-0.2388926,0.1110566,0.001288196,-0.0003032058,-0.008980099,-0.004411053,-0.005149853,-0.0007704186
0.9989796,-0.2387844,0.1146126,-6.752006e-06,-0.0001416437,-0.005374812,-0.002794353,-0.004218369,-0.000811642
1.00191,-0.2395302,0.1083789,0.002940211,-0.0008349977,-0.01155417,-0.00086527,-0.004037886,-0.001101492
1.002195,-0.2412126,0.1001579,0.003239855,-0.00246585,-0.01971561,-0.00130058,-0.005157585,-0.004939227
1.001621,-0.2423129,0.1026846,0.002681231,-0.00351549,-0.01712403,-0.002876998,-0.007213395,-0.008345183
0.9996589,-0.2416812,0.1131517,0.0007330977,-0.002833997,-0.006586366,-0.005080632,-0.007008963,-0.005623102
0.9975349,-0.2411665,0.120633,-0.001377686,-0.002270191,0.0009710339,-0.01049802,-0.00639102,-0.002477004
0.9990211,-0.242694,0.1176743,0.0001209363,-0.003749325,-0.001906302,-0.01278729,-0.005100228,-0.002815813
0.9998528,-0.2438499,0.1106998,0.0009642039,-0.004857546,-0.008794631,-0.01071493,-0.001993434,-0.00197693
0.9998,-0.244968,0.1107477,0.0009221861,-0.005928384,-0.008656224,-0.008761594,-0.000496994,-0.0009051994
1.000409,-0.2447192,0.1107107,0.001541265,-0.005632551,-0.008598522,-0.006712329,-0.002317121,-0.0003377637
0.9997425,-0.243705,0.1059967,0.000883841,-0.004571542,-0.01321357,-0.007249404,-0.005560603,-0.0002131493
0.9997854,-0.2446905,0.1030344,0.0009350416,-0.005510135,-0.01607274,-0.009147677,-0.005623372,-0.001533337
0.9991763,-0.2425584,0.1016179,0.0003333898,-0.003331028,-0.01738184,-0.008319981,-0.002400169,-0.001251258
0.9971603,-0.2412594,0.1034194,-0.00167597,-0.001984719,-0.0154684,-0.007974756,-0.0001509111,-0.002357662
0.9970178,-0.2452899,0.1101734,-0.001812686,-0.005967679,-0.008597685,-0.007187306,-0.001781892,-0.004709129
0.9973143,-0.2492331,0.1168955,-0.001511012,-0.009863017,-0.001754392,-0.001708119,-0.00444653,-0.003110961
0.9977373,-0.2505859,0.1135052,-0.00108338,-0.01116735,-0.00501909,0.002691649,-0.00333128,-0.0007911619
0.9999375,-0.2471091,0.1059817,0.001120971,-0.007641208,-0.01241311,-7.843891e-06,-0.003343539,0.0004477476
1.001599,-0.2441642,0.1103733,0.002786521,-0.004645848,-0.007888327,-0.002522972,-0.004336243,-0.0002351667
0.9991066,-0.2443933,0.1116177,0.0002970196,-0.004823163,-0.006507249,0.0004941286,-0.001705998,-0.00203371
0.9957424,-0.2426899,0.1079614,-0.003064507,-0.003066697,-0.01002362,0.001802381,-0.001210277,-0.0004192785
0.9975417,-0.2426097,0.1114227,-0.001262945,-0.002932136,-0.006419275,0.001203667,-0.001307803,-0.0002447405
0.9998314,-0.2434029,0.1099241,0.001028695,-0.003669802,-0.007772009,0.0001419632,0.003038534,-0.005053574
0.9997991,-0.2419313,0.1120432,0.0009980883,-0.002141562,-0.005504337,-0.007297345,0.006481102,-0.009205846
1.000464,-0.2413435,0.1165615,0.001664187,-0.001496095,-0.0008351103,-0.01407008,0.004682745,-0.00911166
1.000344,-0.241535,0.1118623,0.001545097,-0.00162903,-0.005381342,-0.01367193,0.002695415,-0.006505888
1.002441,-0.2408777,0.1107046,0.003642259,-0.0009124567,-0.006384618,-0.01366193,0.006318689,-0.005816882
1.005277,-0.2404404,0.1067812,0.006478357,-0.0004153213,-0.01015209,-0.01499192,0.009145868,-0.006362147
1.003019,-0.2428724,0.100576,0.004219508,-0.002787021,-0.01620014,-0.01372971,0.007231846,-0.00618381
1.001112,-0.245526,0.09893947,0.002311005,-0.005379872,-0.01767803,-0.01127709,0.004693419,-0.00633163
1.001304,-0.2440365,0.09460271,0.002500312,-0.003829447,-0.0218544,-0.006073343,0.001768736,-0.005493941
1.000211,-0.2413574,0.09776649,0.001403598,-0.00108901,-0.01852804,0.0004767238,0.001727591,-0.003953487
0.9990892,-0.2407387,0.1055572,0.0002764726,-0.0004086457,-0.01057223,-0.001736139,0.003370909,-0.001533651
0.999115,-0.2421624,0.1085056,0.0002961614,-0.001770566,-0.007456043,-0.008218945,0.002435499,0.001610106
1.0005,-0.2457078,0.1128089,0.001674245,-0.005254076,-0.002982476,-0.008030376,0.003929663,0.003250613
1.001189,-0.2508788,0.1140914,0.00235533,-0.01036309,-0.001527492,-0.003416387,0.006108139,0.003649394
1.001051,-0.2537835,0.1098867,0.002207595,-0.0132055,-0.005558104,0.005622709,0.003304281,0.0006342615
1.000477,-0.2501533,0.1053227,0.001624327,-0.00951242,-0.009946682,0.01587457,-0.003025141,-0.003656493
0.9977705,-0.2446792,0.1048734,-0.001093425,-0.003974305,-0.01021957,0.02132878,-0.01104802,-0.004166597
0.9964718,-0.2408476,0.1087377,-0.002403933,-7.766865e-05,-0.006177731,0.02270991,-0.01648144,-0.003070927
0.9978261,-0.2350788,0.1108226,-0.001062158,0.005757028,-0.003914494,0.02106052,-0.01953251,-0.001772643
0.9990898,-0.2328529,0.1104945,0.000188438,0.008049519,-0.004063658,0.01807972,-0.02166974,-0.001504023
1.000394,-0.2325946,0.1079957,0.001479588,0.008374316,-0.006383245,0.008185147,-0.01871705,-0.002951342
1.000487,-0.2274469,0.107128,0.001558286,0.01358793,-0.007071672,-0.00916551,-0.01608271,-0.005000583
1.000629,-0.2284758,0.1095188,0.001685601,0.01262359,-0.00450176,-0.02563462,-0.009482771,-0.009404205
1.002575,-0.2319187,0.1078711,0.003617063,0.009243293,-0.005970617,-0.03798294,0.006519348,-0.0131563
1.002355,-0.2302062,0.1068543,0.003382058,0.01101576,-0.006809016,-0.04425877,0.01612405,-0.01194192
1.000782,-0.2347964,0.1084859,0.001793271,0.006482367,-0.004999751,-0.05079978,0.02425221,-0.01086319
1.001555,-0.239683,0.1106055,0.002549594,0.001649194,-0.002703139,-0.05489028,0.03390245,-0.01168628
1.002564,-0.2405156,0.1142098,0.003540796,0.0008663445,0.001077091,-0.05007211,0.03451686,-0.007346082
1.002276,-0.2448946,0.1073202,0.003235033,-0.003466385,-0.005637937,-0.04573882,0.03577857,-0.004421157
1.000281,-0.2495068,0.09803857,0.001221309,-0.008035617,-0.01474647,-0.03849502,0.03372547,-0.01378532
0.9976458,-0.2521189,0.1014273,-0.001433435,-0.01060761,-0.01118603,-0.02266164,0.02942864,-0.02457445
0.9982788,-0.2514318,0.1024211,-0.0008206082,-0.009882792,-0.0100218,-0.006665612,0.03153516,-0.02487242
0.9993687,-0.2499693,0.0983857,0.0002485356,-0.008384263,-0.01388764,0.0001774611,0.03088348,-0.02036542
0.998154,-0.2475752,0.09920134,-0.0009873164,-0.005955498,-0.01290322,0.005734701,0.03276717,-0.01829376
0.9982103,-0.242811,0.1022199,-0.0009524726,-0.001157551,-0.009716425,0.01784544,0.03298856,-0.01473199
0.9971905,-0.2448701,0.1053487,-0.001993855,-0.003183755,-0.00641966,0.02027919,0.0266876,-0.009057895
0.9948949,-0.2469042,0.105675,-0.004311106,-0.005185508,-0.005925828,0.023937,0.02201035,-0.006296754
0.996359,-0.2422675,0.1049737,-0.002868444,-0.000516947,-0.006460016,0.03539638,0.01372967,-0.001651284
0.9989735,-0.2408789,0.1074308,-0.0002750501,0.0009031329,-0.003836338,0.03499685,0.01164912,0.002122949
1.000217,-0.2412575,0.1086296,0.0009478226,0.0005554466,-0.00247169,0.0323066,0.0149034,0.0004072443
0.9994235,-0.2380386,0.1084586,0.0001344802,0.003804776,-0.002477824,0.02167159,0.0120251,0.001651766
0.9970563,-0.2313189,0.1082513,-0.002252214,0.01055407,-0.002521428,0.004472401,0.01209743,0.00211947
0.9982297,-0.2275681,0.1074225,-0.001097665,0.01433336,-0.003187981,0.003190674,0.007328896,-0.0007906208
1.001061,-0.2325901,0.1084461,0.001715154,0.009338123,-0.002003752,0.005926678,-0.002839918,0.0007318837
1.001529,-0.2380035,0.1076147,0.002165354,0.003949245,-0.002676412,0.005795524,-0.005274967,0.002448757
1.000669,-0.2396498,0.1033195,0.001288789,0.002324933,-0.006814735,0.00419601,-0.00492296,0.002827346
0.9994398,-0.2411423,0.1016131,4.315475e-05,0.0008519117,-0.008366306,0.002555861,-0.003437198,0.003887857
0.9999699,-0.2421528,0.1054,0.0005571889,-0.0001415587,-0.004426444,0.003933671,-0.001385581,0.002050347
1.000391,-0.2437838,0.1122298,0.0009624249,-0.001758035,0.002554335,0.004322834,-0.002263603,0.002457482
0.9999569,-0.2462136,0.1165946,0.0005135132,-0.004175414,0.007067873,0.01182839,-0.005176243,0.005885503
1.001975,-0.2465148,0.1144562,0.002516651,-0.004466226,0.005075724,0.02359305,-0.006091896,0.008997651
1.003387,-0.242253,0.1078872,0.003914085,-0.0001955822,-0.001350167,0.02881635,-0.00134853,0.01382977
1.002767,-0.2368913,0.1056809,0.003279901,0.005173476,-0.003416637,0.02693276,0.00187989,0.01177722
1.002433,-0.238205,0.1086846,0.002931634,0.003865576,-0.0002765078,0.02375897,8.777604e-05,0.007844361
1.001749,-0.2397628,0.1130574,0.002233208,0.002312164,0.004229197,0.02073953,-0.001547593,0.01185161
1.000153,-0.2334671,0.1186234,0.0006233199,0.008610488,0.009924398,0.01257768,-0.003035945,0.01201349
0.9985873,-0.2276524,0.1178491,-0.0009573145,0.01442595,0.009275243,0.01124901,-0.005813076,0.01319313
0.9983133,-0.2248928,0.1167255,-0.001246138,0.01718389,0.008272074,0.006710651,-0.006652025,0.01625659
0.9977887,-0.2231119,0.1211166,-0.001785659,0.01896033,0.01277859,-0.015984,-0.004797856,0.0110193
0.9975758,-0.2225098,0.1195696,-0.002013341,0.01955429,0.01134137,-0.03324041,-0.004655602,0.008289617
1.000809,-0.2213127,0.1183854,0.001205589,0.02073888,0.01026084,-0.0461591,-0.002907036,0.007567613
1.00344,-0.2231439,0.1201209,0.003822263,0.01889017,0.01209355,-0.06714288,0.003107631,0.005259055
1.000446,-0.2264385,0.1164448,0.0008137897,0.0155725,0.008507811,-0.08580538,0.007998548,0.003782246
0.9975261,-0.2327171,0.1112262,-0.002120205,0.009264821,0.003372479,-0.09003525,0.006900473,0.001585693
1.001364,-0.2428065,0.1039631,0.001704027,-0.0008597082,-0.003814406,-0.07882293,-0.001231456,0.002684812
1.004236,-0.2466339,0.09990507,0.004562217,-0.004728051,-0.007802951,-0.06982078,-0.003994232,0.001263123
1.000858,-0.2547151,0.1065626,0.001170076,-0.01285529,-0.001082259,-0.05617255,0.001912427,-0.002482963
0.9981231,-0.2712156,0.1132816,-0.00157866,-0.02940579,0.005694081,-0.0273336,0.001277216,-0.007474199
0.9970012,-0.27493,0.1132537,-0.002714424,-0.03317286,0.005717923,-0.002022492,-0.01082,-0.01529352
0.9978083,-0.2664117,0.1133889,-0.001921001,-0.02470805,0.00589929,0.01659242,-0.02219612,-0.009974033
1.000418,-0.2631591,0.1170212,0.0006752756,-0.02150805,0.00957208,0.02191769,-0.01520027,-0.002275695
1.000107,-0.2648157,0.1183684,0.0003507384,-0.02321499,0.01095392,0.01479993,-0.004695748,-0.006904568
0.9999091,-0.259345,0.1138521,0.00014025,-0.01779134,0.006466463,0.01506324,-0.00889373,-0.005783841
1.001365,-0.2534658,0.1083799,0.001583343,-0.01195499,0.001017022,0.01330974,-0.005102012,-0.001601358
1.002334,-0.2580769,0.1071886,0.002540551,-0.01660407,-0.0001572188,0.007376116,0.006089869,-0.004670967
1.003246,-0.2615745,0.1077449,0.003439743,-0.02013428,0.0004105787,0.003944451,0.01007277,-0.006670655
1.001836,-0.2583389,0.1056681,0.002017666,-0.01692526,-0.001659903,-0.001962649,0.01547882,-0.008910678
0.9980611,-0.2576272,0.1039712,-0.001768857,-0.01623355,-0.00335507,0.001218524,0.01738915,-0.01224357
0.9947791,-0.2611405,0.1044508,-0.005062989,-0.01975979,-0.002878142,0.01355711,0.01005585,-0.01206023
0.9952813,-0.2663091,0.104945,-0.004572627,-0.0249338,-0.002390436,0.03212269,0.001520834,-0.01097071
0.9977927,-0.272034,0.1058442,-0.00207268,-0.03065599,-0.001501,0.05599396,0.003305748,-0.009569667
0.9969128,-0.2712252,0.1064865,-0.002963428,-0.02983546,-0.0008716256,0.06645088,0.008845558,-0.009270052
0.9960667,-0.2645904,0.1092865,-0.003819647,-0.02317919,0.001912885,0.07522612,0.005691248,-0.009551867
0.9966065,-0.2611971,0.11512,-0.003289131,-0.01975397,0.007728242,0.09174786,0.008848185,-0.005574284
0.9982913,-0.2557122,0.1158102,-0.001612529,-0.0142266,0.008397827,0.09630765,0.01535506,0.0008501992
1.003008,-0.2462242,0.1110196,0.003097021,-0.004685625,0.003583996,0.09698128,0.01887882,0.006223598
1.003685,-0.2396526,0.108633,0.003767702,0.001949131,0.001171443,0.1007958,0.02639601,0.005136991
1.001959,-0.2374794,0.1096191,0.002036179,0.004194911,0.002128995,0.1034814,0.02446838,-0.002857662
1.002999,-0.2380497,0.1100662,0.003071112,0.003705494,0.002545223,0.1072621,0.02262458,-0.01297849
1.001872,-0.2319307,0.1085502,0.001939854,0.009912641,0.0009960504,0.1051561,0.0264145,-0.02298817
1.000892,-0.2212911,0.1081214,0.0009560438,0.02064657,0.0005319503,0.1023433,0.0233624,-0.02568399
1.001407,-0.2187478,0.1096241,0.001466855,0.02328877,0.001997569,0.09849104,0.02345533,-0.02885285
1.000445,-0.219662,0.1108206,0.0005017356,0.02247653,0.00315513,0.08344927,0.02376045,-0.03785733
0.9997657,-0.2149922,0.1114613,-0.0001817,0.02724948,0.003755358,0.06354381,0.02417534,-0.04182062
1.000025,-0.2089358,0.1111001,7.411253e-05,0.03340864,0.003352053,0.04269305,0.02778718,-0.04711671
1.001115,-0.2081045,0.1126726,0.001160044,0.03434052,0.004881002,0.02523209,0.02380975,-0.04799348
1.001613,-0.2071823,0.1202931,0.001654406,0.0353592,0.01245639,0.0101155,0.01990079,-0.04264465
1.001343,-0.2045343,0.1284854,0.001381421,0.03809796,0.0206017,-0.007096246,0.01969009,-0.04454517
1.001244,-0.2015695,0.1305206,0.001278914,0.04114589,0.02258754,-0.02538295,0.01912551,-0.03590495
1.000409,-0.1956229,0.1311682,0.0004398992,0.04716633,0.02318267,-0.05238112,0.0184687,-0.02089341
0.9998179,-0.1992425,0.1321081,-0.0001550019,0.04360943,0.02406616,-0.07103632,0.01367402,-0.01550416
0.999871,-0.2122755,0.1277944,-0.0001060346,0.03062658,0.01969142,-0.06821303,0.009281366,-0.01131127
0.999956,-0.2214084,0.125731,-2.520334e-05,0.02153002,0.01756166,-0.07009734,0.009041414,-0.01686124
0.9991414,-0.2286369,0.1280111,-0.0008440508,0.01432366,0.01976962,-0.07419265,0.008627507,-0.02521679
0.9983406,-0.231359,0.1259867,-0.001649156,0.01160948,0.0176671,-0.06802293,0.006429495,-0.0241658
0.9995862,-0.2351265,0.1233852,-0.0004078721,0.007835964,0.01498111,-0.06149689,0.004728587,-0.02059287
1.000573,-0.2439394,0.1207614,0.0005751277,-0.0009962906,0.01226622,-0.04439671,0.003233951,-0.01279774
1.001021,-0.2451273,0.1193827,0.001018674,-0.002216148,0.01079005,-0.01651507,0.0007256681,-0.007601572
1.002461,-0.2426895,0.1201428,0.002454569,0.0001782818,0.01144634,0.002787283,0.0009230999,-0.00703076
1.003203,-0.2384838,0.1170565,0.003192622,0.004330037,0.00824996,0.01244437,0.002649821,-0.006443698
1.003085,-0.2307707,0.1179138,0.003070321,0.01197942,0.008991328,0.01838749,0.002097887,-0.008354186
1.004365,-0.2262315,0.1209991,0.004345134,0.01644562,0.01195498,0.02794289,-0.003175647,-0.008991356
1.005769,-0.2212933,0.1211073,0.005744326,0.02130168,0.01193597,0.04034481,-0.009828821,-0.0105239
1.001784,-0.2171864,0.1257312,0.001753977,0.02531721,0.01642746,0.04676075,-0.01271458,-0.01080758
0.9937996,-0.2160494,0.1308353,-0.006237068,0.02635328,0.02139368,0.05392761,-0.03025992,-0.005877981
0.9908899,-0.2163372,0.1320456,-0.009153801,0.02595475,0.02246062,0.06370221,-0.05759459,-0.005020581
0.99826,-0.2169224,0.1268597,-0.001790791,0.02524866,0.01712549,0.06120532,-0.0539326,-0.007437563
1.009759,-0.2134206,0.1214526,0.009701168,0.02861914,0.01156322,0.04409839,-0.03394478,-0.006285846
1.011917,-0.2116812,0.1265293,0.01185203,0.03021652,0.01647889,0.03250183,-0.03225758,-0.002754296
1.003444,-0.2135683,0.1292927,0.003371578,0.0281764,0.01907535,0.04138442,-0.03776922,0.001255319
0.9973326,-0.2174472,0.1247051,-0.002748865,0.02413309,0.01431509,0.05276031,-0.04298307,0.004140563
1.000017,-0.2237019,0.1214754,-7.384622e-05,0.01770273,0.01090699,0.04809507,-0.04276983,0.00398471
1.003496,-0.2236119,0.1185602,0.003395246,0.01760585,0.007807883,0.04246292,-0.03850661,0.00017389
1.003399,-0.2176617,0.1145794,0.003287028,0.02335847,0.003638057,0.03769546,-0.0432798,-0.006254279
1.005633,-0.2136731,0.1086495,0.005509614,0.02713883,-0.002485202,0.02268083,-0.04313273,-0.009714897
1.007234,-0.2158532,0.1050726,0.007098474,0.0247401,-0.00625922,0.01653363,-0.03912459,-0.008351825
1.005902,-0.2218478,0.107531,0.005752554,0.01851642,-0.004000521,0.01854926,-0.03597217,-0.01016002
1.004794,-0.22362,0.1103353,0.004629399,0.01650506,-0.001397611,0.009654981,-0.02634146,-0.01435491
1.001797,-0.2191744,0.1140389,0.001616454,0.02070177,0.002103737,-0.005255375,-0.02860023,-0.01463768
1.002151,-0.2119861,0.1182774,0.001952597,0.02763175,0.006139687,-0.02508589,-0.031953,-0.00970051
1.003801,-0.2116163,0.1152404,0.003583526,0.02773414,0.002900236,-0.04632871,-0.0261246,-0.001862879
1.000866,-0.2170835,0.1092894,0.0006276957,0.02199039,-0.003252774,-0.0613423,-0.02323101,-0.002021245
0.9998071,-0.2199288,0.1077646,-0.0004531643,0.01885961,-0.004978589,-0.06757696,-0.001779689,-0.003528009
0.9974055,-0.2237427,0.1084551,-0.002877897,0.01475162,-0.004487404,-0.06688565,0.02236252,0.009376227
0.9944342,-0.2264663,0.1121236,-0.005873331,0.01172587,-0.001015887,-0.06382766,0.0127115,0.02882569
0.995627,-0.2309042,0.1170463,-0.004705292,0.006978504,0.003712613,-0.04816568,-0.00716241,0.03828938
0.9934266,-0.2408896,0.1183697,-0.006930548,-0.003322746,0.004844827,-0.03152888,-0.02097871,0.02317859
0.9904769,-0.2434797,0.1157178,-0.009905024,-0.006233818,0.002004867,-0.02941458,-0.0336258,0.001184051
0.9928387,-0.2384413,0.1132548,-0.007567276,-0.001520093,-0.0006428729,-0.02756374,-0.0294108,0.005030727
0.9986204,-0.2301508,0.1185106,-0.001808582,0.006443234,0.00443176,-0.02718814,-0.02376061,0.02644269
1.004441,-0.21754,0.1238375,0.003990403,0.01872526,0.009581029,-0.03164768,-0.03569958,0.04696187
1.007434,-0.211966,0.1187058,0.00696231,0.02396941,0.004275306,-0.04104705,-0.03571375,0.04778031
1.0121,-0.2189567,0.1045049,0.01160856,0.01664768,-0.01009623,-0.05508344,-0.02007263,0.02444277
1.017478,-0.2332091,0.08274999,0.0169679,0.00206312,-0.03201774,-0.05626165,0.006884106,-0.006765913
1.014126,-0.2502767,0.0737727,0.01359578,-0.01533712,-0.04115645,-0.04018353,0.0356986,-0.04872681
1.004985,-0.2531285,0.09005672,0.004434961,-0.01852086,-0.02502693,-0.01380594,0.02539291,-0.0696221
0.9978116,-0.2338098,0.1024933,-0.002760351,0.0004681175,-0.01273651,0.004647916,0.001493769,-0.0528351
0.9953367,-0.2197293,0.09795145,-0.005258045,0.01422212,-0.01741513,-0.005300383,-0.006540914,-0.04883111
0.9987963,-0.2185583,0.09368529,-0.001822084,0.01507033,-0.02180822,-0.0279257,-0.008366305,-0.04729274
0.9995324,-0.2137328,0.09034184,-0.001110283,0.0195767,-0.02526808,-0.05003082,0.008505677,-0.02698786
0.9964971,-0.2163162,0.08704173,-0.00417018,0.01667747,-0.02867333,-0.06609523,0.01797552,-0.01443013
0.9981306,-0.2281675,0.0956696,-0.002561464,0.004513504,-0.02013854,-0.05172103,0.00534293,-0.0003287201
0.999926,-0.2343508,0.1057488,-0.0007907061,-0.00197923,-0.01013983,-0.02293903,-0.00643771,0.01984704
1.001898,-0.2391229,0.1038842,0.001156817,-0.007056979,-0.01207211,-0.001832494,-0.02002778,0.03102513
1.003518,-0.2427073,0.101119,0.002753218,-0.01094251,-0.01489235,0.02068388,-0.02590148,0.02814162
1.003229,-0.2428652,0.09818657,0.002439895,-0.01139609,-0.01786712,0.02389334,-0.01520267,0.009009518
1.007767,-0.2437463,0.09323104,0.006953654,-0.01256642,-0.02285238,0.02288327,0.0002927458,-0.002485827
1.008688,-0.2368387,0.09838997,0.007851104,-0.005940797,-0.01771033,0.03851639,0.009058288,0.008560433
1.004087,-0.2234413,0.1054837,0.003226058,0.007182666,-0.0106206,0.03244264,0.009246414,0.01863805
1.002102,-0.2166224,0.1032492,0.001216575,0.01373569,-0.01284623,0.01800489,0.003442504,0.01403829
1.002263,-0.2126165,0.1024046,0.001352519,0.01748344,-0.01366957,0.008778221,-0.01255941,0.01197736
1.004573,-0.2115734,0.102423,0.00363671,0.01827555,-0.01361779,-0.002369688,-0.01980916,0.0172917
1.004745,-0.217492,0.09846843,0.0037827,0.01211238,-0.01752695,0.002182606,-0.009763781,0.01308581
1.006403,-0.2235886,0.09820302,0.005413838,0.005777122,-0.01773524,-0.003056674,-0.002865909,0.005648964
1.009849,-0.22827,0.09899671,0.008832168,0.0008628252,-0.01687281,-0.01148769,0.0008058158,0.001068058
1.007672,-0.2281288,0.09735863,0.006625675,0.00077666,-0.01843067,-0.003150716,0.004058613,-0.003963806
1.005825,-0.2265559,0.09444768,0.004749361,0.002128079,-0.02125005,-0.003253783,0.002452602,-0.003308491
1.003374,-0.2299511,0.09051107,0.002267348,-0.001482679,-0.02508375,0.001092733,-0.001481062,-0.006267809
0.999828,-0.2300662,0.09302976,-0.001311124,-0.001807305,-0.02245077,0.01151792,-0.002021853,-0.00879751
0.9999026,-0.2292842,0.09717187,-0.001270051,-0.001228489,-0.01818294,0.02060121,-0.004730174,-0.001841104
1.000431,-0.228541,0.09567378,-0.0007766307,-0.0006820781,-0.01954401,0.03923658,-0.01409687,0.006677846
1.002789,-0.2220273,0.09627317,0.001546783,0.005641434,-0.01879647,0.04498815,-0.01740716,0.01783236
1.005048,-0.217983,0.09710078,0.003769656,0.009501955,-0.01780984,0.03844759,-0.01994786,0.02073276
1.004074,-0.2189201,0.09524787,0.002759626,0.008387152,-0.0194931,0.03338819,-0.02322913,0.01568524
1.002936,-0.2204081,0.09517128,0.001584434,0.006727218,-0.0193897,0.02027492,-0.01917487,0.01687546
1.002429,-0.2203253,0.09350993,0.00104004,0.006643494,-0.02086096,0.01003763,-0.01709273,0.01657402
1.001947,-0.220418,0.09060041,0.0005191091,0.006389409,-0.02357047,0.0007953986,-0.01351626,0.01296054
1.001977,-0.2224348,0.09210868,0.0005113747,0.004216063,-0.02185244,-0.01767182,-0.00785119,0.007298329
1.005755,-0.223859,0.09648352,0.004249789,0.002639974,-0.01725821,-0.02634253,-0.003076471,0.001565525
1.009956,-0.2273218,0.1005748,0.008412345,-0.0009701456,-0.01293822,-0.02682417,0.002742274,0.001045597
1.008296,-0.2275166,0.1023967,0.006712275,-0.001307686,-0.01087891,-0.02972083,0.003600114,-0.0008083576
1.005419,-0.2247544,0.1003351,0.0037953,0.001316454,-0.01269484,-0.02852516,0.006035754,-0.002094795
1.004654,-0.2274699,0.09898101,0.002988316,-0.001532442,-0.01379575,-0.02545755,0.00739561,0.0001529246
