accx,accy,accz,body_accx,body_accy,body_accz,body_gyrox,body_gyroy,body_gyroz
0.5430674,-0.2210914,-0.0955197,-0.4504552,0.1232203,-0.04201336,-0.5021887,-0.135905,-0.3520685
0.6168114,-0.2061734,-0.1085529,-0.3756501,0.1402079,-0.0532172,-0.5509731,-0.08495251,-0.2615268
0.6767367,-0.2417415,-0.1005596,-0.3146053,0.1066795,-0.04340689,-0.4330414,-0.04689798,-0.2664231
0.7374063,-0.2752472,-0.09269888,-0.2527472,0.07517389,-0.03374311,-0.1766652,-0.1049099,-0.259604
0.7848222,-0.2843928,-0.09798374,-0.2040673,0.06798135,-0.03724073,0.006303211,-0.199425,-0.1770603
0.8479691,-0.3006464,-0.1312246,-0.1395781,0.0536281,-0.06871183,0.0427462,-0.2480461,-0.03438003
0.9801946,-0.2609833,-0.1978258,-0.00593312,0.09513401,-0.1335612,-0.04952677,-0.232135,0.1268039
1.118,-0.2552422,-0.216442,0.1333627,0.1026555,-0.1504419,-0.3114321,-0.1981738,0.1301621
1.224904,-0.320824,-0.1995768,0.2418164,0.03878692,-0.1318542,-0.5145822,-0.1471873,0.08485349
1.289913,-0.401951,-0.1895677,0.3084154,-0.04069695,-0.1201323,-0.5626377,-0.00495719,0.008410443
1.297061,-0.4802475,-0.1391629,0.3171731,-0.1174197,-0.0680223,-0.499249,0.05971265,-0.1685024
1.246756,-0.5010247,-0.1235535,0.2684772,-0.136688,-0.05071427,-0.2694797,-0.04152406,-0.2234386
1.173609,-0.5439037,-0.2241179,0.1969191,-0.1781162,-0.149587,-0.002498537,-0.1080956,-0.09930718
1.148303,-0.5564505,-0.3553281,0.1731672,-0.1892619,-0.2791103,0.05925034,-0.1096925,-0.02894329
1.169079,-0.450066,-0.3963149,0.1954497,-0.08151767,-0.3184089,-0.3746259,-0.09280379,-0.192995
1.202543,-0.3877347,-0.3557202,0.2303629,-0.0178623,-0.2761147,-0.9730123,0.07424924,-0.3396057
1.224387,-0.4487671,-0.3265862,0.2535874,-0.07760363,-0.2452606,-1.013644,0.4131137,-0.2557672
1.208458,-0.5893497,-0.2341776,0.2389594,-0.2169256,-0.1511046,-0.5747779,0.6253079,-0.1665542
1.157088,-0.6705478,-0.08945467,0.1888007,-0.2968869,-0.004603985,-0.12553,0.5353788,-0.05949555
1.078663,-0.5702666,-0.0994927,0.1114907,-0.1953827,-0.01283659,-0.01920234,0.4305175,0.08537204
1.024407,-0.3803223,-0.1508895,0.05824871,-0.004220761,-0.06240542,-0.185466,0.4828602,0.05677206
1.021855,-0.2590723,-0.1059318,0.05661026,0.1182438,-0.0156023,-0.3385956,0.4851891,0.06000109
0.9887127,-0.2567433,-0.1140636,0.02428211,0.1217793,-0.02187572,-0.5858946,0.4862312,0.2280824
0.8681782,-0.2690445,-0.1259227,-0.09553397,0.1106686,-0.0318682,-0.7227771,0.606438,0.2684051
0.7061241,-0.2840845,-0.07500379,-0.2569575,0.09679509,0.02092076,-0.5467619,0.6739587,0.2216846
0.5600561,-0.3541037,-0.04687242,-0.4024691,0.02791185,0.05092036,-0.2978144,0.7303714,0.1718412
0.4819499,-0.3691209,-0.0110797,-0.4800725,0.01399612,0.08857273,0.02491623,0.7795252,0.01260479
0.4912391,-0.2996709,-0.00960247,-0.4703099,0.08451051,0.09189314,0.1795988,0.7162562,-0.06286055
0.535775,-0.1957487,-0.05384972,-0.4253054,0.1894565,0.0494646,-0.003765099,0.6574857,-0.04928055
0.6169847,-0.08772928,-0.06689583,-0.3436103,0.2984519,0.03820596,-0.2092034,0.5358462,-0.06182663
0.7267571,-0.09660208,-0.08288976,-0.2333186,0.2904963,0.02396322,-0.5605048,0.3925184,0.02835958
0.8098212,-0.2127175,-0.06956648,-0.1496905,0.1752272,0.03899745,-0.909962,0.3748523,0.148148
0.8858458,-0.3154927,-0.02676172,-0.07305186,0.07321887,0.08346918,-0.8937432,0.3133635,0.2282932
0.9348956,-0.3980319,-0.003239232,-0.02333724,-0.008635702,0.10861,-0.8331219,0.1743027,0.2903726
0.9844429,-0.4599814,0.02033488,0.02692267,-0.06998086,0.1337482,-0.6709345,0.09288282,0.2950809
1.11514,-0.5621965,0.02394488,0.1583744,-0.1716655,0.1388615,-0.3523208,0.1499917,0.2977082
1.201854,-0.6464362,0.03040866,0.2458745,-0.2554383,0.1467611,-0.1269152,0.2647766,0.3040527
1.183332,-0.5314492,0.04090942,0.2281565,-0.1400349,0.1586238,0.1255855,0.3141671,0.2827457
1.215372,-0.3919552,0.05352333,0.2610027,-0.0001640437,0.1725195,0.1834361,0.3735205,0.2344414
1.261796,-0.3471624,0.07640857,0.3082198,0.04497234,0.1966002,0.03029345,0.4323846,0.185539
1.211315,-0.3446385,0.04718272,0.2585038,0.04780757,0.168477,-0.1649238,0.4556635,0.1964826
1.187048,-0.4291238,-0.001552904,0.2349597,-0.03639863,0.120746,-0.4307144,0.4492573,0.3125898
1.200448,-0.5020692,-0.02536198,0.2490271,-0.1090954,0.09784056,-0.2817821,0.3787198,0.4331624
1.177072,-0.6237605,0.04079606,0.2262541,-0.2305632,0.1647996,0.05662135,0.2904785,0.3054828
1.166339,-0.7227437,0.1412318,0.2160498,-0.3293376,0.2659314,0.01926749,0.05793271,0.0455146
1.07687,-0.5662003,0.0414731,0.1270285,-0.1725872,0.1667595,-0.1243851,-0.3428059,-0.08701119
0.8796919,-0.4157232,-0.1444053,-0.06978622,-0.02189377,-0.01864436,-0.4375724,-0.5365486,-0.1292428
0.7342367,-0.4174173,-0.2468193,-0.2149579,-0.02335765,-0.1206929,-0.7552339,-0.437827,-0.01937942
0.7377031,-0.5123821,-0.2788986,-0.2112771,-0.1180771,-0.1525066,-0.5353575,-0.3692359,0.0928601
0.8918059,-0.6669093,-0.2086774,-0.05701536,-0.2723409,-0.08210689,-0.1612946,-0.3895161,-0.04916346
1.04139,-0.6819724,-0.1661036,0.09268204,-0.2871151,-0.03943046,0.07481612,-0.3818053,-0.2101578
1.038428,-0.5769243,-0.1587536,0.08978997,-0.1817426,-0.03204478,0.280586,-0.4218701,-0.2898855
0.9056636,-0.4506779,-0.1177762,-0.0429469,-0.05512838,0.008907902,0.2668071,-0.4224092,-0.3883042
0.7577851,-0.3374738,-0.1260629,-0.190838,0.05848869,0.0005411735,0.2363566,-0.3027452,-0.4300548
0.6841366,-0.2826314,-0.1153258,-0.2645305,0.1137854,0.01114717,0.2705808,-0.2349913,-0.4344767
0.6548925,-0.2440824,-0.08170991,-0.2938365,0.1528216,0.04458442,0.1358418,-0.226061,-0.4262254
0.6419458,-0.2362105,-0.0316187,-0.3068478,0.1612035,0.09445165,0.1283014,-0.3158063,-0.4090564
0.6476742,-0.2189292,0.03786206,-0.3011709,0.1790063,0.1636632,0.252244,-0.5042449,-0.4039683
0.6715584,-0.179601,-0.02017034,-0.2773104,0.2188565,0.1053144,0.2935488,-0.6114585,-0.3268497
0.7177248,-0.1892212,-0.09098697,-0.2311272,0.2097472,0.03413246,0.3290209,-0.6509796,-0.2033655
0.7876864,-0.1928425,-0.0918476,-0.1610985,0.2066143,0.03285817,0.2448748,-0.6441344,-0.1610888
0.8800166,-0.193029,-0.1262324,-0.06864495,0.2068832,-0.001985961,0.1173782,-0.5892334,-0.1873389
0.954268,-0.2415465,-0.1295959,0.005787575,0.1587788,-0.005850573,0.05138573,-0.4905684,-0.176055
1.014099,-0.3030514,-0.1086141,0.06585435,0.09763767,0.01459244,0.01908271,-0.408602,-0.1156979
1.055295,-0.3439853,-0.09645568,0.107335,0.05701404,0.02617835,0.03189883,-0.4653521,-0.08137008
1.093142,-0.3585519,-0.08380398,0.1455073,0.04270316,0.03822685,-0.04567178,-0.4873339,-0.1115156
1.18474,-0.3663742,-0.1254717,0.237459,0.03508223,-0.004072195,-0.07354601,-0.4187189,-0.2070475
1.257657,-0.3758544,-0.1775067,0.3107456,0.02575069,-0.0567634,-0.002520326,-0.3858744,-0.3004148
1.291324,-0.4002477,-0.2194634,0.3447834,0.001455036,-0.09939588,0.08369335,-0.30798,-0.2729337
1.324562,-0.4865793,-0.342831,0.3783741,-0.08482656,-0.2234513,0.1912988,-0.1553867,-0.06531894
1.332974,-0.5997523,-0.4740437,0.3871035,-0.1979912,-0.3553519,-0.1081681,0.1097639,0.1142518
1.288865,-0.6276787,-0.4168329,0.3432578,-0.2259408,-0.2988136,-0.6523307,0.4114541,-0.03844728
1.15736,-0.601374,-0.2710911,0.211949,-0.1996787,-0.1537131,-0.6944861,0.4371034,-0.238187
1.002376,-0.6404953,-0.1860679,0.05708326,-0.2388494,-0.06928895,-0.2120048,0.3323044,-0.1541094
0.9216128,-0.6748145,-0.09500418,-0.02364007,-0.2732123,0.02122267,0.3661203,0.4162377,-0.07863968
0.9834499,-0.5865357,-0.1006251,0.03816059,-0.1849595,0.01509644,0.519916,0.470055,-0.05126329
1.132413,-0.4165663,-0.160899,0.1870151,-0.01498904,-0.04563782,0.2281024,0.4947644,0.07560191
1.195508,-0.2450867,-0.1160022,0.2499288,0.1565212,-0.001158069,-0.02508296,0.5686098,0.2066423
1.164008,-0.1706477,-0.1074429,0.2181712,0.2310153,0.007026222,-0.2220777,0.3538197,0.3964115
1.004293,-0.2276657,-0.09476099,0.05811801,0.1740664,0.01937325,-0.3418164,0.1626178,0.4858787
0.7310018,-0.3245078,-0.06487366,-0.2155921,0.07729676,0.04896302,-0.2091654,0.3101872,0.3908041
0.5633615,-0.4426221,-0.0924007,-0.3837198,-0.04074829,0.02117231,0.01954109,0.4358037,0.3785307
0.5304993,-0.5181664,-0.03236879,-0.4171179,-0.1162275,0.08097071,0.4006051,0.5643006,0.3138965
0.5249059,-0.4394842,0.001634398,-0.4232712,-0.03748145,0.114766,0.815434,0.748714,0.1259946
0.5235728,-0.2996262,-0.02634183,-0.4251634,0.1024415,0.0866016,0.7618139,0.7665211,0.0166178
0.5751411,-0.1400674,-0.003959037,-0.3741304,0.2620641,0.10881,0.413641,0.5551348,-0.03298553
0.6541243,-0.02546764,-0.01986611,-0.2956388,0.3767171,0.09273667,0.1040723,0.2493675,-0.00487413
0.7085198,-0.1047044,-0.01534204,-0.2416757,0.2975086,0.09709736,-0.1849995,0.08411495,0.1308208
0.818433,-0.2011191,0.01154531,-0.1321253,0.2010831,0.1238193,-0.3115867,0.04873005,0.356078
0.9398676,-0.2928159,0.02314078,-0.01097871,0.1093263,0.1352422,-0.3232294,0.07398511,0.515196
1.026419,-0.4936132,0.05892404,0.07535883,-0.09158382,0.1708399,-0.2215978,0.180809,0.4408179
1.140857,-0.5734211,0.06088895,0.1896504,-0.1715535,0.1725999,0.05015531,0.2831315,0.3565465
1.232555,-0.5630313,0.07778491,0.2812583,-0.1613653,0.1892649,0.216824,0.2875812,0.3150424
1.276965,-0.5681989,0.1012312,0.3256192,-0.1667625,0.2124472,0.3156261,0.2576595,0.2182004
1.280863,-0.5009582,0.08648925,0.32949,-0.0997689,0.1974011,0.311947,0.2557894,0.2194837
1.243569,-0.4988889,0.06185307,0.292174,-0.09795518,0.1724141,0.03906613,0.04122633,0.2384024
1.180025,-0.633395,-0.004477291,0.2285973,-0.2327178,0.1056816,-0.09352225,-0.3480116,0.2182142
1.077052,-0.8247806,-0.04025249,0.1255679,-0.4243502,0.06945038,0.2466371,-0.4791278,0.2436373
0.9521828,-0.8763199,-0.04341249,0.0006125538,-0.4761102,0.06578089,0.8034432,-0.4469993,0.1310623
0.8425375,-0.708257,-0.1021243,-0.1091499,-0.3082224,0.006508042,0.9630822,-0.6656185,-0.1068385
0.808328,-0.611463,-0.174325,-0.1435027,-0.2115412,-0.0663015,0.703468,-0.9857947,-0.2443122
0.8607248,-0.6292507,-0.2072235,-0.09126755,-0.2293692,-0.09984994,0.6363125,-0.9619577,-0.2799976
0.9234049,-0.6139165,-0.1697608,-0.02876031,-0.213996,-0.06307009,0.7642776,-0.7412117,-0.3493484
0.9683795,-0.5423472,-0.1092719,0.01603478,-0.1423035,-0.003289033,0.8403442,-0.630938,-0.4891453
0.9873006,-0.4178565,-0.0610843,0.03477122,-0.01760312,0.04417107,0.9064334,-0.5342068,-0.553797
0.9123541,-0.3553381,-0.003317993,-0.0403647,0.04520853,0.1011927,1.072089,-0.4669552,-0.6124711
0.7632956,-0.3467344,0.0042388,-0.1896154,0.05418241,0.1079874,1.252021,-0.4153445,-0.774972
0.6650582,-0.2790162,-0.008810348,-0.2880408,0.1223384,0.09415715,1.143952,-0.3571469,-0.8152136
0.6184279,-0.1733681,-0.01151856,-0.3348431,0.2284806,0.09064718,0.9278578,-0.4507553,-0.6869342
0.5825164,-0.1286673,-0.05864524,-0.3708956,0.2737174,0.04269726,0.772691,-0.5560151,-0.548203
0.5721997,-0.1523641,-0.09346745,-0.3813063,0.2505821,0.007030874,0.5734339,-0.5555514,-0.5164772
0.6057842,-0.1761878,-0.09043243,-0.3477528,0.2273288,0.009203035,0.5483689,-0.588218,-0.5695508
0.7529143,-0.2464489,-0.09569185,-0.2005776,0.1576327,0.00306517,0.6261931,-0.6215599,-0.5443081
0.921761,-0.3099979,-0.1084059,-0.03160193,0.0946324,-0.0105396,0.65935,-0.5478694,-0.4744953
0.9602156,-0.3012143,-0.1078549,0.007065765,0.1039413,-0.0108881,0.7764952,-0.4769141,-0.3811404
0.9694576,-0.2977027,-0.1019941,0.01659986,0.1079492,-0.005931971,0.7672857,-0.4744946,-0.2909274
1.024606,-0.2761255,-0.1167333,0.0721119,0.1299893,-0.02157778,0.4821427,-0.4150047,-0.308906
1.035042,-0.2563119,-0.1208298,0.08297495,0.1502269,-0.02657934,0.1260582,-0.3555214,-0.3124857
1.027483,-0.2754292,-0.1168922,0.07589727,0.1314897,-0.02354177,-0.06556004,-0.3481619,-0.285061
1.127594,-0.3101748,-0.1188805,0.1765337,0.09707532,-0.02642165,-0.05328973,-0.3519368,-0.2761789
1.260793,-0.3661904,-0.1005577,0.3102893,0.04133915,-0.008978973,-0.04664664,-0.3823458,-0.2711719
1.324542,-0.4060339,-0.09120136,0.3746112,0.001722717,-0.0004889765,0.002880578,-0.3334712,-0.3771926
1.34241,-0.4178488,-0.08082105,0.3930485,-0.009915723,0.009040527,0.1656176,-0.2911223,-0.4587606
1.228669,-0.3966224,-0.08197828,0.2798526,0.0114397,0.007049051,0.1875558,-0.3633598,-0.2967755
1.044191,-0.3844738,-0.1562137,0.09587986,0.02367253,-0.06800286,0.1046046,-0.3760811,-0.06305171
0.9970161,-0.4528354,-0.2441662,0.0491627,-0.04464671,-0.1567509,0.000615805,-0.1425514,0.1045629
1.041968,-0.5354811,-0.2551188,0.09452025,-0.1272881,-0.1684722,-0.2723624,0.4733446,0.1919157
1.090337,-0.5588924,-0.1801249,0.1432431,-0.1507259,-0.09421268,-0.581593,0.933475,-0.20331
1.138397,-0.5515308,-0.04326882,0.1915999,-0.143413,0.04194886,-0.5629493,0.3829914,-0.7817775
1.124893,-0.5383008,0.1273724,0.1783317,-0.1302446,0.211935,-0.1225106,-0.6431137,-0.597008
1.11724,-0.430494,0.143235,0.1708477,-0.02250493,0.2271751,0.2641824,-0.8863384,-0.2192641
1.278208,-0.2884231,-0.1315894,0.3319123,0.1194971,-0.04824814,0.224165,-0.2016691,-0.01926961
1.395479,-0.3307021,-0.3497315,0.449199,0.07714622,-0.2669689,0.1357167,0.5085203,0.5390475
1.17281,-0.4229936,-0.2366023,0.2264519,-0.01522326,-0.1543921,0.3279234,0.4628019,0.6007245
0.8803111,-0.425394,-0.07457659,-0.06622483,-0.01770902,0.007115168,0.5897381,0.1976563,0.213851
0.813351,-0.4520496,-0.05064424,-0.1334612,-0.04445609,0.03056657,0.7875187,0.3157421,0.2078212
0.7866814,-0.3984289,-0.03887946,-0.160494,0.00906884,0.04188642,0.8466967,0.270948,0.05410774
0.7166653,-0.2192438,-0.06996597,-0.2309452,0.1881542,0.01038812,0.5900426,0.2798469,0.007569278
0.7001099,-0.05558889,-0.1218482,-0.247991,0.3517001,-0.04187499,0.216951,0.4933615,0.1828336
0.6244136,0.01672603,-0.06100851,-0.3242155,0.4238845,0.01861368,-0.05132926,0.3558957,0.1344405
0.5213419,-0.06832644,-0.01320019,-0.4278336,0.3386634,0.06609969,-0.1868012,0.3168587,0.2176219
0.4931988,-0.1711195,0.01367654,-0.4565193,0.2356484,0.09267959,-0.1235757,0.3295941,0.2389633
0.4419007,-0.2166739,0.09461768,-0.5083326,0.189808,0.1733441,0.005460688,0.1556024,0.1981158
0.4750566,-0.2779758,0.1246125,-0.4756405,0.1281504,0.2030747,0.1985238,0.1692489,0.2325145
0.6146542,-0.2534843,0.1271287,-0.3364337,0.1522138,0.2053299,0.3200041,0.1208801,0.06922344
0.7511094,-0.2373416,0.1104522,-0.2002801,0.1678546,0.1883859,0.1601757,0.06809403,0.00461014
0.9256892,-0.2832546,0.09426679,-0.02590482,0.1213651,0.1719176,0.1152039,0.02298623,0.02160565
1.061311,-0.2884318,0.1304377,0.1096092,0.1155362,0.2077823,0.3065451,-0.2375934,0.09452057
1.256286,-0.3601051,0.1436062,0.304563,0.04313746,0.220614,0.5392055,-0.4468996,0.3229334
1.519413,-0.4436458,0.1219734,0.5677389,-0.04119882,0.1986063,0.6726669,-0.5646454,0.4565378
1.601095,-0.5176542,0.02920367,0.6495134,-0.1160656,0.1054171,0.48617,-0.5298409,0.5601753
1.577702,-0.6954732,-0.06646163,0.6262216,-0.2947941,0.009284814,0.4194858,-0.3849174,0.5577445
1.467141,-0.8599503,-0.02531013,0.5157389,-0.4602146,0.04992277,0.9135587,-0.3451839,0.3688679
1.237778,-0.8750792,0.003045678,0.2864047,-0.4762973,0.07772089,1.338854,-0.5100356,0.1190357
1.025627,-0.6836982,-0.1019568,0.07421631,-0.2858552,-0.02788106,1.089288,-0.8345527,-0.05004968
0.8951102,-0.4680303,-0.231554,-0.05640863,-0.07109171,-0.158115,0.6361794,-0.8698974,-0.04352225
0.9327318,-0.4635951,-0.2830589,-0.01896325,-0.0675159,-0.2102851,0.3974309,-0.7309447,-0.161031
0.9857231,-0.5297605,-0.241193,0.03379024,-0.1344913,-0.1691005,0.2239472,-0.7217458,-0.3503517
0.9196402,-0.5261326,-0.1641385,-0.03258662,-0.1316203,-0.09273156,0.3789328,-0.6514491,-0.4443937
0.8466748,-0.5163186,-0.125009,-0.1058965,-0.1225051,-0.05428267,0.7064351,-0.6673555,-0.5409795
0.707817,-0.5118886,-0.1199457,-0.2451407,-0.1187119,-0.04988952,0.8592249,-0.726406,-0.5190204
0.5941154,-0.4380899,-0.1312856,-0.3592571,-0.04548482,-0.0618849,1.170866,-0.67839,-0.5298958
0.5872932,-0.2815107,-0.1608993,-0.3665047,0.1105879,-0.09213549,1.239718,-0.6687396,-0.5993224
0.5494745,-0.1290656,-0.182054,-0.4047391,0.2625864,-0.1139042,0.8512397,-0.6311231,-0.553414
0.5605195,-0.06702326,-0.2008708,-0.3940798,0.3242295,-0.1333068,0.5189354,-0.6346071,-0.5370416
0.5913465,-0.1087994,-0.1889936,-0.3635897,0.2820855,-0.1219815,0.2753916,-0.7035701,-0.5232242
0.6112129,-0.207956,-0.1505545,-0.3439943,0.1825766,-0.08405513,0.3243986,-0.6854936,-0.5312549
0.7588827,-0.3461495,-0.1333268,-0.1965162,0.04403462,-0.06729711,0.5538649,-0.5995811,-0.6120591
0.8746568,-0.4093658,-0.09936508,-0.08084652,-0.01953158,-0.03375988,0.747676,-0.4720448,-0.617375
0.8806678,-0.3024681,-0.08465206,-0.07485045,0.08701354,-0.01942577,1.05963,-0.4739463,-0.5719574
0.9034119,-0.1862668,-0.1120709,-0.05203385,0.2028578,-0.04717836,1.100296,-0.6431142,-0.4571035
0.9843156,-0.1261285,-0.1543393,0.02902629,0.2626289,-0.0897357,0.920253,-0.7221913,-0.2835819
1.13547,-0.1028053,-0.2057502,0.180414,0.2855649,-0.1413895,0.685095,-0.6184267,-0.2499947
1.227019,-0.1744927,-0.2091422,0.2722621,0.2134595,-0.1449752,0.2007127,-0.3463231,-0.3811489
1.223574,-0.2637558,-0.1785641,0.2691642,0.1237391,-0.114538,-0.1094545,-0.05472386,-0.5423843
1.208892,-0.324655,-0.1373597,0.2548614,0.06233838,-0.07341853,-0.08831271,0.03925829,-0.6025632
1.185705,-0.356732,-0.1083249,0.2320688,0.02971503,-0.04441177,0.02459159,-0.03709185,-0.5421385
1.225963,-0.3403912,-0.1272411,0.27272,0.04546671,-0.06329967,0.1731493,-0.1292397,-0.4201455
1.355999,-0.3573367,-0.1835445,0.4031329,0.02789188,-0.1195193,0.2791467,-0.1343555,-0.2280478
1.498544,-0.3860454,-0.2953762,0.5460223,-0.001483308,-0.2312109,0.1889688,0.09328862,-0.0646817
1.561278,-0.38597,-0.4398186,0.6090441,-0.002107803,-0.3754514,-0.2475154,0.6412214,-0.1044243
1.546939,-0.4386238,-0.5617082,0.5949122,-0.05549025,-0.4970668,-0.6205659,1.006877,-0.2271652
1.385509,-0.5790324,-0.4907779,0.4335825,-0.1966498,-0.4257749,-0.3798691,0.8536838,-0.232386
0.9901896,-0.7782488,-0.251695,0.03824073,-0.3966285,-0.1862288,0.2549099,0.6871361,-0.13659
0.7915938,-0.8482436,-0.172205,-0.1605027,-0.467379,-0.1061668,0.7554059,0.4678132,-0.01321881
0.9393838,-0.632899,-0.1609135,-0.01297659,-0.2527624,-0.09419505,0.8821321,0.1154774,-0.0110096
1.11273,-0.2927981,-0.1345832,0.16,0.08665427,-0.06708056,0.6200577,0.357061,-0.05249368
1.304464,-0.03478427,-0.1956835,0.3512651,0.3440303,-0.1272977,0.09582328,0.7428664,0.1004276
1.268228,0.01111339,-0.169183,0.3144556,0.3893257,-0.09981954,-0.4321099,0.5476089,0.2951317
0.9942941,-0.1378673,-0.1444356,0.03983937,0.239761,-0.07400442,-0.5594433,0.5185267,0.4289461
0.796817,-0.2548611,-0.1486533,-0.1584272,0.1221866,-0.07706903,-0.2425707,0.6663784,0.4790433
0.5159086,-0.280484,-0.05813489,-0.4402192,0.09597774,0.01468195,-0.03121294,0.5498112,0.420025
0.368742,-0.2855261,-0.03986022,-0.5883391,0.09033999,0.03426099,0.1553205,0.6220076,0.461466
0.4281692,-0.2505261,-0.04077283,-0.529903,0.1247317,0.0347151,0.3752228,0.7423472,0.535288
0.3911087,-0.1998653,-0.02421111,-0.5679587,0.1747682,0.05269582,0.1914468,0.8247524,0.5514328
0.4650194,-0.1498695,-0.04144708,-0.4950161,0.2241189,0.03692133,0.03968693,0.9824498,0.5105758
0.5820253,-0.1351579,-0.009085683,-0.378924,0.2381576,0.07077717,-0.1385017,0.8085424,0.3649126
0.6773245,-0.185742,0.007196176,-0.2844634,0.1868657,0.08857696,-0.4511231,0.5154819,0.3547058
0.8163407,-0.2787812,0.0297661,-0.1461968,0.09307769,0.1126784,-0.3785848,0.1856574,0.437995
0.8397286,-0.4545125,0.08899119,-0.1234622,-0.08344475,0.1734379,-0.2489705,-0.2172554,0.4570748
0.98487,-0.5864376,0.1190737,0.0211237,-0.2161979,0.2050459,0.1481742,-0.2757451,0.4827884
1.252784,-0.5850153,0.1120225,0.288576,-0.2156293,0.1994984,0.7574875,-0.1903616,0.4395092
1.439365,-0.6056732,0.07901897,0.4747743,-0.2371517,0.1679643,0.8984989,-0.03923569,0.2963866
1.458389,-0.5730752,0.08543048,0.493473,-0.2054144,0.1757997,0.8033959,0.1613057,-0.01833809
1.244394,-0.4054576,0.06958631,0.2791834,-0.03864163,0.1613244,0.3808863,-0.08745669,-0.2485127
1.164581,-0.2889535,-0.01907378,0.1990865,0.07704074,0.07397025,-0.1011687,-0.4627129,0.045466
1.186008,-0.3218889,-0.08999554,0.2202254,0.04330748,0.004286882,-0.08303191,-0.4624584,0.4468315
1.074033,-0.4555665,-0.0898867,0.1079501,-0.09114529,0.005565435,0.08834932,-0.4887601,0.4792005
0.9680274,-0.5803788,-0.06654949,0.001625116,-0.2167076,0.03000461,0.1237863,-0.6546792,0.244459
0.8899867,-0.6356972,-0.1432421,-0.07675473,-0.2727432,-0.04565227,0.07955799,-0.6133224,-0.05871059
0.9698847,-0.629421,-0.2287417,0.002787597,-0.2671402,-0.1301794,0.1069668,-0.5394247,-0.2054375
1.090202,-0.5466554,-0.2477011,0.1227349,-0.1849919,-0.1482234,0.07903471,-0.5502834,-0.2482692
1.105725,-0.4107367,-0.2368347,0.1378737,-0.04962625,-0.1364905,0.05218134,-0.4965539,-0.2454424
1.129129,-0.3283331,-0.1436584,0.1608758,0.03229152,-0.0424887,0.1877922,-0.5013197,-0.09446233
1.021079,-0.3681565,-0.1080913,0.05239987,-0.007952464,-0.006132111,0.3110302,-0.4960662,-0.07871062
0.8572621,-0.3907582,-0.1223891,-0.1118675,-0.03091313,-0.01967386,0.5082606,-0.4065507,-0.3282897
0.7068846,-0.3412444,-0.09430748,-0.262715,0.01830034,0.009131372,0.6190028,-0.40286,-0.5782285
0.5510531,-0.3115443,-0.1188292,-0.4190238,0.04775528,-0.01469851,0.6501114,-0.456395,-0.6037842
0.533738,-0.2356558,-0.1098286,-0.436805,0.1234486,-0.005037065,0.7650816,-0.5430796,-0.3762104
0.5506346,-0.1852448,-0.09880618,-0.4203418,0.1737067,0.006615901,0.6936753,-0.6194169,-0.2265312
0.6000292,-0.2193946,-0.122976,-0.3713274,0.1394366,-0.01695305,0.6685229,-0.580768,-0.2260449
0.7402889,-0.225831,-0.1041735,-0.231378,0.132903,0.002421297,0.7681465,-0.5626503,-0.1933956
0.8718698,-0.2686423,-0.1252851,-0.1000267,0.09000896,-0.01814639,0.7949888,-0.6368228,-0.13816
0.9404938,-0.288922,-0.1459054,-0.03154768,0.06965461,-0.03824972,0.822596,-0.6460552,-0.03141402
0.9966988,-0.2404269,-0.1733746,0.02459494,0.118078,-0.06522674,0.6788813,-0.472764,-0.01906409
1.148123,-0.235345,-0.215484,0.176033,0.1230862,-0.1068655,0.405711,-0.1754404,-0.06581572
1.203351,-0.2032004,-0.1668957,0.2313413,0.1551493,-0.05782383,0.1451171,-0.003414001,-0.04205599
1.144898,-0.1867401,-0.1119416,0.1730193,0.1715138,-0.002430068,-0.111637,-0.03117605,-0.1188501
1.191084,-0.2490384,-0.07117146,0.2193747,0.1090988,0.03876746,-0.2297428,-0.01123703,-0.2213374
1.212875,-0.3028224,-0.01883557,0.2413571,0.05517241,0.09151722,-0.2154964,0.04600953,-0.3067683
1.186223,-0.3726336,-0.01854713,0.214907,-0.01480886,0.09220281,-0.07593779,-0.003113048,-0.3279392
1.131474,-0.4981524,-0.0989769,0.1603566,-0.1405235,0.01214968,0.2090861,0.009684172,-0.1760291
1.032309,-0.6115096,-0.2487434,0.06137808,-0.2540957,-0.1372619,0.3551434,0.1092655,-0.1071952
1.047507,-0.5617227,-0.3327261,0.07674317,-0.2045319,-0.2209077,0.1281465,0.1713556,-0.2149755
1.084757,-0.4730687,-0.2859696,0.1141397,-0.1160971,-0.1738237,-0.07828274,0.1989092,-0.2916557
1.07252,-0.532844,-0.2262767,0.1020234,-0.1760789,-0.1138039,0.08662327,0.216896,-0.168529
1.160287,-0.5169425,-0.17702,0.1898814,-0.1603632,-0.06421417,0.2170862,0.3472684,-0.03226165
1.313818,-0.4096815,-0.0938161,0.3434677,-0.05326067,0.01933188,0.2207835,0.5957251,-0.08228434
1.391465,-0.3290801,-0.06731911,0.4211212,0.02721289,0.04617987,0.294348,0.8113162,-0.02724578
1.30977,-0.2408994,-0.1042673,0.3393709,0.1152955,0.009589039,0.1234209,0.8064889,0.1879812
1.088049,-0.267153,-0.09230799,0.1175194,0.08896869,0.02190919,-0.08650533,0.5172603,0.3913607
0.8207526,-0.3002239,-0.07878141,-0.1499883,0.05584318,0.0357978,0.09952709,0.2960087,0.494316
0.6421188,-0.2697297,-0.08153661,-0.3289062,0.08629625,0.03340333,0.3071396,0.2837831,0.4306329
0.6362125,-0.2973656,-0.07368258,-0.3351533,0.05862808,0.04161415,0.3199761,0.3319842,0.4243552
0.6361692,-0.2542454,-0.08680589,-0.3355728,0.1017205,0.02884111,0.3068728,0.4870551,0.4174075
0.5691639,-0.1524963,-0.07113217,-0.4029684,0.203441,0.04485624,0.2654787,0.6844664,0.3124153
0.5888739,-0.06119227,-0.04469541,-0.3836417,0.2947076,0.0716231,0.2056671,0.7709091,0.3710375
0.6583618,-0.01545622,-0.02522418,-0.3145103,0.3403858,0.09141001,0.009065339,0.7276136,0.4544598
0.7171009,-0.09243109,0.02932046,-0.2560841,0.2633187,0.1462517,-0.3641705,0.6863585,0.4866263
0.7490189,-0.1628689,0.09342824,-0.2244226,0.1927425,0.210632,-0.5671564,0.5217435,0.565954
0.744403,-0.2736153,0.1469654,-0.2292293,0.0818035,0.264409,-0.4953096,0.1797862,0.527778
0.8404595,-0.4515589,0.1747746,-0.1332908,-0.09638874,0.2924151,-0.3138762,0.1530935,0.3969297
0.9749759,-0.5338951,0.1997507,0.001183763,-0.1790246,0.3175334,-0.005639415,0.2351552,0.1758187
1.041005,-0.5313153,0.1876761,0.06724607,-0.1767852,0.3055347,0.2895779,0.07645412,-0.06469836
1.128248,-0.426537,0.1226201,0.1545884,-0.072376,0.2404771,0.3185556,0.003250428,-0.07093646
1.199154,-0.3224625,0.1069066,0.2256515,0.03130952,0.2246761,0.206125,-0.1287686,0.05842879
1.186906,-0.3791221,0.07338374,0.2136028,-0.02575446,0.1909743,0.06793325,-0.3551098,0.2078832
1.166065,-0.6185466,0.03501285,0.1929906,-0.2655942,0.1523294,-0.04665788,-0.3967926,0.3457401
1.196219,-0.9446606,0.1342422,0.2233875,-0.5921233,0.2511878,0.1922534,-0.2961695,0.342471
1.168974,-0.9825079,0.2128706,0.1963873,-0.6303635,0.3293449,0.5212501,-0.2119162,0.1272871
1.021713,-0.7562077,0.1066945,0.04936385,-0.4044066,0.2225924,0.4187077,-0.4569956,-0.2566098
0.866168,-0.562533,-0.05936865,-0.1059568,-0.2110031,0.05584404,0.268816,-0.7488838,-0.4473478
0.8179052,-0.3712643,-0.1514118,-0.1540081,-0.01992187,-0.0369905,0.09425899,-0.6709124,-0.32723
0.9326603,-0.3603606,-0.2043777,-0.0390486,-0.009120199,-0.0908453,-0.2692495,-0.6451167,-0.2703401
1.044512,-0.4938443,-0.2138574,0.07300413,-0.1426238,-0.1012992,-0.1262397,-0.6423725,-0.2535971
1.053404,-0.5044891,-0.144865,0.08209433,-0.1532079,-0.03335314,0.3164593,-0.4201625,-0.1723156
1.008206,-0.5569488,-0.08682672,0.03708639,-0.2055256,0.02357766,0.5746409,-0.3355016,-0.2940205
0.8883259,-0.583736,-0.06479703,-0.08261248,-0.2320862,0.04444683,0.9248054,-0.3174301,-0.5163926
0.8351389,-0.4892464,-0.07325174,-0.135626,-0.1372817,0.03478426,1.002235,-0.2400159,-0.5784735
0.806154,-0.4182911,-0.09470913,-0.1644401,-0.06592188,0.01207663,0.8905627,-0.3135344,-0.6061433
0.7111106,-0.2357242,-0.09015741,-0.2593077,0.1171363,0.01534095,0.920966,-0.4263712,-0.6373735
0.6822997,-0.07854572,-0.109501,-0.2879277,0.2748835,-0.005321697,0.7281747,-0.5606875,-0.6252446
0.6558441,-0.1476698,-0.1108243,-0.3141652,0.2063898,-0.007989995,0.6681822,-0.6782495,-0.6075539
0.6613807,-0.2196168,-0.08462599,-0.3083705,0.1351176,0.01684294,0.8284958,-0.6035809,-0.5169471
0.7375939,-0.2353,-0.08818443,-0.2318476,0.1201394,0.01190378,0.8896317,-0.5290065,-0.4220652
0.8176637,-0.2313839,-0.09660503,-0.1514074,0.1247796,0.002091501,0.9809014,-0.413819,-0.3674618
0.8795514,-0.1719728,-0.1150852,-0.08908412,0.1849237,-0.01778694,0.9210538,-0.2273148,-0.2708237
0.8114254,-0.1097403,-0.0959104,-0.1567083,0.247887,-1.259233e-05,0.781005,-0.3005349,-0.1868316
0.7858403,-0.09728611,-0.0660901,-0.1817243,0.2610572,0.02840935,0.6053505,-0.4572302,-0.06053269
0.9240651,-0.1466702,-0.09327826,-0.04286241,0.2123609,-0.0001718759,0.3933449,-0.4515027,0.09326467
1.07856,-0.2447838,-0.09073523,0.1123361,0.1148956,0.0009862434,0.4711163,-0.269644,0.06484963
1.232617,-0.353576,-0.03981605,0.2671537,0.006705275,0.05053136,0.5481578,0.06917533,-0.1419631
1.321439,-0.3556205,0.05872893,0.356777,0.005214146,0.1477141,0.5084981,0.1136127,-0.3504415
1.362788,-0.2582671,0.1475406,0.3989499,0.1030728,0.235173,0.4847767,-0.2103047,-0.366118
1.386629,-0.2324361,0.09974135,0.4236125,0.12936,0.1860244,0.3063379,-0.4748577,-0.191071
1.375599,-0.3132848,-0.01104527,0.41338,0.048916,0.0738857,0.1871269,-0.529319,-0.03876055
1.37839,-0.4444256,-0.1428689,0.4169217,-0.08187251,-0.05929494,0.1721046,-0.2702613,-0.01039403
1.263595,-0.5224298,-0.2818348,0.3028108,-0.1595734,-0.1996188,0.0401842,0.02887684,-0.1202105
1.086923,-0.5164149,-0.2843064,0.1267429,-0.1532957,-0.20344,-0.05709154,0.05001458,-0.2289071
1.012897,-0.5585471,-0.2383589,0.05323296,-0.1951959,-0.1588211,0.07910179,0.08054718,-0.1509411
0.9678085,-0.6276437,-0.2445718,0.008572901,-0.26408,-0.1663303,0.3524875,0.1185705,-0.007257169
1.003444,-0.5975932,-0.1796728,0.04455122,-0.2338245,-0.1026858,0.5634193,0.02299744,0.1352463
1.152605,-0.4434649,-0.1438419,0.1939727,-0.07948704,-0.06806048,0.648241,0.05530638,0.2440884
1.27382,-0.2205814,-0.2311015,0.3153638,0.1436155,-0.1564716,0.485637,0.3626898,0.1463925
1.270799,-0.1061531,-0.2707942,0.3124288,0.2582702,-0.1972563,0.08738783,0.7269586,0.08881108
1.079535,-0.145661,-0.2185333,0.1211512,0.2189861,-0.146021,-0.297683,0.76085,0.2535176
0.7793668,-0.1839695,-0.1457679,-0.1791298,0.1808871,-0.07420866,-0.5127939,0.6513966,0.3428799
0.5974988,-0.2386823,-0.08545643,-0.3612027,0.1263597,-0.01477465,-0.4361454,0.7452345,0.3047798
0.5688006,-0.3348336,-0.02480911,-0.3901778,0.0303635,0.04506997,-0.1647125,0.7418442,0.2442309
0.5688152,-0.3686814,0.01525035,-0.3904878,-0.003362042,0.08439766,0.151918,0.6885852,0.1878083
0.582741,-0.3735078,0.003778173,-0.3769104,-0.008098201,0.07225861,0.4223768,0.7702589,0.1488165
0.6105277,-0.3440503,0.02189336,-0.3494734,0.02141953,0.08976504,0.4390808,0.7326822,0.06417751
0.665078,-0.2349534,0.03905105,-0.2952546,0.1305475,0.1063652,0.2384569,0.6498869,0.01682615
0.785927,-0.1488161,0.03511997,-0.1747033,0.2166845,0.1019206,-0.1514006,0.53366,0.1077773
0.8978488,-0.150491,0.06539066,-0.06303519,0.214972,0.1317146,-0.4970501,0.3650479,0.3184514
0.9661301,-0.2394931,0.04530653,0.005040246,0.1258877,0.1111834,-0.4446163,0.3352709,0.5894593
1.042627,-0.3651095,0.02266095,0.08137766,0.0001400809,0.08811333,-0.3022452,0.30016,0.7252981
1.118251,-0.4559775,0.05968364,0.156885,-0.09090754,0.1247283,-0.1927472,0.2691891,0.6640377
1.172372,-0.4856538,0.1055439,0.2109205,-0.1208062,0.1701914,-0.03317354,0.282052,0.5896111
1.208741,-0.4485752,0.1654134,0.2472264,-0.08398416,0.229667,0.01863268,0.2298519,0.4803721
1.208687,-0.4130513,0.1626188,0.2471175,-0.04874312,0.2264726,0.001441042,0.185092,0.254991
1.16402,-0.4121516,0.1002799,0.2023917,-0.04814615,0.1637184,-0.06140655,-0.003614945,0.1792279
1.089295,-0.4844641,-0.004225687,0.1275932,-0.1207758,0.05877502,-0.05853103,-0.2681185,0.3485937
1.009938,-0.6360998,-0.1499271,0.04814036,-0.2727359,-0.08738911,0.09420817,-0.3309354,0.5068256
0.974319,-0.674027,-0.1329433,0.01240087,-0.3109835,-0.07088994,0.3417435,-0.3976015,0.4759805
0.9428512,-0.5922091,-0.08223441,-0.01921177,-0.2294675,-0.02068191,0.501297,-0.6422668,0.182691
0.9002911,-0.5520501,-0.1855238,-0.06193881,-0.1895791,-0.1244826,0.249776,-0.8303388,-0.09297466
0.9336077,-0.5190861,-0.2050548,-0.0288076,-0.1568451,-0.144529,-0.05561631,-0.6805519,-0.03329963
0.9791857,-0.4591838,-0.2084805,0.01657029,-0.09712532,-0.1484662,-0.1280212,-0.3885276,-0.0104693
1.000663,-0.427387,-0.2405154,0.03783523,-0.06546007,-0.181,-0.2210908,-0.3506782,-0.1878514
1.014278,-0.3853798,-0.1195889,0.05122426,-0.02353259,-0.06055153,-0.1104163,-0.4723702,-0.1349326
0.9265463,-0.2951327,-0.06124462,-0.03674497,0.06668507,-0.002659076,0.0904038,-0.5342949,-0.07147424
0.8171678,-0.2760481,-0.0860193,-0.1463718,0.08578591,-0.02785743,-0.0354559,-0.4900172,-0.3125489
0.7533573,-0.291891,-0.0715538,-0.2104352,0.06999848,-0.01378727,-0.1422109,-0.3416374,-0.520607
0.6538701,-0.2181117,-0.09729885,-0.3101695,0.1438649,-0.03989922,-0.107218,-0.1496432,-0.6574102
0.5655933,-0.1935776,-0.08710681,-0.398674,0.1685097,-0.03004529,-0.1579658,-0.0042893,-0.6761933
0.5558286,-0.2141899,-0.0744997,-0.4086299,0.148022,-0.0177471,-0.09206165,-0.05647867,-0.4868481
0.6130133,-0.2082744,-0.08087743,-0.3515822,0.1540667,-0.02440449,0.03267765,-0.126287,-0.3642706
0.6884279,-0.2455151,-0.06739936,-0.276235,0.1169513,-0.01117712,0.06046569,-0.01052089,-0.2652931
0.7642995,-0.2413531,-0.08612009,-0.2003497,0.1212279,-0.03012,0.190993,-0.01770271,-0.1659096
0.8519332,-0.2245642,-0.07582914,-0.1126152,0.1381144,-0.02002301,0.2721014,-0.1475645,-0.09879562
0.9547902,-0.2454199,-0.07833996,-0.009568917,0.1173339,-0.02269994,0.1815041,-0.1990662,-0.02838293
1.074451,-0.2293921,-0.1063699,0.1103659,0.1334093,-0.05086841,0.01156085,-0.1961188,-0.06669256
1.136924,-0.2374621,-0.1091897,0.1731876,0.1253546,-0.05379872,-0.2949373,-0.1376179,-0.03655083
1.175804,-0.2606024,-0.1201365,0.2124793,0.1021932,-0.06482734,-0.4452747,-0.1896164,0.07126824
1.265738,-0.2769643,-0.1095831,0.3028705,0.08577059,-0.05432586,-0.3684322,-0.2759598,0.1406955
1.364088,-0.2955429,-0.118916,0.4017062,0.06708999,-0.0636798,-0.4169799,-0.2827303,0.1850423
1.461702,-0.2710724,-0.136237,0.4998125,0.09141617,-0.08098984,-0.492421,-0.2945759,0.1330798
1.425212,-0.2881429,-0.1470554,0.4637964,0.07415842,-0.09176401,-0.4975496,-0.2040611,0.1541192
1.242107,-0.3961363,-0.2368708,0.2811241,-0.03406489,-0.1814994,-0.5392261,-0.1072977,0.2377255
1.140498,-0.4891662,-0.3251481,0.1798912,-0.1273643,-0.2696562,-0.715563,0.1411115,0.2632394
1.145454,-0.4501699,-0.3331777,0.1851544,-0.08867014,-0.2775169,-1.229164,0.6180161,0.2445291
1.192357,-0.4063732,-0.3043725,0.2322912,-0.0452005,-0.2484853,-1.65489,0.7920934,0.1327644
1.187783,-0.5570513,-0.2525104,0.2278705,-0.196223,-0.1963306,-1.430205,0.7368564,0.113291
1.111411,-0.6889601,-0.1273134,0.1515659,-0.328484,-0.07076962,-0.8810838,0.7533202,0.2002872
1.077583,-0.6604556,-0.01240588,0.1177156,-0.3003258,0.04457345,-0.2638527,0.7460351,0.2477316
1.069177,-0.6054224,-0.04690262,0.1091984,-0.2456173,0.01057925,0.1721998,0.7873667,0.2704949
1.075892,-0.4341151,-0.0835042,0.1157113,-0.07460051,-0.0254595,-0.03647785,0.8525816,0.2878811
1.004779,-0.1788363,-0.06520742,0.04430955,0.1804271,-0.006545509,-0.38648,0.7746901,0.400267
0.7949583,-0.1323349,-0.08542577,-0.1658837,0.2267126,-0.02609716,-0.5987571,0.5906698,0.4804019
0.61204,-0.2264428,-0.07220931,-0.3492469,0.1324138,-0.01216907,-0.8427066,0.4455157,0.4018998
0.5104745,-0.2187032,-0.06195252,-0.4513107,0.1399773,-0.001160129,-0.5722983,0.4558175,0.3429842
0.474391,-0.2323865,-0.07322854,-0.4879208,0.1261245,-0.01164799,-0.2526913,0.6039684,0.3686896
0.4535794,-0.2639505,-0.03550328,-0.5092602,0.09439098,0.02689683,-0.3657403,0.7375832,0.4008449
0.4701344,-0.1628277,-0.02376352,-0.4932072,0.1953382,0.03948247,-0.2898137,0.7873289,0.3834304
0.5706778,-0.1175383,-0.04727391,-0.3931155,0.2404391,0.01683875,-0.4594512,0.7456244,0.372122
0.6582209,-0.1524017,-0.05609459,-0.3059538,0.2053651,0.008900316,-0.9968322,0.6866994,0.3728777
0.759331,-0.2431397,-0.04219175,-0.2051407,0.1143861,0.02369653,-1.264066,0.7338235,0.3988005
0.8657288,-0.4672407,0.01647993,-0.09894783,-0.1099904,0.08326817,-1.281676,0.7272769,0.4730541
0.9885566,-0.626253,0.09896113,0.02376863,-0.2693093,0.1666498,-0.9443313,0.6085637,0.4475366
1.154623,-0.6898795,0.1487919,0.1898122,-0.3332614,0.2173725,-0.4752978,0.475556,0.4252788
1.27275,-0.7137723,0.1336739,0.3079937,-0.3574821,0.203127,-0.2001222,0.3267725,0.4731658
1.400398,-0.6882509,0.1411046,0.4357543,-0.3322723,0.211399,0.06779723,0.3261064,0.4626702
1.441703,-0.6686122,0.1986638,0.4772078,-0.312912,0.2697572,0.3623262,0.4437068,0.4547011
1.345615,-0.5490071,0.1943935,0.3812773,-0.1935376,0.2662321,0.5265448,0.5730729,0.3632904
1.256304,-0.3763635,0.1393394,0.292113,-0.02106779,0.2118583,0.3271187,0.5770254,0.238595
1.112974,-0.3100137,-0.01057055,0.1488998,0.04516749,0.06255501,-0.1377579,0.07810828,0.2905256
0.9867735,-0.3361903,-0.1968451,0.02277789,0.01893223,-0.123189,-0.5781235,-0.4347018,0.3794724
0.9771613,-0.4475076,-0.1284333,0.01320345,-0.09239226,-0.05431847,-0.6413906,-0.2839511,0.3756352
0.9074772,-0.6249063,-0.007020819,-0.05648222,-0.2697475,0.06748746,-0.4108437,-0.1430904,0.2406276
0.7759019,-0.7169488,-0.07414927,-0.1880938,-0.3616906,0.0006912989,-0.4512687,-0.3545688,-0.002978002
0.8830565,-0.6207891,-0.06532431,-0.08100222,-0.2653652,0.00978995,-0.3203284,-0.2726419,-0.1973316
1.093041,-0.4970237,-0.03156418,0.1288996,-0.1413584,0.04376773,-0.02403541,-0.179226,-0.3676722
1.047684,-0.4089473,-0.07609539,0.08344027,-0.05296047,-0.0005994167,-0.1368218,-0.3879242,-0.4791286
0.9999232,-0.2958547,-0.04268099,0.03555734,0.06053224,0.03292779,-0.2080169,-0.479227,-0.4193343
0.9792236,-0.2087734,-0.04430926,0.01471324,0.1480852,0.03136336,-0.2844646,-0.6084121,-0.4522502
0.8080651,-0.1501976,-0.07739814,-0.1566104,0.2071925,-0.00170849,-0.3857076,-0.6406648,-0.6404863
0.6982731,-0.1558909,-0.06915932,-0.266582,0.2020766,0.006503078,-0.3799006,-0.4207953,-0.7397839
0.6052192,-0.1561494,-0.1016433,-0.359818,0.2024258,-0.02604929,-0.5748778,-0.3051298,-0.7325127
0.5595437,-0.1439412,-0.1000347,-0.4056616,0.215258,-0.02454645,-0.603449,-0.07000692,-0.6006496
0.6364661,-0.2350854,-0.09179215,-0.3288753,0.1247407,-0.016443,-0.5359749,0.1984879,-0.5035734
0.6658625,-0.2699981,-0.091206,-0.2995664,0.09044762,-0.01602545,-0.5325963,0.296362,-0.5554284
0.7026807,-0.2649475,-0.03321979,-0.2627739,0.09610311,0.04176579,-0.3468051,0.2599781,-0.5479613
0.7334115,-0.2846907,0.003222688,-0.2319971,0.07694455,0.0779885,-0.224804,-0.003104038,-0.494999
0.7511851,-0.2551007,0.009199301,-0.214098,0.1070943,0.08372018,-0.07518006,-0.1400772,-0.3570845
0.8892079,-0.2670897,-0.01029711,-0.07586567,0.09563562,0.06395237,0.04722802,-0.1845521,-0.1610975
1.107965,-0.2541415,-0.03603928,0.1431842,0.1090801,0.03791137,-0.1545765,-0.1974284,-0.1533798
1.233894,-0.2138684,-0.0522034,0.2694817,0.1498112,0.02142117,-0.466341,-0.1096162,-0.199873
1.17794,-0.2024672,-0.0624917,0.2139561,0.1616268,0.01078077,-0.6880048,-0.2313463,-0.1365922
1.169355,-0.1917057,-0.03668584,0.2058415,0.1727532,0.03621027,-0.7977562,-0.2959293,-0.03665738
1.26526,-0.2689252,-0.05146341,0.302244,0.09584382,0.02103368,-0.8190439,-0.2910737,0.09057915
1.326495,-0.3657721,-0.06513419,0.3639852,-0.0007509419,0.006942752,-0.5919951,-0.326551,0.2873389
1.406738,-0.4604231,-0.0786781,0.444725,-0.09520657,-0.007040501,-0.2057931,-0.179962,0.5099862
1.379805,-0.5217916,-0.2175135,0.4182586,-0.1564306,-0.146331,-0.1743702,-0.05485615,0.571785
1.277387,-0.4477432,-0.3283626,0.3162564,-0.08228002,-0.257644,-0.7082086,0.09633613,0.2391775
1.250734,-0.391964,-0.28025,0.2899523,-0.02643264,-0.2099931,-1.367335,0.1687499,-0.2118092
1.127991,-0.4194806,-0.1925084,0.1674789,-0.05390928,-0.1226988,-1.394396,0.09467799,-0.1463482
1.04443,-0.5297561,-0.1811969,0.08410216,-0.1641681,-0.1118114,-0.9796673,0.2333392,0.1605689
1.154001,-0.6448506,-0.1841017,0.193771,-0.2792613,-0.1151111,-0.6716223,0.480157,0.2449599
1.25525,-0.5450065,-0.1548196,0.2950274,-0.17942,-0.08618977,-0.3749436,0.8111901,0.2723861
1.300927,-0.3476503,-0.1348148,0.3406163,0.01793925,-0.0665081,-0.3661915,1.081027,0.138119
1.207038,-0.2336488,-0.06168905,0.2465354,0.1319535,0.00633385,-0.6631145,1.037852,0.01444681
0.9943059,-0.1721909,-0.02467995,0.0335032,0.1934299,0.04309793,-0.8541766,0.9259897,0.1426805
0.8342633,-0.1966601,-0.06179693,-0.1269467,0.1689772,0.005771977,-0.9712253,0.8105659,0.2563362
0.6161226,-0.2800721,-0.06554637,-0.3455903,0.08557121,0.001846579,-0.864554,0.7349696,0.4104009
0.4501591,-0.3138831,-0.09174566,-0.5121318,0.05175012,-0.02449784,-0.6174735,0.7509062,0.5008589
0.4786092,-0.2903265,-0.07532944,-0.4843072,0.0752774,-0.008197314,-0.4271757,0.747039,0.3879139
0.4335934,-0.232046,-0.02945176,-0.5299659,0.1335069,0.03759267,-0.1979913,0.755271,0.3341805
0.4000585,-0.1895243,-0.04846257,-0.5641315,0.1759523,0.01851985,-0.2516072,0.7451499,0.2927271
0.558921,-0.1430021,-0.03182053,-0.4058597,0.2223668,0.03512258,-0.4936268,0.6922645,0.1883099
0.6536943,-0.06010428,-0.01194326,-0.3116142,0.3051177,0.05498009,-0.726495,0.6078116,0.1065359
0.6740531,-0.08729696,-0.01591139,-0.2917041,0.277729,0.05100818,-1.10911,0.4740559,0.1235151
0.7885111,-0.2032323,0.01018498,-0.1776047,0.1615389,0.07711283,-1.19623,0.3230491,0.314759
0.9043132,-0.3337373,0.04145945,-0.0620651,0.03071466,0.1084032,-1.000595,0.1755549,0.5428252
0.9847128,-0.5155874,0.06695209,0.01816816,-0.1515182,0.133914,-0.79405,0.1012155,0.6254335
1.113974,-0.6115064,0.07343236,0.1473541,-0.2478748,0.1404084,-0.3530636,0.1229736,0.5857865
1.260637,-0.6381189,0.07728135,0.2940208,-0.2749654,0.1442607,0.002655349,0.1810176,0.5711342
1.318214,-0.6287655,0.09028707,0.3516646,-0.2661135,0.1572524,0.06719269,0.2454833,0.5054589
1.336277,-0.4839472,0.117638,0.3698364,-0.1218041,0.1845653,-0.02736288,0.2471106,0.3114106
1.350373,-0.3367335,0.1327977,0.3840623,0.02490436,0.199656,-0.4146965,0.04454826,0.2248563
1.232023,-0.279422,0.03716066,0.2658426,0.08171842,0.1039123,-0.8903283,-0.3097086,0.3355442
1.061402,-0.3846225,-0.08662994,0.09533574,-0.02397204,-0.02002655,-0.9129374,-0.4750811,0.4765577
0.9932647,-0.5869953,-0.08438322,0.02728766,-0.2268264,-0.01796902,-0.3563498,-0.4482576,0.4175757
0.9903699,-0.595496,-0.04837495,0.02445503,-0.2357936,0.01781255,0.0162652,-0.6274601,0.1026058
0.963253,-0.5019672,-0.08636915,-0.002626715,-0.142706,-0.02044226,-0.2977033,-0.8640386,-0.1967344
0.9139211,-0.4303625,-0.1504327,-0.05194885,-0.07150879,-0.08479638,-0.5809971,-0.7139499,-0.2021203
0.968551,-0.3643002,-0.211795,0.002667923,-0.005815647,-0.1464735,-0.5342071,-0.4684096,-0.07177642
1.032047,-0.3743246,-0.2097478,0.06613033,-0.01617029,-0.144757,-0.6682583,-0.4647979,-0.0942275
1.004501,-0.3514788,-0.1307546,0.03853036,0.006383187,-0.06610199,-0.7514567,-0.5550834,0.01216753
1.006155,-0.339104,-0.1140877,0.04010992,0.01850175,-0.04977367,-0.515876,-0.6623683,0.1368713
0.934507,-0.3912706,-0.1504113,-0.03163389,-0.03388715,-0.08643179,-0.4460226,-0.566728,-0.2387743
0.751329,-0.3789048,-0.163138,-0.2149256,-0.02171111,-0.0994845,-0.4704588,-0.3374355,-0.6646216
0.5919171,-0.3626417,-0.1436547,-0.3744609,-0.005606129,-0.08031388,-0.3538941,-0.2904329,-0.729332
0.5003721,-0.3540024,-0.08315484,-0.4661233,0.002905603,-0.02010954,-0.2018379,-0.1945657,-0.619623
0.5195406,-0.3647061,-0.06219388,-0.4470455,-0.00789675,0.000575336,0.1517144,-0.1200192,-0.4772599
0.5875618,-0.3938613,-0.07733324,-0.3790679,-0.03712321,-0.01482036,0.4096832,-0.176303,-0.357761
0.6643893,-0.3086989,-0.1144641,-0.3022189,0.04799415,-0.05218775,0.3773296,-0.1447348,-0.213153
0.759827,-0.201467,-0.1849418,-0.2066821,0.1552043,-0.122881,0.3419226,-0.1847619,-0.1511336
0.8740887,-0.1781229,-0.1955406,-0.09223678,0.1785434,-0.1336709,0.2006706,-0.2134307,-0.08868085
1.018774,-0.2100207,-0.2064945,0.05271746,0.1466484,-0.1447864,0.03655233,-0.1224111,-0.02759935
1.062411,-0.2787086,-0.2392042,0.09670322,0.0779629,-0.1776226,-0.03922031,-0.07764001,-0.168151
1.038949,-0.3271632,-0.2167862,0.073661,0.02950447,-0.1552902,-0.06608098,-0.07620933,-0.2048351
1.072657,-0.3261152,-0.2127251,0.1078477,0.03053965,-0.1512681,-0.04016312,-0.1429388,-0.07120448
1.12105,-0.3129931,-0.2321426,0.1567684,0.04363882,-0.170673,-0.146651,-0.1595352,0.07689952
1.221665,-0.3662723,-0.2321084,0.2579478,-0.009674356,-0.1705702,-0.2318614,-0.07056093,0.1520153
1.286346,-0.4504425,-0.2210739,0.3232152,-0.09388881,-0.1594067,-0.1286204,0.03736957,0.02851417
1.231796,-0.4937913,-0.2108517,0.2692558,-0.1372888,-0.1489914,0.08752489,0.1337596,-0.03673907
1.187359,-0.4981692,-0.2366669,0.2253979,-0.1417185,-0.1745463,0.2373372,0.1320905,-0.04405033
1.117244,-0.7808059,-0.1598926,0.1309888,-0.4253057,-0.1500841,0.1430785,-0.6433474,0.1037891
1.069909,-0.881417,-0.0985008,0.08491135,-0.5223897,-0.08661529,0.9269649,-0.6187449,0.06519092
0.9694109,-0.7408229,-0.2365272,-0.01434609,-0.3782653,-0.222577,0.4544508,-1.071338,-0.162455
0.9061367,-0.6012098,-0.3387064,-0.07640131,-0.2351067,-0.3226995,-0.04010332,-1.189441,-0.3911135
0.845548,-0.5892693,-0.3569494,-0.1357924,-0.2196,-0.3388857,0.186264,-0.9254223,-0.4067799
0.8452939,-0.5498141,-0.3087562,-0.1348666,-0.1765565,-0.2886249,0.1923514,-0.8116812,-0.253291
0.90372,-0.4683804,-0.161829,-0.07527433,-0.0915141,-0.1396108,0.317202,-0.73549,-0.3052435
0.799615,-0.4370468,-0.1047272,-0.1782228,-0.05655586,-0.08039885,0.7519879,-0.7291329,-0.332558
0.671706,-0.4046815,-0.07832108,-0.3049798,-0.02055701,-0.05186033,0.8525883,-0.7950661,-0.3483115
0.5750552,-0.3076605,-0.04339133,-0.4004734,0.08009761,-0.01477984,0.8635402,-0.7750606,-0.5735769
0.4827719,-0.2367893,-0.09981942,-0.4915799,0.1545907,-0.06904381,0.770486,-0.7973185,-0.5833807
0.4930875,-0.1003454,-0.1058687,-0.4800503,0.2946294,-0.07292011,0.5252581,-0.7809142,-0.4426113
0.4926923,-0.0001726156,-0.129134,-0.4791756,0.3983501,-0.09400663,0.3171939,-0.7315637,-0.2905578
0.560101,-0.07577807,-0.1824553,-0.4104246,0.326223,-0.1451451,0.0235828,-0.6334968,-0.1423453
0.7085791,-0.1661517,-0.1538976,-0.2605184,0.2392361,-0.1144012,0.03453805,-0.3887612,-0.2175003
0.7860719,-0.3158309,-0.1624901,-0.1815049,0.09283549,-0.1208036,0.2333329,-0.3440193,-0.2273744
0.9140611,-0.4158596,-0.1609922,-0.05190152,-0.004032641,-0.1171119,0.3587794,-0.5764967,-0.1504728
1.097047,-0.3745372,-0.1598947,0.1327859,0.0403289,-0.1138172,0.5254383,-0.7805029,-0.1150031
1.239673,-0.3822498,-0.2375494,0.2771887,0.03553284,-0.189271,0.3106484,-0.6903657,-0.02543413
1.379561,-0.3864792,-0.2880239,0.4189056,0.03409667,-0.237539,-0.07580181,-0.3464142,-0.0626831
1.486214,-0.3762754,-0.2757361,0.5274164,0.04696979,-0.2230351,-0.2885092,-0.06498345,-0.1336601
1.477116,-0.3986476,-0.2026233,0.5201716,0.02714276,-0.1476924,-0.3763297,0.02763716,-0.1687651
1.41437,-0.4103359,-0.1394913,0.4592451,0.01787566,-0.08231439,-0.1983186,-0.04924686,-0.2623741
1.361547,-0.4832075,-0.1488877,0.4081799,-0.05269706,-0.08944969,0.08121688,0.02075913,-0.2265273
1.265237,-0.6145743,-0.2551273,0.313543,-0.1818831,-0.1934148,0.3234364,0.3937391,-0.1717525
1.23973,-0.6640968,-0.3808517,0.2896086,-0.2293344,-0.3168505,0.1832332,0.8894631,-0.3202013
1.267204,-0.5242386,-0.3198432,0.3185403,-0.08750345,-0.2535342,-0.2664178,1.21338,-0.4245521
1.170011,-0.3894838,-0.2188029,0.2226791,0.04913432,-0.1501614,-0.2777303,0.8323827,-0.2797644
1.071082,-0.5005175,-0.2043569,0.1249486,-0.06010209,-0.1333559,-0.0469333,0.3029274,0.04259618
1.089369,-0.5850103,-0.1671432,0.1442973,-0.1428803,-0.09375631,0.09424399,0.3670136,0.3661826
1.238807,-0.4674629,-0.1779146,0.2946594,-0.02369608,-0.1021177,0.1009088,0.6053875,0.3735021
1.360418,-0.4073095,-0.1620115,0.4170508,0.03802112,-0.08378377,-0.0515386,0.8016812,0.2150713
1.184522,-0.398682,-0.0839138,0.2417851,0.04814065,-0.00323839,-0.0205359,0.6963857,0.2355781
0.8650857,-0.3374542,-0.08687223,-0.07717602,0.1107875,-0.003737741,-0.01769327,0.4821919,0.1678671
0.6216362,-0.2838619,-0.09609085,-0.3203001,0.1657231,-0.01049276,-0.08946502,0.698893,0.07351987
0.4217197,-0.2008271,-0.08029799,-0.5200212,0.2500199,0.007761425,-0.04275827,0.7939256,0.1818682
0.2985843,-0.1273272,-0.06460321,-0.6430614,0.324692,0.02590856,-0.146603,0.7786742,0.215178
0.298991,-0.09807903,-0.03762268,-0.6426238,0.3550115,0.05532549,-0.2652609,0.8863202,0.2454348
0.3849998,-0.07510977,-0.06318198,-0.5566123,0.3789384,0.03217928,-0.4767739,0.7565969,0.3417171
0.5398559,-0.1302226,-0.08697422,-0.4017494,0.3246568,0.01076999,-0.7535006,0.7025788,0.3529471
0.7422063,-0.2508453,-0.0636998,-0.1993646,0.2047284,0.03639145,-0.7408494,0.7485414,0.3842341
0.9062934,-0.3982691,-0.04341507,-0.03520215,0.05785719,0.058982,-0.6989457,0.6554734,0.4123973
0.9926393,-0.5564552,-0.005987198,0.05126375,-0.09991588,0.09866859,-0.5471164,0.5205753,0.4330761
1.040049,-0.6288795,0.04405323,0.09883462,-0.1720572,0.1509136,-0.1923697,0.3417035,0.4562925
1.110225,-0.6204497,0.06441674,0.1692063,-0.1634597,0.1734192,0.06948301,0.3227221,0.4139659
1.230904,-0.5676425,0.06585848,0.2901045,-0.1105844,0.176931,0.2471433,0.4297244,0.3204122
1.295847,-0.4581035,0.03778917,0.3552771,-0.001063398,0.1508507,0.199245,0.4090314,0.1043754
1.214744,-0.4075,-0.09856469,0.2743961,0.04944507,0.01639761,-0.2442521,0.1709229,-0.01235345
1.117744,-0.5737414,-0.2527583,0.1775957,-0.1169618,-0.1359857,-0.6268661,-0.1392162,0.160432
1.091226,-0.7927116,-0.229039,0.1512432,-0.3361589,-0.1105431,-0.2604399,-0.1392032,0.2489431
0.9635993,-0.7768422,-0.1600303,0.02374344,-0.3205624,-0.03989135,0.2809055,-0.1854051,0.05758875
0.7585745,-0.6964245,-0.1841097,-0.1811953,-0.2404443,-0.06240258,0.2303396,-0.658205,-0.1765326
0.7388598,-0.7085583,-0.1843539,-0.2008582,-0.2528871,-0.06114916,0.3034239,-0.9384573,-0.3067005
0.8974384,-0.6035413,-0.204864,-0.04225237,-0.1481743,-0.08022796,0.4799311,-0.7488366,-0.4553147
1.028637,-0.4046659,-0.2392581,0.08895569,0.05041102,-0.1132525,0.2973038,-0.4956277,-0.6483821
0.9805324,-0.2661574,-0.146659,0.040845,0.1886458,-0.01934048,0.3038833,-0.4161539,-0.6973741
0.8161167,-0.2215209,-0.0513425,-0.1235935,0.2330192,0.07723546,0.3877988,-0.5419699,-0.5686734
0.6574218,-0.2521352,-0.06344445,-0.2823236,0.2021427,0.06633903,0.3853583,-0.7458597,-0.4211378
0.5032771,-0.2602806,-0.09705796,-0.4365042,0.1937257,0.03387486,0.4847222,-0.7677284,-0.3562693
0.5044768,-0.2725957,-0.1089952,-0.4353238,0.1811206,0.02302909,0.42078,-0.6747026,-0.2988213
0.6350917,-0.3011867,-0.1265532,-0.3046918,0.152214,0.006504433,0.3548372,-0.6217053,-0.2326108
0.7157544,-0.2992879,-0.1578656,-0.2239598,0.1537655,-0.02383204,0.3848678,-0.4431912,-0.2406809
0.7899193,-0.3130783,-0.1543274,-0.1496634,0.1395913,-0.01937355,0.3494629,-0.2966157,-0.3009783
0.8177356,-0.3217053,-0.1377997,-0.1216483,0.1305403,-0.001978824,0.3893868,-0.3215518,-0.3931268
0.8834209,-0.3345953,-0.1369869,-0.05569521,0.1171831,-0.0003502209,0.4824853,-0.2944665,-0.4316532
0.9931032,-0.3189707,-0.1236754,0.05432206,0.1322953,0.01372738,0.617606,-0.3513525,-0.3603956
1.00907,-0.2172241,-0.1495596,0.07068616,0.2334818,-0.01143901,0.6192006,-0.4623715,-0.2683268
1.123413,-0.1570264,-0.212349,0.1854782,0.2930669,-0.07355694,0.2088581,-0.3989548,-0.1689953
1.229689,-0.2002253,-0.2255549,0.2922446,0.2491957,-0.08613413,-0.3079892,-0.2724973,-0.1583906
1.189267,-0.317467,-0.1508874,0.2523387,0.1312154,-0.01087597,-0.4435929,-0.129943,-0.3132995
1.196039,-0.4366157,-0.04404044,0.2596349,0.01125929,0.09652645,-0.1701891,-0.1184175,-0.4817647
1.176506,-0.4715582,-0.03110909,0.2406188,-0.02455638,0.1099773,0.1501548,-0.3503663,-0.4971123
1.121693,-0.492534,-0.1172985,0.1863026,-0.0464644,0.02426844,0.5479459,-0.5412503,-0.2537604
1.097289,-0.5466634,-0.2579209,0.1623637,-0.101576,-0.1159133,0.8882327,-0.3978345,0.02445059
1.096437,-0.5380786,-0.4344795,0.1619373,-0.09401373,-0.2920663,0.3694067,0.1548467,0.008212078
1.153118,-0.4240833,-0.4667435,0.218997,0.01892861,-0.3239487,-0.6313547,0.6256433,-0.09219517
1.160563,-0.3722087,-0.2660657,0.2267671,0.06972653,-0.1228991,-0.9822328,0.384171,-0.06396487
1.130972,-0.5084948,-0.07465953,0.1974385,-0.06765602,0.06887888,-0.626365,-0.0214489,-0.06007816
1.131657,-0.6347716,-0.07504378,0.1983171,-0.1950434,0.06886813,-0.1053458,0.1493509,-0.05148743
1.181386,-0.5495085,-0.1362151,0.2481632,-0.1108958,0.008068954,0.1817472,0.4835091,0.06714719
1.240872,-0.3961646,-0.1181246,0.3076842,0.04133741,0.02652709,0.2849077,0.6785305,0.2550985
1.104991,-0.3254379,-0.0787297,0.1717491,0.1109626,0.06628305,0.2712384,0.6064518,0.3822514
0.8600913,-0.2625167,-0.05323555,-0.0732976,0.1727907,0.09212865,0.231622,0.2640073,0.2992383
0.6759138,-0.2715147,-0.03324652,-0.257711,0.1627034,0.1124553,0.4647029,0.2256858,0.2154744
0.5131943,-0.3321984,-0.04132245,-0.4207395,0.1009292,0.1046982,0.6645805,0.1671738,0.2656954
0.4390999,-0.2935223,-0.03034524,-0.4951932,0.1385094,0.1159704,0.6996818,0.05103442,0.2212477
0.4478701,-0.2213078,-0.04430669,-0.4868056,0.209619,0.1022753,0.6605901,0.3296339,0.18844
0.5010928,-0.09213331,-0.1185418,-0.4339613,0.3376738,0.02827433,0.2879734,0.422437,0.2231262
0.6221778,-0.02883608,-0.1309748,-0.3132267,0.3998265,0.01604134,-0.200055,0.4983103,0.2062072
0.7044806,-0.1305632,-0.06684425,-0.2312285,0.2969174,0.08033788,-0.5265715,0.5368302,0.3116241
0.7431361,-0.2070322,0.02671924,-0.1928196,0.2192181,0.1740321,-0.5151234,0.2301439,0.433329
0.870037,-0.3625715,0.0909867,-0.06610011,0.06239374,0.2383906,-0.3094775,0.157188,0.4469485
1.045799,-0.5167408,0.09980091,0.109547,-0.09311451,0.2472488,-0.1859961,-0.001419002,0.5156197
1.163257,-0.5315306,0.1151471,0.2269512,-0.1092896,0.262583,0.1413155,-0.1094803,0.5271131
1.289031,-0.5976667,0.1035941,0.3527197,-0.1768456,0.2509529,0.36079,0.1308524,0.3540885
1.397499,-0.6085717,0.08752577,0.4612133,-0.1891915,0.2347347,0.3053032,0.1670306,0.07057212
1.354702,-0.5486829,0.07771323,0.4184489,-0.1307502,0.2246922,0.2884147,0.1439785,-0.07541425
1.288105,-0.5521323,-0.03437059,0.3518703,-0.1356412,0.1122938,0.1766002,-0.09803056,0.07747218
1.253889,-0.6065866,-0.1382006,0.3176391,-0.19152,0.00806345,0.2572823,-0.4250387,0.220037
1.165641,-0.7478396,-0.08262978,0.2293284,-0.3341685,0.06315126,0.619815,-0.382929,0.1928536
1.092459,-0.8120929,-0.01947219,0.1560253,-0.3997729,0.1257476,0.9698772,-0.4544581,0.07284627
0.9345749,-0.7071567,-0.1014977,-0.002043575,-0.2961257,0.04308595,1.061058,-0.7684326,-0.131742
0.7425194,-0.6235395,-0.2022092,-0.1943446,-0.2137191,-0.05833287,0.7989662,-0.9652363,-0.2014247
0.8227082,-0.6202112,-0.259642,-0.1144539,-0.2115119,-0.1165368,0.7023619,-0.7389514,-0.1695732
0.9255434,-0.5811612,-0.2984569,-0.01195875,-0.1734855,-0.1561757,0.6782442,-0.4618114,-0.2538379
0.8315652,-0.4569687,-0.2436012,-0.1063106,-0.05021407,-0.1021844,0.5948394,-0.5640766,-0.2976324
0.8044614,-0.3650754,-0.1661864,-0.1338141,0.04086092,-0.02566343,0.8377627,-0.6284289,-0.3712472
0.7454683,-0.3662002,-0.0918669,-0.1932241,0.03901655,0.04774082,1.115829,-0.7250066,-0.6324636
0.5726609,-0.3761424,-0.04325649,-0.366454,0.02844685,0.0954181,1.271019,-0.9397686,-0.8116758
0.5147432,-0.3096468,-0.08899194,-0.4247835,0.0943999,0.04873263,1.287431,-0.9585841,-0.800689
0.50859,-0.2076269,-0.09792842,-0.4313183,0.1959537,0.03882967,1.145687,-0.8845649,-0.703188
0.5379322,-0.1414864,-0.1483973,-0.4023071,0.2616927,-0.01262051,1.00601,-0.7283948,-0.5682657
0.6409162,-0.09355499,-0.2297184,-0.2995853,0.3092721,-0.09493412,0.7396252,-0.4833777,-0.4828799
0.7126935,-0.148344,-0.1923671,-0.2279881,0.254164,-0.0585809,0.6404414,-0.2971464,-0.4515932
0.8184937,-0.2784712,-0.1898315,-0.1222776,0.1237358,-0.05704236,0.8032302,-0.2326224,-0.442616
0.9055124,-0.3499089,-0.164243,-0.03525566,0.05200518,-0.03244415,0.8739307,-0.28049,-0.4218128
0.943886,-0.3701911,-0.09666143,0.003211974,0.03143285,0.03415801,0.9175703,-0.3686012,-0.3337797
1.071452,-0.307673,-0.11206,0.1309567,0.09366124,0.01779296,0.7935632,-0.4661695,-0.201096
1.21703,-0.2673496,-0.1200988,0.2767861,0.1336926,0.008801572,0.4251072,-0.482655,-0.08105179
1.321423,-0.3075152,-0.1322617,0.3814888,0.09322834,-0.004299303,0.06424556,-0.3767211,-0.02837754
1.35762,-0.3254181,-0.1101458,0.4180314,0.07501595,0.01689459,-0.1108996,-0.2668512,-0.04686402
1.318727,-0.3630641,-0.03729899,0.3794961,0.03704695,0.08883584,-0.03031917,-0.2535184,-0.1927381
1.25873,-0.3786726,-0.01308397,0.3198479,0.02110088,0.1121602,0.06181288,-0.336299,-0.4483714
1.105224,-0.4141872,-0.0383371,0.1666635,-0.01476539,0.08602818,0.2377917,-0.3711855,-0.4920872
0.9289848,-0.5511921,-0.1400383,-0.009290639,-0.1521335,-0.01654295,0.6473527,-0.1596942,-0.2895796
0.8858254,-0.5947038,-0.219152,-0.05220575,-0.1960137,-0.09651726,0.7607202,0.334993,-0.1751296
0.9823831,-0.4412908,-0.1835296,0.04455788,-0.0429659,-0.0617425,0.3743886,0.7200904,-0.2006548
1.16391,-0.2512291,-0.1187038,0.2262538,0.1467391,0.002253203,-0.05703693,0.5866101,-0.248318
1.308484,-0.2564899,-0.05446764,0.3709535,0.141129,0.06567918,-0.1597716,0.2365572,-0.3047062
1.356959,-0.400338,-0.01804774,0.4195006,-0.003065978,0.1013079,0.03448044,0.06737969,-0.3315834
1.344046,-0.5103091,-0.08171151,0.4065901,-0.1133836,0.0368694,0.2014921,0.038054,-0.1646969
1.319362,-0.5969136,-0.1802458,0.3818233,-0.2003307,-0.06242502,0.3520361,0.1088823,0.09551769
1.264816,-0.5660519,-0.161784,0.3270947,-0.1697998,-0.04470758,0.6362571,0.1473893,0.09256368
1.131568,-0.4656025,-0.1159226,0.1935551,-0.06966106,0.0004279162,0.8136609,0.1603812,0.0098849
1.025605,-0.4298421,-0.1260124,0.08718681,-0.03418572,-0.01036733,0.8429157,0.3087331,0.07467445
0.9255573,-0.3848711,-0.1017565,-0.01337741,0.01052801,0.0132045,0.8484638,0.3729682,0.09573374
0.7027327,-0.2943396,-0.08019544,-0.2368219,0.1008287,0.03410275,0.7578734,0.371786,0.1543647
0.5116195,-0.1082739,-0.05394139,-0.428642,0.2866852,0.0597144,0.6437281,0.3801113,0.2266085
0.4808883,0.02843205,-0.05328336,-0.4601429,0.4231921,0.05974841,0.3895459,0.2686612,0.1582706
0.4661264,0.008884684,-0.09363337,-0.4757088,0.4034387,0.01879049,-0.08380999,0.2198441,0.1506399
0.3767835,0.0287748,-0.04923395,-0.5658609,0.4230964,0.06259627,-0.3367539,0.1561009,0.2294024
0.351586,-0.01103681,-0.005169655,-0.5918432,0.3830072,0.1060791,-0.3440458,0.09626721,0.2744772
0.4628689,-0.1206512,0.03283673,-0.4812917,0.2730541,0.1435127,-0.3871962,0.2070308,0.3073868
0.6454296,-0.138969,0.09167602,-0.2993844,0.2543249,0.2017822,-0.3992529,0.2207714,0.3957184
0.9140883,-0.1867969,0.07068366,-0.03128615,0.2060053,0.1802159,-0.3989673,0.1375927,0.5427649
1.200707,-0.262159,0.08529703,0.254868,0.1300668,0.1942435,-0.4068481,0.05784185,0.5441129
1.407,-0.3523331,0.1375745,0.4607812,0.0392308,0.2459156,-0.2827797,0.02911381,0.3903216
1.472064,-0.4740385,0.1255279,0.5255279,-0.0832178,0.233236,-0.07394305,0.004810923,0.2898282
1.337777,-0.5900302,0.05714649,0.3909592,-0.2000248,0.1641861,0.04710693,-0.3176155,0.2939052
1.243735,-0.813674,-0.08746629,0.296646,-0.4245407,0.01886436,0.2508608,-0.6114723,0.3646586
1.310316,-0.9866524,-0.1899156,0.3629492,-0.598425,-0.08433405,0.850554,-0.4419421,0.3495417
1.288937,-0.862547,-0.2011721,0.3412676,-0.4752301,-0.09637399,1.378153,-0.3164865,0.1629518
1.132076,-0.6652041,-0.2601522,0.1840652,-0.2787741,-0.1561627,1.045233,-0.7047446,-0.04288934
0.9941897,-0.6151884,-0.3429533,0.04579103,-0.2296012,-0.2397868,0.3848791,-0.9845119,-0.09119752
0.9637109,-0.5957666,-0.3280554,0.01487446,-0.2109647,-0.2257131,0.312756,-0.7082192,-0.09626002
0.8883571,-0.5675401,-0.236228,-0.06096385,-0.1834564,-0.134698,0.3227414,-0.4662329,-0.2975353
0.6404783,-0.5593152,-0.1370718,-0.3093666,-0.1758754,-0.03633186,0.2985935,-0.4731636,-0.4472682
0.5094201,-0.5187858,-0.03907163,-0.4409739,-0.1359101,0.06090529,0.8041318,-0.5376953,-0.4476268
0.5302488,-0.4492669,-0.01721607,-0.4206986,-0.06687183,0.08202482,1.297781,-0.6697496,-0.616845
0.4479143,-0.2919558,-0.07528036,-0.5035669,0.09004166,0.02324891,1.359122,-0.8658185,-0.804711
0.4013619,-0.134881,-0.1108529,-0.5506093,0.2467958,-0.01301305,0.9920652,-1.243579,-0.8163499
0.447582,-0.09794284,-0.1753552,-0.504811,0.2834776,-0.07818244,0.4529777,-1.470264,-0.7181012
0.4887082,-0.05537282,-0.234578,-0.4640153,0.3258387,-0.1380474,0.2646279,-1.114813,-0.6076769
0.6857824,-0.06539771,-0.2088872,-0.267162,0.315634,-0.1129687,0.2170638,-0.5579285,-0.5962407
0.9835712,-0.1429448,-0.2207448,0.03052526,0.2379188,-0.125403,0.2572093,-0.1012534,-0.5352244
1.109943,-0.2397581,-0.2858308,0.1569134,0.1409349,-0.1910242,0.3604514,0.2815695,-0.4292336
1.089604,-0.3971002,-0.3052108,0.1366958,-0.01658867,-0.2108914,0.4332135,0.3696691,-0.3974943
1.001519,-0.402527,-0.2347745,0.04882588,-0.02221057,-0.1408869,0.5990515,0.1011804,-0.3189937
0.8801615,-0.2785481,-0.1360902,-0.07223738,0.1015605,-0.04257367,0.4640872,-0.2459927,-0.2125052
1.013027,-0.1997973,-0.1446186,0.06099561,0.1800895,-0.05141035,0.1399073,-0.378905,-0.1332619
1.312215,-0.1471944,-0.2113061,0.3606159,0.2324514,-0.1183438,-0.2384622,-0.285313,-0.1361837
1.361959,-0.232397,-0.2254391,0.4108401,0.1469812,-0.1326596,-0.6193728,-0.1938704,-0.2631397
1.333384,-0.3731078,-0.1825377,0.3827715,0.005970338,-0.08987637,-0.4721504,-0.1151319,-0.3500785
1.363511,-0.397001,-0.09941264,0.4134059,-0.01825663,-0.006803983,-0.112058,-0.0815398,-0.3125828
1.358419,-0.3945096,-0.09167912,0.4088009,-0.01612986,0.0009404136,0.2186703,-0.1189027,-0.1591432
1.374977,-0.425115,-0.2465927,0.4258057,-0.04712673,-0.1539017,0.4195638,0.06145222,0.03535345
1.321309,-0.483599,-0.4370769,0.3725232,-0.1060239,-0.3442532,0.1723353,0.4117809,0.0949226
1.215041,-0.5264652,-0.467854,0.2665629,-0.1493182,-0.3748291,-0.02921325,0.605664,-0.001467962
1.059155,-0.5760654,-0.340223,0.1108971,-0.1993527,-0.2469174,-0.03444133,0.5037737,-0.05514454
0.9358686,-0.7072855,-0.2378699,-0.01226132,-0.3310022,-0.1441956,0.1291614,0.3511029,0.05756376
1.03674,-0.7564303,-0.1853034,0.08864854,-0.3805567,-0.09116903,0.6262445,0.4331054,0.0821108
1.134943,-0.5659849,-0.1347518,0.1868018,-0.1904856,-0.04006757,0.8542785,0.4368246,-0.1659482
1.168488,-0.278001,-0.1411406,0.2202109,0.09717058,-0.04582104,0.6610086,0.3757586,-0.3500087
1.15269,-0.1442522,-0.1521617,0.2041872,0.2306385,-0.05612659,0.3882575,0.4582818,-0.1354419
1.007209,-0.172332,-0.1331111,0.05838613,0.2023155,-0.03628557,0.01081852,0.4610389,0.2062329
0.8816001,-0.210986,-0.1136053,-0.06763279,0.163444,-0.01591985,-0.1338642,0.497502,0.2982954
0.6917084,-0.2706625,-0.06627194,-0.258018,0.103565,0.03233668,0.0830107,0.4938088,0.3319981
0.4890882,-0.2898513,-0.03977911,-0.4611984,0.08418137,0.05980828,0.2318687,0.4203872,0.3437041
0.4358074,-0.2191545,-0.05061023,-0.515082,0.1546851,0.05000287,0.2566503,0.5915702,0.248295
0.396932,-0.1594813,-0.04472781,-0.554574,0.2141609,0.05694898,0.175797,0.7230981,0.2864765
0.4292756,-0.08796485,-0.03936123,-0.5228311,0.2854669,0.06340872,-0.07337505,0.654382,0.3040717
0.5471765,-0.05999107,-0.05122752,-0.4054876,0.3132059,0.05265693,-0.3332741,0.5148799,0.2811439
0.6763404,-0.1316518,-0.07100461,-0.2768162,0.241274,0.03400824,-0.6198047,0.3696827,0.4071986
0.8240719,-0.2423828,-0.08494022,-0.1294982,0.1302255,0.02120862,-0.8250733,0.4030969,0.5075506
0.8764366,-0.4020898,-0.06494254,-0.0774615,-0.02985016,0.04234453,-0.7018722,0.4304739,0.605583
0.9101518,-0.5544452,-0.003337105,-0.04398824,-0.182623,0.105085,-0.3919332,0.2881379,0.6356668
1.019244,-0.6676275,0.07279099,0.06494487,-0.2962617,0.182338,0.02468624,0.1249258,0.5719702
1.131816,-0.6930421,0.109959,0.1774356,-0.322156,0.220611,0.3161248,0.02177834,0.5545471
1.259022,-0.5735451,0.09103693,0.3046246,-0.2031445,0.2027628,0.3002278,0.01133905,0.4279501
1.308207,-0.4591629,0.05815244,0.353841,-0.08923915,0.1709098,0.2848607,-0.05975675,0.3243891
1.235408,-0.4495036,-0.02487527,0.2811014,-0.08003931,0.08886235,-0.01471591,-0.2800021,0.3513234
1.165269,-0.5735842,-0.1302752,0.2110346,-0.2045559,-0.01561387,-0.3380606,-0.4014499,0.3575057
1.110015,-0.7095465,-0.0662865,0.1558485,-0.340923,0.04924077,0.2857484,-0.3402291,0.3381682
1.034099,-0.6312811,0.02424757,0.07998858,-0.2630196,0.1405827,0.8761128,-0.3739929,0.1545958
0.9097828,-0.53904,-0.08111908,-0.044288,-0.1710856,0.03596405,0.409679,-0.6287084,-0.07519488
0.8082939,-0.5766413,-0.1674053,-0.1457543,-0.2089306,-0.04963517,0.04179764,-0.8017337,-0.08423131
0.9068184,-0.553622,-0.198234,-0.04721932,-0.186085,-0.07983544,0.2353022,-0.6102663,-0.1257124
1.056227,-0.5030036,-0.2520504,0.102192,-0.1355653,-0.1330764,0.1890182,-0.3737485,-0.3455415
1.001887,-0.4455306,-0.1739436,0.04784666,-0.07811323,-0.05443983,0.1377554,-0.4917965,-0.4260468
0.8865622,-0.3821108,-0.08334367,-0.06749248,-0.0146367,0.03664971,0.4405071,-0.6747798,-0.359363
0.7873569,-0.3993236,-0.09955523,-0.1667201,-0.03171795,0.02089035,0.7155721,-0.71526,-0.4219403
0.6556497,-0.3502456,-0.1002209,-0.2984505,0.01756182,0.02064008,0.8962113,-0.6993318,-0.5674698
0.5915487,-0.2461897,-0.08819238,-0.362564,0.1218837,0.03304737,0.90584,-0.5884183,-0.6707251
0.5228609,-0.2203646,-0.09204519,-0.4312374,0.1480301,0.02953707,0.8363675,-0.5927716,-0.6272727
0.4982503,-0.1709212,-0.138237,-0.4557886,0.1978386,-0.01634804,0.8225238,-0.5882923,-0.4320338
0.6229109,-0.1189283,-0.2024784,-0.3310054,0.2502272,-0.08031684,0.5969787,-0.3520393,-0.3025646
0.717981,-0.1448273,-0.1973835,-0.2357348,0.22474,-0.07497942,0.45332,-0.2106062,-0.2665747
0.7943374,-0.2082406,-0.1786479,-0.1590914,0.161741,-0.05602646,0.4468031,-0.1865701,-0.290602
0.8870598,-0.276648,-0.1670758,-0.06599228,0.09373917,-0.04425761,0.3104902,-0.2014254,-0.2803587
0.9766342,-0.2995553,-0.1216935,0.02404682,0.07122145,0.001304231,0.2850188,-0.2452183,-0.133023
1.081082,-0.2941247,-0.09868953,0.1290404,0.07702097,0.02447239,0.2701899,-0.288205,-0.05126298
1.128669,-0.324593,-0.1087497,0.1772438,0.04689769,0.01456135,0.1654227,-0.3872712,-0.09607249
1.249212,-0.3519507,-0.1051624,0.2984579,0.01985898,0.01828253,-0.00950947,-0.2789259,-0.1613981
1.412208,-0.3381644,-0.09412538,0.4621619,0.0339371,0.02943794,-0.3487161,-0.05556395,-0.2055091
1.507671,-0.3328685,-0.07780197,0.558345,0.03949728,0.04586373,-0.4897772,0.00244198,-0.2752899
1.577778,-0.3766821,-0.06748939,0.6291566,-0.004079697,0.05626165,-0.2131078,-0.1155155,-0.3093728
1.436428,-0.5023104,-0.140572,0.4884647,-0.129498,-0.01675377,0.01702226,-0.2738144,-0.08002567
1.197939,-0.6284265,-0.2770882,0.2505624,-0.2554251,-0.1532198,-0.1780063,-0.02208857,0.1967916
1.047377,-0.5384822,-0.3320774,0.1004998,-0.1653035,-0.2081705,-0.4258999,0.2566288,0.3185508
0.9385581,-0.3445719,-0.2976611,-0.007910882,0.0287817,-0.1737184,-0.588406,0.1667717,0.327045
1.081907,-0.3160698,-0.287089,0.1357561,0.05745997,-0.1631037,-0.9766824,0.3129795,0.04771046
1.285623,-0.3769446,-0.2749842,0.3396992,-0.003238725,-0.1509413,-1.149191,0.5783722,-0.3082353
1.259889,-0.4343329,-0.1945906,0.3140979,-0.06045225,-0.07046862,-0.814783,0.5695882,-0.2973312
1.25353,-0.4736552,-0.1464109,0.3077667,-0.09959981,-0.02218462,-0.5422899,0.4854421,0.06468677
1.189257,-0.4771982,-0.1911396,0.2434081,-0.102965,-0.06678291,-0.5401899,0.4261055,0.4565313
0.9276814,-0.5113772,-0.2076194,-0.01836854,-0.1369586,-0.0831055,-0.3797569,0.395218,0.6012966
0.7144459,-0.5153255,-0.1283431,-0.2319181,-0.1407087,-0.003644688,0.01887418,0.3859361,0.4488725
0.5905912,-0.4801257,-0.0352201,-0.356185,-0.1052928,0.08968934,0.280525,0.3431993,0.251331
0.5151833,-0.4393922,-0.0115929,-0.4320805,-0.06432095,0.1135496,0.4927694,0.294639,0.1882939
0.4984247,-0.291914,-0.03723825,-0.4493756,0.08341911,0.08815264,0.6004025,0.428102,0.0609768
0.4765412,-0.1274012,-0.04538394,-0.4718172,0.2482136,0.0802639,0.3439573,0.5871952,-0.0289067
0.4853878,-0.02588199,-0.04444249,-0.4635236,0.350024,0.08146501,0.05085432,0.4458033,0.03455464
0.5398858,0.04534098,-0.06175172,-0.4095487,0.4215311,0.06441313,-0.3306012,0.3175993,0.1009445
0.6137656,0.003921852,-0.05316594,-0.3361406,0.3803699,0.07324959,-0.7265933,0.3504845,0.3409972
0.7163027,-0.1041614,-0.01099799,-0.2340074,0.2725,0.1156574,-0.6975428,0.2918142,0.5774944
0.8103802,-0.1872742,0.01506055,-0.1402553,0.189542,0.1419402,-0.5063327,0.2510751,0.5982739
0.9118509,-0.2911239,0.01865063,-0.0390266,0.08578061,0.145733,-0.3321446,0.2474906,0.6228834
1.05278,-0.3981465,0.0309335,0.1017426,-0.0212227,0.1581906,-0.241205,0.1313895,0.6361967
1.220713,-0.4455741,0.06515864,0.2695907,-0.06869699,0.1925562,-0.1721555,-0.005552903,0.6033794
1.380439,-0.4828698,0.07345536,0.4292919,-0.1060987,0.2009521,0.0425389,-0.04391789,0.4434566
1.450459,-0.5673899,0.05483881,0.4993251,-0.1907747,0.1823864,0.1252011,-0.03731341,0.2158493
1.376393,-0.6938095,0.05559797,0.4252849,-0.3173878,0.1831416,0.3363603,-0.1837144,0.1974438
1.231811,-0.8464921,0.01331685,0.2807187,-0.4702846,0.1407963,0.7440597,-0.3497425,0.2393363
1.110182,-0.8584343,-0.07036431,0.1590774,-0.4824402,0.05698764,0.9333471,-0.2581558,0.1554282
0.8716586,-0.6503527,-0.1127104,-0.07949481,-0.2745484,0.01445052,1.023848,-0.2170607,-0.03158909
0.6428929,-0.5094246,-0.1566425,-0.3083442,-0.133769,-0.0297332,0.839287,-0.3020982,-0.323287
0.7924004,-0.5365902,-0.2433632,-0.1589454,-0.1610328,-0.1167602,0.5665075,-0.2543741,-0.4940988
1.07167,-0.5149403,-0.295393,0.1202022,-0.1394256,-0.1691424,0.7275728,-0.2881151,-0.3845876
1.250796,-0.4480824,-0.2568003,0.2991933,-0.07255175,-0.1309374,0.9360795,-0.3947922,-0.2091798
1.309934,-0.4765882,-0.188877,0.3581779,-0.1009814,-0.06342634,1.0383,-0.4532969,-0.0002455407
1.118803,-0.5488795,-0.1025816,0.1668601,-0.1731356,0.02243988,1.193304,-0.5227853,0.1275882
0.9863634,-0.5680364,-0.03640901,0.03419149,-0.1920921,0.08816969,1.3246,-0.5098627,-0.1424234
0.9191656,-0.5375322,-0.09838174,-0.03327953,-0.1613207,0.02574097,1.435135,-0.5587453,-0.5439113
0.6948468,-0.422347,-0.1509286,-0.2579113,-0.04579875,-0.02727504,1.329501,-0.6389596,-0.7585967
0.5882926,-0.2503912,-0.1481666,-0.3648067,0.1265618,-0.02499357,1.072407,-0.6503234,-0.6981384
0.5783951,-0.1873801,-0.215342,-0.3750562,0.1900377,-0.09265723,0.9228211,-0.6921492,-0.5133532
0.586368,-0.2519828,-0.2547243,-0.3674257,0.1259477,-0.1325303,0.8341227,-0.5628045,-0.5428912
0.6959622,-0.3412137,-0.2285603,-0.2581459,0.03726537,-0.1068529,0.9310875,-0.3917867,-0.535253
0.7749838,-0.3898509,-0.1833764,-0.179396,-0.01079589,-0.06214465,1.164831,-0.358839,-0.5538147
0.7932431,-0.3603696,-0.1408741,-0.1613563,0.01928374,-0.02010243,1.282261,-0.2723354,-0.6766531
0.7651236,-0.2571476,-0.1239771,-0.1896369,0.123122,-0.003647474,1.195397,-0.2531237,-0.5122053
0.7809451,-0.1236796,-0.0294659,-0.1739129,0.2572168,0.09043997,0.93007,-0.3934499,-0.3548701
0.8955398,-0.04481094,0.08042931,-0.05934785,0.3367108,0.1999266,0.6500455,-0.5287086,-0.2126229
1.00445,-0.07178516,0.06320545,0.04960115,0.3103444,0.1823027,0.1334687,-0.4715403,-0.1751546
1.086186,-0.1682863,0.06373814,0.1314399,0.2144177,0.1824351,-0.2946102,-0.2476393,-0.4521614
1.117226,-0.2631533,0.1629195,0.1626364,0.1200795,0.2812069,-0.07361518,-0.07514924,-0.4735821
1.145072,-0.2998845,0.2091171,0.1906828,0.08382432,0.3269753,0.176381,-0.05101919,-0.4993209
1.120888,-0.2607839,0.1752334,0.1667296,0.1233445,0.2926303,0.4012716,-0.3312496,-0.5584588
1.045416,-0.2774668,0.04098745,0.09150801,0.1070223,0.15788,0.6507341,-0.7747252,-0.2373354
1.157584,-0.4978937,-0.278427,0.2039361,-0.1131038,-0.1620873,0.4141914,-0.838255,0.01111592
1.396534,-0.6939054,-0.5432033,0.4431436,-0.3088699,-0.4274591,-0.2572786,-0.2057581,0.06686804
1.521083,-0.6416834,-0.5105766,0.5679318,-0.2564449,-0.3954525,-1.02094,0.5869304,-0.1240642
1.269331,-0.6080413,-0.2802267,0.3163782,-0.2226266,-0.165726,-0.7190828,0.5324444,-0.2669244
0.9311935,-0.7627986,-0.09555952,-0.02161934,-0.3772196,0.0183298,0.0977246,0.04292682,-0.02549507
1.13813,-0.8095227,-0.1608674,0.1853914,-0.4237748,-0.04757068,0.1949014,0.05629259,0.06556725
1.347206,-0.6370049,-0.2807949,0.3944739,-0.2510656,-0.1680692,0.7167243,0.4446844,0.03856424
1.216301,-0.4200105,-0.2441056,0.2634993,-0.033844,-0.1319243,0.6371447,0.8688365,0.136986
1.194972,-0.2000823,-0.1888401,0.2420139,0.1863512,-0.07717047,-0.367523,0.7919999,0.2991022
1.029001,-0.1057537,-0.1223325,0.07579453,0.2809798,-0.01113758,-0.3468347,0.5151787,0.3761398
0.7848016,-0.1680986,-0.07961769,-0.1687445,0.2189545,0.03114044,-0.5160969,0.6221922,0.3283652
0.6913003,-0.2274696,-0.06801474,-0.2626675,0.1599084,0.04234281,-0.6557832,0.4881096,0.4662554
0.5254432,-0.3074762,0.02218134,-0.4290107,0.08022099,0.1321708,-0.02005871,0.4416174,0.5272253
0.4806834,-0.3383702,0.01800131,-0.4742974,0.04963389,0.1276494,0.0164105,0.7156917,0.441327
0.4912154,-0.2486955,-0.02652955,-0.4643063,0.1395985,0.082797,0.1464251,0.6794856,0.4328532
0.4941814,-0.1329417,0.01137252,-0.461869,0.2556201,0.1203912,-0.02407785,0.6580999,0.3233988
0.6567049,-0.06360918,-0.03484926,-0.2998385,0.3251889,0.07386974,-0.7376764,0.5137955,0.3123465
0.7396408,-0.1221791,-0.04403921,-0.217342,0.2668116,0.06438388,-0.8030308,0.2710547,0.4326904
0.828487,-0.2594326,0.003308169,-0.1288705,0.1296959,0.1114355,-0.9209599,0.2922328,0.5185887
0.9974877,-0.4160052,0.006433728,0.03982512,-0.02679987,0.1142615,-0.8008108,0.1460781,0.5921886
1.133778,-0.5735282,0.04597581,0.1758772,-0.1843054,0.1534957,-0.3593971,-0.004196455,0.6299097
1.338696,-0.6262475,0.04221902,0.3806144,-0.2370574,0.1494172,-0.1520162,-0.01392948,0.70123
1.449448,-0.599667,0.04594995,0.4912254,-0.2105463,0.152807,0.2463858,0.08096014,0.6837826
1.424805,-0.5603308,0.07387705,0.4664571,-0.1713026,0.1803677,0.2564315,0.2940472,0.5979518
1.343955,-0.5335996,0.0227444,0.385473,-0.1446751,0.1288382,0.03242592,0.2640006,0.557189
1.177645,-0.6313805,0.0001542007,0.2190007,-0.2425606,0.1058161,0.08792419,0.08152938,0.4484029
1.057219,-0.7708974,-0.004098907,0.0983705,-0.3821719,0.1010936,0.4392239,-0.1946588,0.3180619
0.9963717,-0.7576966,-0.02224535,0.03727303,-0.3690402,0.08243889,1.045041,-0.4074496,0.1610725
0.9701208,-0.6892151,-0.03443333,0.01072509,-0.3005861,0.06970323,1.016266,-0.4989107,3.590767e-05
0.9433146,-0.5936104,-0.1146523,-0.01642219,-0.2049533,-0.01110202,0.8004247,-0.7666853,-0.1158153
0.8867198,-0.4260897,-0.2302209,-0.07339756,-0.03734075,-0.1272918,0.8263661,-0.7618724,-0.2070106
0.9311931,-0.389022,-0.2569347,-0.02933854,-0.0001156312,-0.1546544,0.4856308,-0.53733,-0.2526774
0.9921151,-0.384355,-0.1861,0.03114103,0.004771168,-0.08448609,0.3164964,-0.5664082,-0.3543588
0.9343436,-0.285131,-0.1581523,-0.0270974,0.1042716,-0.05721352,0.3713326,-0.5842818,-0.3406526
0.822262,-0.3219677,-0.1450286,-0.1396661,0.06776061,-0.04476717,0.4007556,-0.5879433,-0.2605126
0.6735,-0.3457458,-0.08615593,-0.2889278,0.0443494,0.01343031,0.6038449,-0.5864272,-0.4572922
0.5555986,-0.2519811,-0.09519162,-0.4073282,0.1385144,0.003724317,0.6343038,-0.4600923,-0.6542919
0.5434952,-0.2497264,-0.1129678,-0.4199114,0.1411944,-0.01471574,0.5050831,-0.4108741,-0.689486
0.5572527,-0.2151595,-0.09533866,-0.4065941,0.1762019,0.002257301,0.4061744,-0.4358221,-0.5305564
0.5831707,-0.1628099,-0.1113649,-0.3810573,0.2289964,-0.01441557,0.3398536,-0.4488061,-0.1696214
0.6402789,-0.1983668,-0.1180363,-0.3242544,0.1938773,-0.02172276,0.3104262,-0.4123057,-0.05914779
0.7427559,-0.2124357,-0.1097161,-0.2219939,0.1802278,-0.01402554,0.1231194,-0.2507844,-0.147601
0.9371707,-0.2409019,-0.1014509,-0.02769942,0.1521532,-0.006369107,-0.04513531,-0.0777879,-0.1899611
1.025644,-0.2508426,-0.08338108,0.06074987,0.1425685,0.01110731,-0.02185379,-0.07897142,-0.2220971
0.9590324,-0.2330262,-0.05680714,-0.005796118,0.1606993,0.03710351,-0.01399664,-0.2682333,-0.1435512
1.011585,-0.2476656,-0.0325886,0.04690441,0.1463267,0.06075911,-0.1167838,-0.404616,-0.03395438
1.136261,-0.2479475,-0.05949867,0.1718016,0.1462592,0.0332992,-0.3901967,-0.3502488,0.004759302
1.241371,-0.2847936,-0.1127246,0.2771949,0.1095707,-0.02046486,-0.7170931,-0.1792584,-0.02800905
1.41591,-0.3389477,-0.1185467,0.4520603,0.05551498,-0.02681325,-0.7989867,0.01280006,-0.09417328
1.521811,-0.3419312,-0.09285129,0.5583107,0.05257019,-0.001630888,-0.6948332,0.03029585,-0.1918286
1.485794,-0.3084073,-0.08163825,0.522636,0.0860739,0.009083301,-0.6815133,-0.02011615,-0.2591451
1.409709,-0.2820837,-0.09932983,0.4468605,0.1123192,-0.009092481,-0.6900471,0.08597325,0.01687761
1.2595,-0.3205075,-0.1716568,0.2969057,0.07375841,-0.08188823,-0.7333258,0.3357202,0.3778801
1.127896,-0.3553521,-0.2765339,0.1654849,0.0387187,-0.1872155,-1.170331,0.7255301,0.3755411
1.192043,-0.3614671,-0.3148934,0.2297342,0.0323519,-0.2260001,-1.767459,0.9111835,0.2930756
1.255492,-0.4247136,-0.2880893,0.2932004,-0.03119983,-0.1995868,-1.919045,0.8178619,0.3014318
1.206943,-0.5608537,-0.2862897,0.244576,-0.1676931,-0.1981344,-1.686484,0.866142,0.1510896
1.226199,-0.6997296,-0.2718897,0.2636575,-0.3069601,-0.1840298,-1.400776,0.9271854,-0.1018495
1.197883,-0.7182479,-0.1916571,0.2350619,-0.3258919,-0.1040345,-0.9887231,0.9489773,-0.128204
1.042581,-0.5618926,-0.119443,0.07937334,-0.1699555,-0.03199617,-0.6329689,1.043824,0.07840897
0.9317239,-0.3542552,-0.08370679,-0.03197811,0.03727045,0.00362575,-0.7329219,0.9347712,0.3430844
0.8495262,-0.2719428,-0.08218183,-0.1147691,0.1191835,0.005094896,-0.9944299,0.7393448,0.5370317
0.7595654,-0.24713,-0.1268671,-0.20541,0.1436062,-0.03959149,-1.274398,0.6728557,0.4881761
0.6690185,-0.220945,-0.1528552,-0.2967074,0.1694045,-0.06552904,-1.456536,0.708642,0.335821
0.5443029,-0.3014463,-0.1236707,-0.4222234,0.08851324,-0.03624385,-1.176732,0.8920464,0.2762608
0.3983376,-0.3369334,-0.06817743,-0.5690143,0.05262794,0.01939846,-0.9569252,1.015542,0.2571993
0.293255,-0.2618345,-0.02755218,-0.6749182,0.1273176,0.06021744,-0.9298859,0.9416543,0.2739603
0.3123985,-0.2103361,-0.004762328,-0.6565589,0.1783922,0.08324015,-0.8335388,0.8015065,0.2548089
0.3927926,-0.1452393,0.02303045,-0.576879,0.2430451,0.1112978,-0.9130366,0.6689553,0.2130818
0.5232735,-0.08772543,0.02625884,-0.4470144,0.3000869,0.1148151,-0.9856655,0.5463473,0.2631155
0.726464,-0.05793534,0.01837639,-0.2443222,0.3293662,0.1072375,-1.12374,0.3930923,0.3744094
0.8718475,-0.08122864,0.02484242,-0.09930844,0.3055118,0.1140166,-1.348234,0.191626,0.6207991
1.027372,-0.2035376,0.03417249,0.05597549,0.1825812,0.1236606,-1.312688,-0.1123531,0.9032996
1.24772,-0.3651791,0.04827904,0.2762051,0.02025211,0.1380749,-1.188098,-0.2919615,0.9537889
1.438179,-0.5724957,0.04212413,0.4666495,-0.1878162,0.1322145,-0.8979981,-0.02761363,0.8305508
1.555833,-0.6814738,0.02753645,0.584366,-0.2975995,0.1179015,-0.4657373,0.2793647,0.5548619
1.513221,-0.641626,0.0007730816,0.5418645,-0.2585931,0.0913872,-0.3244422,0.2028699,0.1857952
1.330029,-0.6730225,-0.09984932,0.358798,-0.2908487,-0.009015277,-0.3573266,-0.0005522399,0.1199749
1.054206,-0.7358878,-0.2080451,0.08309329,-0.3545721,-0.1170204,-0.1169583,-0.09274675,0.3415197
0.8610264,-0.7309845,-0.1885098,-0.1099871,-0.3505074,-0.09731963,0.2900211,-0.09130738,0.4175128
0.9162913,-0.6523181,-0.124855,-0.05464159,-0.2726417,-0.03351872,0.3908574,-0.1354066,0.3558017
0.9266863,-0.5136649,-0.1921055,-0.04418078,-0.1347369,-0.1006376,0.3754582,-0.5113109,0.2600652
0.9053316,-0.4405019,-0.3498621,-0.06548064,-0.06226103,-0.2582715,0.1676257,-0.8578254,0.0008461118
1.011163,-0.4080574,-0.4690301,0.04039725,-0.03043931,-0.3773156,-0.5193125,-0.5551723,-0.2124165
0.929473,-0.3795896,-0.3837877,-0.04125229,-0.002530017,-0.2919339,-0.8418005,-0.2106041,-0.1960784
0.7991441,-0.4188041,-0.1439638,-0.1715456,-0.04224078,-0.05194184,-0.6702057,-0.346482,-0.1316336
0.8421777,-0.4482271,-0.08502791,-0.1284762,-0.0720994,0.007197653,-0.4738273,-0.3762554,-0.1304807
0.8074008,-0.4928253,-0.1193594,-0.1632099,-0.1170728,-0.02689502,-0.01488034,-0.2290591,-0.2487393
0.7358006,-0.575355,-0.08314394,-0.2347521,-0.1999153,0.009591813,0.2967357,-0.1383477,-0.4503359
0.6581627,-0.4960723,-0.1088517,-0.3123078,-0.1208793,-0.01581462,0.2497943,0.05528249,-0.5421429
0.5151107,-0.3145723,-0.1239464,-0.4552408,0.06044234,-0.03058061,0.2179281,0.08709114,-0.4380769
0.4822953,-0.2243829,-0.1119245,-0.4878838,0.1505189,-0.01820443,0.07313675,-0.08448537,-0.2647598
0.552569,-0.2135324,-0.1154187,-0.4173658,0.1613132,-0.02132067,-0.02910386,-0.08771935,-0.1199441
0.6567868,-0.2509492,-0.1100866,-0.3128152,0.1238857,-0.01558835,0.04824135,-0.09096353,-0.0336222
0.7773129,-0.2685178,-0.1332613,-0.1918564,0.1063416,-0.03834236,0.07706897,-0.162474,-0.08959023
0.8744296,-0.2772535,-0.1382793,-0.09420286,0.09765657,-0.04292029,0.0682006,-0.2126322,-0.1203499
0.9840821,-0.2902781,-0.1578982,0.01608928,0.08470159,-0.06208048,0.04561175,-0.2865935,-0.03077835
1.087103,-0.2544653,-0.1987981,0.1198455,0.1205965,-0.1025024,-0.07379896,-0.2508168,0.01155799
1.167888,-0.2610707,-0.2116203,0.2014485,0.1140791,-0.1148261,-0.4089868,-0.2073816,0.04328281
1.246737,-0.2774125,-0.2148697,0.2811831,0.0978249,-0.1175538,-0.8486438,-0.1516951,-0.008877308
1.327554,-0.2969701,-0.1833089,0.3629322,0.07834888,-0.08544562,-1.132051,0.0122523,-0.1479187
1.391778,-0.384067,-0.1413514,0.4281136,-0.008676468,-0.04291348,-1.127478,0.09054855,-0.1584082
1.39045,-0.4105417,-0.1073915,0.4277427,-0.03509071,-0.008351759,-0.8543526,0.09244496,-0.127644
1.313905,-0.4521509,-0.1615616,0.3521308,-0.07664913,-0.0618948,-0.6857424,0.174826,-0.1217912
1.212461,-0.4971759,-0.2914192,0.2515769,-0.1216294,-0.1911006,-0.8897861,0.5582977,-0.1657969
1.16575,-0.3163129,-0.2963078,0.2056968,0.05927621,-0.1953101,-1.419591,0.9106869,-0.3491939
1.101143,-0.1782941,-0.2078567,0.1418525,0.197336,-0.1061478,-1.815298,0.5832013,-0.4129445
1.030631,-0.4269197,-0.1615982,0.0720278,-0.05125415,-0.05914296,-1.365337,0.2058753,-0.01715884
1.138714,-0.7362808,-0.2476512,0.1807195,-0.3605858,-0.1444136,-0.6993477,0.4439012,0.4523136
1.263568,-0.7123685,-0.3588485,0.3061011,-0.336641,-0.2547909,-0.7122444,0.7954761,0.306407
1.23696,-0.5728622,-0.2818541,0.2799318,-0.1970841,-0.1769348,-0.7224976,1.126054,-0.0004369139
1.124487,-0.4703213,-0.1823113,0.1678008,-0.09446288,-0.07648417,-0.6286325,1.348202,0.01848769
0.9120568,-0.285248,-0.1456638,-0.04438935,0.09072526,-0.03888157,-0.871662,1.020463,-0.01829385
0.7229228,-0.195595,-0.1017831,-0.2333807,0.1805252,0.005998585,-0.8796802,0.6945322,0.1010977
0.6542311,-0.224935,-0.1192977,-0.3020142,0.1513557,-0.01047685,-0.7615984,0.7481286,0.3265482
0.6090979,-0.2605436,-0.1158389,-0.3471549,0.1159313,-0.005944593,-0.6841035,0.8687016,0.3124665
0.5441265,-0.3336392,-0.09956175,-0.412178,0.04302557,0.01143516,-0.3689825,1.081577,0.3869684
0.4480125,-0.3118403,-0.09943358,-0.5083645,0.06501439,0.01268976,-0.3451281,1.064722,0.3719355
0.3905553,-0.2512197,-0.04496064,-0.5658896,0.125821,0.0683073,-0.3890641,0.9324465,0.2309598
0.4745493,-0.2285784,-0.0402212,-0.4819326,0.148639,0.07420292,-0.3447375,0.9030987,0.1684368
0.6570759,-0.1575706,-0.05402493,-0.2993885,0.2198076,0.06155972,-0.7152237,0.5829094,-0.0172818
0.8106904,-0.1767695,-0.03097337,-0.1456866,0.2007447,0.08576904,-0.950381,0.462232,-0.04453814
0.9121622,-0.2634348,-0.02749968,-0.0440507,0.1141824,0.09039084,-0.9521038,0.4740174,0.1318056
1.00217,-0.3369287,-0.001456816,0.04619733,0.04075278,0.1175651,-0.9098998,0.1775149,0.337594
1.076084,-0.4967501,0.01310321,0.1204214,-0.119044,0.1332326,-0.5765513,0.1028115,0.6035151
1.216696,-0.6615518,0.02287103,0.2614032,-0.2838552,0.1440763,-0.1713174,0.109767,0.6466946
1.343243,-0.7240507,0.04472098,0.3883631,-0.3463855,0.1669625,0.2568832,0.1386313,0.5707673
1.299011,-0.6313049,0.02456176,0.3445685,-0.2536767,0.1477923,0.42828,0.3293669,0.5632514
1.235456,-0.4290013,0.004430702,0.2814541,-0.05140148,0.1285959,0.1703734,0.2424456,0.505963
1.199161,-0.338306,-0.05009357,0.2455864,0.03928141,0.07494628,-0.2270861,-0.08194485,0.5232249
1.167905,-0.4889485,-0.1117231,0.2147284,-0.1113559,0.01412845,-0.5083626,-0.3916723,0.5841976
1.16224,-0.7446996,-0.08029595,0.209422,-0.3670816,0.04630383,0.1413286,-0.4354514,0.5066703
1.059611,-0.7731488,-0.0646287,0.1071038,-0.3954752,0.06265633,0.9901329,-0.4210959,0.2523598
0.8807992,-0.5926931,-0.1245092,-0.07144923,-0.214919,0.003398586,0.6023914,-0.7392551,-0.1158367
0.7474118,-0.4766677,-0.18837,-0.2046281,-0.09873712,-0.05990023,0.2938572,-0.8460156,-0.2767337
0.8313981,-0.4261625,-0.2236665,-0.1204748,-0.04801481,-0.09469153,0.5064079,-0.6134442,-0.2178707
1.027127,-0.3903436,-0.2010587,0.07538892,-0.01191904,-0.071629,0.0929607,-0.4776131,-0.3171877
0.967597,-0.28735,-0.1360959,0.01596419,0.09140749,-0.006255848,-0.06020274,-0.5560403,-0.3981736
0.8444858,-0.2088585,-0.09573228,-0.1070684,0.1702804,0.03447764,0.152815,-0.7260545,-0.33198
0.786189,-0.2755914,-0.1065859,-0.1653096,0.1039674,0.02395509,-0.08406459,-0.6535245,-0.4395921
0.655867,-0.2650588,-0.1357957,-0.2955905,0.1149478,-0.004961442,-0.08738099,-0.5145427,-0.5920428
0.6004355,-0.2279959,-0.1358209,-0.3509824,0.1524767,-0.004729909,-0.03005972,-0.4029241,-0.6031668
0.5301357,-0.248912,-0.1202925,-0.4212279,0.1320355,0.01102053,-0.154098,-0.2653486,-0.4516199
0.5074843,-0.2316055,-0.1248466,-0.4437919,0.1498168,0.006655719,-0.05593355,-0.302859,-0.1821779
0.658772,-0.2637395,-0.1503408,-0.2923653,0.1181488,-0.01868035,-0.1244997,-0.1423049,-0.1409788
0.7171222,-0.2921302,-0.1795437,-0.2338104,0.09020832,-0.04775395,-0.1703416,0.1213127,-0.2950595
0.7308716,-0.3126054,-0.1536737,-0.2197814,0.07016173,-0.02178041,-0.0793919,0.1410157,-0.3593988
0.7820616,-0.3617388,-0.1108962,-0.1682312,0.02143185,0.02107777,-0.05948597,0.04596982,-0.315768
0.8667753,-0.3409507,-0.1335125,-0.08307421,0.04259638,-0.00147887,0.1160603,-0.1527208,-0.2465526
1.00743,-0.3169014,-0.1551683,0.05810557,0.06699401,-0.02309479,0.1311931,-0.1339504,-0.2476695
1.046823,-0.3073168,-0.1671857,0.09809937,0.07689702,-0.03509017,-0.04990503,-0.1262305,-0.2346737
1.058899,-0.2718039,-0.1851939,0.1108413,0.1126961,-0.05309153,-0.2533249,-0.3709582,-0.1536385
1.118949,-0.2697228,-0.1820555,0.17161,0.1150276,-0.04995816,-0.5128605,-0.3773486,-0.05768735
1.246344,-0.3199285,-0.2057653,0.2997625,0.06503329,-0.07368137,-0.5298961,-0.2622362,-0.00795343
1.431634,-0.3913678,-0.2157591,0.4858318,-0.006235575,-0.08369295,-0.3975108,-0.1373627,-0.02651546
1.44784,-0.4714533,-0.2143872,0.5028148,-0.08619054,-0.082339,-0.1717642,-0.06847342,0.105337
1.302587,-0.5757909,-0.2906923,0.3583113,-0.1904322,-0.1586574,0.2162921,-0.06016758,0.2792294
1.173773,-0.5814717,-0.3701961,0.2301985,-0.1960427,-0.2381635,0.1757499,0.1210794,0.2108412
1.167838,-0.3621849,-0.360557,0.2249012,0.02329817,-0.2285066,-0.6102388,0.1304433,0.06872665
1.173412,-0.1941228,-0.2932106,0.2310407,0.1914025,-0.161113,-1.289911,0.08834264,0.002997756
1.049744,-0.4136694,-0.2541345,0.1078574,-0.02811564,-0.1219524,-0.982554,0.1981239,0.0881484
0.9497721,-0.69342,-0.2586127,0.008286328,-0.307852,-0.1263042,-0.3253592,0.3043149,0.3324053
0.9113524,-0.6289471,-0.2467319,-0.02981465,-0.2433712,-0.1142518,-0.0090807,0.5358548,0.4575351
0.9483324,-0.5114706,-0.2073148,0.007406589,-0.125881,-0.07461584,0.2275452,0.5679577,0.3379544
1.029724,-0.4733356,-0.1540782,0.0889662,-0.08771745,-0.02111233,0.1795311,0.4100401,0.2128696
0.9963669,-0.3805384,-0.1042849,0.05570795,0.005127971,0.02899384,0.0619608,0.2345168,0.2512769
0.9432418,-0.3903211,-0.08564478,0.002613207,-0.004586246,0.04798888,0.2091746,-0.1157185,0.281662
0.8675618,-0.4317683,-0.1211465,-0.07310076,-0.04594533,0.01287852,0.1714045,-0.1668732,0.249226
0.7511844,-0.4352069,-0.1573944,-0.1895695,-0.0492766,-0.02294655,0.3744172,0.09438072,0.2552574
1.244747,-0.4596808,-0.1905652,0.2593993,-0.1188521,-0.1090497,-0.2335732,-0.1465876,-0.02819857
1.250579,-0.5379947,-0.2940043,0.2670753,-0.1953702,-0.2106445,-0.1985065,-0.2555681,0.09154617
1.25083,-0.576846,-0.4468366,0.2691378,-0.2324715,-0.3616309,-0.4973172,-0.06800671,0.02669093
1.237173,-0.5641937,-0.442552,0.2572427,-0.2181063,-0.3554898,-0.9142922,0.2129678,-0.03376473
1.257434,-0.6159666,-0.3531065,0.2792034,-0.2681934,-0.2641663,-0.8045263,0.1236003,-0.0007455211
1.141831,-0.7314993,-0.3190883,0.165222,-0.3820568,-0.2282394,-0.3848569,0.08084898,0.09495051
1.050805,-0.8000451,-0.2479149,0.07573089,-0.4489363,-0.1551211,-0.1335212,0.2523853,0.2550821
1.045676,-0.6752769,-0.2446233,0.07204664,-0.3224893,-0.1498465,-0.06836064,0.2203957,0.2825277
1.02705,-0.4342902,-0.2566462,0.05477154,-0.07979882,-0.1598481,-0.2467177,0.1611337,0.2441761
0.9892277,-0.2931296,-0.1547665,0.01820684,0.06309441,-0.05590957,-0.3973237,0.1638584,0.3460998
0.9316028,-0.2800682,-0.1358482,-0.03825145,0.07791227,-0.034898,-0.3890077,0.2109575,0.4215908
0.8646113,-0.3505104,-0.1519703,-0.1041636,0.009241441,-0.04889744,-0.3580479,0.3735389,0.4335072
0.666892,-0.3949653,-0.1121554,-0.3008827,-0.03343479,-0.006936559,-0.1135716,0.3941559,0.4199488
0.5121294,-0.3442321,-0.1113568,-0.4547103,0.01907871,-0.003974789,0.1544009,0.4091972,0.3350502
0.511244,-0.2868479,-0.08594186,-0.4547055,0.07823964,0.02361375,0.2784157,0.5127579,0.2560905
0.4995428,-0.2263437,-0.06710597,-0.4655381,0.1405097,0.04462624,0.3183802,0.4707513,0.1167418
0.5621448,-0.1424931,-0.1015097,-0.4020662,0.2261055,0.01239464,0.08521715,0.445743,-0.01396342
0.624901,-0.09663282,-0.1130289,-0.3384197,0.2736777,0.003036091,-0.2573238,0.4734169,0.00032395
0.6331662,-0.1367449,-0.09784174,-0.329228,0.2352298,0.02036672,-0.5001851,0.4440665,0.06483955
0.716837,-0.2756478,-0.06221416,-0.2445828,0.09793038,0.05811503,-0.5426059,0.3862771,0.1996876
0.835387,-0.4439853,-0.04112765,-0.1250025,-0.06887202,0.08129332,-0.4139583,0.2928538,0.2843394
0.9702143,-0.5903967,-0.04297547,0.01091353,-0.2138168,0.08150133,-0.2558106,0.2355773,0.1936391
1.097337,-0.7267919,-0.03467083,0.1391786,-0.3488057,0.09181874,0.1390129,0.1678994,0.1140538
1.181339,-0.7773402,-0.02744928,0.2243672,-0.3979937,0.1010031,0.5364923,0.1149443,0.0876589
1.238106,-0.6779565,-0.01818803,0.2823475,-0.2972781,0.1121704,0.6023026,0.2730024,0.04366181
1.258929,-0.5471759,-0.0352401,0.3043943,-0.1651791,0.09696121,0.3859948,0.3960238,0.02214693
1.164129,-0.5120923,-0.105149,0.2108108,-0.1287807,0.02882675,-0.1006781,0.1214187,0.0710895
0.9908974,-0.5750723,-0.1578061,0.03877161,-0.1904441,-0.02212735,-0.3210443,-0.2245907,0.142784
0.9611627,-0.6575969,-0.1359932,0.01019824,-0.2716449,0.001316813,0.03226618,-0.2654298,0.2104091
0.9963204,-0.6589839,-0.1576476,0.04648218,-0.2716936,-0.01877673,0.4063779,-0.3363248,0.250339
0.9324522,-0.6393926,-0.3189447,-0.01629648,-0.2507409,-0.1785811,0.3731315,-0.4984709,0.07511349
0.8384891,-0.5888911,-0.4448616,-0.1092071,-0.1988471,-0.3030668,0.04885185,-0.3280361,-0.249202
0.7968716,-0.4618855,-0.3935494,-0.1498061,-0.07041346,-0.2503732,-0.1252994,-0.1581353,-0.3734681
0.8984123,-0.4956232,-0.2766891,-0.04727604,-0.1026863,-0.1321688,0.07849315,-0.4444306,-0.2778978
1.009395,-0.5701515,-0.2237446,0.06467045,-0.1757141,-0.07790869,0.407893,-0.7488463,-0.2458713
0.9725497,-0.4965843,-0.2276904,0.02876335,-0.1006107,-0.08056259,0.5419768,-0.7342104,-0.3609358
0.9129302,-0.4919137,-0.2628476,-0.02994598,-0.09436851,-0.1144488,0.6464174,-0.5704715,-0.5116095
0.8554918,-0.4418069,-0.284287,-0.08650229,-0.04265641,-0.1346349,0.8012995,-0.4676901,-0.665227
0.7181461,-0.288595,-0.216091,-0.222991,0.1121903,-0.06519966,0.7277952,-0.6323469,-0.6832296
0.5652666,-0.1839658,-0.1478527,-0.3750303,0.218475,0.004265855,0.5961982,-0.818662,-0.5425741
0.5138489,-0.144173,-0.1385163,-0.4256111,0.2599302,0.01481713,0.5079322,-0.7571357,-0.4505376
0.506191,-0.2491072,-0.1273743,-0.4324175,0.1566491,0.02715899,0.5174031,-0.8534866,-0.3864741
0.5045429,-0.3284036,-0.1391267,-0.4331811,0.07898295,0.01658834,0.6960806,-1.030683,-0.4251328
0.5939319,-0.3361973,-0.1700913,-0.3428578,0.07278692,-0.01321541,0.6868805,-0.7594494,-0.586461
0.689859,-0.3587239,-0.2153303,-0.2459333,0.05181913,-0.05731599,0.646319,-0.328386,-0.6294679
0.8082715,-0.2937597,-0.2660045,-0.1264527,0.1182982,-0.1068737,0.6677873,-0.1524581,-0.6091533
0.9258218,-0.2912812,-0.2589942,-0.007762001,0.1222421,-0.0987665,0.5739481,-0.1943569,-0.5059578
0.914471,-0.3190014,-0.238392,-0.0179043,0.09593187,-0.0770837,0.532451,-0.3778717,-0.2908305
1.064744,-0.31689,-0.2599491,0.1336372,0.09939229,-0.09757348,0.4170616,-0.4669716,-0.1656623
1.280316,-0.3770571,-0.2672394,0.3505262,0.04050917,-0.1038071,0.2762816,-0.2377489,-0.1457167
1.260427,-0.3548014,-0.2515648,0.3319837,0.06398127,-0.08708358,0.1086862,0.1564367,-0.2452396
1.319861,-0.3566569,-0.2621642,0.3927707,0.06327306,-0.09663907,-0.08605353,0.3091496,-0.301642
1.336288,-0.4244713,-0.2670808,0.4105352,-0.003463912,-0.1005146,0.1215458,0.1021617,-0.1117698
1.151484,-0.4597849,-0.2972138,0.2270308,-0.0377692,-0.1296067,0.2628067,-0.005096554,0.08247749
1.110196,-0.5264309,-0.4091396,0.1869883,-0.1034726,-0.2404879,-0.2162044,0.1970785,0.06330421
1.105732,-0.5123994,-0.4733468,0.1837026,-0.08855893,-0.3036404,-0.802017,0.3452608,-0.07797951
1.034192,-0.5279563,-0.3622252,0.1132677,-0.1032872,-0.1914447,-0.9068634,0.3724472,-0.1526005
0.9780482,-0.7287704,-0.2250935,0.05815096,-0.3033184,-0.05321261,-0.4850245,0.5489154,-0.1362916
0.9400209,-0.8656695,-0.2718994,0.02106976,-0.4394679,-0.09888926,0.002474467,0.8693012,-0.05871419
1.077176,-0.7321374,-0.3004347,0.1590904,-0.305202,-0.1262668,0.176755,1.123316,0.08350061
1.262684,-0.4587981,-0.2121236,0.3453806,-0.03112911,-0.03676955,0.03795185,1.113609,0.2377713
1.275629,-0.2975816,-0.2397241,0.3590167,0.1308273,-0.06315673,-0.3009988,0.8547539,0.4605849
1.203242,-0.237696,-0.2573253,0.2872177,0.1914555,-0.07951949,-0.6452676,0.7174379,0.6281121
1.105978,-0.2634509,-0.2232135,0.1904281,0.1664366,-0.04414605,-0.7131195,0.7791188,0.5731866
0.9348492,-0.3727431,-0.2259311,0.01965629,0.05786389,-0.04558087,-0.5142801,0.7745771,0.4748571
0.6928049,-0.4323777,-0.1195942,-0.2221464,-0.001073791,0.06205679,-0.2782577,0.7026714,0.4143205
0.5034929,-0.4720864,-0.01063815,-0.4113188,-0.04011052,0.1723256,0.1971837,0.5817292,0.3070819
0.4091494,-0.3983625,0.006415752,-0.5056021,0.03426062,0.1906943,0.6824678,0.4795443,0.1669332
0.3864119,-0.2002308,-0.05012471,-0.5283307,0.2330136,0.1354586,0.5800261,0.5038457,0.04175364
0.4556714,-0.05417086,-0.1387559,-0.4590842,0.3796615,0.04811162,0.1796651,0.5119766,-0.01789003
0.5612167,0.01673045,-0.1088078,-0.3535476,0.4511033,0.07931594,-0.3223751,0.4770215,0.0294781
0.6989405,-0.1255966,-0.08848964,-0.215808,0.3092517,0.100857,-0.736916,0.4756287,0.1298945
0.8254431,-0.3879114,-0.0867038,-0.08925232,0.04733335,0.1038271,-0.629714,0.4741835,0.2288786
0.9235696,-0.5775935,0.02393396,0.008969892,-0.1420357,0.215604,-0.2228071,0.4466164,0.2588216
1.098821,-0.6788372,0.08975236,0.1843581,-0.243043,0.2825081,0.3574433,0.4216011,0.1103209
1.237827,-0.5687547,0.09757458,0.3235325,-0.132788,0.2913512,0.7179819,0.4227789,-0.1110356
1.271099,-0.4569551,0.08925751,0.356991,-0.02086721,0.2839777,0.5460564,0.3802288,-0.3058579
1.260814,-0.4915039,0.04016156,0.3468913,-0.05533782,0.2357368,0.3406052,0.1390416,-0.3487803
1.226382,-0.6324629,0.01339407,0.312626,-0.1962551,0.2097264,-0.03832586,-0.3479583,-0.03314466
1.250055,-0.9249519,0.01301823,0.3364296,-0.4887283,0.210003,-0.1935589,-0.6078533,0.2595812
1.231338,-0.9879955,0.001263209,0.3177927,-0.5517628,0.1987907,0.6949627,-0.254441,0.1341542
1.068774,-0.7555312,-0.09503332,0.1552477,-0.3192723,0.1029237,1.411323,0.08478207,-0.09191179
0.8094576,-0.529743,-0.2285295,-0.1041192,-0.09342153,-0.0302561,0.8589794,-0.02020863,-0.1593925
0.6294515,-0.3698233,-0.2445381,-0.2842403,0.06660547,-0.04605653,0.202282,-0.09986703,-0.1558891
0.8032864,-0.449265,-0.2020064,-0.1105728,-0.01268498,-0.003416755,0.2756819,-0.2406577,-0.150271
1.021524,-0.5609847,-0.1755877,0.107457,-0.1242129,0.02301795,0.2631541,-0.6520053,-0.2281935
0.9562041,-0.4826883,-0.1187626,0.04189381,-0.04568508,0.07977291,0.2247153,-0.7190555,-0.3962624
0.7798482,-0.4925377,-0.07957972,-0.1347387,-0.05526325,0.1188034,0.5728375,-0.4558037,-0.614163
0.4960407,-0.4724594,-0.08536638,-0.4188494,-0.03487438,0.1127837,0.6964043,-0.4146435,-0.9027746
0.3164902,-0.3582471,-0.06925339,-0.5987124,0.07968544,0.1285836,0.8398694,-0.5744557,-1.006031
0.3521599,-0.3569065,-0.05919891,-0.563339,0.08140594,0.1382453,1.02762,-0.8258028,-0.8994453
0.3164479,-0.3079342,-0.0752168,-0.5993021,0.1307833,0.1217552,0.9949535,-0.9910057,-0.9019932
0.3582846,-0.2352228,-0.07862847,-0.5576443,0.2039162,0.1177922,1.256919,-0.992847,-0.8535986
0.5893152,-0.2516285,-0.1293056,-0.3266967,0.1879377,0.06648609,1.448315,-0.9809259,-0.6371044
0.8569451,-0.229368,-0.1999019,-0.05903935,0.2106199,-0.004813952,1.502917,-0.8693397,-0.4379965
0.9997346,-0.2283199,-0.1907702,0.08389039,0.212073,0.003544736,1.533402,-0.7464082,-0.366862
0.9394757,-0.2637751,-0.1773555,0.02387743,0.1769956,0.01612368,1.186261,-0.6678428,-0.4269768
1.003745,-0.2608252,-0.2162615,0.08848824,0.1802869,-0.02367406,0.8943744,-0.4530413,-0.4340171
1.132957,-0.2745636,-0.2273424,0.2181243,0.1668462,-0.03569588,0.5567666,-0.3178189,-0.4374462
1.091053,-0.2866909,-0.1712845,0.1767127,0.154966,0.01937896,0.1333509,-0.3815567,-0.4820471
1.135,-0.2983651,-0.08960656,0.2212054,0.1434832,0.1000373,0.02874815,-0.3949092,-0.4626456
1.238867,-0.3501316,-0.01655773,0.3256546,0.09184839,0.1720323,0.0739241,-0.3645897,-0.5345187
1.295061,-0.360361,0.04799933,0.3824486,0.081689,0.2354997,0.2632175,-0.3873229,-0.6408376
1.293162,-0.3080816,0.07258688,0.3811459,0.1339757,0.2589571,0.3832149,-0.4325637,-0.6464103
1.143579,-0.3043628,0.0195093,0.2321376,0.1376381,0.204703,0.4317219,-0.5725321,-0.5437885
0.9801054,-0.4190354,-0.1011642,0.069201,0.02284407,0.08280211,0.5861725,-0.654887,-0.2141898
0.9224348,-0.5846817,-0.2683787,0.01202307,-0.1429866,-0.08569026,0.5274475,-0.2561774,0.06488892
1.057494,-0.6215221,-0.3577553,0.1475287,-0.1800664,-0.1763882,0.1646358,0.3887153,-0.1507678
1.216023,-0.5264312,-0.270507,0.3064535,-0.085259,-0.09049266,-0.272972,0.5107564,-0.5592865
1.162101,-0.4956928,-0.1799982,0.2528698,-0.05483757,-0.001356456,-0.1869598,0.1144474,-0.6388318
1.161111,-0.525754,-0.1715642,0.2521502,-0.0852416,0.005693125,0.1835179,-0.0466844,-0.5933892
1.272837,-0.540986,-0.1727603,0.3640686,-0.1008355,0.003105941,0.2560221,0.3281888,-0.6007234
1.317248,-0.5777323,-0.2067805,0.4085839,-0.1379555,-0.03230753,0.535816,0.6032263,-0.4189268
1.27967,-0.5944113,-0.2122238,0.371007,-0.1550122,-0.03914164,0.9440453,0.2317001,-0.07983962
1.083465,-0.5428811,-0.1887322,0.174691,-0.103855,-0.01703333,1.326767,-0.2290558,0.2087731
0.7887317,-0.4623823,-0.1769485,-0.1202703,-0.02371807,-0.006620665,1.630626,-0.3317664,0.227999
0.6008056,-0.4199093,-0.1364058,-0.3085336,0.01840785,0.03256646,1.558391,-0.4010253,0.1281965
0.6009024,-0.3931656,-0.1501651,-0.3088653,0.04481962,0.01746916,1.612606,-0.3577574,0.1844282
0.6137889,-0.2797108,-0.1467252,-0.296476,0.1579554,0.01959007,1.554715,-0.2194668,0.1864225
0.583287,-0.1007376,-0.06104109,-0.3275216,0.336616,0.1039747,1.294442,-0.3025913,0.153905
0.6378656,0.03567267,-0.03088862,-0.2735126,0.4727078,0.1328461,1.225477,-0.3743556,0.09649864
0.5760826,0.07699404,-0.03832828,-0.335872,0.5136861,0.1241403,0.8141088,-0.3740492,-0.01682377
0.4802261,0.03689641,-0.04523381,-0.4322927,0.4731991,0.1159797,0.4791268,-0.2865044,0.1482074
0.6143576,-0.04568572,-0.02546974,-0.2986942,0.3901611,0.1344959,0.523037,0.05254437,0.3810069
0.7697284,-0.1268155,0.002570157,-0.1438088,0.308493,0.1612915,0.4321412,0.2714666,0.3918585
0.9365421,-0.1655095,-0.01272606,0.02257641,0.2691674,0.1447501,0.3293273,0.2851321,0.3733754
1.152986,-0.2349883,0.0284008,0.2386484,0.1989574,0.1846265,0.2239517,0.3834006,0.4092873
1.286812,-0.3846685,0.08962588,0.3721496,0.04844394,0.2445906,0.2929298,0.5434089,0.4425278
1.319896,-0.4944746,0.08410316,0.4049385,-0.06229369,0.2377899,0.4564444,0.5405499,0.3755328
1.270312,-0.6154742,0.01298957,0.355069,-0.1843132,0.1653743,0.4465505,0.03368562,0.3518761
1.298804,-0.8232321,-0.08980882,0.3832654,-0.3931633,0.06124564,0.6436401,-0.6422424,0.5849243
1.320409,-0.927976,-0.1262704,0.4045471,-0.4990486,0.02342503,1.011004,-0.7252915,0.7697605
1.232824,-0.9210859,-0.1944421,0.3165941,-0.4933209,-0.0461311,1.301658,-0.6258997,0.4925304
1.119575,-0.8234843,-0.3276913,0.2029191,-0.3968734,-0.1807833,1.218837,-0.9066377,-0.01703108
0.9279771,-0.575423,-0.3711802,0.01082982,-0.1499341,-0.2256827,0.7392183,-1.000267,-0.2641209
0.9224643,-0.4258221,-0.362876,0.004760125,-0.001408608,-0.2187827,0.4688972,-0.8978692,-0.2901641
1.017279,-0.4105137,-0.2932625,0.09895688,0.01287602,-0.1505529,0.4328678,-1.000155,-0.3260755
0.8806399,-0.3664637,-0.1320835,-0.03835797,0.05595327,0.00927367,0.5595055,-0.984501,-0.369317
0.7845459,-0.3586134,-0.0729874,-0.135179,0.06287907,0.06705391,0.8341751,-1.060325,-0.3737582
0.6648884,-0.3497807,-0.1026555,-0.2556048,0.07083172,0.03610662,1.019253,-1.34329,-0.3973186
0.4929533,-0.3012549,-0.09321509,-0.4283339,0.1185175,0.04430298,1.17805,-1.401918,-0.5399002
0.512751,-0.2462118,-0.1639827,-0.4093352,0.1727547,-0.02767445,1.090858,-1.330753,-0.6432572
0.554804,-0.1924892,-0.2697964,-0.3680632,0.2256976,-0.1346626,0.8311032,-0.9943078,-0.6273243
0.6631289,-0.1982611,-0.262897,-0.2604813,0.2191627,-0.1288979,0.6752591,-0.3729413,-0.6258426
0.8147204,-0.2350609,-0.2148509,-0.1095797,0.1816066,-0.08194083,0.5160965,0.0247037,-0.617812
0.8248403,-0.259734,-0.1798412,-0.1000885,0.1561751,-0.04796949,0.578091,0.01956903,-0.636766
0.8248958,-0.2692127,-0.1707704,-0.1005967,0.1459294,-0.03988362,0.6708512,-0.1466747,-0.6249619
0.8541993,-0.2707242,-0.1522802,-0.07179037,0.1436369,-0.02232372,0.6344523,-0.2181397,-0.4356581
0.9316664,-0.28447,-0.1241407,0.005246882,0.1290921,0.004940173,0.6170303,-0.4087349,-0.1998922
1.108511,-0.3024857,-0.1573158,0.1817257,0.1102556,-0.02905666,0.3647048,-0.5560521,-0.1541926
1.318083,-0.348887,-0.1708791,0.3909872,0.06300987,-0.04338862,0.1553515,-0.3631848,-0.3177889
1.373609,-0.3609599,-0.1487285,0.44624,0.05006823,-0.0219538,0.01441883,-0.1867461,-0.445429
1.328302,-0.2643007,-0.1289739,0.4006767,0.1458348,-0.002862545,-0.258228,0.009794617,-0.5165721
1.444827,-0.182821,-0.07426578,0.5169372,0.2263965,0.0512332,-0.3514094,0.1761021,-0.609335
1.435134,-0.2039726,-0.05697747,0.506951,0.2042969,0.06795674,-0.4208583,0.1101329,-0.572913
1.22723,-0.266758,-0.1057713,0.2987024,0.1405282,0.01864145,-0.4506545,0.1392426,-0.2893144
1.046047,-0.384026,-0.1768208,0.1171093,0.0222386,-0.05288953,-0.2993417,0.3232393,0.2461827
0.8395133,-0.5932939,-0.2866413,-0.0899055,-0.1880869,-0.1631519,-0.2910236,0.6273988,0.4357191
0.9440797,-0.7010642,-0.3825407,0.01411283,-0.2969411,-0.2594495,-0.6570791,0.9126492,-0.169233
1.209741,-0.6225083,-0.3766809,0.2791648,-0.2194798,-0.2539361,-1.080482,0.6794613,-0.6366828
1.298242,-0.6090051,-0.3554658,0.366993,-0.2070657,-0.2330059,-0.9255865,0.4067885,-0.3386725
1.466889,-0.651445,-0.38082,0.5348945,-0.2505747,-0.2585744,-0.6124839,0.9715825,-0.0563906
1.424779,-0.6051513,-0.3132001,0.491952,-0.2053171,-0.1910906,-0.5146018,1.45323,-0.04553829
1.21766,-0.5589181,-0.1797966,0.2838966,-0.1600754,-0.05773939,-0.2279663,1.094071,0.2227752
1.067788,-0.4803812,-0.09298692,0.132976,-0.08247659,0.02910196,-0.1017374,0.8761407,0.3866832
0.665899,-0.3457897,-0.04785839,-0.2700719,0.05123453,0.07434131,-0.06483308,0.760426,0.2594514
0.4414728,-0.2143818,-0.06729134,-0.4957529,0.1818185,0.05509027,0.04794477,0.381351,0.3391385
0.4731422,-0.103432,-0.06436848,-0.4654067,0.2919931,0.05825743,-0.1353353,0.4510939,0.3405656
0.354782,-0.09787702,-0.04151475,-0.5851256,0.2968087,0.08140942,-0.1436725,0.6304107,0.2635027
0.3242788,-0.08365196,-0.07014252,-0.6169893,0.3103151,0.05312576,-0.1042924,0.4414012,0.360415
0.3865803,-0.01596798,-0.0562291,-0.5560163,0.3772855,0.06742143,-0.3094731,0.3992258,0.3326478
0.4949404,-0.1031799,-0.05210769,-0.448922,0.2893496,0.07195611,-0.369762,0.4038726,0.3002809
0.6969468,-0.2562841,-0.06294488,-0.248095,0.1354981,0.06155638,-0.590249,0.3498796,0.1730956
0.8403109,-0.3691709,-0.01748065,-0.1058088,0.02183343,0.1074756,-0.709684,0.4519707,-0.06671859
0.9677348,-0.4855038,-0.003835418,0.02064362,-0.09530772,0.1215863,-0.4404588,0.3234247,-0.01190117
1.130953,-0.5271282,-0.01544553,0.1829943,-0.1377649,0.1104446,-0.2747123,0.07465175,0.1339844
1.322181,-0.5630301,-0.01441965,0.3734464,-0.1745147,0.1119343,-0.04601651,0.06742179,0.2756444
1.459225,-0.6110281,0.02091968,0.5097895,-0.2233641,0.147726,0.2890843,0.159938,0.4098673
1.480359,-0.5542887,0.05300503,0.5302708,-0.1674674,0.180245,0.5270365,0.2750564,0.3114515
1.47447,-0.5223255,-0.02105291,0.5237496,-0.1363268,0.1065943,0.5986291,0.08423651,0.2360359
1.442005,-0.59794,-0.08483142,0.4906474,-0.2127344,0.0431907,0.5429173,-0.1539453,0.361352
1.342638,-0.677019,-0.04654607,0.3906142,-0.2925673,0.08181533,0.686405,0.001118944,0.4249001
1.17507,-0.6937519,-0.03080915,0.2223333,-0.310003,0.09785383,0.7950341,-0.04321999,0.3473205
0.9786626,-0.6103701,-0.09799447,0.02515633,-0.2272601,0.03093033,0.6345214,-0.3976668,0.2272447
0.7683696,-0.5273736,-0.1690739,-0.1859632,-0.1448284,-0.03992763,0.5156128,-0.7057162,0.09812091
0.706528,-0.550423,-0.1883906,-0.2486783,-0.168362,-0.05906091,0.6265803,-0.7827169,0.05836937
0.8923124,-0.5455323,-0.1788793,-0.06380002,-0.1638708,-0.04939993,0.8285207,-0.6955372,-0.0514594
0.9923403,-0.4497005,-0.1692045,0.03530111,-0.06835102,-0.03960474,0.8882391,-0.8601084,-0.3356443
0.9578535,-0.3733318,-0.1734178,-0.0001268638,0.007793023,-0.04372251,0.8849774,-0.9730704,-0.3928735
0.8649719,-0.2972612,-0.1479488,-0.09396016,0.08372241,-0.01817931,0.8952331,-0.8720445,-0.3571478
0.6840071,-0.2047224,-0.1120153,-0.2758804,0.1761953,0.01780965,1.025834,-0.8885421,-0.4905825
0.6654199,-0.1962062,-0.1316168,-0.2954149,0.1847093,-0.001753496,1.243671,-0.8170307,-0.4851395
0.6155815,-0.1940557,-0.148975,-0.3461765,0.1869079,-0.01908952,1.17579,-0.7066375,-0.4480663
0.4261246,-0.1016645,-0.1668645,-0.5365141,0.2793838,-0.03697133,0.8989977,-0.692787,-0.4413554
0.481401,-0.07580267,-0.1946739,-0.4820544,0.3053516,-0.06478491,0.6083754,-0.6136651,-0.2940099
0.6166079,-0.1278509,-0.1781154,-0.3475785,0.2534147,-0.04823915,0.465812,-0.4238456,-0.2848634
0.702774,-0.1402503,-0.166931,-0.2620407,0.2411172,-0.03707295,0.5185576,-0.09139862,-0.4075812
0.8573864,-0.2042237,-0.1650394,-0.107944,0.1772239,-0.03520204,0.4803128,0.03996502,-0.4412114
0.8988904,-0.251858,-0.1126622,-0.06684006,0.1296387,0.01715378,0.5107805,-0.2060495,-0.408285
0.9260806,-0.1740778,-0.04289332,-0.03993619,0.2074303,0.08690058,0.5493516,-0.3947673,-0.2819767
1.096425,-0.1174527,-0.04369568,0.1302304,0.2640225,0.08607334,0.1684014,-0.4121685,-0.1794758
1.229333,-0.1029204,-0.1261757,0.2630578,0.278469,0.003562385,-0.4056855,-0.3960936,-0.1509708
1.267681,-0.1457048,-0.1826175,0.3014068,0.2355367,-0.05291777,-0.7196105,-0.3784279,-0.06515577
1.289732,-0.3087848,-0.1563008,0.323521,0.07223967,-0.02664574,-0.6338974,-0.3669921,-0.009986682
1.37975,-0.4533418,-0.1176151,0.4136424,-0.07260539,0.01199107,-0.4217222,-0.2471822,-0.07201716
1.487904,-0.4615666,-0.1059524,0.5219179,-0.0811843,0.0236016,-0.2832712,-0.09571991,-0.1091855
1.398478,-0.4119555,-0.1126354,0.432606,-0.03198489,0.01686276,-0.1428138,-0.07214211,0.05152323
1.178485,-0.4397348,-0.226927,0.2126993,-0.06022491,-0.09748796,-0.107751,0.0118968,0.4029497
1.069037,-0.4693953,-0.428757,0.1032932,-0.09038768,-0.2993768,-0.2747735,0.3514153,0.6981146
1.13188,-0.4453197,-0.4719922,0.1661267,-0.06684784,-0.3426604,-0.7136828,0.8812469,0.6073364
1.243158,-0.4337677,-0.3307291,0.2773408,-0.05585738,-0.2014219,-1.234545,1.133519,0.1882569
1.230024,-0.3933412,-0.2021634,0.2640811,-0.01601189,-0.0728454,-1.409663,0.6776692,-0.2886953
1.217654,-0.4341216,-0.1501763,0.2515143,-0.0573873,-0.02080716,-1.253219,0.2709725,-0.6580999
1.275907,-0.5062947,-0.1520591,0.309492,-0.1301644,-0.02259829,-1.044916,0.5522508,-0.511102
1.216768,-0.4299395,-0.1718666,0.249991,-0.05441559,-0.04227524,-0.8615504,0.7640323,0.02428005
1.017623,-0.3852287,-0.1719283,0.05039306,-0.01030789,-0.04216896,-0.4109434,0.7221071,0.5268271
0.7169726,-0.3661374,-0.1351357,-0.2508004,0.008187076,-0.005172285,0.06553234,0.724302,0.9564815
0.5563063,-0.2962865,-0.08953235,-0.412087,0.07744955,0.04066883,-0.002804162,0.5524735,0.8313003
0.6233618,-0.2996281,-0.1006536,-0.345707,0.07352626,0.02981542,-0.2111076,0.527525,0.3712634
0.5964498,-0.2681136,-0.1270399,-0.3733249,0.1044634,0.003722781,-0.3485702,0.724179,0.1157725
0.5488448,-0.1319161,-0.111814,-0.4216429,0.2400835,0.01926447,-0.5270791,0.8092418,-0.05852092
0.5388596,-0.02865363,-0.1051018,-0.4323253,0.3427609,0.0263112,-0.5630651,0.9065931,0.08296437
0.4792938,-0.0250915,-0.1000698,-0.4925497,0.3457182,0.03169323,-0.6394083,0.9693414,0.1228703
0.4999143,-0.0744279,-0.05569563,-0.4725265,0.2957435,0.07642899,-0.7752695,1.083506,-0.02569271
0.4871324,-0.1219281,0.0006318734,-0.4858225,0.2475596,0.1331247,-0.9586287,1.201425,0.07251901
0.5058488,-0.1768848,0.06732281,-0.467517,0.1918647,0.2001835,-1.083946,1.103181,-0.02741574
0.710464,-0.2625378,0.1660546,-0.2631926,0.1054142,0.2992729,-0.828485,1.070755,0.08022631
0.9276276,-0.3660003,0.2382444,-0.04619009,0.001093791,0.3717969,-0.5011267,0.8540277,0.4369606
1.110402,-0.4459699,0.2291168,0.136552,-0.07978995,0.3629642,-0.2121058,0.2760612,0.5802087
1.312901,-0.5200448,0.2084302,0.3391364,-0.154827,0.342517,0.1773923,-0.1256484,0.9254683
1.520488,-0.5915244,0.1591464,0.5469041,-0.2273046,0.2934024,0.3445591,-0.3128123,1.086802
1.550539,-0.656238,0.02553853,0.5772038,-0.2930367,0.1598826,0.1341987,-0.5324641,0.9568861
1.448889,-0.8009163,-0.009658579,0.4758357,-0.4387361,0.1246862,0.07228009,-0.719056,0.9173206
1.413658,-0.9102768,0.06247101,0.4408919,-0.549098,0.1967269,0.8150066,-0.7048008,0.7123122
1.162837,-0.7868621,0.04058381,0.1903388,-0.42664,0.1746595,1.495635,-0.8086882,0.3149682
0.729848,-0.5465755,-0.04400744,-0.2424156,-0.187243,0.08979532,1.017376,-1.152766,-0.06502076
0.5664531,-0.4404929,-0.1301523,-0.4056055,-0.08196936,0.003285835,0.5128569,-1.161694,-0.1376791
0.7549695,-0.5607711,-0.1726152,-0.2168998,-0.2029704,-0.03962823,0.7893493,-1.04885,-0.1428623
0.9820175,-0.6632018,-0.1646552,0.01033591,-0.3060333,-0.03219838,0.9578371,-1.056003,-0.2924965
0.9518329,-0.5172554,-0.1752455,-0.01965607,-0.160622,-0.0433887,1.079856,-0.9124548,-0.2737957
0.8387904,-0.3858033,-0.1441122,-0.1324995,-0.02960279,-0.01291694,1.421815,-0.9883952,-0.338922
0.7501964,-0.4326191,-0.1238568,-0.2208848,-0.0767494,0.006623017,1.370165,-1.151572,-0.4580302
0.6968604,-0.4305411,-0.1458318,-0.273995,-0.07490318,-0.01611496,1.356707,-1.030576,-0.4678145
0.7294914,-0.3668466,-0.1537021,-0.2411109,-0.01134463,-0.02478987,1.707678,-0.9169478,-0.6138579
0.6391417,-0.2877287,-0.2146337,-0.3311693,0.06772815,-0.08656112,1.680684,-0.7994756,-0.6999178
0.5856989,-0.1712181,-0.2078617,-0.384271,0.1842763,-0.08065615,1.429833,-0.7570995,-0.6844539
0.646465,-0.166455,-0.1140928,-0.323101,0.1891475,0.0122259,1.367765,-0.8543774,-0.657574
0.6788855,-0.2358059,-0.08760018,-0.2902016,0.1199613,0.03781748,1.476412,-0.868796,-0.6102232
0.8412046,-0.2458905,-0.113109,-0.1273205,0.1100856,0.01139631,1.655722,-0.9247137,-0.6580592
0.9741551,-0.2224018,-0.1822047,0.006277912,0.1338171,-0.05862031,1.510543,-0.7983244,-0.6880621
0.9777895,-0.1816952,-0.194176,0.01064221,0.1747906,-0.07151679,1.207765,-0.36836,-0.7047797
0.9386073,-0.178547,-0.1313372,-0.02773543,0.1782195,-0.009602221,0.9176916,-0.1302053,-0.7071832
0.8775072,-0.2089364,-0.08577382,-0.08796309,0.1481143,0.03504212,0.5349268,-0.1500572,-0.6097895
0.959716,-0.2373177,-0.03417757,-0.00481907,0.1200112,0.08572612,0.4389079,-0.3496849,-0.4698918
1.091529,-0.298223,-0.04724136,0.1279858,0.05937124,0.07175612,0.4353448,-0.5587612,-0.2395237
1.283016,-0.3644253,-0.05657867,0.3205106,-0.006582729,0.06151699,0.2560968,-0.4608111,-0.09165205
1.572292,-0.4213253,0.007516513,0.6108525,-0.06325238,0.124713,0.1537814,-0.1910443,-0.1314159
1.62168,-0.4195446,0.04046901,0.6613054,-0.06125718,0.1567661,0.03597122,0.1238139,-0.2092065
1.465253,-0.320204,0.09531038,0.5059097,0.0382848,0.2107031,-0.0007993727,0.2551602,-0.3182723
1.321391,-0.2157251,0.1601923,0.3630161,0.1429524,0.274669,0.08105945,-0.02972419,-0.2865342
1.169476,-0.2045959,0.1024895,0.2119862,0.1542537,0.2160298,0.1197208,-0.4103594,-0.006562329
1.066558,-0.3689017,-0.1679149,0.1098584,-0.009901632,-0.05533754,0.1080275,-0.5081449,0.279638
1.020841,-0.5427615,-0.4384699,0.06483225,-0.183634,-0.3268804,-0.3734176,-0.01908914,0.2628492
1.04267,-0.5406085,-0.3534818,0.08725353,-0.1813715,-0.242893,-0.8815795,0.5847049,-0.05444458
1.144791,-0.6422803,-0.1989152,0.1898684,-0.2829415,-0.08932419,-0.3163225,0.4631761,-0.2250457
1.095044,-0.8570877,-0.2306486,0.1405156,-0.4976414,-0.1220408,0.5921332,0.256336,-0.1005534
1.014439,-0.8255772,-0.1947829,0.06020513,-0.4659989,-0.08713568,0.7881695,0.2603001,-0.04483547
1.141108,-0.6668278,-0.1857214,0.1870681,-0.3070729,-0.0790061,0.7205604,0.007285166,-0.2635594
1.226433,-0.4880995,-0.2517919,0.2724849,-0.1281079,-0.1459745,0.5948062,0.3653841,-0.4105278
1.258275,-0.2079027,-0.2174505,0.3043152,0.152391,-0.1124913,0.2377037,0.9736326,-0.1215716
1.188515,-0.06221136,-0.1887858,0.2344307,0.2984438,-0.08463955,-0.08280442,0.6640065,0.2565985
0.9198987,-0.0827287,-0.1339009,-0.03442442,0.2783324,-0.03051844,-0.2427928,0.4077924,0.4132335
0.7430823,-0.1343323,-0.07999803,-0.2115902,0.2271612,0.02267103,-0.1968617,0.4507556,0.4812504
0.5728891,-0.2313002,-0.1232375,-0.3822284,0.1306365,-0.02123225,-0.129705,0.3714815,0.4570716
0.4064162,-0.2508132,-0.09008492,-0.5492186,0.1115661,0.01130445,-0.1515815,0.5320431,0.4171705
0.3790081,-0.2059893,-0.03973026,-0.5771865,0.1568237,0.06108896,-0.02463674,0.4569686,0.4470629
0.3557453,-0.1647216,-0.01800245,-0.6010187,0.1985082,0.08228882,-0.03055523,0.2489794,0.3950641
0.4628892,-0.07596701,0.002499598,-0.4944224,0.2876535,0.1023,-0.2802091,0.2879518,0.2520058
0.6324513,-0.0509743,-0.0449216,-0.3253588,0.3129991,0.05441931,-0.6001459,0.2523704,0.1506906
0.7573519,-0.1260976,-0.02245089,-0.2008888,0.2381782,0.07645686,-0.8778851,0.3946739,0.1743087
0.9184711,-0.2779578,0.0342882,-0.04012246,0.08655967,0.1327843,-0.6851241,0.5371088,0.3303776
1.046412,-0.4938154,0.08927426,0.0875444,-0.1291206,0.1873743,-0.2987822,0.4932721,0.4940443
1.190564,-0.5743906,0.1692521,0.2314964,-0.2095781,0.2669631,-0.09811831,0.5361768,0.558345
1.270717,-0.496931,0.1608792,0.3115087,-0.1320496,0.2581974,0.04008126,0.4649318,0.5479091
1.287552,-0.4557315,0.1719442,0.3282475,-0.09081848,0.2688542,-0.08873681,0.3054501,0.4815836
1.339991,-0.4595518,0.1400735,0.3806133,-0.09463558,0.2365485,-0.3416057,-0.03686174,0.4473272
1.272012,-0.5514496,-0.07054981,0.3125667,-0.186551,0.02545508,-0.4074715,-0.4569742,0.6108036
1.174768,-0.7952704,-0.2437063,0.2152418,-0.4303998,-0.1482087,-0.03831126,-0.4576535,0.7586764
1.1232,-0.8920617,-0.2159523,0.1635684,-0.5272128,-0.1209934,0.5297708,-0.4432117,0.4727527
1.005835,-0.7206129,-0.1533374,0.04606616,-0.3557575,-0.05893962,0.3951343,-0.6042082,0.005381408
0.9027513,-0.5392537,-0.2374927,-0.05719069,-0.174345,-0.1436696,0.136623,-0.5936779,-0.1450401
0.912539,-0.4510565,-0.234491,-0.04760803,-0.08603681,-0.1412483,0.251671,-0.593108,-0.1545102
0.9798143,-0.4554019,-0.1504921,0.01943438,-0.09021023,-0.0578271,0.09546013,-0.6056614,-0.2527641
0.968441,-0.4260441,-0.1598461,0.007803869,-0.06061928,-0.06774944,0.1480475,-0.5808994,-0.2810496
0.9448782,-0.3136462,-0.07939942,-0.01603815,0.05207085,0.01214231,0.3791892,-0.6918796,-0.2336998
0.9034294,-0.3028082,-0.07668684,-0.05778545,0.06325555,0.01431531,0.436054,-0.7024804,-0.3050651
0.7130655,-0.2856574,-0.1340151,-0.2484617,0.08080003,-0.04353659,0.5657648,-0.6600277,-0.5399216
0.5280837,-0.1800226,-0.06067341,-0.4337592,0.186867,0.02929788,0.3765886,-0.7417187,-0.7739688
0.3887579,-0.137503,-0.08446453,-0.5733857,0.2298458,0.005016401,0.2733063,-0.7926789,-0.7464924
0.2833903,-0.1322141,-0.07411595,-0.6790137,0.235608,0.0148911,0.4229951,-1.023456,-0.3273946
0.3083695,-0.1883913,-0.04506316,-0.6542256,0.1799043,0.04348572,0.3767492,-1.191537,0.1114421
0.5140703,-0.3000479,-0.1842185,-0.4486186,0.06871004,-0.09611252,0.478751,-0.773318,0.1064939
0.9124965,-0.3246189,-0.2584338,-0.05016978,0.0445833,-0.1707533,0.4466678,-0.09428923,-0.2283074
1.112348,-0.2676874,-0.228537,0.1498249,0.101937,-0.1412588,0.2009263,0.2457499,-0.4486698
1.021148,-0.1698654,-0.1705998,0.05888082,0.2001551,-0.08369426,0.01829991,0.05027789,-0.3336449
1.043911,-0.1014542,-0.1250092,0.0819984,0.2689291,-0.03844195,-0.2438256,-0.2317793,-0.1265227
1.095617,-0.1293498,-0.107777,0.1341459,0.2413532,-0.02151198,-0.4134927,-0.4733397,0.01443343
1.115546,-0.2156345,-0.1357344,0.1545896,0.1553353,-0.0497351,-0.6038966,-0.7330313,0.1356325
1.326552,-0.3362861,-0.219738,0.3661692,0.03489088,-0.1339676,-0.7589653,-0.5749948,0.1083407
1.660984,-0.4011842,-0.1895791,0.7012113,-0.02986088,-0.1039983,-0.6692551,-0.3782089,0.05001461
1.792639,-0.3692005,-0.1900011,0.8334808,0.002211198,-0.1045674,-0.5280075,-0.3811117,0.1078798
1.532945,-0.3631601,-0.3588902,0.5743707,0.008286409,-0.273557,-0.4403034,-0.03381355,0.2797978
1.268155,-0.3908916,-0.5345905,0.3100983,-0.01946023,-0.4493035,-0.607007,0.554912,0.5643171
1.246904,-0.3931649,-0.609533,0.2892781,-0.02179433,-0.5242238,-1.158555,1.114206,0.5925403
1.153101,-0.4382839,-0.4183098,0.1958091,-0.06701522,-0.3328921,-1.752493,1.294258,0.3211284
0.9937494,-0.5338819,-0.2055143,0.03668721,-0.1627501,-0.1198882,-1.705976,0.9188142,0.07823272
0.9854518,-0.5796522,-0.2250929,0.02851674,-0.2086834,-0.1391531,-1.323246,0.6913877,-0.1292709
1.067179,-0.5313261,-0.2232447,0.1102725,-0.1605355,-0.1368865,-1.195419,0.8557943,-0.1635814
1.141343,-0.4030411,-0.2008077,0.1843678,-0.03243367,-0.1139284,-0.8569452,1.02853,-0.03834627
1.128155,-0.2552451,-0.2240016,0.1710159,0.1151792,-0.1365005,-0.7926276,1.169549,0.1551813
0.9560478,-0.1619599,-0.2013101,-0.001351141,0.2082799,-0.1130894,-1.227254,1.2894,0.5744478
0.6652763,-0.1941678,-0.1412992,-0.2924737,0.1758796,-0.05226394,-1.290122,1.190258,0.7582582
0.4350708,-0.2836921,-0.09452222,-0.5231055,0.08614743,-0.004582552,-1.240109,0.8684429,0.5346319
0.388535,-0.303323,-0.1367662,-0.5701171,0.06628795,-0.0458392,-1.151147,0.6819216,0.448275
0.4225136,-0.3488515,-0.162094,-0.5366322,0.02050804,-0.07010368,-0.9567294,0.847089,0.3848709
0.4450727,-0.3470143,-0.09166798,-0.5145539,0.02207103,0.001455435,-0.8749703,1.113294,0.2312128
0.4650697,-0.2245914,-0.03826387,-0.4949974,0.1441972,0.05605559,-0.6950294,1.129867,0.1674187
0.48463,-0.1785511,-0.02356553,-0.4758127,0.189916,0.07200391,-0.854606,0.9967611,0.03988128
0.5417092,-0.1346815,-0.03744056,-0.4190232,0.233434,0.0594226,-1.248533,0.9184271,-0.00707197
0.6631747,-0.08926077,-0.0569517,-0.2977445,0.2784652,0.04123902,-1.37633,0.8385657,0.1691706
0.7995649,-0.1671481,-0.05450002,-0.1614271,0.2001418,0.0450433,-1.466234,0.7647754,0.3600186
0.9169155,-0.2991241,-0.03546883,-0.04403168,0.0676766,0.06544415,-1.289169,0.5304637,0.5142698
1.047459,-0.4590744,-0.002045493,0.08667111,-0.09281732,0.1002461,-0.9317917,0.2215058,0.5920751
1.169706,-0.5765104,-0.0106743,0.209182,-0.2108452,0.09299648,-0.7350251,0.1721178,0.6016579
1.262044,-0.6592703,-0.0296223,0.3018727,-0.2942329,0.07541965,-0.3961174,0.1641291,0.6278586
1.344372,-0.6847742,-0.0171836,0.3846216,-0.3203837,0.08921389,0.00894505,0.09977496,0.6796823
1.363346,-0.5855821,-0.04073576,0.4040622,-0.2218398,0.06699483,0.1046146,0.03870292,0.8140081
1.356457,-0.5260288,-0.06291018,0.3976595,-0.1629206,0.04612526,0.000505285,-0.08099305,0.868327
1.339077,-0.5442595,-0.06820497,0.3807646,-0.18176,0.0421025,0.006846771,-0.1335642,0.6646473
1.199338,-0.5471186,-0.09508384,0.2414864,-0.1851931,0.01645951,-0.03522119,-0.08975343,0.4077014
0.9733909,-0.4845541,-0.08573348,0.01596381,-0.1231602,0.02700721,-0.2766937,-0.1308946,0.2385744
0.7492009,-0.4282688,-0.05978343,-0.2078436,-0.06735792,0.05411413,-0.392981,-0.4851393,0.1159616
0.6733378,-0.4687489,-0.07260351,-0.28336,-0.1082692,0.04240829,-0.339509,-0.7974278,0.0290356
0.8239328,-0.4897649,-0.1377517,-0.1324421,-0.1296619,-0.0216702,-0.2799397,-0.5285161,-0.05984229
0.9626097,-0.4725959,-0.2275859,0.006543976,-0.1128125,-0.1104789,-0.2221271,-0.1934874,-0.1334479
0.9746198,-0.4293714,-0.2193129,0.01885374,-0.06984791,-0.1012213,-0.1936944,-0.2801534,-0.1130808
0.9356942,-0.3471314,-0.1455475,-0.01978114,0.0121927,-0.02650747,-0.1511711,-0.3197132,-0.1150167
0.8488661,-0.3209278,-0.1151601,-0.106327,0.03825503,0.004795224,-0.06228303,-0.2830811,-0.2887237
0.7343717,-0.316441,-0.0912844,-0.2205442,0.04265411,0.02955406,-0.02918537,-0.4083024,-0.4968294
0.6306673,-0.2811723,-0.09088883,-0.3239681,0.07788286,0.03079972,-0.06438755,-0.2991764,-0.5834443
0.5686384,-0.2532254,-0.09643508,-0.3857007,0.1058309,0.02606924,-0.05752122,-0.1542845,-0.503554
0.5437471,-0.2418485,-0.07191631,-0.4102639,0.1172426,0.05136809,-0.05199593,-0.296426,-0.3231697
0.5554235,-0.2170304,-0.1047737,-0.3982107,0.1421206,0.01925373,-0.0858938,-0.2856623,-0.1664489
0.6467093,-0.1924191,-0.1526422,-0.306484,0.1668084,-0.02790944,-0.09694708,-0.1341067,-0.03603038
0.8013393,-0.2092344,-0.156412,-0.1513376,0.1500769,-0.03101087,-0.1282041,0.001950219,-0.01761206
0.9144376,-0.2177918,-0.1550498,-0.0376424,0.141602,-0.02901512,-0.1640099,0.06923894,-0.0547375
0.923035,-0.216509,-0.1429987,-0.02836955,0.1429583,-0.01636309,-0.228813,-0.05267772,-0.0352759
0.939231,-0.2348302,-0.1456267,-0.01142459,0.1246945,-0.0184208,-0.3907455,-0.1071099,-0.07665952
1.005633,-0.2405318,-0.1537815,0.05579315,0.1190286,-0.02603438,-0.615586,-0.1426561,-0.09041752
