accx,accy,accz,body_accx,body_accy,body_accz,body_gyrox,body_gyroy,body_gyroz
0.7576241,-0.07706796,-0.563678,-0.1950874,0.0830591,-0.1738125,-0.4083338,0.2804001,0.1795118
0.7854119,-0.07630193,-0.5690921,-0.1668365,0.08457347,-0.178187,-0.4745331,0.2058225,0.2572753
0.844064,-0.09033244,-0.5159794,-0.1077188,0.07121718,-0.1239146,-0.4350063,0.2573471,0.3543118
0.895641,-0.09941901,-0.5190824,-0.05566851,0.06273032,-0.125742,-0.314247,0.3278965,0.4365409
0.840338,-0.1163923,-0.5182794,-0.1104874,0.04628254,-0.1235526,-0.2239058,0.3853194,0.5101407
0.7973515,-0.181556,-0.5263052,-0.152976,-0.01842835,-0.1300865,-0.1022628,0.4592072,0.5226444
0.7674858,-0.2602064,-0.4924874,-0.1823259,-0.0966949,-0.09467679,0.005453675,0.5016658,0.4900774
0.7583775,-0.299195,-0.3927227,-0.1908948,-0.1353618,0.006773374,0.08591795,0.5292227,0.4111541
0.7727225,-0.2756521,-0.3571726,-0.1759806,-0.1115505,0.04409323,0.1594079,0.5611958,0.3384711
0.7211667,-0.2311758,-0.3534823,-0.2269313,-0.06685006,0.04962593,0.1176264,0.5405573,0.3284955
0.676122,-0.1659131,-0.373217,-0.2713286,-0.001400619,0.03179395,0.04589869,0.4930188,0.3625654
0.6476427,-0.06913261,-0.3880569,-0.2991103,0.09553298,0.01890558,-0.01350419,0.429213,0.4316142
0.6304546,-0.06397917,-0.3701361,-0.3155415,0.1008058,0.03881616,-0.07115508,0.364963,0.4880069
0.6848441,-0.1243939,-0.3731317,-0.2603271,0.0404747,0.03783888,-0.06494181,0.4041711,0.5081321
0.7355556,-0.1663702,-0.3454474,-0.2087152,-0.001454483,0.06756033,-0.1263569,0.4394022,0.4782356
0.7700324,-0.2119463,-0.3237441,-0.1732584,-0.04701878,0.0913098,-0.2357411,0.3698205,0.4226802
0.7942488,-0.2129877,-0.3185553,-0.1479808,-0.04808003,0.09854367,-0.259616,0.2237081,0.417207
0.7980278,-0.2080258,-0.2827435,-0.1430597,-0.04316521,0.1363887,-0.2104608,-0.05837263,0.4485538
0.8796799,-0.2355151,-0.2775562,-0.06018645,-0.07072421,0.1435869,-0.1352891,-0.2324209,0.4736587
1.027916,-0.2369676,-0.3033919,0.08934518,-0.07226407,0.1197289,-0.1711852,-0.09201031,0.4144152
1.147261,-0.2239404,-0.3336496,0.2100497,-0.05933714,0.09140622,-0.2864202,-0.02257426,0.31696
1.190425,-0.2001555,-0.3377812,0.2546221,-0.03566088,0.08915916,-0.3943876,-0.1640462,0.311846
1.187954,-0.1888284,-0.3399647,0.25359,-0.02444732,0.0888032,-0.4634357,-0.3056234,0.3093037
1.216134,-0.2293462,-0.4179235,0.2832206,-0.06508115,0.01261018,-0.3436563,-0.5848363,0.3097278
1.250741,-0.3085183,-0.5406661,0.3192695,-0.1443682,-0.1084307,-0.1921734,-0.8318814,0.4108576
1.292643,-0.4058534,-0.6474208,0.3625872,-0.2418113,-0.213545,-0.1850662,-0.4642116,0.4822037
1.309304,-0.4347802,-0.7167933,0.3806179,-0.2708295,-0.2813306,-0.3552665,0.345574,0.3689589
1.121264,-0.3195941,-0.7376566,0.1938828,-0.1557075,-0.3006486,-0.8857717,0.780146,0.1737955
0.7922345,-0.1690333,-0.6521561,-0.1339175,-0.005175428,-0.2136317,-1.386061,0.4347241,0.130038
0.6316476,-0.1529314,-0.5437823,-0.2933505,0.01093559,-0.1037601,-1.329755,-0.1454251,0.1946931
0.6799603,-0.2319446,-0.5851955,-0.2439484,-0.06803233,-0.1436876,-1.139366,-0.2371634,0.236346
0.7674215,-0.280984,-0.6403606,-0.1554482,-0.116991,-0.197375,-1.204812,-0.004860024,0.2615423
0.877177,-0.3009096,-0.6251608,-0.04469349,-0.136799,-0.1807006,-1.202746,0.2409274,0.1775505
0.9425023,-0.2893861,-0.6254623,0.02159676,-0.1251176,-0.1795249,-1.115758,0.477923,0.01436182
0.892694,-0.2601676,-0.580695,-0.02727949,-0.09569794,-0.1332728,-1.103971,0.6376934,-0.09390648
0.8567818,-0.2280607,-0.5235457,-0.06229183,-0.06334479,-0.07462825,-1.035586,0.7234349,-0.1677704
0.8215837,-0.1592578,-0.4860408,-0.09662015,0.005749453,-0.03561701,-1.092903,0.5439813,-0.1951682
0.78088,-0.110786,-0.4462352,-0.1364802,0.05455483,0.00570409,-1.251245,0.2815339,-0.1766773
0.8072893,-0.07720577,-0.4610263,-0.1092483,0.08850573,-0.007566164,-1.316419,0.2811866,-0.1603265
0.7983102,-0.02899217,-0.4630939,-0.1174202,0.1371196,-0.008111613,-1.456134,0.3363808,-0.1229188
0.7701711,-0.03350716,-0.4444245,-0.1447627,0.1330257,0.01207698,-1.495304,0.4572585,-0.08446358
0.736441,-0.04366793,-0.4299858,-0.1777009,0.1232975,0.02802782,-1.440221,0.5164993,-0.06404139
0.6514907,-0.04291551,-0.3520943,-0.2618576,0.1244855,0.1074194,-1.476968,0.3395796,-0.01325244
0.6288518,-0.07476281,-0.2933366,-0.2836918,0.09306886,0.1676581,-1.388544,0.09127355,0.04458898
0.6490291,-0.08911238,-0.2950453,-0.2626886,0.07913886,0.167402,-1.219108,-0.2174814,0.09327143
0.675476,-0.09822568,-0.3217449,-0.2353845,0.07042906,0.1421167,-1.049969,-0.3047226,0.1480033
0.7398281,-0.1155582,-0.3730596,-0.170136,0.05348021,0.09216914,-0.9120477,-0.1236353,0.141946
0.7652866,-0.115491,-0.3857992,-0.1437365,0.05390837,0.08074321,-0.8860603,-0.001490179,0.1071226
0.7784814,-0.09963094,-0.3688476,-0.1295539,0.07010435,0.09895019,-0.8629472,-0.001691755,0.1083533
0.8416185,-0.05823762,-0.355205,-0.06538117,0.111806,0.113786,-0.8566768,-0.1304906,0.09808631
0.9327585,-0.02105221,-0.3462383,0.02684043,0.1492684,0.1238795,-0.8548542,-0.236119,0.105826
1.043499,0.007219629,-0.3674307,0.1387026,0.1777809,0.1037433,-0.8445083,-0.2404547,0.155718
1.147552,0.02741769,-0.4012795,0.2439082,0.1981768,0.07087688,-0.8656499,-0.2118117,0.2334403
1.231472,0.003556431,-0.4325856,0.3289948,0.1744639,0.04047739,-0.8179857,-0.2091054,0.3353805
1.300586,-0.05607058,-0.4686385,0.3992712,0.1149297,0.005255574,-0.7002453,-0.2680071,0.3633899
1.326272,-0.1380209,-0.5456607,0.426095,0.03301343,-0.07100873,-0.5139412,-0.2837692,0.3283122
1.299281,-0.1644542,-0.6655331,0.4001952,0.006555611,-0.190191,-0.3148194,-0.2914764,0.3081264
1.257387,-0.1048657,-0.7680709,0.3593234,0.06606326,-0.2920964,-0.2436448,-0.3224659,0.2417547
1.177224,-0.09990899,-0.8473967,0.2800987,0.07088508,-0.370833,-0.1976707,-0.303349,0.1674
1.022629,-0.1840505,-0.8702982,0.1263457,-0.01344368,-0.3931703,-0.02790361,-0.06125407,0.1662448
0.8788615,-0.2481704,-0.7913663,-0.01668335,-0.07779979,-0.3136802,0.1864678,0.3840188,0.1351329
0.7839274,-0.2197548,-0.6833739,-0.1109786,-0.0496637,-0.2051194,0.2416744,0.474929,0.02084353
0.7183918,-0.1386052,-0.6260497,-0.1759672,0.03116946,-0.1472053,0.174313,0.1839951,-0.06625434
0.7230044,-0.08210375,-0.6076178,-0.1708874,0.08732137,-0.1281556,0.1418409,0.05905703,-0.05859092
0.7629779,-0.04350241,-0.5868214,-0.1305138,0.1255406,-0.1067098,0.05808102,0.1948207,0.01199108
0.8132859,-0.04833745,-0.550556,-0.07986155,0.1202892,-0.06976138,-0.02901408,0.3524618,0.1188101
0.8844018,-0.08235842,-0.508816,-0.00844884,0.08581549,-0.02730495,-0.01405457,0.3774197,0.2661703
0.8863074,-0.09370911,-0.4934297,-0.006288606,0.07397413,-0.01117027,0.008201157,0.3732741,0.4041417
0.8347615,-0.1424006,-0.4985622,-0.05761869,0.02475419,-0.01552574,0.06913306,0.4306534,0.4688228
0.8082904,-0.1918635,-0.4805506,-0.08390859,-0.02527312,0.003288162,0.1646709,0.5346211,0.4844505
0.7695752,-0.2043667,-0.4569774,-0.1224716,-0.0383726,0.02768497,0.2121883,0.6110559,0.4659259
0.7365071,-0.2173513,-0.432829,-0.1554095,-0.05198017,0.05267368,0.2306925,0.4857136,0.413697
0.7217891,-0.1965916,-0.387308,-0.1700111,-0.03186432,0.09904589,0.2296314,0.3476747,0.3682661
0.685656,-0.1652984,-0.3545691,-0.2060325,-0.001230629,0.1326399,0.2325195,0.3921127,0.3488706
0.6740097,-0.1428224,-0.3556813,-0.2175619,0.02057394,0.1323783,0.2070361,0.4023257,0.3779048
0.6831359,-0.1253318,-0.3636594,-0.2083038,0.0373835,0.1252378,0.1443866,0.3248848,0.444326
0.667432,-0.1176164,-0.3477405,-0.2238513,0.04440938,0.1419732,0.1263071,0.2237489,0.5128421
0.6742173,-0.1128419,-0.3411993,-0.216876,0.04848631,0.149302,0.1406768,0.08909332,0.5476114
0.7308779,-0.1544906,-0.3559327,-0.1599838,0.00613254,0.13532,0.1513408,0.03470807,0.5114454
0.8126068,-0.2173631,-0.3439753,-0.0779763,-0.05745109,0.1479859,0.151346,0.06837375,0.4752409
0.8723817,-0.2574241,-0.3395398,-0.01787379,-0.09822556,0.1530805,0.1636496,0.05122634,0.4315793
0.8868688,-0.2508126,-0.334291,-0.003011657,-0.09232425,0.1589333,0.1783182,0.004908746,0.3319293
0.9569993,-0.2160313,-0.3016407,0.06753746,-0.05824356,0.1921264,0.1235317,-0.02792314,0.274973
1.067849,-0.2211403,-0.2991132,0.1788429,-0.06403864,0.1951295,0.02540869,-0.05831064,0.2354727
1.074858,-0.207313,-0.3003253,0.1863344,-0.05087858,0.1943197,-0.07058597,-0.05487215,0.1894274
1.082189,-0.1906327,-0.2968595,0.194163,-0.03484355,0.1981086,-0.1550774,-0.1082747,0.1947268
1.162895,-0.2061244,-0.3214297,0.2753685,-0.05095583,0.1737771,-0.2209344,-0.30764,0.1707219
1.19544,-0.2046972,-0.3772307,0.3084012,-0.05012236,0.1181267,-0.2224817,-0.6560598,0.1561185
1.232487,-0.2743598,-0.4870998,0.3459099,-0.1203493,0.008319252,-0.1079744,-0.8506373,0.2467731
1.317406,-0.3801987,-0.590137,0.431246,-0.2267184,-0.09474211,-0.076377,-0.3196546,0.3093933
1.352504,-0.4116556,-0.6257989,0.4667003,-0.258664,-0.1305058,-0.3658359,0.5138516,0.2261339
1.249692,-0.3716654,-0.6072899,0.3641648,-0.2191109,-0.1121653,-0.8075135,0.6306981,0.1250711
0.9111539,-0.2543235,-0.575021,0.02580948,-0.1021456,-0.08012056,-0.9882447,0.1158289,0.1476261
0.5712602,-0.1683583,-0.5729566,-0.3139977,-0.01649217,-0.07832614,-0.9089469,-0.3921875,0.1978628
0.6445607,-0.2208826,-0.5792863,-0.2406954,-0.06926283,-0.08496335,-0.9162524,-0.5106433,0.1984735
0.8204623,-0.3184522,-0.6067571,-0.06485943,-0.1670141,-0.1127711,-0.9621785,-0.1487521,0.161615
0.766872,-0.3306181,-0.6498119,-0.118569,-0.1792954,-0.1561841,-0.926237,0.2409598,0.05203261
0.8711359,-0.3110029,-0.6412344,-0.0144686,-0.1597257,-0.1479765,-0.8652892,0.3633884,-0.05299828
0.9622941,-0.2997186,-0.6064492,0.07648799,-0.1484132,-0.1135639,-0.7604932,0.4332795,-0.1343356
0.8253097,-0.2223721,-0.5716001,-0.06073288,-0.07096281,-0.07908228,-0.7738266,0.458632,-0.2365847
0.8585207,-0.169192,-0.5418912,-0.02779001,-0.01760343,-0.04973006,-0.8879751,0.3191208,-0.2657279
0.8510593,-0.1394993,-0.5303037,-0.03554677,0.01234058,-0.03848479,-0.944714,0.1323195,-0.230049
0.7828881,-0.07881496,-0.5214045,-0.1040354,0.07334234,-0.02991107,-1.024239,0.06584137,-0.1858807
0.8498905,-0.07750752,-0.531756,-0.03736703,0.07502569,-0.04056977,-1.042187,0.1598498,-0.1330047
0.7925338,-0.07880595,-0.5385201,-0.09506844,0.07415293,-0.04762123,-1.000028,0.2742493,-0.1111662
0.7801627,-0.0757391,-0.5086364,-0.1077896,0.07768656,-0.01800379,-0.9838507,0.278177,-0.1131673
0.7801108,-0.09398003,-0.4644628,-0.1081904,0.05994545,0.02592517,-0.9074382,0.2270428,-0.1198543
0.6810042,-0.08419964,-0.4139287,-0.2076379,0.07025135,0.07623511,-0.8416534,0.1087452,-0.1177698
0.674631,-0.08450059,-0.3792584,-0.2143354,0.07049481,0.1106983,-0.7748688,-0.1087097,-0.08321586
0.6455373,-0.07972545,-0.3644318,-0.2437267,0.07582679,0.1253295,-0.6366312,-0.257062,-0.03712243
0.6788201,-0.08650419,-0.3572871,-0.2107043,0.06961116,0.1322842,-0.5113377,-0.2631641,-0.0320559
0.7486854,-0.1141155,-0.3718381,-0.1410532,0.04256372,0.1175424,-0.4227609,-0.1994567,-0.0806339
0.7338401,-0.1156676,-0.3895386,-0.1560598,0.04157169,0.09964463,-0.3597368,-0.1235058,-0.1366771
0.7605361,-0.1153043,-0.3954852,-0.1294678,0.04248763,0.09348963,-0.2996612,-0.1087592,-0.1836878
0.7789639,-0.08880008,-0.3864933,-0.1110832,0.06953377,0.102258,-0.2831096,-0.1485346,-0.1933429
0.852727,-0.04175287,-0.3682183,-0.03730105,0.1171083,0.1202912,-0.310709,-0.1726694,-0.1661066
0.9557048,-0.01291169,-0.3696297,0.0657568,0.1464569,0.1186157,-0.2926991,-0.1599986,-0.1319881
1.010064,-0.000194184,-0.3771423,0.1202515,0.1596555,0.1108133,-0.266593,-0.1628155,-0.03505543
1.099535,-0.02474288,-0.3918839,0.2099058,0.1355546,0.09575279,-0.2048754,-0.2225531,0.06095627
1.17092,-0.07794559,-0.4436779,0.2815068,0.08276036,0.04360893,-0.05187279,-0.2837869,0.08619809
1.243197,-0.1291066,-0.5152996,0.3540188,0.03196478,-0.02839374,0.1001561,-0.2967123,0.1456499
1.258003,-0.1297405,-0.6223363,0.3690604,0.03165201,-0.1358391,0.1412898,-0.2779829,0.1768504
1.236333,-0.08077936,-0.7860504,0.3476076,0.08089017,-0.2999818,0.06602846,-0.2659778,0.05222869
1.280361,-0.07100452,-0.888232,0.391816,0.09089731,-0.4025979,0.05535985,-0.1885158,-0.06228131
1.175157,-0.1394135,-0.8540354,0.2867406,0.02267492,-0.3688234,0.1757726,0.07087664,-0.01135473
0.9786147,-0.2265687,-0.8021815,0.09026122,-0.06433904,-0.3173599,0.3213935,0.3284915,0.02908158
0.8747058,-0.2296582,-0.7443797,-0.0136549,-0.06732893,-0.2599005,0.4682216,0.3059251,-0.0370282
0.7766162,-0.1702183,-0.658903,-0.1118194,-0.007825971,-0.1747062,0.5310623,0.1565044,-0.0921801
0.7281022,-0.1318657,-0.6715002,-0.1604683,0.03055738,-0.1875176,0.4062806,0.1510891,-0.16738
0.7480917,-0.09516171,-0.6878954,-0.1406624,0.06726157,-0.2040531,0.2086604,0.2036724,-0.19421
0.7724865,-0.08701197,-0.6158339,-0.1164887,0.07538089,-0.1320536,0.1690186,0.2379902,-0.06906112
0.8186064,-0.109803,-0.5732285,-0.07061757,0.05252779,-0.08942893,0.2634784,0.2646062,0.07042253
0.8553904,-0.1077659,-0.5250626,-0.03410255,0.05447048,-0.04116263,0.3421785,0.2494042,0.2347819
0.8502887,-0.1215017,-0.5045743,-0.03948825,0.0406076,-0.0204956,0.4351644,0.3168969,0.3749062
0.8249985,-0.1466348,-0.5359425,-0.06507331,0.01531522,-0.05161064,0.4541007,0.4303791,0.3496783
0.8026479,-0.1670136,-0.4919383,-0.08772507,-0.005253629,-0.007283358,0.3971496,0.4656437,0.2961787
0.7861151,-0.1987429,-0.4401246,-0.1045604,-0.03720132,0.04491845,0.4204668,0.4772524,0.2347897
0.7712398,-0.2006328,-0.3978105,-0.1197336,-0.03933412,0.08767895,0.4284251,0.4505421,0.1386898
0.7420664,-0.188717,-0.3537144,-0.1491939,-0.02768186,0.1322708,0.4119,0.4173106,0.1185704
0.6972138,-0.1743,-0.3723618,-0.1943154,-0.01354501,0.1141584,0.3979287,0.3621575,0.1354347
0.6769247,-0.1446816,-0.3613988,-0.2148472,0.01577957,0.1256851,0.3331715,0.2593695,0.1495591
0.6778977,-0.1423355,-0.3370246,-0.2140814,0.0178198,0.1506417,0.3330274,0.2224285,0.1893323
0.6802853,-0.1628173,-0.3476617,-0.2118568,-0.002978476,0.1405956,0.3679728,0.1926042,0.2320513
0.6860365,-0.176443,-0.3428061,-0.2062163,-0.01693011,0.1460413,0.3649346,0.1207888,0.2464343
0.6975587,-0.1804492,-0.3481112,-0.194745,-0.0212696,0.1413165,0.3739162,0.08116599,0.2331918
0.7414278,-0.1948686,-0.3412512,-0.1508613,-0.03602737,0.1487385,0.3782042,0.07509312,0.1975153
0.7931795,-0.2182034,-0.314401,-0.09902545,-0.05970246,0.1761245,0.3953613,0.03415286,0.1521677
0.8137561,-0.2038365,-0.2994653,-0.07829404,-0.04567469,0.1915619,0.409304,-0.06724343,0.1521518
0.86215,-0.179406,-0.295719,-0.02967555,-0.02157872,0.1957676,0.3879379,-0.1264489,0.1621756
0.9743329,-0.1811492,-0.3103326,0.08279824,-0.02364942,0.181563,0.3589015,-0.130655,0.1210909
1.077755,-0.1730805,-0.3143742,0.1865703,-0.01589968,0.1778729,0.2582628,-0.1617263,0.06002585
1.142646,-0.1609396,-0.3141685,0.2518585,-0.004067916,0.1783664,0.06769439,-0.2817783,-0.01015659
1.190138,-0.1619678,-0.3327692,0.2997783,-0.005394687,0.1599846,-0.03544337,-0.4579519,-0.04687944
1.21957,-0.1821621,-0.4038203,0.3296534,-0.02587661,0.08907964,0.06386438,-0.611102,-0.03152641
1.289178,-0.2668563,-0.5594555,0.3996994,-0.110846,-0.06648283,0.2258832,-0.8649056,-0.03322656
1.390463,-0.3957785,-0.6808709,0.5013983,-0.240027,-0.1878942,0.3408012,-0.909907,-0.02808447
1.407247,-0.4441232,-0.7192167,0.5185485,-0.2886057,-0.2262937,0.3139805,-0.2118313,-0.01682497
1.234885,-0.3545374,-0.7395629,0.3464847,-0.1992181,-0.2467369,-0.05973085,0.4904073,-0.1018717
0.880284,-0.2479812,-0.6742032,-0.007903959,-0.09281461,-0.1815027,-0.5082402,0.2626664,-0.1832193
0.650356,-0.2415841,-0.5697547,-0.2377067,-0.08651976,-0.07719567,-0.5420567,-0.333229,-0.1003363
0.6854071,-0.2996592,-0.5925439,-0.2026081,-0.1446442,-0.1001332,-0.3758533,-0.5374873,-0.007172111
0.7541748,-0.3599755,-0.6565418,-0.1338557,-0.2049543,-0.1642799,-0.3853197,-0.3156772,-0.04863387
0.8191556,-0.3706298,-0.6558173,-0.06893989,-0.215542,-0.1636975,-0.4215897,0.04274919,-0.1300127
0.8685638,-0.323172,-0.6307985,-0.01963721,-0.167952,-0.1388064,-0.3589108,0.1121444,-0.2528677
0.8355778,-0.2852801,-0.5758552,-0.05276307,-0.1298575,-0.08396954,-0.2591718,0.1662064,-0.4276898
0.8050556,-0.2565336,-0.5271301,-0.08345436,-0.100836,-0.03532528,-0.1455456,0.4020837,-0.554883
0.7737533,-0.2127388,-0.477676,-0.1149487,-0.05669397,0.01407504,-0.2067293,0.2358645,-0.6416239
0.752915,-0.1535591,-0.4251544,-0.1359949,0.00290298,0.06656851,-0.3520351,-0.03786285,-0.6709975
0.7861093,-0.07668567,-0.477056,-0.1030165,0.08025861,0.01466145,-0.3114556,-0.07446446,-0.6373866
0.8104022,-0.02737773,-0.5246668,-0.07894048,0.1301056,-0.03293545,-0.3112767,-0.1166456,-0.6273266
0.8123018,-0.01490671,-0.4999818,-0.0772531,0.1431618,-0.00821856,-0.3401656,0.03429974,-0.5917264
0.7949831,-0.02758329,-0.4977309,-0.09477491,0.1311051,-0.005918376,-0.2548156,0.1824192,-0.5146018
0.7441749,-0.06210938,-0.4482382,-0.1457724,0.09722239,0.04363969,-0.2436784,0.2214622,-0.465916
0.7004844,-0.08913906,-0.3774123,-0.1896325,0.07085045,0.1145444,-0.1969691,0.2407491,-0.4568863
0.7029044,-0.1033075,-0.353738,-0.187355,0.05734677,0.1383057,-0.0695133,0.02795075,-0.5084572
0.7313388,-0.1049032,-0.3387152,-0.1590283,0.05641703,0.1534169,0.04403892,-0.1415068,-0.5717663
0.7508334,-0.1058132,-0.3667393,-0.1396002,0.05616929,0.1254748,0.1598314,-0.1793566,-0.5918607
0.7656994,-0.09509746,-0.41764,-0.1247543,0.06753909,0.07464338,0.1937436,-0.07137364,-0.5820458
0.7736645,-0.05337261,-0.4310237,-0.1167594,0.1099051,0.06131164,0.2291783,0.1426725,-0.5598707
0.7586984,-0.01614608,-0.4068818,-0.1316431,0.1477542,0.08548522,0.2668097,0.1041199,-0.544412
0.7433407,0.002326593,-0.3812918,-0.1468632,0.1668242,0.1110842,0.2449162,-0.01916054,-0.5213337
0.7573532,0.0007808269,-0.3705623,-0.1326554,0.1658427,0.1217963,0.2719845,-0.1964809,-0.5225132
0.8084909,0.007026279,-0.3463378,-0.08126252,0.1726119,0.1459733,0.3061628,-0.3184157,-0.5318747
0.9128937,0.03556691,-0.3473406,0.02345507,0.2016281,0.1448881,0.3567589,-0.1617799,-0.480513
1.038724,0.03938772,-0.3754933,0.1496556,0.205869,0.1166138,0.4623865,-0.07272474,-0.4367224
1.094299,0.0200918,-0.3790772,0.2056476,0.1869303,0.1128657,0.558492,-0.02682338,-0.4347532
1.101127,-0.02744241,-0.3828882,0.2129252,0.1396842,0.1088451,0.6343558,0.02421604,-0.4487998
1.157029,-0.06730881,-0.3882957,0.2692969,0.1000329,0.103181,0.7343937,-0.1063758,-0.4606879
1.238547,-0.03322291,-0.4274619,0.3512872,0.1342587,0.06370995,0.9497968,-0.35534,-0.4170482
1.281505,0.008407367,-0.594954,0.3947028,0.1759522,-0.1041341,1.121791,-0.6153466,-0.3174305
1.303641,-0.001427842,-0.8208313,0.4172638,0.1661014,-0.330404,1.07981,-0.6477972,-0.2373513
1.299153,-0.09171713,-0.9151888,0.4131492,0.07571527,-0.4251798,1.043246,-0.435402,-0.2947228
1.157711,-0.2419167,-0.87296,0.2720091,-0.07466148,-0.3833743,1.07842,-0.1327453,-0.3715881
0.8928646,-0.2865306,-0.8212527,0.007383086,-0.1195268,-0.3320738,1.056922,0.07591607,-0.2840819
0.7355027,-0.2088075,-0.7722284,-0.1498421,-0.04211987,-0.2834214,1.047799,-0.08139598,-0.2272421
0.7393953,-0.1747419,-0.7530818,-0.1458888,-0.008425975,-0.2645975,1.011986,-0.2620236,-0.2773505
0.7551343,-0.1923295,-0.7797169,-0.1301533,-0.02643363,-0.2914938,0.8219681,-0.1229476,-0.3390622
0.758346,-0.1874998,-0.7500713,-0.1269974,-0.02206684,-0.2620376,0.6017182,0.01814907,-0.4508302
0.7742115,-0.1861175,-0.681391,-0.1112295,-0.02118469,-0.1934659,0.5019286,0.09163068,-0.4623158
0.807193,-0.1934931,-0.6056824,-0.07837822,-0.02909247,-0.1177791,0.5276337,0.1237888,-0.3355153
0.8413346,-0.1978844,-0.5536206,-0.0443917,-0.03404268,-0.06565059,0.6469451,0.04565548,-0.2408988
0.8330945,-0.2221475,-0.5712571,-0.05280631,-0.05888638,-0.08313297,0.8264709,0.1037122,-0.1915205
0.832166,-0.244809,-0.5396443,-0.05392398,-0.08214451,-0.05128148,0.9353803,0.1943417,-0.2191578
0.8417013,-0.2406353,-0.5180368,-0.04458843,-0.07857709,-0.02935434,0.8936069,0.1900077,-0.2998281
0.8059251,-0.2301171,-0.5382408,-0.08057079,-0.06866863,-0.04916212,0.9139685,0.2468967,-0.3758839
0.7674577,-0.2274394,-0.4618382,-0.1192461,-0.0665983,0.02770836,1.023329,0.2368124,-0.4457114
0.7470827,-0.215872,-0.4339793,-0.1398252,-0.05563099,0.05610053,1.081212,0.2749832,-0.4323405
0.7394081,-0.1956454,-0.4592664,-0.1476932,-0.03599306,0.03140441,1.175069,0.3633102,-0.412531
0.7259118,-0.1672337,-0.4246624,-0.1613651,-0.008155528,0.06664906,1.216374,0.3575652,-0.4137542
0.6962528,-0.128672,-0.4165574,-0.1911746,0.029848,0.07543605,1.164989,0.402146,-0.348709
0.7024714,-0.1232074,-0.4030203,-0.1850738,0.03477043,0.08968832,1.162353,0.3189599,-0.3069138
0.7053032,-0.1212728,-0.3759683,-0.1823197,0.03617767,0.1174798,1.134597,0.1814343,-0.2550901
0.6915004,-0.1033506,-0.3669097,-0.1961533,0.05358596,0.127293,1.088523,0.1318002,-0.1485582
0.7156727,-0.1229251,-0.3602613,-0.1719583,0.03350896,0.1347019,1.069349,0.05569291,-0.07190406
0.7383649,-0.1332984,-0.3694916,-0.1491848,0.02264334,0.1262288,1.014805,0.08838722,-0.02240057
0.7680966,-0.1440612,-0.3724648,-0.1193094,0.01139741,0.124001,0.9277707,0.09224583,-0.02908939
0.801939,-0.1844582,-0.3802083,-0.08525897,-0.02947368,0.1169836,0.825317,0.05639811,-0.04470509
0.7971726,-0.1954074,-0.3650265,-0.08975265,-0.0408867,0.1328649,0.7843599,0.0549447,-0.02041358
0.8041289,-0.2113241,-0.3275088,-0.08245982,-0.05725479,0.1710492,0.7862233,-0.05553677,-0.03217833
0.8281084,-0.2291275,-0.3208316,-0.05808117,-0.07549423,0.1783525,0.7248418,-0.1267571,-0.06096254
0.8644832,-0.2213663,-0.3108469,-0.02124692,-0.06815045,0.1889156,0.6629426,-0.2342412,-0.101252
0.9362944,-0.2178035,-0.3130057,0.05108019,-0.06498291,0.1872795,0.6164137,-0.3785472,-0.1322276
1.022326,-0.1875363,-0.3349258,0.1376775,-0.03508628,0.1658198,0.5360803,-0.3431943,-0.1034537
1.126177,-0.1425354,-0.34555,0.2421337,0.009570416,0.155588,0.4640737,-0.3312228,-0.0950414
1.212373,-0.1245359,-0.3613353,0.3289604,0.0272519,0.1401224,0.4211828,-0.4562096,-0.1111116
1.246439,-0.1627412,-0.4068938,0.3636645,-0.01124683,0.09480792,0.4411198,-0.5744198,-0.09976103
1.306538,-0.2706356,-0.4988227,0.4243893,-0.1194105,0.003046663,0.544117,-0.5787777,-0.07682479
1.403443,-0.3800898,-0.5740604,0.5218857,-0.2291071,-0.07209694,0.6859107,-0.4043953,-0.03503039
1.412586,-0.4421784,-0.639475,0.5315629,-0.2914039,-0.1374844,0.73809,-0.003209236,-0.02489502
1.291349,-0.4562994,-0.7221304,0.4107792,-0.3056878,-0.2201694,0.5332474,0.3482992,-0.0974844
1.069855,-0.4297445,-0.681738,0.1896402,-0.2792385,-0.1798503,0.2725617,0.1689471,-0.1632651
0.7710636,-0.3746712,-0.5887177,-0.108903,-0.224203,-0.08693484,0.2213863,-0.2640772,-0.164726
0.6171009,-0.3449002,-0.613899,-0.2627197,-0.1943935,-0.1122424,0.1753326,-0.5445558,-0.1905103
0.7318473,-0.3791033,-0.6563616,-0.1479158,-0.2284764,-0.1548448,0.02429932,-0.6312103,-0.2597506
0.8354939,-0.385036,-0.70201,-0.0442847,-0.234202,-0.2006383,-0.09479113,-0.1034302,-0.3101198
0.8485408,-0.3102216,-0.7507574,-0.03131546,-0.1590895,-0.2495258,-0.1679105,0.5393357,-0.3885669
0.8753179,-0.2007494,-0.6675457,-0.004670943,-0.04922615,-0.1664386,-0.1858887,0.3875639,-0.4491091
0.8193083,-0.1146167,-0.5535078,-0.06086246,0.0373884,-0.05250074,-0.1766815,0.220486,-0.4234152
0.7637919,-0.09884509,-0.5058839,-0.1166036,0.05372531,-0.004947904,-0.2097874,0.3641263,-0.4503668
0.7895937,-0.1120037,-0.4659642,-0.0910618,0.04120627,0.03492971,-0.2918309,0.1978676,-0.4975103
0.778203,-0.1113144,-0.4489384,-0.1027393,0.04259992,0.05193979,-0.3996122,0.1183153,-0.4727521
0.7705669,-0.09445952,-0.4559122,-0.1106811,0.06021482,0.04497283,-0.4463618,0.2348284,-0.4626233
0.764412,-0.07512561,-0.474534,-0.1171528,0.08035565,0.02637653,-0.4303244,0.2620362,-0.4310797
0.7174168,-0.07794983,-0.4604928,-0.1644683,0.07837609,0.04045854,-0.4161947,0.3411266,-0.3793132
0.6953738,-0.08184337,-0.4125692,-0.1868263,0.07535594,0.08843472,-0.3733822,0.255479,-0.3682155
0.6800215,-0.08391099,-0.3949889,-0.2024793,0.074182,0.1060753,-0.3322756,0.03966287,-0.3529736
0.6803685,-0.08522199,-0.3842668,-0.2024088,0.07377718,0.1168596,-0.3118792,-0.07189119,-0.3448779
0.7141743,-0.08550186,-0.3923386,-0.1688462,0.07440876,0.1088461,-0.2380889,-0.229699,-0.3299163
0.7486926,-0.1028936,-0.3970824,-0.1345302,0.05792718,0.104151,-0.1506762,-0.2920475,-0.2979508
0.7760553,-0.112366,-0.381661,-0.1073234,0.04935782,0.1196068,-0.0919698,-0.1707483,-0.2999508
0.7820233,-0.1069401,-0.3978378,-0.1014616,0.05567479,0.1034449,-0.022966,-0.08914803,-0.326186
0.7972162,-0.09804963,-0.3934098,-0.08632286,0.06543998,0.1078643,0.01326763,-0.06096483,-0.3661445
0.804769,-0.08966393,-0.3850721,-0.07877097,0.07467971,0.1161658,2.962062e-05,-0.04995196,-0.3920923
0.793569,-0.07870239,-0.3775248,-0.08991824,0.08647012,0.1236457,-0.009770395,-0.04876615,-0.3717277
0.8293623,-0.04427882,-0.3347919,-0.05401833,0.1216926,0.166276,-0.04675833,-0.06647209,-0.301046
0.8836196,-0.007626871,-0.3293836,0.0003986532,0.159108,0.171542,-0.1132319,-0.1867556,-0.1414427
0.9897425,0.0240421,-0.3484906,0.1067308,0.1914982,0.1522478,-0.1294714,-0.2908565,0.0542799
1.173337,0.05376141,-0.3869127,0.2905761,0.2218886,0.1135894,-0.07824472,-0.1957194,0.1505575
1.251665,-0.0009088788,-0.4535098,0.3691831,0.1678309,0.0467044,0.03651848,-0.04314432,0.1562488
1.237723,-0.1519662,-0.4937883,0.3555295,0.01732148,0.006087071,0.1874834,-0.05728196,0.1398286
1.294924,-0.2304654,-0.5430611,0.4130092,-0.06069615,-0.04357258,0.2324076,-0.2157554,0.07315241
1.322273,-0.1549799,-0.6508946,0.4406048,0.01520801,-0.1518348,0.1458525,-0.3394501,0.01231447
1.274276,-0.0625303,-0.8076614,0.3928051,0.1080167,-0.3090625,0.1114393,-0.2316638,0.08629157
1.216375,-0.04336985,-0.8958995,0.3350324,0.1274772,-0.397778,0.1661453,0.04155317,0.2258569
1.068406,-0.06229239,-0.8247469,0.1871108,0.1087938,-0.3271003,0.247568,0.177953,0.2536935
0.9226765,-0.09852684,-0.7238297,0.04133886,0.07273561,-0.2266367,0.3314997,0.1516291,0.1331772
0.8726523,-0.1377058,-0.6635609,-0.008816368,0.03366955,-0.1667862,0.2832285,0.137201,0.003752199
0.815806,-0.1434101,-0.6119994,-0.06587719,0.02801613,-0.1155986,0.1898689,0.2481033,0.01254277
0.8066046,-0.1109552,-0.6017607,-0.07536822,0.06046233,-0.1056842,0.2073872,0.4600168,0.07853548
0.8291402,-0.08645167,-0.5655275,-0.05318799,0.08489924,-0.06972241,0.1407434,0.5562982,0.09999851
0.8213266,-0.09437978,-0.4921165,-0.06141376,0.07684762,0.003471041,0.04105428,0.484909,0.1741542
0.8584625,-0.1055106,-0.4809867,-0.02473859,0.0655369,0.01443582,0.09272947,0.4415202,0.2858869
0.8723662,-0.1117881,-0.4700732,-0.01133734,0.05902399,0.0252332,0.1327578,0.5491678,0.3632117
0.8406841,-0.1311875,-0.4517252,-0.0435579,0.03933523,0.04350977,0.1548141,0.6248842,0.4252111
0.8114943,-0.1550603,-0.4532566,-0.07331619,0.01512141,0.04194693,0.2193736,0.5225013,0.4266316
0.7639924,-0.1840728,-0.4083395,-0.12141,-0.0142805,0.08686729,0.2485906,0.477837,0.4126447
0.7357774,-0.2168603,-0.3737232,-0.1502319,-0.04750114,0.1215156,0.2885343,0.5367102,0.4030114
0.7041895,-0.215684,-0.3545319,-0.1824319,-0.04679601,0.1407601,0.2988803,0.5446658,0.341361
0.6585307,-0.1772008,-0.3174158,-0.2286974,-0.008815791,0.1779422,0.2377554,0.4634907,0.3228481
0.6496081,-0.1305762,-0.3031404,-0.2382096,0.03727862,0.1922872,0.2078465,0.2488329,0.3674203
0.6610706,-0.1040951,-0.2960318,-0.2273073,0.06320519,0.199459,0.2162795,-0.005226184,0.4364971
0.6863892,-0.1071055,-0.3200878,-0.2025086,0.05961702,0.1754504,0.215868,-0.1265622,0.5326112
0.7289365,-0.111209,-0.3626099,-0.1604314,0.05491263,0.1329514,0.1735357,-0.08169005,0.5942389
0.780236,-0.124496,-0.3662892,-0.1095453,0.04100212,0.1292647,0.1264803,-0.06057714,0.6034444
0.8282906,-0.1580317,-0.3531662,-0.06184348,0.006821472,0.1423447,0.1315544,-0.09945002,0.5932947
0.8727141,-0.1812047,-0.3427207,-0.01771108,-0.01701592,0.1527073,0.1221511,-0.03438465,0.5831349
0.926643,-0.1944812,-0.3330931,0.03598677,-0.03097285,0.1622077,0.0566985,0.01422966,0.5279518
0.9719753,-0.2012651,-0.295448,0.08114363,-0.03844893,0.1996766,-0.01443716,0.004294789,0.4229975
1.024664,-0.1989531,-0.250136,0.1337063,-0.03683662,0.2447576,-0.0397513,-0.05754101,0.3466485
1.100353,-0.1959287,-0.2591943,0.2093088,-0.03451492,0.2354072,-0.09311034,-0.2244423,0.2918659
1.159253,-0.1826669,-0.2974586,0.2681521,-0.02195505,0.1967831,-0.2422557,-0.3393294,0.2604183
1.212104,-0.1679954,-0.3666611,0.3209609,-0.007981431,0.127148,-0.3056886,-0.484734,0.2621153
1.28618,-0.191109,-0.4827957,0.3949917,-0.03178614,0.0105068,-0.1828517,-0.6874017,0.2603907
1.329366,-0.2890468,-0.5618363,0.4381141,-0.1304052,-0.06911114,-0.0159398,-0.6191382,0.2661569
1.315019,-0.4057359,-0.6281683,0.4236635,-0.2477597,-0.1360834,0.01463867,-0.1357248,0.2629759
1.225094,-0.3883897,-0.7151778,0.3335778,-0.2310534,-0.2237843,-0.2385167,0.3610527,0.2238902
0.9687173,-0.2487095,-0.6556617,0.07696912,-0.0919771,-0.1649967,-0.6459686,0.2234798,0.1809014
0.7120374,-0.1707709,-0.5491607,-0.180017,-0.01459926,-0.05924794,-0.8609544,-0.2083348,0.1851464
0.7246609,-0.2109368,-0.5955868,-0.1677669,-0.05528057,-0.1064395,-0.8293151,-0.2765988,0.2305347
0.7957214,-0.2894544,-0.612319,-0.09713462,-0.1342672,-0.1239426,-0.8048804,-0.2084795,0.2474244
0.7519525,-0.3287866,-0.5855711,-0.1413739,-0.1740194,-0.09796278,-0.8493771,-0.05752869,0.217639
0.8020966,-0.3128281,-0.6011199,-0.09173177,-0.1584268,-0.1142693,-0.8290607,0.1161354,0.1572999
0.8899214,-0.2813634,-0.5597841,-0.004431631,-0.1272688,-0.07367418,-0.7397506,0.132921,0.07945434
0.8727407,-0.24632,-0.5401163,-0.02215384,-0.09246902,-0.05472458,-0.6362173,0.2272639,-0.008605258
0.8525551,-0.2092213,-0.5263086,-0.0428936,-0.05554918,-0.04160882,-0.6210752,0.2181638,-0.1144022
0.8289569,-0.1794467,-0.4675533,-0.06705453,-0.02588902,0.01648303,-0.725026,0.08781542,-0.1894761
0.7952692,-0.1464778,-0.4742524,-0.1013084,0.007027611,0.009149569,-0.8117042,0.07470783,-0.1951927
0.7988521,-0.1088636,-0.4861785,-0.09828903,0.04464777,-0.003382479,-0.879922,0.09362754,-0.1653092
0.793382,-0.07906115,-0.4752187,-0.1043139,0.0745088,0.006999118,-0.9223729,0.2290233,-0.1485657
0.7709303,-0.05690021,-0.4624716,-0.1273051,0.09677406,0.01919524,-0.8931005,0.2829627,-0.1554087
0.7245247,-0.03963547,-0.4132016,-0.1742286,0.1141809,0.06793987,-0.8862734,0.1469088,-0.133525
0.6752139,-0.0456523,-0.3819571,-0.2240276,0.1083355,0.09868196,-0.8735173,0.02022923,-0.07422852
0.6700755,-0.05939766,-0.3629188,-0.2296156,0.09478283,0.1172364,-0.79713,-0.1207736,-0.02536622
0.6723851,-0.06518039,-0.3457172,-0.227707,0.08920668,0.133967,-0.6956633,-0.1847345,-0.004294123
0.6878837,-0.08137767,-0.3496594,-0.2125516,0.07322361,0.129561,-0.5852018,-0.2354386,-0.01010342
0.7241138,-0.09624114,-0.3559343,-0.1765991,0.05857666,0.1228234,-0.507839,-0.2700576,-0.02826792
0.7607775,-0.107011,-0.3743925,-0.1401413,0.04802148,0.1038984,-0.4532397,-0.222068,-0.04487211
0.7983959,-0.09389858,-0.3853403,-0.1026538,0.06134329,0.09247549,-0.3902473,-0.2468162,-0.05275088
0.8169428,-0.05210909,-0.4007341,-0.08416145,0.1033336,0.07659498,-0.3495055,-0.2449917,-0.05288537
0.8436953,-0.02606011,-0.4276555,-0.05738761,0.1295705,0.04917334,-0.3487912,-0.2566611,-0.04314615
0.9135488,-0.01450515,-0.4215232,0.01256093,0.1412951,0.05479075,-0.3642536,-0.3063053,0.0006481521
1.015899,-0.01625343,-0.4183999,0.1150747,0.1396923,0.05738408,-0.3530779,-0.2623698,0.05795636
1.099589,-0.01595591,-0.4325127,0.198988,0.1401053,0.04272608,-0.3140937,-0.2525628,0.08988743
1.136768,-0.02130567,-0.4450285,0.2364382,0.1348356,0.02964995,-0.2485366,-0.2708719,0.09626462
1.197095,-0.076161,-0.4849493,0.2970676,0.08002065,-0.01084547,-0.1536746,-0.2538636,0.08616905
1.276244,-0.1164366,-0.5595585,0.3765347,0.03974313,-0.08604096,-0.04393446,-0.1897672,0.07398344
1.311116,-0.1037369,-0.6826584,0.4117201,0.05239813,-0.2097333,0.0117781,-0.1287083,0.04561432
1.321539,-0.09344555,-0.82482,0.4224309,0.06260254,-0.3524834,-0.09492999,-0.2273595,-0.003837028
1.298397,-0.09859562,-0.8820792,0.3995319,0.05732379,-0.4103118,-0.2022734,-0.273323,-0.003559379
1.190377,-0.1089234,-0.8513198,0.2916931,0.04682601,-0.3800835,-0.1267714,0.003856243,0.10425
1.002799,-0.1620315,-0.7885538,0.1042199,-0.006492436,-0.3177922,-0.005604109,0.2639257,0.237379
0.8103855,-0.232429,-0.6717111,-0.0881686,-0.07713761,-0.2013532,0.1171635,0.09405056,0.240701
0.7026941,-0.1990694,-0.572649,-0.1959102,-0.04405814,-0.1026146,0.1838322,-0.2019226,0.1546038
0.7023841,-0.1293822,-0.600497,-0.1963338,0.02532188,-0.1307021,0.06697124,-0.2306929,0.11891
0.75764,-0.1160866,-0.6338567,-0.1412411,0.03828673,-0.1642159,-0.04945764,-0.01896331,0.1089601
0.7976749,-0.08625493,-0.6027733,-0.1014063,0.06776514,-0.1331997,-0.08564098,0.2914926,0.11775
0.7946064,-0.0918943,-0.5767706,-0.1047022,0.06175011,-0.1071761,-0.09820653,0.3209033,0.1862172
0.791303,-0.1322287,-0.5096101,-0.1082518,0.02101738,-0.03990728,0.01927523,0.1380491,0.2826592
0.8070345,-0.1427102,-0.4577984,-0.09277809,0.01011554,0.01209741,0.2192923,0.1594595,0.3698865
0.8078737,-0.1847884,-0.479939,-0.09220144,-0.03240303,-0.009771164,0.4009979,0.1853163,0.395076
0.8216359,-0.2264199,-0.4736797,-0.07870081,-0.07449168,-0.003166836,0.5135645,0.2289632,0.3619343
0.8493659,-0.2538954,-0.4644371,-0.05122639,-0.1024357,0.00648757,0.5300165,0.35459,0.2885527
0.8296156,-0.2509462,-0.4604079,-0.07122255,-0.09996016,0.01098925,0.5750777,0.3427613,0.160076
0.8025883,-0.1962866,-0.4332766,-0.09848241,-0.04577301,0.03864751,0.6212323,0.3891008,0.06530602
0.7830794,-0.1927744,-0.439348,-0.1182067,-0.04272703,0.033151,0.5931696,0.4463313,0.05582294
0.7257353,-0.1669341,-0.4294378,-0.1757436,-0.01734336,0.04367715,0.582525,0.4093148,0.07391635
0.7020741,-0.1158195,-0.3934695,-0.1995688,0.03332585,0.0802955,0.5654279,0.4352029,0.1096135
0.7369102,-0.1374805,-0.3775919,-0.1648604,0.01123098,0.09684976,0.5129512,0.4095181,0.1750016
0.7596029,-0.1216837,-0.3576404,-0.1422522,0.02660509,0.1174963,0.482934,0.3262337,0.2019133
0.7817808,-0.1131919,-0.3559257,-0.1201104,0.03468434,0.1199158,0.4523586,0.2568496,0.1743102
0.8026856,-0.1421188,-0.37769,-0.09919012,0.005354172,0.09885756,0.4064338,0.2457947,0.1786528
0.8016276,-0.1480029,-0.381612,-0.100179,-0.0009244316,0.09563518,0.391229,0.3160439,0.173333
0.8122254,-0.2116141,-0.3460999,-0.08945724,-0.06492067,0.1318336,0.3986292,0.3054938,0.1306694
0.8162382,-0.2484852,-0.2983342,-0.08526508,-0.1021654,0.1802653,0.3825318,0.1617066,0.1149264
0.8134808,-0.217331,-0.2873074,-0.08778781,-0.07136913,0.1919294,0.3699474,-0.07094092,0.09081991
0.8438158,-0.2065394,-0.2749811,-0.05716302,-0.06091595,0.2048554,0.405627,-0.2233583,0.06450572
0.8842019,-0.1942552,-0.2570628,-0.01643346,-0.04894767,0.2233266,0.4404616,-0.216667,0.04582921
0.923798,-0.1870982,-0.2792021,0.0235568,-0.04208199,0.2016844,0.4046441,-0.268711,0.01862689
0.9590468,-0.1722754,-0.2898196,0.05924563,-0.02752438,0.1915,0.3470122,-0.3885933,0.02439568
0.9928888,-0.1469372,-0.2852663,0.0935668,-0.002424973,0.1964158,0.3327496,-0.499865,0.03115265
1.065605,-0.1479899,-0.3127766,0.1667928,-0.003690346,0.1691914,0.3371582,-0.6347544,0.01510237
1.159248,-0.1731481,-0.3652495,0.2609663,-0.02903589,0.1169236,0.3643605,-0.8149038,-0.03186827
1.233439,-0.249663,-0.4551765,0.3356931,-0.1057128,0.02711927,0.4609145,-1.07158,-0.1211644
1.311803,-0.3657904,-0.5530962,0.4145824,-0.2219744,-0.070758,0.647462,-1.093836,-0.1651711
1.394112,-0.435526,-0.637391,0.4973852,-0.2918093,-0.1550838,0.7509571,-0.520592,-0.1786524
1.362403,-0.3966275,-0.7327796,0.4661172,-0.2529655,-0.2505656,0.5212699,0.2717406,-0.2710367
1.129239,-0.3075917,-0.7433551,0.233321,-0.1639297,-0.2612818,0.1289912,0.4347587,-0.3681519
0.8086136,-0.2640607,-0.6224832,-0.08702143,-0.1203373,-0.1405824,-0.03871462,-0.2197707,-0.374846
0.6500658,-0.3014793,-0.5118716,-0.2453706,-0.1576296,-0.03016268,0.08519658,-0.8768009,-0.4121951
0.7227352,-0.4004811,-0.5141461,-0.1725749,-0.256437,-0.03264139,0.1868643,-0.9046748,-0.5440221
0.7902004,-0.4340539,-0.5897052,-0.1050415,-0.2897423,-0.1084127,0.068882,-0.4665806,-0.6598907
0.8069624,-0.3798303,-0.6390937,-0.08825781,-0.235171,-0.1580162,0.02596427,-0.06553399,-0.7481647
0.8579677,-0.325402,-0.6250904,-0.03726907,-0.1803086,-0.1442238,0.1265812,-0.05288368,-0.8300348
0.8351376,-0.2757463,-0.5839726,-0.06014753,-0.130129,-0.1033053,0.2157337,-0.09808466,-0.8984658
0.8179863,-0.267733,-0.5388062,-0.07737361,-0.1215019,-0.05832056,0.3724826,0.02115351,-1.00394
0.8274698,-0.273469,-0.5062246,-0.06798584,-0.1265353,-0.02589966,0.3891466,-0.08457887,-1.088102
0.7806892,-0.234129,-0.5020312,-0.1148775,-0.08640607,-0.02184456,0.2681042,-0.2995379,-1.087279
0.8147112,-0.1800679,-0.5210086,-0.08097572,-0.03147265,-0.04093758,0.2951099,-0.3256218,-1.062511
0.8535005,-0.1164785,-0.5492946,-0.04231042,0.03306671,-0.06931601,0.3317137,-0.229039,-1.021216
0.8315953,-0.08657386,-0.5635414,-0.06433928,0.06399087,-0.08363064,0.3623127,0.02835988,-0.9581056
0.8251297,-0.09373858,-0.5485595,-0.07092477,0.05790531,-0.06868998,0.3962107,0.2927947,-0.9106621
0.7733021,-0.09117109,-0.5051173,-0.1228649,0.06160134,-0.02526068,0.3956698,0.3433726,-0.8884379
0.7255323,-0.09329557,-0.4274532,-0.1707345,0.06064499,0.05241892,0.5031791,0.240443,-0.8763426
0.6869021,-0.09071959,-0.3589251,-0.2094452,0.06441946,0.120988,0.561574,0.1235694,-0.8563298
0.6572192,-0.08680453,-0.3660719,-0.2391808,0.06955461,0.1139016,0.5552838,0.07926662,-0.8351076
0.6880287,-0.08385309,-0.3869156,-0.2083868,0.07373938,0.09313074,0.6008966,0.00290961,-0.8180646
0.7117069,-0.06468377,-0.3777688,-0.1846785,0.09414713,0.1023563,0.5974563,-0.03851587,-0.797839
0.7850856,-0.04291091,-0.4156101,-0.1112174,0.1171553,0.06459415,0.6082256,0.09916608,-0.7767681
0.8558461,-0.02500632,-0.4526145,-0.04031917,0.1362835,0.0276649,0.5976569,0.2346716,-0.769414
0.794206,-0.01065762,-0.4216781,-0.1017657,0.1518351,0.05866977,0.5209392,0.2570102,-0.7690305
0.7406652,0.01048815,-0.3879007,-0.1550571,0.1741538,0.09250658,0.4876786,0.1770076,-0.7309129
0.746562,0.01179952,-0.3676838,-0.1488538,0.1765988,0.1127705,0.4865878,0.08240087,-0.6523602
0.7462235,-0.009457463,-0.3537907,-0.1488261,0.1564271,0.1266938,0.5457076,0.01047192,-0.554426
0.7722767,0.004927908,-0.3450811,-0.1223447,0.1718413,0.1354118,0.6250049,-0.1549507,-0.4553727
0.862362,0.03852525,-0.3367345,-0.03176862,0.2064034,0.1437399,0.6320281,-0.2000997,-0.3960485
1.024373,0.06603741,-0.36385,0.1307932,0.2348085,0.116574,0.5982107,0.06938319,-0.3788689
1.174802,0.06022529,-0.3818757,0.2818236,0.2298091,0.09846196,0.5735175,0.2840309,-0.3895242
1.230176,0.0113156,-0.3448724,0.337835,0.181624,0.1353398,0.6229013,0.07889894,-0.3991895
1.254733,-0.004420071,-0.3311891,0.3630461,0.1665186,0.1488553,0.7228431,-0.2896046,-0.3569948
1.298497,0.003208016,-0.4163658,0.4074588,0.1746786,0.06346587,0.7837085,-0.4626794,-0.2821565
1.314408,-0.001810247,-0.5870562,0.4239931,0.1700905,-0.1074831,0.7338101,-0.5089593,-0.2381321
1.284872,-0.02493466,-0.7322284,0.3950329,0.1472921,-0.2529538,0.6124414,-0.4312756,-0.2389097
1.205233,-0.09019662,-0.75729,0.3159043,0.0822509,-0.2783419,0.6030529,-0.2166635,-0.1823482
1.047409,-0.1460892,-0.7148005,0.1585112,0.02647516,-0.2361915,0.739995,0.002970305,0.007250378
0.8640796,-0.163875,-0.6966423,-0.02447364,0.008706277,-0.21837,0.8627801,0.07910205,0.1502844
0.7671577,-0.1517051,-0.7034905,-0.1211364,0.02079915,-0.22554,0.7736551,-0.08705409,0.09528446
0.769379,-0.1273099,-0.7148638,-0.1187331,0.04502938,-0.2372084,0.5417538,-0.1186474,-0.04888047
0.8058348,-0.1197444,-0.7318892,-0.08216196,0.05234704,-0.2544916,0.4037908,0.1260441,-0.1818093
0.8300678,-0.1058204,-0.703176,-0.05787063,0.06594473,-0.2259882,0.3187663,0.3090124,-0.2275961
0.8170997,-0.1065138,-0.6249273,-0.07082972,0.06485005,-0.1478928,0.3084042,0.3497833,-0.1579213
0.8030252,-0.1187102,-0.5675922,-0.08493726,0.05218073,-0.09064836,0.4326505,0.2665029,-0.08423196
0.8102878,-0.1230457,-0.5410857,-0.07774268,0.0473041,-0.06416793,0.5738046,0.2862761,0.01143512
0.7989159,-0.1428297,-0.5392616,-0.08921073,0.0269149,-0.06230542,0.6435859,0.4539556,0.116913
0.7813068,-0.1354768,-0.5269667,-0.1069374,0.03360268,-0.0499092,0.5689465,0.4922697,0.1217354
0.7745211,-0.1158154,-0.4848187,-0.1138551,0.05254335,-0.007599077,0.5310348,0.3421901,0.1628989
0.7832343,-0.1083493,-0.477981,-0.1052814,0.05923707,-0.0005418185,0.5845768,0.1041683,0.2674288
0.8150364,-0.09771274,-0.4966403,-0.07361984,0.06905251,-0.0189283,0.54956,0.1470599,0.3169755
0.8329159,-0.1239979,-0.4965542,-0.05587712,0.0419002,-0.01852021,0.5288089,0.3339899,0.3543664
0.83594,-0.1616545,-0.4688177,-0.05298232,0.003333692,0.0095837,0.4973953,0.3726694,0.3481227
0.8199276,-0.1866188,-0.4089617,-0.06911375,-0.02257895,0.06984804,0.4456329,0.5233471,0.3390231
0.7710131,-0.2057309,-0.3594094,-0.1181339,-0.04267207,0.1198434,0.4585588,0.5472197,0.3839312
0.7329821,-0.1922445,-0.3393051,-0.1562527,-0.03019291,0.140417,0.4160633,0.3970064,0.4027967
0.6993959,-0.1577619,-0.3233,-0.1899033,0.003262583,0.1569079,0.3683816,0.2474573,0.4465287
0.6598647,-0.1190539,-0.3003869,-0.2294678,0.04092823,0.1803133,0.3533514,-0.04959313,0.5063938
0.6669565,-0.1116076,-0.301895,-0.2223699,0.04732008,0.1792935,0.3415859,-0.2138907,0.5460406
0.7242265,-0.1352524,-0.3389813,-0.1650463,0.02261046,0.1426815,0.3288526,-0.2432463,0.5909567
0.8044957,-0.1386925,-0.3641023,-0.08466982,0.01809718,0.1180123,0.2438097,-0.2695065,0.5937124
0.8836568,-0.147382,-0.3740949,-0.00534602,0.008328563,0.1084427,0.1774548,-0.1863215,0.5869259
0.9330297,-0.1681773,-0.3571805,0.04424338,-0.01354897,0.1257459,0.151691,-0.0858324,0.5528326
1.028628,-0.1872974,-0.3189013,0.1401058,-0.03375104,0.1643749,0.08073238,0.02297898,0.4695552
1.153228,-0.2084731,-0.3195684,0.2650094,-0.0560043,0.1640131,-0.0352776,-0.02813215,0.4102801
1.152255,-0.192962,-0.3334892,0.2643644,-0.04156162,0.1503473,-0.1281141,-0.233941,0.3729487
1.175562,-0.1864996,-0.3770966,0.288009,-0.03615397,0.1069398,-0.08370601,-0.4767709,0.3867206
1.289299,-0.2487604,-0.4963807,0.4020764,-0.09945126,-0.01220213,0.01121825,-0.6824512,0.4338069
1.321749,-0.3429117,-0.6177457,0.4348315,-0.1946154,-0.1334807,0.03956978,-0.2945186,0.4433337
1.343775,-0.4248754,-0.6804981,0.4571167,-0.2775592,-0.1961953,-0.04200307,0.29271,0.412145
1.231093,-0.4271045,-0.6761678,0.3446296,-0.280724,-0.1918648,-0.2765559,0.2435105,0.3269053
0.9482107,-0.351684,-0.6269881,0.06186262,-0.2061819,-0.1427101,-0.4994667,0.06137553,0.2410093
0.7979543,-0.2826568,-0.5665252,-0.08836296,-0.1379657,-0.08228767,-0.6261393,-0.09213347,0.2035739
0.7355362,-0.2587915,-0.5395029,-0.1508291,-0.1148372,-0.05531377,-0.7173276,-0.3953244,0.1967236
0.7397129,-0.2758931,-0.5840555,-0.1467684,-0.1325979,-0.099918,-0.8522352,-0.2341253,0.1852715
0.8040635,-0.2663038,-0.6242219,-0.0825897,-0.1235872,-0.1401344,-1.087808,0.1479174,0.1329125
0.8118946,-0.2187714,-0.6089347,-0.0749758,-0.07655103,-0.1248897,-1.170138,0.1993954,0.1113736
0.8603864,-0.1741503,-0.5748828,-0.02673863,-0.03234353,-0.09086681,-1.075402,0.3229951,0.121656
0.8716302,-0.1279404,-0.538711,-0.01578073,0.01353345,-0.05470611,-1.088232,0.4757256,0.09092908
0.8283479,-0.1361988,-0.5221527,-0.05937543,0.005018706,-0.03813841,-1.162739,0.437303,0.06055918
0.8196111,-0.1578625,-0.4981418,-0.06844641,-0.01682977,-0.01409656,-1.266041,0.3796422,0.03135118
0.7863754,-0.1226818,-0.4654522,-0.1020323,0.01823302,0.01864514,-1.412329,0.272294,0.01246529
0.7942785,-0.1091551,-0.4826915,-0.09448897,0.03170409,0.001477468,-1.490995,0.2773202,0.0242511
0.801419,-0.09349493,-0.4898725,-0.08771132,0.04736515,-0.00561412,-1.519571,0.3596836,0.01864741
0.770559,-0.06245314,-0.4584471,-0.1189311,0.07845821,0.02591652,-1.508705,0.3237417,0.02042545
0.755661,-0.06766723,-0.4426963,-0.1341796,0.07333884,0.0417865,-1.459536,0.2992751,0.02737657
0.6920825,-0.06683476,-0.4141205,-0.1980922,0.07430233,0.07049225,-1.402339,0.1567557,0.0256093
0.644177,-0.08258902,-0.3845385,-0.2463069,0.05870866,0.1002109,-1.309113,-0.07814959,0.05595256
0.6499728,-0.1169686,-0.3766615,-0.2407855,0.02451343,0.108226,-1.14398,-0.2211887,0.08824069
0.6695793,-0.137788,-0.3691446,-0.221408,0.003897878,0.1158768,-0.9136426,-0.2892532,0.1022454
0.7181052,-0.1670264,-0.3964667,-0.1730569,-0.02512012,0.08867882,-0.7247503,-0.2106828,0.09863003
0.7440537,-0.1676254,-0.4410619,-0.1472223,-0.0254833,0.04419335,-0.6143241,-0.1169878,0.0869087
0.7475809,-0.1405252,-0.4562153,-0.1437435,0.001867095,0.02913258,-0.5234234,-0.07844358,0.08685739
0.767927,-0.1027499,-0.4392814,-0.1233776,0.03990583,0.04614056,-0.473993,-0.06094957,0.05909192
0.8128246,-0.05420148,-0.4030342,-0.07839025,0.0887278,0.08244232,-0.4698043,-0.115689,0.03482662
0.8817066,-0.0358057,-0.3814286,-0.009348931,0.1074027,0.1040808,-0.4702622,-0.1476943,0.06915642
0.9538897,-0.02412581,-0.3721159,0.06305945,0.1193612,0.1134016,-0.4649711,-0.2379149,0.1374013
1.036598,0.00930328,-0.3878241,0.1460527,0.1530618,0.09767302,-0.4553967,-0.3358567,0.2208814
1.120154,0.03083046,-0.4313425,0.2299413,0.174846,0.05410287,-0.438541,-0.2828061,0.2773056
1.199559,-0.02497036,-0.4633489,0.3097146,0.1192803,0.02201204,-0.3788679,-0.2638024,0.3004642
1.268818,-0.1257207,-0.5057372,0.3793579,0.01873715,-0.02049297,-0.2529727,-0.2628078,0.3351159
1.301475,-0.1247792,-0.576884,0.412397,0.01985557,-0.09178567,-0.1479887,-0.2242566,0.3443522
1.348149,-0.05178715,-0.6745919,0.45943,0.09299374,-0.189663,-0.1642347,-0.2938849,0.2859187
1.394366,-0.01870344,-0.7716836,0.5059599,0.1261916,-0.286938,-0.2071284,-0.3272393,0.2212755
1.316752,-0.04445603,-0.8260094,0.4285915,0.1005182,-0.3414476,-0.1781806,-0.1107545,0.2366956
1.098921,-0.1421538,-0.8325951,0.210921,0.002861817,-0.3482012,-0.09328447,0.2026549,0.3055879
0.8691807,-0.2436433,-0.7697997,-0.01875435,-0.09862347,-0.2855415,0.1126532,0.3548835,0.3301403
0.7921454,-0.2585789,-0.6989505,-0.09581894,-0.1135875,-0.214782,0.2986313,0.3891491,0.2566403
0.8007366,-0.1982317,-0.6558485,-0.08734306,-0.05329444,-0.1717138,0.2424026,0.4034251,0.09705377
0.7182627,-0.141653,-0.5745984,-0.1700069,0.003210303,-0.09043544,0.1057537,0.4004744,-0.02659774
0.710268,-0.1187702,-0.5398166,-0.1782536,0.02600237,-0.05556122,-0.02592313,0.4454365,-0.01678972
0.8183865,-0.07589118,-0.5535114,-0.07043601,0.06877474,-0.06910008,-0.161021,0.4557873,0.08893388
0.8330294,-0.03076074,-0.4996919,-0.05613246,0.1137815,-0.0150629,-0.1486237,0.4340268,0.2424414
0.8507175,-0.02943034,-0.4817524,-0.03881448,0.1149683,0.003152865,-0.1238594,0.4857413,0.3735195
0.8646655,-0.05857903,-0.509559,-0.0252617,0.08565258,-0.0243231,-0.1965467,0.4837079,0.4416146
0.8206344,-0.08785334,-0.4714294,-0.06970813,0.05618488,0.01418711,-0.1987998,0.4581582,0.4796814
0.838283,-0.1157385,-0.4479344,-0.05249003,0.02807885,0.03810792,-0.1575518,0.4383115,0.4931737
0.8069364,-0.1591078,-0.4422643,-0.0842769,-0.01553842,0.0442435,-0.1103244,0.3669308,0.5182816
0.7707368,-0.1794557,-0.4157867,-0.1209207,-0.03615899,0.07121976,-0.03496907,0.4267952,0.5539859
0.783974,-0.1892666,-0.4183485,-0.1081252,-0.04626366,0.06918338,-0.002523627,0.5387211,0.5494091
0.7305439,-0.1973791,-0.387025,-0.1619873,-0.05468669,0.1010519,0.01379315,0.5297234,0.5602238
0.7060192,-0.1715909,-0.3356883,-0.1869269,-0.0292212,0.1529454,0.01689331,0.4304833,0.5968676
0.6889676,-0.160456,-0.3200625,-0.2043673,-0.01841749,0.1691312,-0.003259777,0.2175504,0.5955908
0.6788976,-0.1594365,-0.3027165,-0.2147912,-0.01773474,0.1870304,-0.00947773,0.05955714,0.5807168
0.7250294,-0.1594228,-0.3084534,-0.1689691,-0.01806093,0.1818299,-0.02532882,0.05928829,0.5600465
0.7442865,-0.1700778,-0.322168,-0.1499705,-0.029057,0.1686252,-0.03286243,0.07796868,0.5033683
0.7822087,-0.1726294,-0.3275624,-0.1122502,-0.0319483,0.1637059,-0.05313205,0.07903067,0.4388392
0.8057691,-0.1961847,-0.3300919,-0.08883192,-0.05583976,0.1616091,-0.1001811,0.05221252,0.3925529
0.8161007,-0.2210157,-0.3080567,-0.07858129,-0.08100004,0.1840279,-0.1030518,0.02591426,0.3495007
0.8666109,-0.2342023,-0.3012878,-0.02809094,-0.09450538,0.1911251,-0.08362411,0.02568776,0.2825317
0.8884488,-0.2352295,-0.2879143,-0.006213479,-0.09583614,0.2047647,-0.0793645,0.0174806,0.2099
0.9365194,-0.2125034,-0.2556833,0.04195265,-0.07339413,0.2371934,-0.09116646,-0.01507374,0.1926651
1.01602,-0.1926776,-0.2400582,0.1215988,-0.05382925,0.2529404,-0.1316363,-0.1199306,0.2321414
1.096631,-0.1491905,-0.225758,0.2023978,-0.01057788,0.2672798,-0.1779296,-0.2838707,0.2974677
1.208526,-0.1116172,-0.2488072,0.3145101,0.02678542,0.2441794,-0.2000012,-0.4472865,0.3673759
1.298533,-0.1314576,-0.3235493,0.4047475,0.0067594,0.16929,-0.2296098,-0.5685518,0.3978319
1.342912,-0.189091,-0.4244482,0.4493503,-0.05103676,0.06814491,-0.2636092,-0.6543765,0.419815
1.358106,-0.277963,-0.5040364,0.4647409,-0.1400483,-0.01178666,-0.2030205,-0.6900586,0.5020798
1.404954,-0.3555281,-0.5285954,0.5117358,-0.2177261,-0.03678019,-0.1385393,-0.4564503,0.5478757
1.433285,-0.4078973,-0.5891715,0.5401407,-0.2701735,-0.09787293,-0.2408484,0.07550102,0.4275181
1.266496,-0.4104991,-0.644978,0.3733335,-0.2728094,-0.1542672,-0.4880047,0.3831394,0.2254954
0.9701537,-0.3205556,-0.5848499,0.0768653,-0.1828459,-0.09478548,-0.8043636,0.01605423,0.1056054
0.7568932,-0.2351304,-0.5457769,-0.1366319,-0.09733936,-0.05640567,-0.9602499,-0.5319648,0.1031837
0.718678,-0.2187233,-0.626799,-0.175186,-0.08078661,-0.1381576,-0.9225507,-0.5322517,0.1715497
0.7750985,-0.2383387,-0.7269163,-0.1191918,-0.1001917,-0.2390308,-1.038971,-0.1579545,0.2224499
0.8142405,-0.2500392,-0.7598876,-0.08054903,-0.1116178,-0.2727707,-1.204121,0.3013859,0.1697928
0.8507651,-0.2297763,-0.6907155,-0.04458444,-0.09101651,-0.2043647,-1.145591,0.6066938,0.1002818
0.8529332,-0.2296602,-0.5739287,-0.043028,-0.09049842,-0.08832838,-1.014135,0.4828308,0.09248777
0.8044202,-0.239166,-0.5049731,-0.09219586,-0.09953961,-0.0200991,-0.9056765,0.3869709,0.028498
0.7915603,-0.2264382,-0.4566291,-0.1057453,-0.0862855,0.02754629,-0.8860188,0.3684755,-0.08921878
0.7915361,-0.1998534,-0.4236789,-0.1064846,-0.05911408,0.05982547,-0.9856823,0.1815031,-0.138304
0.7855812,-0.1263592,-0.4447875,-0.1131709,0.01502439,0.03807154,-1.064637,0.2146616,-0.1119353
0.7937175,-0.05468031,-0.458962,-0.1057736,0.08740027,0.02327496,-1.131605,0.3330436,-0.06015239
0.7737446,-0.020334,-0.4557648,-0.1264846,0.122488,0.02587167,-1.162488,0.3670719,-0.03027786
0.7348535,-0.001315364,-0.4373209,-0.1661047,0.1422822,0.04373525,-1.136533,0.4270559,-0.02932425
0.6800161,-0.0279075,-0.3755615,-0.2216529,0.1164887,0.1049325,-1.177574,0.2752652,-0.06259362
0.6301594,-0.06992413,-0.3355819,-0.2721915,0.0752837,0.1443643,-1.18825,0.006128603,-0.08558307
0.6403515,-0.1022547,-0.3309559,-0.2626404,0.04376959,0.1484512,-1.061205,-0.2327544,-0.01789803
0.6780682,-0.1322868,-0.3433787,-0.2255117,0.01455315,0.1354917,-0.8448899,-0.3556783,0.06599621
0.729134,-0.1436436,-0.383329,-0.1749707,0.004007294,0.09500141,-0.5897082,-0.222576,0.08167938
0.764646,-0.1521447,-0.4128012,-0.1399132,-0.0036901,0.06498166,-0.4248673,-0.1069613,0.04125656
0.7562015,-0.1445144,-0.4259913,-0.1487374,0.004735064,0.05123439,-0.3629706,-0.1055084,-0.005398367
0.7696426,-0.1146032,-0.4180302,-0.1355977,0.03543027,0.05862744,-0.3171554,-0.1255386,-0.01683718
0.8135417,-0.07000109,-0.3951587,-0.09191975,0.08080292,0.08091954,-0.304731,-0.1984219,-0.02697749
0.8744872,-0.01002081,-0.3909506,-0.03111486,0.141536,0.08453553,-0.3299302,-0.2145959,-0.02641045
0.9443533,0.004166913,-0.3820553,0.03868891,0.1564525,0.09282447,-0.3687203,-0.2128028,0.01371922
1.015716,-0.002350858,-0.3748553,0.1100614,0.1506319,0.09940195,-0.407097,-0.2516265,0.08828204
1.111341,0.03138387,-0.375218,0.20576,0.1850246,0.09839853,-0.424567,-0.2623815,0.1752747
1.172885,0.02834813,-0.3705966,0.2674273,0.1826,0.1023589,-0.4069817,-0.3513809,0.2280387
1.219093,-0.03036661,-0.3997222,0.3137927,0.1244423,0.07255054,-0.3662164,-0.5437207,0.2815617
1.315594,-0.08775885,-0.4915299,0.4104676,0.06754786,-0.01996241,-0.2959415,-0.658304,0.3322413
1.383009,-0.1086636,-0.66473,0.4780524,0.0470795,-0.193887,-0.2275614,-0.556497,0.334141
1.392699,-0.05747231,-0.8311889,0.4878846,0.09864526,-0.3610801,-0.273661,-0.3732423,0.3168173
1.314459,-0.03034802,-0.8731287,0.4097387,0.1260816,-0.4037479,-0.3114626,-0.2581466,0.3070966
1.107301,-0.1112481,-0.8538016,0.2026065,0.04542978,-0.3851223,-0.1644123,-0.0622733,0.358207
0.8982771,-0.1889798,-0.8023584,-0.006469244,-0.03211707,-0.3343345,0.02039799,0.04626256,0.412331
0.7762326,-0.1875194,-0.7087656,-0.1286433,-0.0305322,-0.2413343,0.1130392,-0.06299426,0.3408188
0.7483276,-0.1581898,-0.6649509,-0.156747,-0.00113349,-0.1980375,0.1135615,-0.01032975,0.2060926
0.7781556,-0.1411469,-0.6494965,-0.1271752,0.01592781,-0.1830186,0.04627464,0.1451406,0.1149497
0.7755593,-0.1102079,-0.5928211,-0.1300729,0.04683765,-0.1266911,-0.02035013,0.2495228,0.1274818
0.7742588,-0.07836944,-0.5374987,-0.1317093,0.07860124,-0.0716269,-0.06562585,0.3234302,0.2337903
0.7946326,-0.08340454,-0.5068927,-0.1116957,0.07344605,-0.04118976,-0.0594712,0.2199771,0.3408125
0.789901,-0.09329737,-0.4970798,-0.1168027,0.06338789,-0.03145924,0.002467088,0.1947308,0.4360621
0.7855295,-0.1213144,-0.5015916,-0.1215567,0.03516061,-0.03597092,0.0861158,0.3211188,0.5085337
0.7714399,-0.1730682,-0.484849,-0.1360282,-0.01684675,-0.01915003,0.1804685,0.384732,0.5193578
0.7480491,-0.2121905,-0.4507493,-0.1597923,-0.05626248,0.01510149,0.2491066,0.4365941,0.4908177
0.7410973,-0.2523383,-0.4198012,-0.167101,-0.09673806,0.04626909,0.3234682,0.412071,0.4365142
0.7293655,-0.2662219,-0.39508,-0.1791651,-0.1109766,0.07127051,0.4287284,0.4135122,0.3702962
0.7138158,-0.2423275,-0.3868925,-0.1950144,-0.08745651,0.07979096,0.4996639,0.4707425,0.3089118
0.6886457,-0.2026528,-0.3757604,-0.2204432,-0.0481682,0.09129998,0.4953328,0.4247282,0.2863864
0.6710005,-0.1446696,-0.3588092,-0.2382978,0.009421689,0.1086636,0.4361966,0.3622264,0.3243046
0.6896427,-0.1120735,-0.3592466,-0.219807,0.04162024,0.1086651,0.3794004,0.2150915,0.3625774
0.7075883,-0.1267361,-0.3632212,-0.2019471,0.02655637,0.1051475,0.3233321,0.06854009,0.3709309
0.7328476,-0.1646325,-0.37224,-0.1767015,-0.01174483,0.09659567,0.2755838,0.08227053,0.3489894
0.7795475,-0.2030827,-0.3842176,-0.1299388,-0.05060247,0.08508788,0.2376914,0.1116877,0.303364
0.7946899,-0.2192235,-0.3742253,-0.1146551,-0.06715044,0.09554638,0.1577914,0.1510951,0.2613854
0.807648,-0.2306732,-0.3533914,-0.1014765,-0.07900301,0.1168372,0.09337421,0.1673173,0.2140977
0.8570773,-0.2450948,-0.3199833,-0.05174849,-0.09381876,0.1506866,0.06562777,0.1308031,0.1605868
0.8881823,-0.2275191,-0.2658932,-0.02026939,-0.0766236,0.2051953,0.03012413,0.05085083,0.1054673
0.9269504,-0.1954953,-0.2344614,0.01894363,-0.04496281,0.2370142,-0.01896019,-0.148074,0.08390121
1.009248,-0.1792249,-0.242101,0.1017504,-0.0290349,0.2297204,-0.06754175,-0.3268008,0.1314989
1.09616,-0.1606903,-0.2649712,0.1892266,-0.01082078,0.2071452,-0.06129581,-0.4400244,0.199652
1.203882,-0.1462895,-0.3167826,0.2975536,0.003281786,0.1555698,-0.09902697,-0.5611181,0.2623559
1.286345,-0.1541149,-0.4056366,0.3806464,-0.004819995,0.06688747,-0.1942076,-0.6196054,0.2966965
1.304343,-0.2335795,-0.5192624,0.3992781,-0.0845393,-0.046632,-0.1500543,-0.673812,0.2989934
1.354134,-0.3860342,-0.6177586,0.4496849,-0.2372246,-0.1450833,-0.01417186,-0.7059363,0.3585793
1.381335,-0.4446291,-0.6325015,0.4774606,-0.2960192,-0.1598342,0.01867854,-0.4131853,0.4187795
1.217302,-0.3567469,-0.6195382,0.313942,-0.2082949,-0.1469205,-0.2472804,0.151979,0.3135901
0.9385564,-0.2519574,-0.6420111,0.03563294,-0.1036126,-0.1694738,-0.7289969,0.323148,0.1636699
0.8078377,-0.2080662,-0.6427181,-0.09473069,-0.05977255,-0.170281,-0.944327,-0.1893594,0.1645439
0.8106429,-0.2572018,-0.6521028,-0.0916476,-0.1089022,-0.1797754,-0.910579,-0.7394056,0.1890844
0.7394503,-0.3419791,-0.705871,-0.1626301,-0.1936153,-0.2336526,-0.9365488,-0.7253914,0.1564356
0.7232638,-0.3567189,-0.7325788,-0.1786634,-0.2082295,-0.2604574,-0.9257799,-0.299497,0.1403408
0.8236364,-0.3311367,-0.7050123,-0.07818303,-0.1824557,-0.2329645,-0.8793037,0.1789883,0.06291343
0.8281887,-0.3077362,-0.6424438,-0.07355872,-0.1587926,-0.1704354,-0.7845983,0.5116558,-0.06299958
0.8043842,-0.2726961,-0.5796928,-0.09732013,-0.1234164,-0.1076819,-0.5932063,0.5747725,-0.1496076
0.7992184,-0.2568739,-0.536751,-0.1024651,-0.1071835,-0.0646914,-0.538548,0.5058228,-0.2421634
0.7436884,-0.2280311,-0.4740853,-0.1579896,-0.07785575,-0.001929764,-0.575459,0.4045922,-0.3282726
0.7432474,-0.1694289,-0.4266714,-0.1584328,-0.01869674,0.04562516,-0.5932966,0.16711,-0.3686394
0.7542869,-0.1401798,-0.4699377,-0.1473948,0.01117689,0.002540984,-0.6967714,0.006349518,-0.3691189
0.737426,-0.09107279,-0.5104016,-0.1642486,0.06096963,-0.03770391,-0.7660981,0.09644596,-0.348868
0.7532497,-0.05513672,-0.5008624,-0.1484018,0.09764453,-0.02791156,-0.7549397,0.2634187,-0.3397803
0.7466387,-0.08522528,-0.5085397,-0.1549668,0.06833837,-0.03530313,-0.7553555,0.3768208,-0.3417934
0.7203646,-0.07049687,-0.4637087,-0.1811659,0.08388333,0.009844294,-0.7441646,0.3430183,-0.3434085
0.681703,-0.05176194,-0.3863159,-0.2197168,0.10346,0.08758136,-0.7278764,0.1781056,-0.308488
0.656708,-0.06713524,-0.3656325,-0.244558,0.08894483,0.1086314,-0.664854,-0.03984384,-0.2166081
0.6800399,-0.05183456,-0.3580083,-0.2210212,0.1051116,0.1166374,-0.5198983,-0.2556042,-0.1008685
0.6990705,-0.07108942,-0.3852917,-0.201727,0.08672276,0.08974343,-0.3732255,-0.2455739,-0.02480338
0.7340252,-0.106219,-0.4326318,-0.1664444,0.05245225,0.04279362,-0.2660852,-0.08646474,-0.01225623
0.7600231,-0.1080815,-0.437535,-0.1400502,0.05143624,0.03827703,-0.1965289,-0.08456953,0.006225965
0.7524189,-0.09947012,-0.4267784,-0.1471877,0.06087717,0.04941333,-0.1527945,-0.1289989,0.01508276
0.7826689,-0.06230751,-0.4189453,-0.1163994,0.09884824,0.05761615,-0.1358869,-0.1694545,-0.005742993
0.8427363,-0.03418587,-0.4236492,-0.05572268,0.1277523,0.05326912,-0.1666535,-0.2512744,0.006699441
0.9367675,-0.01732876,-0.4193231,0.0389863,0.1453598,0.05793641,-0.2144796,-0.2565637,0.02762962
1.066497,0.008761112,-0.4086236,0.169455,0.1721613,0.06895863,-0.2483633,-0.2503339,0.07008972
1.174564,0.00335634,-0.4169102,0.2783109,0.1674222,0.0609735,-0.2619294,-0.2486741,0.1416162
1.257604,-0.05536889,-0.4299353,0.3621717,0.10931,0.04822615,-0.208727,-0.3068033,0.1916227
1.328172,-0.1639213,-0.4992216,0.4335728,0.001313679,-0.02080746,-0.04878825,-0.4109545,0.2363661
1.378297,-0.2116597,-0.6491997,0.4845196,-0.04592601,-0.1705568,0.142949,-0.3563982,0.2256269
1.379153,-0.1506657,-0.796574,0.4861603,0.01551231,-0.3177197,0.1999857,-0.3090998,0.1251343
1.2909,-0.1052382,-0.8758511,0.3986314,0.06133255,-0.3967897,0.143635,-0.2919729,0.02686087
1.118961,-0.1097422,-0.8882253,0.227338,0.05717091,-0.4089441,0.1786989,-0.1297045,0.02963353
0.9315579,-0.1339855,-0.8256962,0.0404889,0.03321967,-0.3461639,0.3050418,0.1015172,0.1086182
0.8008892,-0.1665344,-0.7105307,-0.08971861,0.0009131739,-0.2307005,0.4259594,0.2461828,0.1144609
0.7374948,-0.1718854,-0.6630305,-0.1527389,-0.004243007,-0.1828447,0.4858976,0.1289302,0.01442941
0.7263992,-0.1583669,-0.6801972,-0.1635367,0.009425373,-0.1995917,0.3984351,0.06238798,-0.1072214
0.7392695,-0.1469299,-0.6708005,-0.1504325,0.02096988,-0.189707,0.2754203,0.2989887,-0.1446086
0.7446675,-0.1266384,-0.645075,-0.1448525,0.04132854,-0.1634218,0.2100876,0.4501791,-0.09027762
0.7670172,-0.1225771,-0.5961345,-0.1223618,0.04541768,-0.1138475,0.1668363,0.4183012,-0.05256339
0.8200736,-0.1416711,-0.5359542,-0.06919641,0.02631328,-0.05295973,0.1833106,0.370495,0.04741675
0.8546794,-0.1419249,-0.5084113,-0.03450653,0.02601154,-0.02463843,0.1803449,0.3746567,0.187802
0.8423134,-0.1445855,-0.5110426,-0.04680882,0.02326707,-0.02642536,0.1652492,0.4593761,0.2043615
0.8219792,-0.1690968,-0.5179788,-0.06709579,-0.001362414,-0.03245664,0.1884716,0.556528,0.1888355
0.8056391,-0.188617,-0.4914398,-0.08340119,-0.0210327,-0.004957831,0.1839932,0.5913339,0.1775322
0.7581774,-0.2003161,-0.4614534,-0.1308359,-0.03291069,0.02603741,0.2516994,0.4977046,0.1597326
0.7270008,-0.2017899,-0.4374293,-0.161987,-0.0345882,0.05111255,0.3603323,0.4375679,0.1877694
0.7325042,-0.1989624,-0.401102,-0.1564525,-0.03198514,0.08852505,0.4069162,0.5314791,0.2153
0.7057688,-0.186247,-0.3909323,-0.1831433,-0.01951139,0.09980526,0.4413568,0.5790954,0.2552624
0.6723196,-0.1695831,-0.3711381,-0.2165266,-0.003103073,0.1207255,0.4332103,0.5257104,0.2988544
0.6650622,-0.1693063,-0.3341389,-0.2236883,-0.00309344,0.1588563,0.410511,0.4209452,0.309906
0.6697159,-0.1662105,-0.3237181,-0.2189005,-0.0002744743,0.1704036,0.4044736,0.2722503,0.30746
0.7058524,-0.1725464,-0.3206011,-0.1825834,-0.006895458,0.174631,0.390626,0.1346215,0.2846513
0.763795,-0.1858552,-0.3288877,-0.1244075,-0.02049575,0.167428,0.3857628,0.04828288,0.2484095
0.8253161,-0.1913394,-0.3372425,-0.06259733,-0.02627609,0.1601203,0.3572158,0.02173084,0.1934315
0.8687789,-0.2082384,-0.3328807,-0.01878947,-0.04347322,0.1654839,0.2890522,0.04629501,0.1415583
0.8788301,-0.2112329,-0.3220204,-0.008339785,-0.04676535,0.1772927,0.2188691,0.08319807,0.130874
0.867576,-0.1989414,-0.2962133,-0.01914592,-0.03476794,0.2039873,0.2091942,0.005846077,0.1687699
0.8357248,-0.1866975,-0.2892497,-0.05050357,-0.02281211,0.2117697,0.2274764,-0.1595596,0.231774
0.8194027,-0.1754349,-0.3044905,-0.06628926,-0.01182959,0.197271,0.209077,-0.2747526,0.2477349
0.8569207,-0.1994366,-0.3137623,-0.02819413,-0.03610217,0.188658,0.205205,-0.3376106,0.2229172
0.9499676,-0.2452155,-0.3130181,0.06546794,-0.08214097,0.1899718,0.1784808,-0.3271064,0.1857568
1.044729,-0.2629399,-0.3052212,0.1608764,-0.1001116,0.198244,0.09272294,-0.2376322,0.1503378
1.070749,-0.2363333,-0.3036795,0.1875669,-0.07373327,0.2001623,-0.002757401,-0.1524562,0.171961
1.091642,-0.1899473,-0.3052178,0.2091408,-0.02755455,0.198898,-0.1268344,-0.3044565,0.2380323
0.6415565,-0.1822241,-0.3489451,-0.3284201,-0.008218909,0.02052807,0.1691179,0.4177684,0.5160131
0.6176936,-0.1604735,-0.3451348,-0.3515367,0.01428214,0.02721868,0.1489662,0.3678031,0.5497498
0.6037888,-0.1073551,-0.3212442,-0.3646147,0.06808408,0.05406316,0.1503932,0.3216301,0.5568434
0.6389201,-0.08798031,-0.3511515,-0.328566,0.08807625,0.02716807,0.1021731,0.2265717,0.5674005
0.6295975,-0.129341,-0.3473477,-0.3368721,0.04726651,0.03402795,0.07656919,0.1932342,0.5496847
0.6981473,-0.1968893,-0.3348894,-0.2671994,-0.01979687,0.04957263,0.07826707,0.2266745,0.4799814
0.7339321,-0.2533521,-0.3344301,-0.2301809,-0.07583795,0.05313608,0.03343877,0.2025967,0.3945608
0.7688561,-0.28775,-0.2921171,-0.1939108,-0.1098716,0.0985582,-0.003890442,0.1922742,0.2728116
0.8783605,-0.2956646,-0.2823246,-0.08294938,-0.1174718,0.1114519,-0.004193813,0.1885326,0.1870543
0.9451997,-0.2652212,-0.2676793,-0.01454711,-0.08675571,0.1291775,-0.02521022,0.09451962,0.1798701
1.04996,-0.2182526,-0.2670746,0.09187245,-0.03954878,0.1328283,-0.06400424,-0.1011673,0.212913
1.174925,-0.1920219,-0.3045252,0.2185792,-0.01310908,0.0983776,-0.08391771,-0.3210179,0.2598412
1.300768,-0.191992,-0.3437053,0.3462286,-0.01289626,0.06214044,-0.1251208,-0.5026809,0.2547275
1.395262,-0.2265949,-0.4573316,0.4425679,-0.04733982,-0.04860744,-0.1431114,-0.7006733,0.2511074
1.366242,-0.3220694,-0.6132427,0.4154052,-0.1426752,-0.2017074,-0.05340013,-0.7752961,0.3019262
1.346312,-0.4145636,-0.719327,0.3973183,-0.2350441,-0.3050442,-0.04326623,-0.3580498,0.3122751
1.280469,-0.3916753,-0.7306009,0.3332783,-0.2120347,-0.313625,-0.4012035,0.4177407,0.2161896
1.036357,-0.276417,-0.7089445,0.09091051,-0.09664926,-0.2893183,-1.004693,0.7125596,0.06781551
0.7869573,-0.1848736,-0.7111817,-0.1568146,-0.004965998,-0.2889365,-1.315052,0.08389032,0.03371252
0.6898294,-0.1942109,-0.669797,-0.2523361,-0.01414855,-0.2449543,-1.221263,-0.5989605,0.1267303
0.695045,-0.2683645,-0.6590102,-0.2455728,-0.08813252,-0.2315832,-1.15419,-0.4894851,0.2290475
0.7367571,-0.3058181,-0.6927353,-0.2023597,-0.1254003,-0.2627307,-1.161942,-0.07529674,0.2982487
0.8499718,-0.3033544,-0.6799207,-0.08768058,-0.1227313,-0.2473391,-1.129499,0.2768337,0.2257047
0.9245346,-0.2911042,-0.6523299,-0.011684,-0.1102521,-0.2171659,-1.139316,0.6641005,0.06595105
0.8678939,-0.2547347,-0.5808188,-0.0669197,-0.07362649,-0.143063,-1.105258,0.7193269,-0.02126412
0.8252731,-0.2010105,-0.4896723,-0.1081631,-0.01961739,-0.04931416,-1.079986,0.5352973,-0.09723666
0.7878602,-0.1371743,-0.446945,-0.1442237,0.044532,-0.003976695,-1.168939,0.3664957,-0.1134399
0.7256833,-0.09214468,-0.4292177,-0.2050685,0.08989951,0.01636266,-1.252611,0.1349469,-0.0366845
0.7313427,-0.0751598,-0.4349397,-0.1980907,0.1072411,0.01324731,-1.305459,0.1226994,-0.0152564
0.7264803,-0.05871301,-0.4232451,-0.2016411,0.1240563,0.02753581,-1.313839,0.2278724,-0.02862659
0.6736123,-0.05758096,-0.4018515,-0.2531958,0.1255606,0.05150301,-1.290485,0.2016638,-0.03151819
0.6484895,-0.06578422,-0.3984075,-0.2769959,0.1177259,0.05749279,-1.282877,0.1880143,-0.02551071
0.6347759,-0.08211532,-0.3518929,-0.2893682,0.1017527,0.1065175,-1.216491,0.1008649,-0.001583183
0.6149437,-0.1113092,-0.2965781,-0.307831,0.07290046,0.1642978,-1.04374,-0.05252882,0.00857453
0.6172658,-0.1147423,-0.2994324,-0.3041018,0.0697883,0.1638543,-0.810797,-0.1560625,0.03350092
0.653429,-0.1020829,-0.3313308,-0.2664851,0.08274461,0.1343014,-0.7022811,-0.1594824,0.05369296
0.7087805,-0.08861122,-0.3528987,-0.2096265,0.09648605,0.1150044,-0.7481185,-0.07770613,0.06531334
0.759027,-0.06336823,-0.368173,-0.1578153,0.1219682,0.1019192,-0.7770152,-0.08342798,0.102444
0.8152769,-0.02941349,-0.371063,-0.09994191,0.1561273,0.1011305,-0.8332588,-0.1447,0.1200039
0.9721137,0.0150691,-0.3627833,0.05857431,0.2007742,0.1114193,-0.9079398,-0.2309549,0.1517426
1.173071,0.03451781,-0.3839254,0.2612587,0.2203403,0.09218951,-0.8976608,-0.2932566,0.2277177
1.250099,0.001407158,-0.4196254,0.3400449,0.187293,0.0583022,-0.8356304,-0.2127924,0.3066792
1.360028,-0.05276247,-0.4940321,0.451742,0.1331264,-0.01439298,-0.7066463,-0.1321101,0.3389524
1.468781,-0.123905,-0.6227783,0.5622456,0.06192285,-0.1415264,-0.5380088,-0.08229774,0.3090072
1.3619,-0.1717619,-0.7281182,0.4570708,0.01394066,-0.2453456,-0.4016814,-0.09890106,0.2699302
1.322958,-0.1380647,-0.8464591,0.4197629,0.04745071,-0.3622453,-0.2808798,-0.3084364,0.2288519
1.289334,-0.1351525,-0.9747205,0.3876794,0.05011689,-0.4891272,-0.106118,-0.4116417,0.241178
1.040678,-0.222878,-0.9937616,0.1404522,-0.0379102,-0.5068286,0.1344571,-0.06579052,0.274498
0.8572514,-0.2795106,-0.8647797,-0.04166453,-0.09489503,-0.3765237,0.2674293,0.3046712,0.1830835
0.7042416,-0.2632347,-0.673891,-0.1934824,-0.07901461,-0.1843093,0.2467577,0.1082436,0.06199375
0.6198358,-0.2131595,-0.5850745,-0.276803,-0.02937019,-0.09415384,0.1889519,-0.1465328,-0.009994314
0.7183185,-0.1648646,-0.5770066,-0.1773268,0.01846509,-0.08472969,0.06026241,-0.06417149,-0.03257764
0.7757424,-0.1147957,-0.5636136,-0.1189862,0.06804905,-0.06996323,-0.0717853,-0.09782817,0.06175793
0.8792341,-0.06792052,-0.5776283,-0.01464398,0.114415,-0.08258815,-0.09512753,-0.02557972,0.2003264
0.9563325,-0.06379609,-0.5714855,0.0632445,0.1180047,-0.07504002,-0.09122534,0.2551756,0.3299462
0.8631141,-0.07162875,-0.5422278,-0.02924184,0.1096093,-0.04436291,-0.06403659,0.3972356,0.4549429
0.7981315,-0.1149216,-0.4972093,-0.09354826,0.06572385,0.002087234,0.007110237,0.5034864,0.5171814
0.7207935,-0.2076402,-0.4049438,-0.1702608,-0.02761752,0.09579234,0.07443411,0.4170203,0.4879308
0.6494974,-0.2599145,-0.3565871,-0.2409731,-0.08054159,0.1455896,0.1628836,0.2965143,0.4024256
0.6530143,-0.260809,-0.3528891,-0.2369027,-0.08210715,0.1507194,0.2415057,0.4042114,0.3431998
0.6195371,-0.2426052,-0.3401469,-0.2698438,-0.06458841,0.164874,0.2623123,0.3658034,0.3295642
0.5970587,-0.2115207,-0.3421342,-0.2917906,-0.03419654,0.1642691,0.3012253,0.2487678,0.3581653
0.6018815,-0.1591542,-0.3404428,-0.2864276,0.01747458,0.1673029,0.3649444,0.1795495,0.3998951
0.600799,-0.139783,-0.3379877,-0.2869485,0.0361501,0.171051,0.3920998,0.1281285,0.4009353
0.6512816,-0.1943695,-0.3522307,-0.2358715,-0.01913091,0.158043,0.4144284,0.1354966,0.399701
0.7329494,-0.2411915,-0.3696254,-0.1535677,-0.06664468,0.1418179,0.4009946,0.03787919,0.3794021
0.8032253,-0.2714657,-0.374414,-0.08260882,-0.09760398,0.138127,0.3200867,0.006810839,0.337974
0.8914455,-0.27633,-0.3625837,0.006341928,-0.1031415,0.1509781,0.2651705,0.02673706,0.2968159
1.004287,-0.2430599,-0.3592563,0.1199578,-0.0705269,0.1552448,0.2350028,-0.09591699,0.2122836
1.122657,-0.2399797,-0.365257,0.2391374,-0.06807957,0.1500971,0.1754146,-0.1461703,0.1255608
1.24711,-0.2379393,-0.3812577,0.3644208,-0.06664551,0.1348596,0.04472753,-0.1756047,0.03808048
1.309719,-0.2306306,-0.4215407,0.4278629,-0.05991341,0.09524704,-0.1375034,-0.271704,-0.0281734
1.273512,-0.2555371,-0.4988502,0.3924686,-0.085364,0.01851479,-0.2013529,-0.3572081,-0.02080734
1.216204,-0.3297926,-0.622865,0.335932,-0.1601276,-0.1050133,-0.156487,-0.3997615,-0.007622632
1.166193,-0.4214685,-0.7023776,0.2866343,-0.2522701,-0.1841221,-0.2027355,-0.1610149,-0.002659706
1.113927,-0.3762536,-0.6988578,0.2350081,-0.2074722,-0.1802699,-0.4817387,0.3653816,-0.02226201
0.9640429,-0.2507735,-0.7334839,0.08568239,-0.08235145,-0.2146218,-0.9470446,0.6319,-0.05317424
0.6900007,-0.1946162,-0.761557,-0.1878859,-0.0264916,-0.2424648,-1.234497,0.1666949,-0.01509016
0.5976128,-0.1788179,-0.6690151,-0.2798772,-0.01092913,-0.1497234,-1.178171,-0.4460417,0.07453057
0.7251938,-0.2282293,-0.6056183,-0.1519627,-0.06051681,-0.08614653,-1.021193,-0.3804188,0.1732167
0.7997341,-0.2890353,-0.6542916,-0.07713848,-0.1214412,-0.1346513,-0.8740218,-0.03095621,0.1767923
0.8707517,-0.2954383,-0.6718311,-0.005877424,-0.127904,-0.1520271,-0.8005312,0.238405,0.03561567
0.9138888,-0.3027791,-0.6214529,0.03746728,-0.135244,-0.1014835,-0.8535003,0.4754829,-0.1414233
0.832284,-0.2566182,-0.549484,-0.04396341,-0.08901976,-0.02934211,-0.8546749,0.4015095,-0.2748202
0.7728712,-0.1607775,-0.469891,-0.1032329,0.006947182,0.05043287,-0.832614,0.253867,-0.2908102
0.7120979,-0.07525823,-0.4348124,-0.1638882,0.09265271,0.08570121,-0.8943548,0.1339979,-0.2380249
0.6600538,-0.01777646,-0.4573272,-0.2158313,0.1503735,0.06338008,-0.9068273,-0.1128979,-0.2227824
0.6782259,-0.02195512,-0.460306,-0.1975649,0.1464763,0.06059447,-0.9031509,-0.1122698,-0.1898304
0.6433245,-0.04501186,-0.4353675,-0.2323678,0.1237327,0.08572162,-0.9117055,-0.04234382,-0.1760754
0.6203782,-0.09611526,-0.4205473,-0.2552008,0.07296417,0.1007219,-0.8658496,-0.1129983,-0.2041075
0.6473785,-0.1552309,-0.3784559,-0.2280615,0.01419775,0.14298,-0.7949552,-0.09712087,-0.2035276
0.6668207,-0.1501664,-0.3530201,-0.2084446,0.01962132,0.1685633,-0.6552501,-0.1519633,-0.245442
0.7411183,-0.1188002,-0.3963753,-0.1339288,0.05135323,0.1253299,-0.5246333,-0.2374057,-0.2997286
0.8159858,-0.06393362,-0.4450034,-0.0587949,0.1065885,0.07679226,-0.4806852,-0.2721705,-0.2992589
0.9051953,-0.0189788,-0.4927465,0.03072993,0.1519096,0.02910522,-0.4795122,-0.2993836,-0.2842877
1.036604,-0.001703268,-0.5158602,0.1624985,0.1695418,0.00601267,-0.5460504,-0.1658073,-0.2215984
1.081728,0.02591906,-0.4969299,0.2080184,0.1975026,0.02493015,-0.5689811,-0.01372081,-0.1199575
1.079811,0.02366103,-0.5027372,0.2065214,0.1955561,0.0190778,-0.4572788,-0.003793617,0.004168272
1.117994,-0.002709568,-0.5199767,0.2451337,0.1694612,0.00176251,-0.2469484,-0.04378502,0.135023
1.164006,-0.08516253,-0.5461445,0.2915716,0.08724114,-0.02450971,0.02247422,-0.06579954,0.2143725
1.170254,-0.1852806,-0.6067978,0.2982266,-0.01269046,-0.08529292,0.2164345,-0.1256707,0.2471101
1.138252,-0.1521962,-0.7134566,0.2665995,0.02053406,-0.1921014,0.24736,-0.323212,0.1936735
1.109862,-0.1079041,-0.8980838,0.2385375,0.06492182,-0.3768885,0.2183318,-0.4234962,0.1337446
1.057004,-0.1591915,-0.9953753,0.1859513,0.01368696,-0.4743341,0.2967337,-0.07586613,0.2006951
0.9707515,-0.1956634,-0.8964835,0.09990758,-0.02277406,-0.3755705,0.4223264,0.3635897,0.2306622
0.8492093,-0.2403098,-0.7972799,-0.02149262,-0.06744798,-0.2764501,0.4734085,0.2966152,0.106408
0.7333683,-0.271904,-0.7181054,-0.1372554,-0.09910307,-0.1972999,0.4738732,0.173662,-0.06909436
0.7392245,-0.217511,-0.6276191,-0.1313773,-0.04479801,-0.1067709,0.3918271,0.3308453,-0.1975238
0.7663899,-0.1886117,-0.6275054,-0.1042361,-0.01600826,-0.1065442,0.3006612,0.2586573,-0.2038526
0.7725113,-0.1715588,-0.6049312,-0.09817553,0.0009173694,-0.08378601,0.2839307,0.2175246,-0.1224372
0.8539268,-0.1219715,-0.5565788,-0.0168498,0.0503614,-0.03517978,0.3034051,0.3402212,-0.01419434
0.8963702,-0.1199483,-0.567464,0.02548,0.05222568,-0.04574382,0.3461618,0.3291016,0.1347029
0.8704663,-0.1226267,-0.5433282,-0.0005588518,0.04937193,-0.0212231,0.3563163,0.4670391,0.2437285
0.8177668,-0.1499391,-0.5228313,-0.05341278,0.02186714,-0.0002815385,0.365009,0.5117735,0.2509564
0.733682,-0.2122075,-0.4886161,-0.1376679,-0.0406105,0.03443285,0.407789,0.380193,0.2397125
0.7026399,-0.2295629,-0.4088799,-0.1688897,-0.05818978,0.1147163,0.4777015,0.3858724,0.2371238
0.676453,-0.2427699,-0.3843343,-0.195257,-0.07163132,0.1398484,0.541289,0.3428236,0.2135749
0.6236672,-0.2274102,-0.3757833,-0.2482139,-0.05651223,0.1490145,0.5055111,0.3475091,0.2013919
0.6082323,-0.1750014,-0.3682922,-0.2637994,-0.004346327,0.1571383,0.4743176,0.3272319,0.2192836
0.585281,-0.1484952,-0.3515326,-0.2868688,0.02191728,0.1745373,0.4661814,0.1323324,0.2557876
0.5821713,-0.1427723,-0.3283378,-0.290052,0.02739821,0.1983671,0.4369876,-0.01554316,0.306706
0.6541571,-0.1742943,-0.3538457,-0.218084,-0.00436543,0.1734791,0.4756682,-0.09141239,0.3205608
0.7538691,-0.2274635,-0.3563185,-0.1183255,-0.05777542,0.1716012,0.4970551,-0.05066708,0.2711029
0.8495785,-0.2771133,-0.3527908,-0.02250157,-0.1076629,0.1756897,0.4927225,-0.03706263,0.219906
0.9338253,-0.2959554,-0.3549399,0.06192612,-0.126735,0.1740594,0.5021461,-0.1011759,0.1601627
1.02511,-0.2753414,-0.3329437,0.1534518,-0.1063378,0.1965249,0.4759112,-0.1156688,0.03101301
1.128335,-0.2639979,-0.3570562,0.2569679,-0.0951925,0.172825,0.4271108,-0.22866,-0.1159577
1.196383,-0.2316955,-0.4011658,0.3253402,-0.06306512,0.1290653,0.2743991,-0.3574716,-0.1863208
1.224361,-0.2170781,-0.465275,0.3536605,-0.04859685,0.06523915,0.1311476,-0.5041935,-0.2224244
1.233002,-0.2963728,-0.5717433,0.3626409,-0.1280126,-0.04101325,0.2007251,-0.6704101,-0.2718567
1.230048,-0.393375,-0.6693911,0.3600043,-0.2251044,-0.1385085,0.2880261,-0.5883335,-0.2276172
1.195982,-0.4126996,-0.7282953,0.3262169,-0.2444802,-0.1973151,0.2182153,-0.2371265,-0.1533729
1.031261,-0.3014726,-0.7245706,0.1617198,-0.1332581,-0.1935359,-0.04240466,0.3206892,-0.1890878
0.7515889,-0.1746879,-0.7002659,-0.1177893,-0.006426297,-0.1692073,-0.5112821,0.5191869,-0.2027177
0.6141464,-0.1924847,-0.6431606,-0.2551279,-0.0241237,-0.1120974,-0.7450128,-0.07801864,-0.1831345
0.7130127,-0.2666742,-0.570077,-0.1562054,-0.09816333,-0.03902034,-0.5017105,-0.5794053,-0.2046537
0.8246378,-0.3262755,-0.611979,-0.04455947,-0.1575651,-0.08093466,-0.3003505,-0.4047978,-0.2128197
0.8979454,-0.3829768,-0.6680028,0.02874137,-0.2140146,-0.1369721,-0.2433961,-0.04558806,-0.3138744
0.9643548,-0.3670584,-0.6313185,0.09511933,-0.1977878,-0.1002974,-0.1604415,0.2649156,-0.5176976
0.9064192,-0.3046078,-0.5827651,0.03712687,-0.1349671,-0.05174459,-0.1727495,0.438245,-0.6664692
0.8659762,-0.2428341,-0.5197847,-0.003398854,-0.07275903,0.01124739,-0.1064321,0.3143835,-0.7318003
0.8886732,-0.1677404,-0.4902443,0.0191901,0.002832945,0.04081183,-0.04362804,0.1913854,-0.7143895
0.8045901,-0.09868602,-0.5241237,-0.06502432,0.0724452,0.006967259,-0.1640674,0.1087521,-0.6610735
0.7419589,-0.01618201,-0.5122539,-0.1278064,0.1555588,0.01888071,-0.249359,-0.1094454,-0.6264797
0.7239252,0.0001644149,-0.4832843,-0.146004,0.1725556,0.04790077,-0.3361663,-0.08797278,-0.5908228
0.6790228,-0.08073981,-0.4558437,-0.1910751,0.0923304,0.07539637,-0.3658454,0.05929287,-0.5801469
0.6434626,-0.1021357,-0.3798407,-0.2267991,0.07163156,0.1514549,-0.2596513,0.02365496,-0.6098392
0.5951352,-0.1243442,-0.3338684,-0.2752746,0.05013044,0.1974771,-0.1753111,0.02529945,-0.6404631
0.6022518,-0.1549576,-0.321176,-0.2682783,0.02022885,0.2102053,-0.06528038,-0.04515628,-0.6408892
0.6258603,-0.09202556,-0.3180725,-0.2447506,0.08387256,0.2133215,0.05913966,-0.1214687,-0.6062813
0.6536915,-0.04710866,-0.3534021,-0.2169501,0.1294959,0.1779721,0.1656467,-0.1142836,-0.5692731
0.7361617,0.005263249,-0.380961,-0.1344526,0.1825619,0.1503537,0.1880215,-0.2307088,-0.556117
0.7588435,0.03474532,-0.4027049,-0.1116806,0.2127169,0.1285051,0.06772598,-0.2965229,-0.5472233
0.7892575,-0.005515887,-0.4106603,-0.08111175,0.1730975,0.1203959,-0.0125642,-0.3604434,-0.5267993
0.9320886,0.01771588,-0.4145473,0.06193793,0.1969306,0.1163036,-0.01121221,-0.4325147,-0.522396
1.139547,0.0019148,-0.4787512,0.2696726,0.1816818,0.05184129,0.09238192,-0.3047172,-0.532367
1.252794,-0.03964045,-0.5219993,0.3832412,0.1406227,0.008282343,0.2973423,-0.1025535,-0.5222495
1.198856,-0.04123436,-0.5049672,0.3296492,0.1394629,0.02495351,0.5072847,0.07866435,-0.5089115
1.215074,-0.1035111,-0.5065782,0.3462185,0.07755459,0.0229352,0.7564277,0.08123257,-0.4752621
1.235981,-0.1143487,-0.546069,0.3674619,0.06701786,-0.01700576,0.9810923,-0.1752412,-0.3504249
1.087618,-0.08104504,-0.6430662,0.2194048,0.1005547,-0.1144912,1.114252,-0.5995571,-0.1874214
0.9823326,-0.1132144,-0.8205768,0.1143794,0.06855081,-0.2925197,1.143711,-0.8543623,-0.1453965
0.9738238,-0.2246266,-0.9741813,0.1060794,-0.04276251,-0.4466573,1.145161,-0.3590964,-0.2347504
0.9663701,-0.3971163,-0.9798684,0.09877984,-0.2152152,-0.4528722,1.202687,0.4243458,-0.340436
0.8939183,-0.4220103,-0.8948997,0.02642612,-0.2401235,-0.3684032,1.070575,0.584483,-0.5082648
0.770724,-0.2921525,-0.7763876,-0.09672485,-0.1103178,-0.2503431,0.805548,0.2686711,-0.7050439
0.7419463,-0.2137895,-0.6668571,-0.1255086,-0.0320335,-0.1412031,0.7082988,-0.07446778,-0.711013
0.766454,-0.1902233,-0.6502392,-0.1010478,-0.008565869,-0.1249071,0.6962552,-0.2256223,-0.578177
0.8153057,-0.1922408,-0.6370493,-0.05227548,-0.01069874,-0.111967,0.8179812,-0.05860663,-0.4306369
0.8861679,-0.2118839,-0.6013678,0.01848101,-0.03047153,-0.07646168,1.079074,0.2302396,-0.2908435
0.8422379,-0.2259346,-0.5920398,-0.02557728,-0.04466387,-0.0672364,1.215786,0.3508419,-0.2716835
0.7375465,-0.2498524,-0.5334775,-0.1304163,-0.06873194,-0.008704645,1.306824,0.2402468,-0.3542093
0.6617849,-0.2601115,-0.4683113,-0.2063387,-0.07914602,0.0564995,1.458714,0.0881263,-0.4654497
0.6227819,-0.2444976,-0.4500784,-0.2455061,-0.06368757,0.07483278,1.511908,0.08619327,-0.5772632
0.61967,-0.2167317,-0.4298313,-0.2487742,-0.03607355,0.09523489,1.490079,0.1373089,-0.6127162
0.5951103,-0.1750245,-0.4149715,-0.2734691,0.005487904,0.1102954,1.516149,0.1448461,-0.5738106
0.593286,-0.1414183,-0.4177943,-0.2753955,0.03895507,0.1077102,1.538921,0.144991,-0.4908998
0.6105168,-0.1200554,-0.409132,-0.258222,0.06018462,0.1166379,1.526201,0.1077467,-0.3695466
0.6141211,-0.1077972,-0.3844925,-0.2546195,0.07231269,0.141562,1.53844,0.07713648,-0.240025
0.6799415,-0.1223014,-0.3804348,-0.1887364,0.05767848,0.1459145,1.544402,0.08693949,-0.1707453
0.7480195,-0.1546335,-0.3906877,-0.1205251,0.02521373,0.1359581,1.480594,0.0892285,-0.1576935
0.7763373,-0.1951815,-0.3940491,-0.09200067,-0.01547086,0.1328866,1.334606,0.07977341,-0.1393563
0.8345012,-0.2254456,-0.3832084,-0.03355713,-0.04587518,0.1440033,1.136413,-0.0005616612,-0.1631734
0.9081891,-0.2212074,-0.3546529,0.0404803,-0.04177892,0.1728137,1.015747,-0.127294,-0.2093883
0.9983911,-0.2152622,-0.348435,0.1310952,-0.03597482,0.1792581,1.00017,-0.1863393,-0.2394524
1.111706,-0.2220795,-0.358634,0.2448757,-0.04292984,0.1692499,0.9362924,-0.1976607,-0.2734826
1.200211,-0.2042386,-0.3709766,0.3338857,-0.02522135,0.1570555,0.77043,-0.2375331,-0.2663372
1.257052,-0.1815093,-0.3976325,0.3912495,-0.002617509,0.1304997,0.5892718,-0.3457188,-0.256562
1.286809,-0.1967739,-0.4335214,0.4215286,-0.01799996,0.09465853,0.5252513,-0.4898339,-0.2366232
1.251804,-0.2716552,-0.525531,0.3870229,-0.09299047,0.002642754,0.6244124,-0.5319107,-0.1552662
1.174513,-0.4065252,-0.6440529,0.3101873,-0.2279577,-0.1159373,0.6512171,-0.3254004,-0.1125486
1.090005,-0.4741868,-0.6867129,0.226075,-0.2956971,-0.1587009,0.371521,0.01329787,-0.203915
0.9165013,-0.4126478,-0.7018285,0.05289877,-0.2342053,-0.1739556,-0.05665075,0.08554813,-0.3668286
0.7104069,-0.3549605,-0.7424258,-0.1529397,-0.1765237,-0.214716,-0.278744,-0.2799761,-0.408655
0.6659414,-0.3291592,-0.7328531,-0.1972143,-0.150679,-0.2053181,-0.1931555,-0.5857615,-0.3515235
0.7521112,-0.3108844,-0.7082669,-0.1109074,-0.1323065,-0.1809068,-0.0445408,-0.2944679,-0.301642
0.8176585,-0.3135559,-0.7315659,-0.04526588,-0.1348228,-0.2043702,0.006407621,0.1531512,-0.2374539
0.8397102,-0.2761274,-0.7100906,-0.02315573,-0.09717957,-0.1830392,-0.02262595,0.2626426,-0.319304
0.8538172,-0.2332965,-0.6362689,-0.009021352,-0.05407336,-0.1093332,-0.1143509,0.2838956,-0.5094125
0.8357034,-0.2062173,-0.5537617,-0.02713563,-0.02665967,-0.02690782,-0.1559209,0.2291197,-0.5766507
0.7932355,-0.1242331,-0.4932815,-0.06962861,0.055715,0.03352579,-0.2304457,0.09970859,-0.5669148
0.7716042,-0.05795623,-0.504175,-0.09130512,0.122432,0.02261897,-0.4086891,0.05541852,-0.4948843
0.7615846,-0.03859625,-0.4970348,-0.1013846,0.1422729,0.02977569,-0.4658174,0.005430395,-0.3859496
0.7532642,-0.01637787,-0.4640813,-0.1097734,0.165002,0.06277161,-0.4755661,0.04637803,-0.341531
0.713558,-0.01246137,-0.4503443,-0.14955,0.1694478,0.07657252,-0.535118,0.1125296,-0.3213726
0.659504,-0.01717209,-0.4112972,-0.2036692,0.1652737,0.1156997,-0.542039,0.08960865,-0.3154314
0.6259748,-0.04378593,-0.3874199,-0.2372494,0.1391932,0.1396667,-0.509038,0.04642853,-0.3220406
0.5843262,-0.1128504,-0.3570186,-0.2789245,0.0706503,0.17016,-0.4053742,-0.1092891,-0.31534
0.5890798,-0.167991,-0.3289352,-0.2741615,0.01601357,0.1983291,-0.2751678,-0.1836507,-0.3266301
0.6340928,-0.1762889,-0.3546869,-0.2290921,0.008199234,0.1726481,-0.155539,-0.1629328,-0.35667
0.681833,-0.1434251,-0.3679541,-0.1812394,0.04152517,0.1594281,-0.1016559,-0.2470082,-0.3852454
0.7864492,-0.08203342,-0.4043641,-0.07644875,0.1033561,0.1230346,-0.2032365,-0.2939252,-0.390208
0.9250331,-0.02284864,-0.4670954,0.06237267,0.1629538,0.0602847,-0.2896057,-0.3152727,-0.3474489
1.080737,-0.0008441462,-0.5014535,0.2183721,0.1853391,0.02587062,-0.2837639,-0.2688428,-0.2507398
1.224378,-0.01196137,-0.5499256,0.3623541,0.1745633,-0.02269434,-0.1545211,-0.1492551,-0.1065835
1.29517,-0.04769176,-0.6107425,0.4335135,0.1391279,-0.08363792,0.12034,-0.1147969,0.04315576
1.308346,-0.1194642,-0.6980135,0.4470612,0.06759904,-0.1710637,0.3402931,-0.1079153,0.1481417
1.268829,-0.1668505,-0.8201785,0.4078976,0.02040252,-0.293402,0.4290846,-0.1858991,0.1848748
1.184913,-0.1484562,-0.9207473,0.3242937,0.03893341,-0.3941488,0.3593895,-0.2414417,0.1843476
1.042115,-0.1532222,-0.9437451,0.1817521,0.03425257,-0.4173114,0.2684625,-0.04692758,0.2360094
0.8615525,-0.2007562,-0.8522159,0.00138121,-0.01324569,-0.3259145,0.3649334,0.134369,0.3131979
0.7565792,-0.2115446,-0.7369449,-0.1034672,-0.02404493,-0.2107272,0.4086309,0.07749452,0.2838471
0.7407118,-0.2041442,-0.6957102,-0.1192696,-0.0166977,-0.1695165,0.3050861,0.04114293,0.1807792
0.7755245,-0.1916487,-0.6770179,-0.08444303,-0.004293798,-0.1507825,0.1854872,0.1607524,0.07551959
0.8117582,-0.1526617,-0.6336739,-0.04823793,0.0345667,-0.1073276,0.02682966,0.2091499,0.005240311
0.8061832,-0.1415716,-0.5899334,-0.0538772,0.04549749,-0.06340605,0.004509767,0.2395746,0.09017591
0.8124073,-0.14687,-0.5436469,-0.04774722,0.04000795,-0.01686933,0.1173192,0.3608662,0.2462914
0.8060962,-0.1421676,-0.486526,-0.05417752,0.04448811,0.04056718,0.1770697,0.4093754,0.3493439
0.7553015,-0.1531302,-0.4660542,-0.1051112,0.03327294,0.06141385,0.2762385,0.3528681,0.4422435
0.7279754,-0.1570806,-0.4761853,-0.13259,0.02904038,0.05170942,0.3534555,0.2038987,0.4526192
0.7050088,-0.1738189,-0.4680952,-0.1557157,0.01199192,0.06027016,0.3692515,0.1347654,0.4154203
0.6700818,-0.2144892,-0.4507754,-0.1907998,-0.02901468,0.07809714,0.4444815,0.2378087,0.4009682
0.666215,-0.2332215,-0.4132424,-0.1948126,-0.04810604,0.1161659,0.4684071,0.3033416,0.3430852
0.6608996,-0.2342471,-0.3681356,-0.2002533,-0.04950907,0.1618284,0.455049,0.3202974,0.3204823
0.6267549,-0.2178308,-0.3687571,-0.2344938,-0.03348393,0.1617727,0.4866589,0.2704101,0.3458921
0.6050955,-0.1810629,-0.3832725,-0.2562098,0.002882958,0.1478228,0.5065084,0.1606874,0.3849699
0.6161301,-0.1607428,-0.3807285,-0.2451831,0.0227949,0.1509225,0.5186349,0.06680831,0.4560169
0.6840807,-0.1796468,-0.3944119,-0.1771826,0.003476905,0.1377765,0.4843722,-0.03896883,0.4695758
0.8189982,-0.2187685,-0.4115904,-0.04215181,-0.03606351,0.1211098,0.4408687,-0.04642843,0.4352419
0.9111484,-0.2496007,-0.4041567,0.05017579,-0.06731656,0.1290231,0.4355002,0.02313555,0.3823697
0.96355,-0.2691762,-0.396489,0.102814,-0.08731121,0.1371327,0.3774201,0.07430436,0.2593706
1.07258,-0.2763386,-0.3876956,0.2121311,-0.09488632,0.1463249,0.291755,0.07684136,0.1126867
1.1424,-0.266583,-0.3717745,0.2822754,-0.08553168,0.1625964,0.2072058,-0.01638475,0.02361724
1.174378,-0.2433557,-0.3933051,0.314599,-0.06268899,0.1413627,0.04763223,-0.1123963,-0.03677777
1.230696,-0.2393256,-0.4750883,0.3712672,-0.0590234,0.05981863,-0.1290414,-0.2380674,-0.08923003
1.206876,-0.2899555,-0.6038387,0.347782,-0.1099945,-0.06875143,-0.157028,-0.4176787,-0.003236983
1.162531,-0.3356018,-0.7195962,0.3037394,-0.1559548,-0.184383,-0.1538855,-0.3816905,0.1445121
1.145663,-0.3047457,-0.7754124,0.2871261,-0.1253802,-0.2401181,-0.4236533,0.06579005,0.1434553
0.9941161,-0.2363786,-0.8066702,0.1357744,-0.0572574,-0.2713262,-0.8300828,0.4576593,0.09011156
0.7589563,-0.2096827,-0.7782605,-0.09925557,-0.03076569,-0.2428832,-1.001244,0.1966045,0.05352967
0.6736156,-0.2614568,-0.6719359,-0.1845288,-0.08270319,-0.1365285,-0.9353529,-0.132676,0.004328215
0.735087,-0.3351707,-0.6107977,-0.1230424,-0.1565387,-0.07535357,-0.8432494,0.01033711,0.006205574
0.7618618,-0.3336065,-0.6187038,-0.09629427,-0.1550511,-0.08321064,-0.7691929,0.06322024,0.0003397031
0.7788717,-0.2908378,-0.6253056,-0.07934348,-0.1123099,-0.08974766,-0.6769032,0.09731555,-0.06386557
0.8509456,-0.2702643,-0.5976758,-0.007354551,-0.0917114,-0.06203442,-0.5971457,0.3786142,-0.1525341
0.8523381,-0.2269902,-0.5280819,-0.006068259,-0.0483585,0.007663508,-0.5124193,0.445012,-0.2746565
0.7978573,-0.1706975,-0.4623588,-0.06067359,0.008066145,0.07351049,-0.4790628,0.3744665,-0.3487079
0.7467256,-0.1140076,-0.432828,-0.1119444,0.06493783,0.1031816,-0.5287296,0.3002323,-0.3263836
0.6814507,-0.03592311,-0.4347264,-0.177367,0.1432478,0.101434,-0.5535399,0.04384244,-0.2814717
0.6667674,0.00808464,-0.4410489,-0.1921984,0.1875156,0.09526661,-0.6058541,-0.1325102,-0.2270118
0.6647572,0.008716651,-0.4337965,-0.1943474,0.1884311,0.1026726,-0.6530767,-0.1176912,-0.1933829
0.6545421,-0.0352236,-0.4227756,-0.2046826,0.144786,0.1138402,-0.6267659,-0.04646155,-0.1865144
0.6701678,-0.1023339,-0.3831318,-0.1891489,0.07797278,0.1536178,-0.5964624,0.01658149,-0.1619516
0.6646078,-0.1088052,-0.3548454,-0.1947646,0.07179357,0.1820189,-0.4962707,0.02699214,-0.2037205
0.6711866,-0.08756579,-0.379422,-0.1881976,0.09331512,0.1575306,-0.4224416,-0.06378745,-0.2837444
0.6905182,-0.07062579,-0.4068633,-0.1688274,0.1105229,0.1301446,-0.4565931,-0.2716361,-0.2740236
0.7180603,-0.03994259,-0.4289853,-0.141191,0.1414546,0.1080396,-0.4865518,-0.3637938,-0.2282022
0.8251291,-0.01230231,-0.4508498,-0.03396902,0.1693181,0.08615031,-0.5521806,-0.3672479,-0.161012
0.970164,0.01381721,-0.4803265,0.1112769,0.1956288,0.05660521,-0.5839225,-0.4363105,-0.05421253
1.050298,0.001077958,-0.5064827,0.1916732,0.1830415,0.03033679,-0.5211677,-0.3940513,0.01562641
1.116495,-0.07305817,-0.5063368,0.2581724,0.1090112,0.03032762,-0.4221564,-0.2487383,0.04203061
1.276221,-0.1453074,-0.5206902,0.4182243,0.03681777,0.0157782,-0.2275838,-0.08668862,0.05768914
1.330878,-0.160286,-0.5326909,0.4732103,0.02184409,0.003542948,0.00892092,0.02483209,0.08843671
1.215203,-0.1229597,-0.5821137,0.3578462,0.05912599,-0.04614972,0.1981511,-0.04146511,0.1799464
1.141507,-0.05961915,-0.7921276,0.2844224,0.122374,-0.2564632,0.3103051,-0.2852394,0.3359213
1.033722,-0.01541455,-0.9796757,0.1768557,0.1664368,-0.4443289,0.3223735,-0.5015323,0.433324
0.9684934,-0.1167516,-0.9099829,0.1117837,0.06490631,-0.3749533,0.3938787,-0.2694559,0.3710771
0.9430059,-0.3301429,-0.8038933,0.08638688,-0.1487301,-0.2691604,0.535228,0.2173077,0.2425179
0.7716573,-0.391718,-0.8085753,-0.08493685,-0.2105956,-0.274102,0.5072031,0.3629437,0.06160028
0.7599245,-0.2924911,-0.7155007,-0.09670598,-0.111693,-0.181238,0.3902751,0.2793086,-0.1173367
0.7841792,-0.206532,-0.5955594,-0.07254084,-0.02608165,-0.06145025,0.3360979,0.154505,-0.08749608
0.6868637,-0.1411024,-0.5974882,-0.1699902,0.03898352,-0.06347242,0.2802283,0.02893148,0.02200497
0.822201,-0.1129851,-0.5998722,-0.03482183,0.06672179,-0.06588962,0.2853409,0.1010884,0.09441807
0.9217685,-0.1328915,-0.5860779,0.06454864,0.04642161,-0.05206949,0.2931596,0.2461409,0.2141171
0.8866477,-0.1509928,-0.5664785,0.02920573,0.02791141,-0.03238665,0.2657593,0.3293939,0.261985
0.8842123,-0.1743162,-0.5161104,0.02652366,0.004164329,0.01811999,0.3546273,0.3534757,0.2882577
0.7704204,-0.1953673,-0.475891,-0.08753779,-0.01732382,0.05852895,0.4414216,0.2925737,0.3577056
0.725454,-0.2060148,-0.4523125,-0.1327925,-0.02841939,0.08234193,0.4739908,0.2874745,0.3422657
0.7219566,-0.2078708,-0.4498974,-0.1365899,-0.03073129,0.08502916,0.4853062,0.3231873,0.3350761
0.6814281,-0.1870035,-0.4372028,-0.1774213,-0.01032471,0.09802587,0.3945993,0.3587842,0.3438343
0.7088667,-0.151818,-0.4164238,-0.1502796,0.0243978,0.119129,0.3019433,0.4195613,0.3237273
0.6613952,-0.1089562,-0.3937454,-0.1980333,0.06679529,0.1421456,0.282951,0.337583,0.3671265
0.6226268,-0.09573612,-0.347465,-0.2370598,0.07954874,0.1887691,0.3316071,0.1838556,0.4173445
0.6288926,-0.142609,-0.3343808,-0.2310184,0.0322053,0.2021918,0.4278536,0.09211686,0.4581793
0.62333,-0.2032702,-0.3259315,-0.2367616,-0.02893135,0.2109645,0.5609556,-0.04741832,0.4948803
0.6772994,-0.2496949,-0.3146013,-0.1829198,-0.07583467,0.2225924,0.690728,-0.1553131,0.4616256
0.7381473,-0.2888103,-0.3384313,-0.1221398,-0.1154279,0.1990247,0.7041585,-0.1374863,0.3682633
0.8528651,-0.3000706,-0.3420976,-0.007426747,-0.1271591,0.1955762,0.6762594,-0.1537046,0.1920886
0.9971825,-0.2774933,-0.3422997,0.1369473,-0.1050392,0.1955397,0.5740498,-0.2724951,-0.04289574
1.125504,-0.2410944,-0.3517311,0.2653786,-0.06907839,0.1862151,0.3119994,-0.4407695,-0.2221397
1.251595,-0.191268,-0.3796936,0.3916185,-0.0196665,0.1582949,0.04998594,-0.6430582,-0.3143545
1.258588,-0.1331404,-0.4660164,0.3987797,0.03807165,0.07194602,-0.1181002,-0.7514254,-0.3599086
1.187943,-0.1486616,-0.5658901,0.328302,0.02218534,-0.02802259,-0.07328507,-0.7513798,-0.3833012
1.095756,-0.3346863,-0.6394971,0.2362617,-0.1641808,-0.1017893,0.1797668,-0.7840203,-0.3969058
1.010721,-0.5542992,-0.6620552,0.1513394,-0.3841075,-0.1245639,0.3803184,-0.5967076,-0.4216494
0.9663164,-0.5456001,-0.6868709,0.1070069,-0.3756827,-0.1496426,0.2986974,-0.05767235,-0.5330969
0.8183345,-0.3963234,-0.7649051,-0.04094828,-0.2266257,-0.2279749,-0.1098199,0.1814936,-0.7524153
0.647451,-0.3366608,-0.795595,-0.2118478,-0.1671163,-0.2589846,-0.4205642,-0.3279704,-0.8594349
0.6957737,-0.3304745,-0.7526764,-0.1635755,-0.16101,-0.2163935,-0.2609884,-0.7864911,-0.8136322
0.8407493,-0.3706489,-0.7010293,-0.01867441,-0.2011873,-0.1650684,0.1091028,-0.3675908,-0.8576902
0.8877049,-0.4572732,-0.6892814,0.02818935,-0.287733,-0.1536262,0.4064832,0.1553511,-0.9877775
0.9100516,-0.4774193,-0.6786554,0.05042894,-0.3077127,-0.1432818,0.5990707,0.179584,-1.146464
0.8852629,-0.4561622,-0.6097942,0.02551754,-0.2861934,-0.07467166,0.6402919,0.218695,-1.293006
0.785188,-0.3688535,-0.5955802,-0.0746952,-0.19852,-0.06067402,0.6423379,0.09678325,-1.290881
0.744297,-0.219917,-0.6162821,-0.1157364,-0.04911279,-0.08155546,0.6838682,-0.1881959,-1.231003
0.7264616,-0.1380467,-0.5907398,-0.1337286,0.03333154,-0.05615456,0.6250437,-0.197046,-1.152425
0.7236574,-0.07517126,-0.601807,-0.1366892,0.09687626,-0.06732393,0.5900608,-0.1392962,-1.010661
0.7303099,-0.04310814,-0.5951418,-0.1301854,0.1296921,-0.06072074,0.5911578,0.02906207,-0.9677695
0.6814299,-0.08018227,-0.5502935,-0.1791995,0.09344075,-0.0158943,0.504345,0.2295903,-1.009264
0.6306877,-0.08156935,-0.5018109,-0.2300534,0.0929337,0.03260554,0.4865787,0.1970048,-1.009762
0.5496087,-0.07351405,-0.4194851,-0.3112123,0.1019146,0.1149841,0.4477807,0.07810259,-1.009489
0.5280239,-0.08293611,-0.3715554,-0.3328334,0.09345285,0.1629956,0.4166405,-0.08357585,-1.011106
0.5981871,-0.06868155,-0.3563815,-0.2626505,0.1086922,0.1782712,0.4894425,-0.1331064,-0.9821852
0.6466587,-0.06624642,-0.3733102,-0.2140923,0.1121269,0.1614539,0.4776579,-0.07526457,-0.9158044
0.728979,-0.06209439,-0.4316769,-0.1316114,0.1172838,0.1031993,0.4633305,-0.0381599,-0.8018969
0.7771819,-0.02559853,-0.4618444,-0.08317082,0.1547805,0.07313716,0.4245885,0.01253999,-0.6783064
0.8069005,0.0002837708,-0.4848065,-0.05313777,0.1816501,0.0502693,0.3292532,-0.07414648,-0.5964211
0.9193342,-0.006374237,-0.4869486,0.05968377,0.1759557,0.04820747,0.2928605,-0.1787425,-0.5273984
1.045221,-0.04260914,-0.4686587,0.1860251,0.1406509,0.06656165,0.2779365,-0.1362049,-0.4262458
1.177023,-0.0785298,-0.472277,0.3183349,0.1056188,0.06298961,0.3500845,-0.06608638,-0.3211949
1.262488,-0.07105788,-0.4738486,0.4043433,0.1139316,0.06144424,0.4579639,-0.0138144,-0.2190071
1.273924,-0.06384404,-0.521862,0.4163364,0.121934,0.01343561,0.5742995,0.002381068,-0.08322969
1.226446,-0.07754064,-0.6432608,0.3694065,0.1089692,-0.1079796,0.6958141,-0.02629867,0.07610686
1.130791,-0.07714583,-0.8094626,0.2742696,0.1100354,-0.2742143,0.6938954,-0.09173153,0.1580661
1.070563,-0.1116902,-0.9484479,0.2145147,0.07609885,-0.4132374,0.6917864,-0.1045219,0.135432
0.9952867,-0.2140397,-0.9509466,0.1396554,-0.02570741,-0.415762,0.7540593,0.08705154,0.1326121
0.8607706,-0.2930006,-0.8766222,0.005494448,-0.1041875,-0.3414322,0.8275063,0.3825384,0.1130901
0.7424643,-0.256492,-0.8053724,-0.1125185,-0.06725502,-0.270129,0.8350281,0.4116738,-0.03306118
0.7114651,-0.1734615,-0.7306747,-0.1432802,0.01614909,-0.1953177,0.7065788,0.1751029,-0.2423445
0.7509869,-0.1415702,-0.6895586,-0.1035681,0.04836741,-0.1540203,0.5968261,0.03038871,-0.3828054
0.7766537,-0.1226319,-0.6842622,-0.07774893,0.06758757,-0.1484708,0.5721793,0.01138592,-0.3422151
0.8279903,-0.1200622,-0.6695067,-0.02629124,0.07039356,-0.1333884,0.612913,0.1151064,-0.2036933
0.8755708,-0.133226,-0.6243019,0.02138371,0.05741984,-0.08778209,0.6718711,0.329351,-0.0637572
0.8276957,-0.1093002,-0.5708533,-0.02642119,0.08148894,-0.03385842,0.6967666,0.4404267,0.09174411
0.7392692,-0.08604852,-0.5143507,-0.1147992,0.1048363,0.0231891,0.7397048,0.3435091,0.1904511
0.6568008,-0.06253784,-0.4449833,-0.1972353,0.1283934,0.09316506,0.7549791,0.09614773,0.2883156
0.6364103,-0.07376415,-0.433307,-0.2176012,0.117162,0.1055045,0.7682052,0.0001014729,0.3844663
0.6412608,-0.1447275,-0.4528671,-0.2127232,0.0461399,0.0866517,0.7682026,0.1430688,0.3791996
0.6030988,-0.1788276,-0.4115444,-0.2508437,0.01192754,0.1287157,0.6816322,0.2567934,0.3908131
0.6182636,-0.2081031,-0.3809534,-0.2356128,-0.01751132,0.1600715,0.6374974,0.2207696,0.4180776
0.6378429,-0.2235579,-0.3592289,-0.2159324,-0.03317644,0.1825732,0.6479133,0.07623952,0.432311
0.6360751,-0.1959086,-0.3313964,-0.2175552,-0.005779529,0.2111835,0.6746606,-0.05661314,0.4815874
0.7241334,-0.2011653,-0.3933187,-0.129301,-0.01132597,0.1500278,0.6959015,-0.1557465,0.4885257
0.8177112,-0.1945575,-0.4515436,-0.03547218,-0.005041144,0.0925482,0.6238652,-0.1587875,0.4958396
0.9067817,-0.2019239,-0.4518259,0.05390411,-0.01276004,0.09298276,0.4767014,-0.05175842,0.5176281
1.036152,-0.2493576,-0.4578283,0.1836289,-0.06057184,0.0876638,0.2884251,0.03211959,0.4777701
1.135353,-0.2546779,-0.4295865,0.2832238,-0.06629099,0.1165513,0.1706662,0.1170693,0.3956979
1.209037,-0.2356294,-0.4033962,0.3573238,-0.04765679,0.143345,0.0890008,0.1040537,0.2892339
1.206423,-0.2271721,-0.4276366,0.3551303,-0.03962412,0.1196609,-0.09386864,-0.03180836,0.2030284
1.119473,-0.2987919,-0.5073939,0.2685854,-0.111674,0.04040841,-0.1304413,-0.3070859,0.1603916
1.05234,-0.4166595,-0.6119355,0.2018276,-0.229971,-0.06368108,0.03717887,-0.5500257,0.1750028
1.025992,-0.4215735,-0.6614662,0.1758133,-0.2353041,-0.1128092,0.01653362,-0.1752683,0.1986624
0.9570632,-0.3282708,-0.7300598,0.1071692,-0.1423991,-0.1810431,-0.4272586,0.226921,0.1182217
0.7648404,-0.2370186,-0.8088954,-0.08482202,-0.05151472,-0.259552,-1.021772,-0.04556912,0.06178806
0.636239,-0.2266149,-0.755368,-0.2132415,-0.0414444,-0.2057187,-1.143641,-0.3277939,0.1281513
0.7053729,-0.2817834,-0.6982192,-0.1439665,-0.09691015,-0.1482731,-0.899721,-0.3669488,0.1672634
0.813957,-0.3156853,-0.7505227,-0.03527151,-0.1310712,-0.2002791,-0.8880658,-0.09177482,0.1305195
0.8867204,-0.330505,-0.7545713,0.03757882,-0.1461083,-0.2040212,-0.9074861,0.5023498,0.06976428
0.877055,-0.3099266,-0.6952339,0.02797878,-0.1257012,-0.1443599,-0.8656011,0.6065541,-0.01716841
0.8172693,-0.2462991,-0.6162762,-0.03176271,-0.06219534,-0.06505455,-0.9679006,0.4160666,-0.1122553
0.806235,-0.1814337,-0.5017252,-0.04277247,0.002599521,0.04987011,-0.9795833,0.4377181,-0.1350583
0.763006,-0.1071254,-0.4910025,-0.08599327,0.07688624,0.06099039,-1.050635,0.2228126,-0.08170958
0.6871965,-0.03252745,-0.5146305,-0.1618061,0.1515059,0.03777917,-1.228362,0.02479734,-0.02318493
0.655876,0.000148573,-0.4584137,-0.1931343,0.1842382,0.09442652,-1.226833,0.02479794,0.03440551
0.6393573,-0.0291271,-0.4684296,-0.2096559,0.1550426,0.0848492,-1.211963,-0.08273222,0.07764796
0.6202322,-0.06944552,-0.4716528,-0.2287692,0.114818,0.08206671,-1.156025,-0.02480357,0.09649683
0.6013369,-0.1007952,-0.4189711,-0.2476276,0.08356742,0.1351852,-1.011683,0.03142222,0.1084513
0.5970903,-0.1619637,-0.4009837,-0.2518022,0.02249793,0.1535987,-0.8887154,-0.07199648,0.1113856
0.6073282,-0.1756631,-0.3578677,-0.241447,0.008894173,0.1971223,-0.7053708,-0.1142216,0.1166278
0.6284493,-0.1307774,-0.3564616,-0.2201544,0.05387065,0.1989089,-0.5819691,-0.2410342,0.1055976
0.6935467,-0.09599347,-0.4154444,-0.1548244,0.08873866,0.1402707,-0.5829902,-0.3486277,0.09253186
0.7807151,-0.03860349,-0.4546351,-0.06735766,0.1462026,0.1013821,-0.6398465,-0.3978786,0.1164198
0.8822738,-0.00883277,-0.5039139,0.03456461,0.1760316,0.05235875,-0.7225601,-0.4447971,0.1461301
1.027243,-0.0277387,-0.51839,0.1799577,0.1571614,0.03809007,-0.7950183,-0.3171526,0.1845042
1.163016,-0.01915821,-0.5160819,0.316203,0.1657482,0.04055765,-0.8224537,-0.1828077,0.2641796
1.22764,-0.0175217,-0.5626046,0.3813319,0.1673552,-0.005852175,-0.705615,-0.1369541,0.3793781
1.224262,-0.05123423,-0.6365231,0.3784687,0.1335717,-0.07970165,-0.5443675,-0.04294381,0.5044125
1.203708,-0.08756267,-0.7366561,0.3584202,0.09712663,-0.1798041,-0.3932472,0.03511667,0.5840816
1.178868,-0.1043876,-0.8395078,0.3340545,0.08013683,-0.2826541,-0.243421,-0.07636655,0.5737592
1.115908,-0.1238112,-0.9412202,0.2715235,0.06049948,-0.3843795,-0.2229001,-0.1800346,0.533953
1.032597,-0.1886844,-0.9773407,0.1885814,-0.00463555,-0.4205098,-0.193458,0.1748217,0.5307012
0.9233013,-0.2492274,-0.867231,0.07958654,-0.06548536,-0.3103876,-0.1140188,0.6717637,0.5008929
0.7881642,-0.2515541,-0.7287667,-0.05531989,-0.06815849,-0.1718725,-0.1212352,0.7358003,0.4173137
0.7377002,-0.2118092,-0.670647,-0.1056201,-0.0287929,-0.1136537,-0.1426409,0.520594,0.3269262
0.7810442,-0.1485655,-0.6691087,-0.06217171,0.03404406,-0.1119635,-0.1954689,0.3518661,0.2875099
0.7991145,-0.1061327,-0.6598429,-0.04404871,0.0760457,-0.1024912,-0.3185394,0.3442533,0.3577462
0.8258511,-0.119516,-0.6179604,-0.01730441,0.06220735,-0.06034682,-0.3673027,0.457209,0.4644234
0.8842191,-0.1407124,-0.5654579,0.04103074,0.04053189,-0.007527975,-0.3195546,0.5861301,0.5513999
0.8584691,-0.1405474,-0.51663,0.01521015,0.04019413,0.04166784,-0.2997639,0.6290947,0.6342855
0.7974194,-0.1618757,-0.5044725,-0.04594567,0.01834044,0.05423928,-0.2684353,0.5461133,0.6694312
0.7564639,-0.1973077,-0.490072,-0.08703901,-0.01763797,0.06909298,-0.1793312,0.503413,0.6667356
0.6995026,-0.2217901,-0.4454302,-0.1441638,-0.04268452,0.1142199,-0.07685858,0.5369819,0.6435512
0.6586859,-0.235876,-0.4133352,-0.1851614,-0.05734826,0.1468234,0.0235926,0.5310024,0.6182388
0.5943023,-0.2026021,-0.3622082,-0.249733,-0.02466093,0.1984724,0.03244977,0.4865132,0.6202994
0.5379241,-0.1456521,-0.3228183,-0.3062939,0.03169742,0.2383863,0.01546743,0.3723095,0.631431
0.5481728,-0.1305054,-0.3275053,-0.2962087,0.04624957,0.2342131,0.0227516,0.2063146,0.6782431
0.558672,-0.1408241,-0.3229565,-0.2858395,0.03533354,0.2392526,-0.05207255,0.07079715,0.7333189
0.5930238,-0.1468481,-0.3236021,-0.2515714,0.02870943,0.2390628,-0.07513602,-0.09774523,0.7579598
0.6558254,-0.1621042,-0.3308151,-0.188797,0.01285047,0.2322597,-0.03415936,-0.3270009,0.7912443
0.7272892,-0.2010723,-0.3363755,-0.1172966,-0.0267221,0.2270533,-0.02105306,-0.4314908,0.8032774
0.8535112,-0.2528779,-0.3444454,0.009028422,-0.0791315,0.2192729,0.03846099,-0.3745102,0.7567567
1.029164,-0.2994549,-0.3499236,0.1848475,-0.1263072,0.2140121,0.05724824,-0.3461282,0.6660438
1.195102,-0.3023302,-0.3811683,0.351005,-0.1297699,0.1829061,0.001527049,-0.3494143,0.5460696
1.309977,-0.2795588,-0.407677,0.4661349,-0.1075675,0.1564526,-0.05113911,-0.3026964,0.3979119
1.396832,-0.3050597,-0.422438,0.5532569,-0.1336127,0.1416607,-0.1204133,-0.174062,0.2396965
1.383872,-0.330148,-0.5021247,0.5405471,-0.1592142,0.06185564,-0.2560329,-0.03487684,0.1184652
1.251281,-0.3521822,-0.6372203,0.4081648,-0.181724,-0.07344339,-0.4169221,-0.1190351,0.07671923
1.118965,-0.4007374,-0.7120615,0.2759951,-0.2307096,-0.1485662,-0.4489431,-0.1694678,0.1156391
1.008125,-0.3597595,-0.7136231,0.1652234,-0.1901086,-0.1504762,-0.6212882,0.2379293,0.1265827
0.9016169,-0.261991,-0.7633511,0.05870107,-0.0926567,-0.200606,-1.12091,0.5405418,0.1024623
0.7305549,-0.2023508,-0.8002354,-0.1124574,-0.03326895,-0.2379313,-1.312497,0.1666768,0.1345818
0.6341306,-0.19527,-0.726409,-0.2090531,-0.02637667,-0.1645705,-1.102601,-0.1767048,0.1641704
0.7373785,-0.265003,-0.6752565,-0.1060389,-0.09623605,-0.1138954,-1.009879,0.07645262,0.1749557
0.7847132,-0.3203698,-0.6815903,-0.05898769,-0.1516676,-0.1207084,-0.9226461,0.3588879,0.1506194
0.8066549,-0.3350822,-0.650796,-0.03737035,-0.1663814,-0.09038755,-0.8045072,0.4731712,0.02847727
0.8467409,-0.3203627,-0.5684245,0.002356852,-0.1515969,-0.008477966,-0.7937133,0.5842876,-0.1277717
0.790537,-0.2421181,-0.4758531,-0.05423518,-0.07321813,0.08364566,-0.7161213,0.4077115,-0.2376431
0.7721524,-0.1588953,-0.4391686,-0.07303263,0.01020792,0.119895,-0.6923361,0.2117089,-0.223799
0.7354356,-0.06472713,-0.4524183,-0.1101807,0.1046444,0.1062185,-0.8120697,0.2357485,-0.1512154
0.6701547,-0.0001631314,-0.4588323,-0.1759038,0.1695334,0.09938102,-0.903709,0.1834539,-0.120569
0.6515042,-0.003698017,-0.4468153,-0.1949982,0.1663687,0.1109734,-0.9624362,0.1926192,-0.07954517
0.588869,-0.01547506,-0.4205209,-0.258068,0.1549947,0.1368377,-0.9508064,0.1644976,-0.07632935
0.5594264,-0.06820817,-0.3686796,-0.2879238,0.1026859,0.1882381,-0.895281,-0.03621178,-0.05566363
0.5742586,-0.1122009,-0.313936,-0.2734702,0.05912979,0.2425236,-0.8080463,-0.168994,0.05043378
0.597015,-0.1091797,-0.312888,-0.251045,0.062593,0.2430881,-0.6055004,-0.2303141,0.08503264
0.6607551,-0.09647246,-0.3424681,-0.187578,0.07574279,0.21299,-0.4670521,-0.2066547,0.07645527
0.7091189,-0.0625315,-0.3686617,-0.1394217,0.1101217,0.1862365,-0.46051,-0.2913403,0.08370348
0.7924679,-0.04962037,-0.4062866,-0.05621023,0.1234605,0.1480039,-0.488413,-0.4782485,0.07692054
0.9357232,-0.02818631,-0.4454817,0.08697702,0.1453057,0.10815,-0.5953977,-0.4819213,0.105549
1.053286,-0.007288835,-0.4756757,0.2045355,0.1665907,0.07724506,-0.737195,-0.4370604,0.1477085
1.17164,-0.04051629,-0.4907887,0.3229367,0.1337203,0.06136963,-0.793664,-0.373428,0.2102263
1.310932,-0.06944111,-0.5185098,0.4623104,0.1051157,0.03283689,-0.6865588,-0.312295,0.298008
1.360417,-0.1130632,-0.5711197,0.5118884,0.0617728,-0.02063018,-0.5004622,-0.1685711,0.3640809
1.333066,-0.155701,-0.615485,0.4846163,0.01937115,-0.06589284,-0.358648,0.1704518,0.4071844
1.308391,-0.1352056,-0.6736465,0.459983,0.0400595,-0.1249843,-0.2226219,0.2060573,0.4128452
1.174775,-0.08050209,-0.7897279,0.3263493,0.09491343,-0.2420178,-0.1532397,-0.2551492,0.4169289
1.013934,-0.06345276,-0.9391504,0.165416,0.1120697,-0.3924003,-0.1157967,-0.5634617,0.4232203
0.9717465,-0.2059104,-0.9684484,0.1230545,-0.03032555,-0.4226473,0.04547291,-0.02419635,0.3767246
0.8969368,-0.3946413,-0.835093,0.04798741,-0.2190366,-0.2902087,0.2203008,0.7400473,0.2825096
0.7859271,-0.3693919,-0.6980627,-0.06336015,-0.1938011,-0.1540457,0.2706182,0.6837456,0.1648186
0.7206438,-0.2347659,-0.6057926,-0.1290549,-0.059212,-0.06258282,0.2343846,0.3468301,0.09606365
0.7088505,-0.1542539,-0.5830258,-0.1413222,0.02124814,-0.04055896,0.1801026,0.149497,0.1137358
0.7781268,-0.08043396,-0.6153624,-0.07257079,0.0950039,-0.07357336,0.06038012,-0.02443959,0.1898687
0.8541265,-0.06846017,-0.5985615,0.002863313,0.1068996,-0.05738504,-0.07422727,0.2776759,0.3225084
0.8913374,-0.0942989,-0.5670367,0.03947454,0.08096568,-0.02640777,-0.09885552,0.657704,0.4532833
0.8519639,-0.07261333,-0.5192737,-0.000529068,0.1025354,0.02087163,-0.134378,0.612777,0.5349833
0.7577429,-0.1016668,-0.4493543,-0.09540682,0.07334261,0.09036785,-0.1412993,0.4868856,0.5983887
0.692192,-0.1552651,-0.4237719,-0.1616346,0.01957954,0.1155814,-0.04231108,0.3606129,0.6267596
0.6387161,-0.1908326,-0.3964704,-0.215798,-0.01617827,0.1425607,0.02918054,0.3182806,0.6042573
0.6332317,-0.228955,-0.3628227,-0.2219684,-0.05451431,0.1759234,0.07204391,0.3913048,0.56068
0.6331872,-0.2092967,-0.3443547,-0.2226848,-0.03508916,0.1941337,0.05472331,0.3817326,0.4841616
0.5930224,-0.1885114,-0.319483,-0.2634947,-0.01455269,0.2187641,0.03524357,0.3078172,0.4276044
0.59405,-0.1811268,-0.3081326,-0.2630732,-0.007429323,0.2298784,0.07135622,0.1321165,0.4622919
0.6152558,-0.1839825,-0.3052828,-0.2424225,-0.01055633,0.2324863,0.09591105,-0.1016632,0.4808837
0.667203,-0.2339011,-0.3192893,-0.1909687,-0.06075398,0.2182213,0.2081531,-0.1936754,0.4466569
0.7429888,-0.2573562,-0.3451187,-0.115607,-0.08449263,0.1921072,0.3240734,-0.1497116,0.4425156
0.796715,-0.2716673,-0.3467821,-0.0622316,-0.0990871,0.1901251,0.3596998,-0.1167032,0.4162997
0.8799001,-0.2733635,-0.3475119,0.02067625,-0.1010612,0.1890358,0.3796535,-0.1312283,0.3349327
0.97131,-0.2514542,-0.3513514,0.1118787,-0.07941891,0.1847902,0.3392496,-0.1172579,0.2297091
1.043738,-0.257568,-0.3469647,0.1841616,-0.08578435,0.188719,0.3057966,-0.1197176,0.1287728
1.144928,-0.2118087,-0.3569544,0.285256,-0.04025757,0.1782151,0.2072039,-0.1608812,0.1153031
1.27951,-0.1394824,-0.3841806,0.4197765,0.03185725,0.1504145,-0.03370139,-0.2482266,0.1533882
1.321792,-0.1288318,-0.4237583,0.4620108,0.04231706,0.1102,-0.1878585,-0.4321122,0.1498029
1.272294,-0.1904294,-0.503385,0.4124574,-0.01945271,0.02987385,-0.1497844,-0.5459333,0.1444807
1.318624,-0.3827454,-0.6472875,0.4587022,-0.2119226,-0.1147872,-0.01490469,-0.4767902,0.1566366
1.335565,-0.5687613,-0.7396022,0.475506,-0.398068,-0.2079109,0.02791501,-0.1134416,0.1435268
1.198569,-0.4897329,-0.6889973,0.3383048,-0.3191323,-0.1581524,-0.2264788,0.505295,0.06455905
0.9621215,-0.2587474,-0.6642274,0.1015677,-0.08818917,-0.1342527,-0.6861342,0.6508214,-0.04676063
0.6916565,-0.1645404,-0.6999533,-0.1692737,0.006032491,-0.1708603,-0.9439411,0.1069948,-0.06436432
0.7004529,-0.2004041,-0.6757227,-0.160933,-0.02975964,-0.1475118,-0.9262388,-0.2456606,-0.01625304
0.7949327,-0.2653709,-0.679993,-0.06697524,-0.09460088,-0.1526541,-0.9510191,-0.04761307,0.02259543
0.7278211,-0.3029982,-0.6965512,-0.1346624,-0.1320495,-0.1700647,-0.9898455,0.2456583,0.08697853
0.8638307,-0.2861343,-0.6509806,0.0007281933,-0.114953,-0.1253178,-0.9300261,0.4886041,0.07753749
0.9241029,-0.2711639,-0.6116059,0.06034576,-0.09969436,-0.08673072,-0.868872,0.6730609,-0.01948843
0.7908437,-0.2278386,-0.5407585,-0.07359938,-0.05602486,-0.01663007,-0.8231768,0.5894502,-0.09805505
0.8273902,-0.1910263,-0.4590802,-0.03776535,-0.01881336,0.06434389,-0.8318314,0.4119583,-0.2013664
0.7807123,-0.1698514,-0.4176108,-0.08517613,0.002812626,0.105149,-0.8820459,0.2745032,-0.2321263
0.7275855,-0.09319042,-0.4001424,-0.1390489,0.0799717,0.1219884,-0.9397273,0.1167812,-0.1601274
0.7471029,-0.05546458,-0.4438242,-0.1202823,0.1182357,0.07770651,-1.014473,0.1722303,-0.1409326
0.6400181,-0.02957044,-0.4642034,-0.2281133,0.1446989,0.05675095,-1.029227,0.1947649,-0.1134279
0.6038137,-0.02443805,-0.4141075,-0.265048,0.1504208,0.1062898,-0.9776396,-0.01950563,-0.07556121
0.5527594,-0.07769976,-0.370794,-0.3168038,0.09775888,0.1490612,-0.8847874,-0.1613527,-0.04771171
0.5092712,-0.08211488,-0.3436278,-0.3609498,0.09394512,0.1756941,-0.7454221,-0.3206506,0.03054287
0.5725841,-0.1081174,-0.3258956,-0.2982353,0.06853862,0.1928944,-0.5942986,-0.4214205,0.05585696
0.5724752,-0.1156163,-0.3188343,-0.2988695,0.06162497,0.1994174,-0.4722777,-0.4231276,0.03739419
0.6542316,-0.07147742,-0.348684,-0.2175537,0.1063338,0.1690148,-0.4143866,-0.5228702,0.02879127
0.7577502,-0.07547605,-0.3886795,-0.1143832,0.1028849,0.1284454,-0.3914228,-0.5761912,0.005292033
0.8131985,-0.05240383,-0.4011426,-0.05918768,0.1264813,0.1153826,-0.3826245,-0.6451956,-7.125827e-05
0.9623374,-0.04439874,-0.43053,0.08979171,0.1349796,0.08536686,-0.4140915,-0.6353173,0.01552488
1.07882,-0.06102569,-0.4712972,0.2062007,0.1188091,0.04394157,-0.4447766,-0.4448519,0.07883587
1.169613,-0.04234851,-0.4980058,0.2969927,0.1379009,0.01654567,-0.4122999,-0.3470105,0.1622115
1.259831,-0.07013541,-0.4945992,0.3872637,0.1104822,0.01923792,-0.3107516,-0.3229264,0.2133066
1.308427,-0.118949,-0.5188854,0.4359453,0.06198659,-0.005786731,-0.1368622,-0.2786064,0.2614605
1.338763,-0.1498418,-0.6467341,0.4663778,0.03136008,-0.1343936,0.07779201,-0.2428447,0.2801517
1.272258,-0.1261886,-0.8117363,0.3999535,0.05522786,-0.3001658,0.1725386,-0.4634477,0.24723
1.174492,-0.09241204,-0.9573716,0.302235,0.08916799,-0.4465685,0.1589107,-0.6711346,0.2035366
1.085855,-0.2008614,-0.995448,0.2135937,-0.01916858,-0.4853895,0.3042583,-0.149933,0.1822651
0.9313539,-0.3118325,-0.8803973,0.05902974,-0.130075,-0.3710377,0.4992903,0.4102654,0.135764
0.7871002,-0.2886103,-0.7540512,-0.08534902,-0.1068302,-0.2453251,0.4216592,0.2696872,0.04537181
0.7303307,-0.2258908,-0.6751802,-0.1423005,-0.04412187,-0.1670093,0.2921144,0.08717183,-0.01744175
0.7427402,-0.1348011,-0.6333373,-0.1301204,0.04692868,-0.1256362,0.2921846,0.1061967,-0.03535143
0.7550172,-0.05275967,-0.6319498,-0.1181095,0.1289049,-0.1246298,0.1855327,0.02316776,0.02887652
0.7313914,-0.1402303,-0.4542723,-0.2273468,0.04090934,-0.05798374,0.382355,-0.09694431,0.600333
0.8756556,-0.2067764,-0.4850461,-0.08166868,-0.02527114,-0.08600397,0.3159549,-0.09159296,0.6098493
1.078403,-0.283872,-0.5063929,0.1226052,-0.1020467,-0.1045707,0.1698976,0.01010495,0.5666768
1.215528,-0.302418,-0.4679427,0.2613562,-0.1203128,-0.06331873,0.1469111,0.2799004,0.4319488
1.223466,-0.2882039,-0.4041339,0.2709987,-0.1058515,0.00330797,-0.04154378,0.5308431,0.2109922
1.192268,-0.2708596,-0.4084084,0.2415617,-0.0882858,0.001860313,-0.5038123,0.4986651,0.03623618
1.100784,-0.2527531,-0.480569,0.1518722,-0.06997705,-0.06747205,-0.6567126,0.1833889,0.03869704
0.976722,-0.2678269,-0.5978406,0.02962282,-0.08486275,-0.1819194,-0.5427467,-0.2650352,0.08820357
1.022158,-0.3111953,-0.6841139,0.07687716,-0.1280524,-0.2653734,-0.5867245,-0.3049447,0.1361736
1.057349,-0.3034923,-0.7300408,0.1138825,-0.1201743,-0.3084822,-0.7651323,0.3570389,0.1975346
0.8621827,-0.2334613,-0.7556171,-0.0794809,-0.04996658,-0.3312349,-1.199755,0.8850283,0.1414652
0.6947295,-0.1683433,-0.6938238,-0.2451465,0.01533342,-0.2666047,-1.760325,0.4774535,0.0946018
0.6963682,-0.1631475,-0.6341667,-0.2417321,0.02071676,-0.2040912,-1.838462,0.01675056,0.1846382
0.7668723,-0.1916324,-0.6908805,-0.1694571,-0.007576289,-0.2579257,-1.642326,0.3001242,0.3029695
0.8481973,-0.1744873,-0.7646567,-0.08636071,0.009763754,-0.3287963,-1.69142,0.6009232,0.4006301
0.8972552,-0.1683028,-0.7663296,-0.03552872,0.01614535,-0.3275323,-1.68696,0.821445,0.4055887
0.8818319,-0.1894673,-0.6723838,-0.04917685,-0.004821274,-0.2306128,-1.539581,0.9812728,0.2989101
0.8138225,-0.1810122,-0.5045096,-0.1154117,0.003831893,-0.05972559,-1.477022,0.617743,0.1505122
0.7800879,-0.1978576,-0.4302889,-0.147373,-0.01281614,0.01754385,-1.401696,0.3567903,0.001125784
0.7454619,-0.1945801,-0.4674162,-0.180225,-0.009341896,-0.01650749,-1.376611,0.3140346,-0.03924834
0.6523154,-0.1584448,-0.4440929,-0.271593,0.02698902,0.009908956,-1.307069,0.2132199,0.02745917
0.587676,-0.146702,-0.4049029,-0.3344428,0.03892552,0.05219916,-1.087349,0.301511,0.05906395
0.5275566,-0.1116776,-0.3922515,-0.3927516,0.07413961,0.06794748,-1.008134,0.2117852,0.05781624
0.4535814,-0.09211697,-0.3243718,-0.464883,0.09388257,0.1389091,-0.973913,0.04193998,0.06693953
0.4400461,-0.1001381,-0.2846084,-0.4765268,0.08603257,0.1817265,-0.8325664,-0.1330057,0.07005221
0.4855745,-0.1033469,-0.2881377,-0.4290444,0.08297932,0.1812094,-0.676997,-0.5001308,0.08134187
0.5581147,-0.1144427,-0.2775541,-0.3544748,0.07202013,0.1947488,-0.5261178,-0.5769671,0.07780719
0.6728749,-0.09817696,-0.3261997,-0.237601,0.08840022,0.1489893,-0.5345903,-0.5776093,0.0558479
0.8413989,-0.05898759,-0.4108592,-0.06687642,0.1276786,0.06713491,-0.6936391,-0.6585355,0.0575812
1.008996,0.003986539,-0.4774585,0.1030029,0.1907121,0.003252745,-0.9098969,-0.5377239,0.07943627
1.189709,0.05520364,-0.5461722,0.2860679,0.2419526,-0.06283496,-1.1311,-0.3259382,0.1456224
1.345747,0.03909635,-0.5883412,0.4445047,0.2258247,-0.1024682,-1.15924,-0.04821484,0.2638959
1.388557,0.004187953,-0.6025487,0.4897338,0.1908433,-0.1142267,-1.076009,0.0806712,0.3867758
1.387361,-0.0597998,-0.6159827,0.4909446,0.1267239,-0.1252934,-0.9441079,0.1316599,0.4690549
1.339318,-0.1381886,-0.6647088,0.4452666,0.04814127,-0.1717282,-0.6533096,0.2239723,0.4762119
1.248676,-0.1478989,-0.7791295,0.3569197,0.03817541,-0.2839257,-0.4666969,0.04959296,0.4609082
1.166111,-0.1394287,-0.8890007,0.2765597,0.04633052,-0.3916312,-0.4542937,-0.07668102,0.4630906
1.004124,-0.1892885,-0.9118025,0.1166719,-0.003900633,-0.4123094,-0.3152114,0.199292,0.4453373
0.7778097,-0.2520816,-0.842437,-0.1076574,-0.06711672,-0.3408457,-0.1723816,0.426103,0.3815289
0.6406587,-0.2519711,-0.738352,-0.2429342,-0.06747458,-0.2346732,-0.1766911,0.2073732,0.2176613
0.6552722,-0.216342,-0.6542556,-0.226547,-0.03235177,-0.1484901,-0.1415534,-0.01422696,0.0272104
0.72398,-0.1982426,-0.6020512,-0.156153,-0.01478993,-0.09419539,-0.131223,0.07514669,0.01289668
0.7937226,-0.1782959,-0.5893157,-0.08480011,0.004593006,-0.07936503,-0.1608329,0.1553588,0.150741
0.8671194,-0.1586393,-0.5830948,-0.009861969,0.02366324,-0.07104601,-0.05133279,0.3183987,0.3030323
0.8633627,-0.1570132,-0.5589787,-0.01214241,0.02468311,-0.04483091,0.06775111,0.5287126,0.4344631
0.8099203,-0.1639378,-0.5335174,-0.06417156,0.01713431,-0.01727249,0.1079507,0.4773446,0.4711228
0.7473021,-0.1778655,-0.4907833,-0.1254364,0.002566619,0.02755261,0.1371838,0.4050517,0.4301209
0.6757869,-0.1890974,-0.4414921,-0.1956526,-0.009318635,0.07892305,0.1558778,0.4055617,0.4042047
0.6428714,-0.1902514,-0.4063134,-0.227315,-0.01113667,0.1161618,0.1773998,0.3842354,0.3496705
0.6034609,-0.1832433,-0.3738727,-0.2655077,-0.004800067,0.1506339,0.1588426,0.3992413,0.3233003
0.5654219,-0.1601215,-0.3493705,-0.302352,0.01764528,0.1771288,0.1395051,0.3556292,0.3722766
0.5629257,-0.1271493,-0.338088,-0.303664,0.04993777,0.1903542,0.163243,0.1940284,0.3982525
0.5737471,-0.1166787,-0.3421075,-0.2916559,0.05972587,0.1882171,0.1809629,-0.05235102,0.457889
0.6415361,-0.1494693,-0.3518371,-0.2226663,0.02624961,0.1802985,0.26032,-0.2427554,0.5632302
0.766898,-0.204515,-0.3763108,-0.09608171,-0.02948447,0.1575556,0.3790418,-0.2218415,0.6257967
0.9076275,-0.2555629,-0.4239207,0.04589552,-0.08122138,0.1115888,0.428136,-0.1061944,0.6203188
1.021219,-0.2814563,-0.4282641,0.1607558,-0.1077996,0.1087957,0.4240493,0.03146987,0.4968448
1.122515,-0.2793745,-0.3869074,0.2633311,-0.1063925,0.151606,0.3621204,0.1257723,0.3105663
1.240569,-0.2847342,-0.3857897,0.3826613,-0.1124103,0.1540769,0.2012993,-0.01602662,0.1451244
1.262299,-0.3024525,-0.4788873,0.4056429,-0.1307636,0.06222872,0.03476325,-0.2809809,0.03516808
1.215492,-0.3408877,-0.651506,0.3600426,-0.169804,-0.1092446,0.00617246,-0.5676301,0.01696845
1.221058,-0.4082902,-0.7658464,0.3667517,-0.2377747,-0.2225381,0.07610326,-0.727483,0.03569684
1.171823,-0.421303,-0.7730507,0.3185785,-0.2513093,-0.2287821,0.07010272,-0.2563822,0.04044404
0.9715327,-0.3274951,-0.7850411,0.1192547,-0.1579672,-0.239884,-0.1980568,0.3457453,0.002099396
0.6896541,-0.2152401,-0.7657881,-0.1617578,-0.04611489,-0.2197999,-0.6892008,0.1400382,-0.02617276
0.5595687,-0.2045869,-0.693809,-0.2910719,-0.03579909,-0.1470336,-1.024741,-0.294453,0.04634811
0.6829358,-0.2549278,-0.6927682,-0.1670145,-0.08641268,-0.145239,-1.058103,-0.3729596,0.1446961
0.7716738,-0.2591662,-0.7195249,-0.07765286,-0.09085983,-0.1712668,-1.034861,-0.2638327,0.1825354
0.7751671,-0.2558263,-0.7079743,-0.0735923,-0.08766456,-0.1590043,-1.026379,0.09950851,0.1482137
0.8104661,-0.2599594,-0.6930505,-0.03777568,-0.09187786,-0.143378,-0.936569,0.3564121,0.08340755
0.7778615,-0.2446014,-0.6217341,-0.06990685,-0.07653552,-0.07136223,-0.8805221,0.3803569,-0.01221105
0.7778889,-0.2378364,-0.5338118,-0.06944546,-0.06972188,0.01725962,-0.9671833,0.3974629,-0.1575529
0.7849269,-0.200794,-0.5186267,-0.06200786,-0.03256789,0.03314411,-1.063367,0.2059747,-0.2064189
0.6980763,-0.1209217,-0.4970455,-0.1484879,0.04747639,0.05542205,-1.085158,0.04848113,-0.1487094
0.6862334,-0.06452025,-0.4748851,-0.1599825,0.1041047,0.07827231,-1.108299,-0.01086346,-0.1078719
0.6811348,-0.0489949,-0.5046019,-0.164747,0.1199038,0.04923401,-1.156163,-0.03765659,-0.07015369
0.6464829,-0.0311545,-0.500019,-0.1990706,0.1380551,0.0544798,-1.150947,0.1406892,-0.05498398
0.6390568,-0.03074771,-0.4684538,-0.206165,0.1387998,0.08668863,-1.082455,0.2054315,-0.07041531
0.5855342,-0.09883834,-0.4349608,-0.2593432,0.0710647,0.1208018,-0.9855304,0.2257839,-0.07691859
0.5600674,-0.141123,-0.3634273,-0.2844426,0.0291457,0.1929263,-0.8558142,0.2219863,-0.1024924
0.5662844,-0.1253946,-0.3351804,-0.2778241,0.04524514,0.2217276,-0.7623764,0.08753292,-0.1403852
0.5801138,-0.1111198,-0.3422469,-0.2635487,0.05989257,0.2151698,-0.7091679,0.03937015,-0.1475174
0.621992,-0.06444094,-0.3490149,-0.2211705,0.1069417,0.2088556,-0.6618556,-0.1326561,-0.1237405
0.7050849,-0.01945465,-0.4154287,-0.1375169,0.1522904,0.1428329,-0.6758196,-0.2457961,-0.06478461
0.8774785,-0.009743012,-0.4597693,0.03550059,0.1623498,0.09881547,-0.686757,-0.2047925,0.04196905
1.056966,-0.01618968,-0.4895386,0.2156714,0.1562286,0.06929879,-0.6659228,-0.229031,0.1188941
1.231771,-0.05344053,-0.5775225,0.3912044,0.1192738,-0.01850249,-0.6506544,-0.1426732,0.104385
1.377592,-0.1162534,-0.6395852,0.5377805,0.05672196,-0.08044911,-0.5292055,-0.1087051,0.0877728
1.397723,-0.1696504,-0.6926401,0.5586649,0.003548463,-0.1334476,-0.2960212,-0.06359738,0.1090937
1.312495,-0.1289211,-0.7869415,0.4741595,0.04446364,-0.2277426,-0.1133983,0.009532123,0.1152574
1.144868,-0.04722487,-0.8907844,0.3071993,0.1263081,-0.3316156,-0.03910202,-0.1927246,0.1384769
0.9835275,-0.04930961,-0.9527749,0.1464537,0.1243324,-0.3936557,0.05866276,-0.376363,0.2186857
0.8582294,-0.1309332,-0.9479045,0.02166892,0.04277557,-0.388835,0.296226,-0.3201921,0.2933528
0.765999,-0.2568048,-0.9163573,-0.07012973,-0.08307212,-0.3573178,0.5282563,-0.07376682,0.2536992
0.7380705,-0.2880231,-0.8370496,-0.09770257,-0.1143055,-0.278003,0.5625346,0.2130537,0.05132313
0.7045023,-0.2329453,-0.7328426,-0.1309828,-0.0592751,-0.1737386,0.4393188,0.3126101,-0.2138406
0.7116237,-0.2310131,-0.6580882,-0.1236313,-0.05741585,-0.09886848,0.3098645,0.2764637,-0.3475347
