accx,accy,accz,body_accx,body_accy,body_accz,body_gyrox,body_gyroy,body_gyroz
0.9377132,-0.1655851,-0.08316086,-0.08596595,0.01074978,-0.03443751,0.6251981,-0.8351378,-0.6957566
0.8846903,-0.1525782,-0.09564005,-0.1385775,0.02564376,-0.04909955,0.5019601,-0.8685086,-0.7971762
0.8895755,-0.1522061,-0.1201442,-0.133281,0.02794757,-0.07578289,0.4459699,-0.8846905,-0.7919543
0.879735,-0.1584066,-0.1439432,-0.1427046,0.02371373,-0.1017484,0.4383045,-0.8759299,-0.7324917
0.8618561,-0.1791545,-0.1638224,-0.1601552,0.004958312,-0.1237717,0.4511073,-0.7758467,-0.6971648
0.8560098,-0.1963664,-0.1541218,-0.1655561,-0.0102434,-0.1161832,0.5091434,-0.5769958,-0.7101487
0.7915949,-0.210691,-0.1355027,-0.2295023,-0.02254666,-0.09963469,0.5607532,-0.5235865,-0.7107226
0.7769121,-0.2207947,-0.1228731,-0.2436857,-0.0306235,-0.08902592,0.6336316,-0.5668646,-0.692995
0.7988789,-0.2141462,-0.12309,-0.2211808,-0.02194719,-0.09120707,0.7551064,-0.4919029,-0.6323639
0.8057244,-0.2031895,-0.1333852,-0.2137511,-0.00896639,-0.1034039,0.8980011,-0.3359047,-0.5219211
0.8079264,-0.1718136,-0.1266781,-0.210912,0.0244255,-0.09852996,1.003654,-0.260307,-0.4035047
0.8080477,-0.1033969,-0.1292295,-0.2100956,0.09484435,-0.1028411,0.9995051,-0.3013163,-0.2632237
0.8666892,-0.05551906,-0.1412369,-0.1506966,0.1447027,-0.1165298,0.9630082,-0.326587,-0.117091
0.9423298,-0.04901024,-0.1468484,-0.07423377,0.1531608,-0.1237398,0.9480788,-0.2959297,-0.07918336
1.006307,-0.01948529,-0.166097,-0.009370912,0.1845933,-0.1444993,0.8950929,-0.2973738,-0.1264506
1.04813,0.009843265,-0.1665164,0.03339665,0.2157765,-0.1463374,0.8247194,-0.2949198,-0.1032643
1.04161,5.157937e-05,-0.1427253,0.02787283,0.2077753,-0.1238684,0.7846998,-0.2229618,-0.04939336
1.030918,0.01862087,-0.1194952,0.01822206,0.2280597,-0.1018604,0.7508919,-0.1537071,0.02766658
1.014874,0.04163224,-0.09662838,0.003255432,0.2527002,-0.08011366,0.6822978,-0.1426218,0.1751411
1.022068,0.02125209,-0.1027345,0.01155717,0.2338529,-0.08723737,0.6010983,-0.1945569,0.2412777
1.049511,0.01009947,-0.1127513,0.04013302,0.2241272,-0.09816942,0.5491854,-0.2547706,0.2382959
1.059253,-0.006163264,-0.1012447,0.05102592,0.2091774,-0.08747592,0.5430599,-0.2751334,0.2463212
1.092522,-0.05814678,-0.1197266,0.08545752,0.1583867,-0.1066692,0.6015033,-0.3428676,0.2212708
1.145881,-0.1349244,-0.1698854,0.1399828,0.08267802,-0.1574377,0.6620869,-0.4581361,0.1938122
1.195969,-0.187395,-0.2168051,0.1912321,0.03115243,-0.2048639,0.6442351,-0.5744092,0.1285293
1.220148,-0.1502029,-0.2388456,0.2165553,0.06916835,-0.227305,0.6100942,-0.6802507,0.03397447
1.25697,-0.1318246,-0.2614468,0.2544916,0.08825259,-0.2501962,0.6144911,-0.7056326,0.0270991
1.339193,-0.2021746,-0.3092541,0.3377874,0.01849419,-0.2981779,0.6354596,-0.6812042,0.1184775
1.396367,-0.2521375,-0.3190587,0.3959755,-0.03098727,-0.308035,0.7193753,-0.6093575,0.2279756
1.425646,-0.2799885,-0.3085327,0.4261936,-0.05846012,-0.2974329,0.8373981,-0.4778015,0.2547402
1.382315,-0.3040869,-0.3111438,0.3837096,-0.08227521,-0.2998336,0.8470444,-0.3677182,0.2382622
1.282552,-0.292141,-0.2848992,0.2846854,-0.07013127,-0.2732391,0.7689314,-0.1305679,0.2668549
1.233222,-0.2603803,-0.2695001,0.235973,-0.03824853,-0.257347,0.664415,0.3033175,0.3116846
1.174195,-0.213809,-0.2629138,0.1774382,0.008376516,-0.2501227,0.4807799,0.6617026,0.3774211
1.120601,-0.1844961,-0.2468957,0.1242079,0.03768046,-0.2333206,0.2854227,0.9139416,0.4442424
1.083037,-0.1787047,-0.2377683,0.08687753,0.04340385,-0.2232636,0.1935354,1.165518,0.4378684
1.012698,-0.1632451,-0.1845795,0.0166471,0.05873895,-0.1690011,0.1574165,1.241537,0.3906838
0.983725,-0.1578804,-0.1193744,-0.01233628,0.06392433,-0.1025819,0.1193308,1.06109,0.3717104
0.9721353,-0.1664021,-0.0973583,-0.02404773,0.05516998,-0.07921763,0.09684633,0.9098564,0.3882307
0.9597421,-0.1837161,-0.09797835,-0.03666446,0.03757168,-0.0783637,0.09017426,1.046124,0.4147457
0.9409835,-0.217457,-0.09133884,-0.05573894,0.003497064,-0.07013342,0.1039131,1.220629,0.4144301
0.8616845,-0.2499575,-0.05955008,-0.1354356,-0.02938294,-0.03664634,0.1549429,1.200626,0.3649949
0.7561327,-0.2750295,-0.02425353,-0.2414545,-0.05487541,0.0004462252,0.2398075,1.175948,0.2562797
0.6562132,-0.2931866,0.0009871233,-0.3418942,-0.07348775,0.02756953,0.325171,1.13015,0.1262114
0.6549784,-0.2867624,-0.004543588,-0.3436828,-0.06754646,0.02399621,0.3373794,1.068231,0.07092018
0.7139091,-0.2664573,-0.0125449,-0.2853186,-0.04774538,0.01801511,0.2940385,1.106966,0.06301093
0.7070225,-0.2520395,0.009224074,-0.2927659,-0.03384689,0.04185579,0.2506102,1.071815,0.01804229
0.7223386,-0.2302281,0.02180864,-0.2779884,-0.01256535,0.05655243,0.1384199,0.9465764,-0.02511848
0.7456518,-0.2238527,0.05326436,-0.2551771,-0.006727027,0.09014931,0.008509146,0.7891596,-0.06132898
0.7546246,-0.240555,0.07544997,-0.2466572,-0.02397071,0.1144933,-0.007426508,0.6146637,-0.1113048
0.7918453,-0.2528517,0.07924398,-0.2098297,-0.03681059,0.1204507,0.02941761,0.4641186,-0.1359681
0.7925415,-0.2864881,0.1389946,-0.2094585,-0.0709885,0.1823571,0.0619743,0.2714672,-0.1313478
0.8198217,-0.3231313,0.1865833,-0.1824283,-0.1081673,0.2320805,0.1181997,0.1802531,-0.1201789
0.8731058,-0.3226699,0.1995241,-0.1293141,-0.1082302,0.2471203,0.2039205,0.1780278,-0.1248047
0.8745816,-0.3001297,0.2043746,-0.1279253,-0.08619715,0.2540187,0.2716046,0.08894539,-0.1380587
0.876461,-0.2644447,0.1865555,-0.1260488,-0.05099722,0.2381819,0.2771784,0.01892174,-0.1426679
0.8765878,-0.2354938,0.189745,-0.1258404,-0.02250603,0.2432748,0.2911417,-0.07621232,-0.1304468
0.8851431,-0.2160953,0.2069982,-0.1171188,-0.00354058,0.2623402,0.3045965,-0.1979029,-0.07505772
0.9145633,-0.1941077,0.2333909,-0.08744817,0.01804074,0.2904424,0.2771861,-0.2343344,-0.003337129
0.9343568,-0.1807801,0.2527821,-0.06732178,0.03098751,0.311429,0.2780617,-0.3211258,0.04300626
0.9551888,-0.1845892,0.2254736,-0.04607709,0.02682124,0.2855904,0.2648083,-0.4264456,0.0508339
0.9851181,-0.2298158,0.190837,-0.01565954,-0.01874071,0.2522884,0.2172818,-0.4357081,0.02681266
1.098372,-0.3221103,0.1489118,0.09815274,-0.1113491,0.2115547,0.2067381,-0.445585,0.02979308
1.291991,-0.402767,0.1101099,0.292389,-0.1922954,0.1737965,0.2544131,-0.5191194,0.1023881
1.396766,-0.4115174,0.1127482,0.3978265,-0.2013046,0.1773284,0.314635,-0.5710595,0.2392992
1.364047,-0.3993374,0.142633,0.3657919,-0.1893448,0.2079555,0.2731252,-0.4225699,0.3441543
1.29989,-0.4495311,0.1720018,0.3023198,-0.2397118,0.2379142,0.2272803,-0.216839,0.329107
1.257543,-0.5001813,0.1422953,0.2606392,-0.2904799,0.2086435,0.3041,-0.2934946,0.2738595
1.228932,-0.4897177,0.09472051,0.2326613,-0.2800691,0.1613495,0.4028776,-0.5220593,0.2183802
1.219661,-0.4786152,0.09922629,0.2239761,-0.2689448,0.1659817,0.5131766,-0.7037249,0.1392295
1.166734,-0.4856583,0.08332375,0.1715796,-0.2758825,0.1500534,0.6089069,-0.851752,0.04932821
1.043335,-0.4579031,0.04057603,0.04864814,-0.2479308,0.1071311,0.6600503,-0.950627,-0.09497121
0.9507207,-0.3959582,0.00316157,-0.04356314,-0.1856923,0.06939792,0.7023973,-1.062857,-0.2537188
0.9146287,-0.3631806,-0.07101752,-0.07931449,-0.1525208,-0.005236989,0.6759652,-1.111745,-0.367723
0.916591,-0.3778512,-0.1442295,-0.07706752,-0.1666962,-0.07903205,0.6674984,-1.056376,-0.4828921
0.9518729,-0.3824993,-0.1564473,-0.04155004,-0.1707482,-0.09194777,0.7105246,-0.9834947,-0.549583
0.9891987,-0.3444428,-0.1359267,-0.004031862,-0.1319952,-0.0722256,0.7586726,-0.8652404,-0.5975356
1.00633,-0.3109635,-0.1277358,0.01325221,-0.09772056,-0.06492024,0.8817354,-0.843686,-0.725897
0.9817929,-0.2902394,-0.1307036,-0.01116861,-0.07610583,-0.06884823,0.9199013,-0.8288997,-0.8635202
0.9435169,-0.2294232,-0.120957,-0.04936261,-0.01430851,-0.06012495,0.850386,-0.7168167,-1.024869
0.8996016,-0.1644435,-0.1108296,-0.09322614,0.05173557,-0.05107325,0.8100106,-0.7777949,-1.176726
0.8350738,-0.1420686,-0.1153949,-0.1577264,0.07524826,-0.05675711,0.6957082,-0.8385912,-1.185577
0.7950839,-0.1289618,-0.1183622,-0.197705,0.08955493,-0.0608767,0.6039977,-0.7768997,-1.118382
0.7876392,-0.1174886,-0.1264802,-0.2051445,0.1022781,-0.07017212,0.6204891,-0.6808975,-0.9959611
0.7911017,-0.1031251,-0.1603995,-0.2016724,0.1179298,-0.1052852,0.5898197,-0.4294154,-0.8241149
0.7708572,-0.06953606,-0.1949717,-0.2218928,0.152833,-0.1410584,0.5209034,-0.3177562,-0.6731942
0.7297474,-0.0527767,-0.203486,-0.2629538,0.17092,-0.1507712,0.4692372,-0.4112598,-0.507146
0.7368675,-0.06118975,-0.2076393,-0.2557499,0.1638354,-0.1561096,0.4328266,-0.3592698,-0.3239344
0.7876305,-0.06082268,-0.2031455,-0.2048579,0.1655195,-0.1527778,0.4212824,-0.2175564,-0.1462576
0.8543756,-0.06095885,-0.1733816,-0.1379309,0.1666776,-0.1241434,0.4332422,-0.09060145,-0.0195689
0.9195453,-0.05571629,-0.1561365,-0.07252185,0.1731812,-0.1079874,0.442089,-0.04371163,0.05238733
0.9660164,-0.02900728,-0.1528988,-0.0257533,0.201108,-0.1057922,0.3947506,-0.08448084,0.1084224
1.016397,-0.006274844,-0.1352128,0.0249803,0.225005,-0.08909734,0.3212985,-0.07170557,0.09330532
1.048283,0.008995733,-0.1143745,0.05727051,0.2413767,-0.06919474,0.2724756,-0.09986991,0.05841879
1.048399,0.02320092,-0.09233544,0.05783458,0.2566092,-0.04803335,0.2194285,-0.169242,0.0478207
1.030081,0.03992698,-0.08478352,0.04000172,0.2742784,-0.04129981,0.1483471,-0.1491389,0.04995426
0.9913866,0.05013355,-0.1013995,0.0018239,0.2853338,-0.05867436,0.09832566,-0.1531756,0.1316801
0.977212,0.03044633,-0.1164985,-0.01180842,0.2663915,-0.07447177,0.09870047,-0.2001705,0.2540375
1.003397,-0.007356827,-0.1451336,0.01494186,0.2292208,-0.1037439,0.1409132,-0.2434016,0.3611753
1.051122,-0.06267392,-0.1867477,0.06325027,0.1744177,-0.1459317,0.2124212,-0.2981353,0.4077593
1.119249,-0.1210071,-0.213981,0.1319749,0.1164769,-0.1736719,0.2837928,-0.2783111,0.3854505
1.189915,-0.1439776,-0.2449976,0.2032439,0.09377717,-0.2051239,0.3094167,-0.2626214,0.36197
1.248776,-0.150869,-0.2750663,0.2627025,0.08703736,-0.2355507,0.2829567,-0.3777593,0.2743063
1.297729,-0.1685094,-0.2762181,0.3122357,0.06943285,-0.2369769,0.2541857,-0.5536259,0.1629455
1.357031,-0.2065136,-0.2838427,0.3720853,0.03135325,-0.2447852,0.2675372,-0.665206,0.1801044
1.411925,-0.2699592,-0.331569,0.4274758,-0.03227288,-0.2925982,0.2939415,-0.5933519,0.2565701
1.410174,-0.3159907,-0.3605014,0.4261547,-0.07858199,-0.3215128,0.3496977,-0.4776186,0.303866
1.363402,-0.3072743,-0.3395916,0.3797267,-0.07023001,-0.300473,0.4448605,-0.4195294,0.3516658
1.30583,-0.2769766,-0.3143311,0.3223973,-0.04037292,-0.2749632,0.4404587,-0.1783353,0.3936439
1.231935,-0.2459166,-0.2766534,0.2486331,-0.00982035,-0.2369115,0.3018137,0.2274396,0.4326551
1.144102,-0.2095717,-0.2258382,0.1608126,0.02595798,-0.1855945,0.1071395,0.638022,0.5021393
1.066755,-0.1834808,-0.2057787,0.08335699,0.0514286,-0.1649052,-0.1084325,0.9900249,0.5612139
1.01788,-0.1458196,-0.1790735,0.03425596,0.08841932,-0.1374439,-0.289441,1.204621,0.5685139
1.000029,-0.1161931,-0.1104806,0.01606507,0.117327,-0.0679724,-0.4335782,1.329522,0.5245821
0.994329,-0.1372785,-0.07311386,0.009921471,0.09547497,-0.0296106,-0.5296993,1.204627,0.4815283
0.9832927,-0.164901,-0.08979335,-0.001655558,0.06703852,-0.04518673,-0.5735596,0.9211956,0.5249725
0.9530973,-0.2131431,-0.09033384,-0.03247997,0.01793678,-0.04452427,-0.6043991,0.9025123,0.5811484
0.8848548,-0.2924276,-0.07210763,-0.1014304,-0.06224911,-0.02500393,-0.5589519,0.9775268,0.5790961
0.8182724,-0.3336075,-0.04722104,-0.1687884,-0.1043658,0.001259417,-0.4509056,1.051567,0.5537397
0.7739393,-0.3420464,-0.0005782002,-0.2139508,-0.1137677,0.04935231,-0.3147426,1.190182,0.4594847
0.731539,-0.3356388,0.02104366,-0.2572182,-0.1083395,0.07248693,-0.1474254,1.179997,0.3177812
0.7284089,-0.3163515,0.009070442,-0.2612363,-0.09003864,0.06207773,-0.07962807,1.122972,0.2220853
0.736808,-0.2833589,5.701619e-05,-0.2537289,-0.05803139,0.05466829,-0.07707961,1.086394,0.1768499
0.7208221,-0.2307777,-0.01235483,-0.2705943,-0.006428073,0.0438901,-0.06134365,1.03077,0.1466123
0.7227331,-0.2223997,-0.009784006,-0.2695353,0.0009834052,0.04811499,-0.1438864,0.9807725,0.1171868
0.7147678,-0.2294925,0.02669079,-0.2783112,-0.007062317,0.08625558,-0.2799885,0.8367778,0.0984852
0.6982582,-0.1999648,0.06242164,-0.2955763,0.02152788,0.1236549,-0.3722089,0.6943915,0.08094858
0.7247466,-0.2380825,0.07829851,-0.2697756,-0.01751078,0.1411927,-0.4325466,0.6010071,0.05396238
0.7653984,-0.3088677,0.09242335,-0.2297327,-0.08919845,0.1569604,-0.4400815,0.5229256,0.002277912
0.8013057,-0.3169672,0.1116186,-0.1943466,-0.09817825,0.1777696,-0.4111526,0.525792,-0.07043376
0.8467198,-0.3432938,0.1327042,-0.1493601,-0.1253576,0.200429,-0.3578951,0.5270627,-0.1270026
0.8832041,-0.3754638,0.1620844,-0.1132064,-0.1583467,0.2313318,-0.2463738,0.4535428,-0.1918291
0.8936204,-0.355771,0.1755082,-0.103023,-0.1394324,0.2462154,-0.1426488,0.3141048,-0.2585782
0.898499,-0.3290267,0.1655765,-0.09828033,-0.1134195,0.2376692,-0.1086072,0.1730996,-0.2651773
0.9087122,-0.3002099,0.1777451,-0.08810747,-0.08528186,0.2511382,-0.06456892,0.07797007,-0.2044338
0.912188,-0.2818506,0.1931138,-0.08457832,-0.06754649,0.2677119,0.009880021,-0.03077625,-0.1110804
0.9173589,-0.2876148,0.1825721,-0.07926299,-0.07387734,0.2582703,0.03463566,-0.1471005,-0.0354248
0.9269622,-0.2876017,0.1800868,-0.06942707,-0.07437251,0.2567713,0.02278338,-0.2722847,0.03117013
0.9489958,-0.2913221,0.1802636,-0.04707579,-0.07854181,0.2578128,0.02909459,-0.4241893,0.09188298
0.9789956,-0.3016414,0.1649676,-0.0166775,-0.08924973,0.2432533,0.05018905,-0.5106871,0.09781714
0.9758053,-0.308809,0.1398464,-0.01939368,-0.09674462,0.2187347,0.06731404,-0.515541,0.09363688
0.9849963,-0.3442934,0.1061016,-0.009658543,-0.1324935,0.1854549,0.0948537,-0.5221835,0.1083809
1.063464,-0.4027386,0.07678629,0.06941632,-0.1911382,0.1564655,0.1682046,-0.5203722,0.1091101
1.139597,-0.4242513,0.07141288,0.1462132,-0.212781,0.151279,0.2685161,-0.4840521,0.1374666
1.147676,-0.4107697,0.0965733,0.1549988,-0.1993551,0.1764886,0.3138277,-0.412209,0.2022991
1.109006,-0.4146987,0.1148814,0.1170683,-0.2032601,0.1947094,0.2855793,-0.3181419,0.2667027
1.101146,-0.4363913,0.1018941,0.1099696,-0.224844,0.1814991,0.2843887,-0.3148506,0.3292738
1.184747,-0.4653087,0.08916314,0.1943409,-0.2535635,0.1684106,0.3319507,-0.3921583,0.3651654
1.296467,-0.4971153,0.07300028,0.3068317,-0.2850774,0.1517572,0.3880734,-0.4576341,0.3469672
1.327547,-0.4997981,0.03895574,0.3386659,-0.2873669,0.1170921,0.5046541,-0.5534188,0.2764241
1.278227,-0.4806759,0.01912299,0.2900688,-0.2677446,0.09651288,0.6392551,-0.6542458,0.1800169
1.202477,-0.4527048,0.01319712,0.2149943,-0.2391615,0.08972024,0.7264197,-0.7044064,0.07259323
1.075048,-0.4004499,-0.00464095,0.08818304,-0.1861798,0.07090135,0.7924132,-0.7320886,-0.06605621
0.9354337,-0.3691746,-0.03804771,-0.05087738,-0.1540622,0.03640674,0.7866092,-0.7875702,-0.1990857
0.9037331,-0.3826962,-0.1050277,-0.0820854,-0.1666275,-0.03175984,0.7108763,-0.8455921,-0.2887998
0.9252513,-0.3849937,-0.1763424,-0.06013061,-0.1678571,-0.1043493,0.6330547,-0.8034897,-0.353639
0.9368271,-0.362682,-0.1857444,-0.04816805,-0.1443685,-0.1151014,0.5885106,-0.7573843,-0.3769086
0.9612398,-0.3278248,-0.1585168,-0.02341308,-0.1082288,-0.08928469,0.6014499,-0.7835991,-0.4115258
0.953693,-0.2833015,-0.1434508,-0.03065772,-0.06232222,-0.07567718,0.581927,-0.7831996,-0.5457461
0.9421145,-0.2652245,-0.1403966,-0.04197062,-0.04276762,-0.07411719,0.5019947,-0.7875091,-0.7014353
0.950967,-0.2574749,-0.1348607,-0.03288534,-0.0334541,-0.07010063,0.4294715,-0.7682438,-0.8113241
0.9314298,-0.2113338,-0.1277763,-0.05221877,0.01432841,-0.06455095,0.331325,-0.697721,-0.8840551
0.9091477,-0.1629747,-0.1397004,-0.07432221,0.06439664,-0.07801632,0.2137938,-0.6810122,-0.8882608
0.8929629,-0.1339162,-0.1556542,-0.09034888,0.09522027,-0.09550939,0.09562361,-0.6827317,-0.8673151
0.8669973,-0.1167965,-0.157531,-0.1161716,0.1141485,-0.09891492,-0.03540685,-0.6728347,-0.8476098
0.8394658,-0.1367069,-0.1431301,-0.1435692,0.09607669,-0.08602408,-0.1322922,-0.6621212,-0.8081302
0.8090473,-0.1643151,-0.1140586,-0.173856,0.07032483,-0.05843644,-0.1597977,-0.6488591,-0.7896226
0.7886393,-0.1727916,-0.108995,-0.1941264,0.06371174,-0.05482474,-0.1067058,-0.6953471,-0.7591805
0.7865768,-0.1670464,-0.1344269,-0.1960369,0.07131807,-0.08167152,-0.02378912,-0.7361367,-0.6780991
0.7998788,-0.138893,-0.1601822,-0.1825601,0.1013217,-0.1087999,0.05554551,-0.6762548,-0.5741993
0.8159008,-0.105237,-0.1725344,-0.166333,0.136808,-0.1224777,0.1215422,-0.5687132,-0.4561867
0.8280541,-0.0656187,-0.174896,-0.153938,0.1782271,-0.1261115,0.1055479,-0.4880632,-0.3326408
0.8567884,-0.03445529,-0.1850899,-0.1249207,0.2111507,-0.1375182,0.05861218,-0.4535846,-0.1879345
0.9208064,-0.02117633,-0.1998419,-0.06057519,0.2261376,-0.1534177,0.00792731,-0.4335104,-0.03946803
1.001307,-0.00847663,-0.2139575,0.02029811,0.240481,-0.1686094,-0.0740149,-0.3793272,0.04170439
1.049196,-0.0336471,-0.2162074,0.06860088,0.2168782,-0.1718582,-0.0829569,-0.2446043,0.05740577
1.064577,-0.05409763,-0.2008533,0.08443145,0.1979091,-0.1574201,-0.05582421,-0.08033958,0.08429333
1.04134,-0.01945665,-0.2010315,0.06167298,0.2339363,-0.1584263,-0.08017087,-0.04349154,0.1593833
0.9784714,-0.005188952,-0.2127269,-0.0006963183,0.2494868,-0.1708576,-0.0993852,-0.1062491,0.2558399
0.9699688,-0.03410209,-0.2301535,-0.008682009,0.221745,-0.188924,-0.1084313,-0.1221492,0.3404142
0.998842,-0.08852769,-0.2597745,0.0207221,0.1683723,-0.2190846,-0.06873604,-0.1462967,0.3691561
1.010621,-0.1543333,-0.275186,0.03304358,0.1034972,-0.2349307,0.04147092,-0.1752343,0.3486388
1.051831,-0.2016603,-0.2926724,0.07480288,0.0569776,-0.2527415,0.1159879,-0.1404461,0.3169989
1.077815,-0.2218945,-0.3136981,0.1013385,0.03742991,-0.273976,0.1420848,-0.1625322,0.2186443
1.10757,-0.2019477,-0.3083688,0.1316415,0.05794631,-0.2687341,0.1592045,-0.2019295,0.05658564
1.199544,-0.1747537,-0.311049,0.2241532,0.08559734,-0.2713752,0.1636743,-0.1918286,-0.0002845357
1.279583,-0.1816289,-0.3515494,0.3047077,0.07906986,-0.3117049,0.1698456,-0.2008711,0.131956
1.368596,-0.2246,-0.4094969,0.3942009,0.03634044,-0.3693448,0.1832066,-0.1490842,0.2876681
1.442853,-0.3163244,-0.4408351,0.4688865,-0.05524381,-0.4002318,0.2265141,-0.03860681,0.3233687
1.389592,-0.4074673,-0.4211769,0.415984,-0.1463402,-0.3799709,0.2923818,0.07663213,0.315756
1.29826,-0.4300374,-0.3967218,0.3249217,-0.1689462,-0.3547548,0.3478268,0.1879012,0.2983774
1.227825,-0.4166533,-0.3910622,0.2546556,-0.1556666,-0.3481701,0.4167621,0.34884,0.2453147
1.137872,-0.4044591,-0.3675655,0.164761,-0.1436322,-0.3235807,0.4645031,0.6788125,0.2279011
1.074531,-0.3756343,-0.3266086,0.1013667,-0.1150104,-0.2813615,0.4539987,0.983381,0.2441308
1.005405,-0.3482491,-0.2794091,0.03207573,-0.08786117,-0.2327306,0.4663565,1.192579,0.2648131
0.9535059,-0.3363455,-0.235092,-0.02009449,-0.07621802,-0.1868156,0.5323512,1.425959,0.305387
0.9889245,-0.2911718,-0.1977885,0.01495409,-0.03132281,-0.1477536,0.5839269,1.461643,0.3008993
0.9767198,-0.2129216,-0.12904,0.002288581,0.04663538,-0.07709377,0.5807065,1.212694,0.2501953
0.9375033,-0.1587594,-0.07232296,-0.03747152,0.1004935,-0.01832332,0.5264507,0.9123129,0.2261726
0.9556601,-0.1548754,-0.0755906,-0.01993296,0.1040595,-0.01940852,0.4574367,0.8554279,0.2268429
0.9096374,-0.1973513,-0.07588793,-0.06663994,0.06124902,-0.01740835,0.4252282,0.9970887,0.2027547
0.8238956,-0.2423378,-0.05425667,-0.1531225,0.0159095,0.006621611,0.4435501,0.9811425,0.1005026
0.7643544,-0.2384408,-0.01264571,-0.2134488,0.01943515,0.05071856,0.4682564,0.8495738,-0.008430289
0.7399728,-0.2080422,0.01997816,-0.2386458,0.04944495,0.08590103,0.4554458,0.7194664,-0.005696618
0.7793762,-0.1918551,-0.002527733,-0.2000723,0.06522626,0.06601092,0.4285505,0.6498251,0.07583499
0.8076177,-0.1879174,-0.01303075,-0.1726611,0.06874073,0.05816593,0.3648349,0.7360257,0.1698329
0.8063447,-0.2015419,0.01392773,-0.1747525,0.05467484,0.08781083,0.2241806,0.7403744,0.2348864
0.7981889,-0.2338668,0.04999372,-0.1837043,0.0218898,0.1265781,0.1108999,0.6335424,0.2414781
0.7790036,-0.2706351,0.1000756,-0.2036533,-0.01535649,0.179362,0.09794473,0.5354561,0.2038132
0.7783071,-0.2943132,0.1164945,-0.2050713,-0.03952819,0.1984684,0.1342179,0.4090593,0.1291998
0.7806985,-0.2866466,0.1013476,-0.2033502,-0.03236696,0.185979,0.1561836,0.3493169,0.04214281
0.7842996,-0.2844893,0.1120877,-0.2003593,-0.03072306,0.1993314,0.155134,0.3307405,-0.0156361
0.8009203,-0.3055903,0.1384127,-0.1842812,-0.05234157,0.2282096,0.1664919,0.3219646,-0.04569985
0.826885,-0.310362,0.176139,-0.1587852,-0.057631,0.2684159,0.1887717,0.2870088,-0.0759079
0.858534,-0.2955341,0.2074838,-0.1275261,-0.04331709,0.3021534,0.2295906,0.1321168,-0.1016177
0.8643106,-0.2625913,0.1882566,-0.122058,-0.01088098,0.2852169,0.2455388,0.002416333,-0.0953895
0.8583198,-0.2204637,0.1667571,-0.1282741,0.03074931,0.2658923,0.2002429,-0.06230536,-0.07316188
0.8650224,-0.1989803,0.1685696,-0.1217127,0.05174498,0.2697522,0.1689898,-0.1185341,-0.04957988
0.876892,-0.2075587,0.1596819,-0.1098995,0.04268723,0.2627742,0.1428807,-0.1724117,-0.0257581
0.9076665,-0.225501,0.1570331,-0.07909675,0.02427266,0.2618882,0.1141427,-0.2602833,-0.02272522
0.9400518,-0.2239448,0.1509737,-0.04660012,0.0253625,0.2574373,0.1033427,-0.307269,-0.01541656
0.9422171,-0.2358533,0.144884,-0.04424324,0.01299306,0.2527949,0.08900207,-0.3452914,0.01469283
0.9479832,-0.2602713,0.1526313,-0.03820931,-0.01188027,0.2618229,0.1068745,-0.4380236,0.03026228
0.9898509,-0.264394,0.1387157,0.003998356,-0.01645206,0.249017,0.1198945,-0.4899837,0.02998962
1.06492,-0.2930544,0.1292224,0.07947351,-0.04555373,0.2404584,0.1171238,-0.461236,0.04530185
1.18326,-0.3250046,0.1334625,0.1982768,-0.07793499,0.2454557,0.17092,-0.4260075,0.1133088
1.279357,-0.3186902,0.1271236,0.2948832,-0.07203796,0.2396948,0.2183138,-0.4106992,0.2555732
1.25801,-0.3109861,0.1383111,0.2740727,-0.06473387,0.25128,0.1808516,-0.2312876,0.4014625
1.162351,-0.3139249,0.1755312,0.1789622,-0.06805177,0.2887164,0.1002378,0.05954199,0.4692916
1.097654,-0.3343585,0.2117865,0.1148119,-0.08884064,0.3250052,0.0360812,0.07459455,0.497152
1.156361,-0.3853277,0.1962056,0.1740528,-0.1401375,0.3092726,-0.003405065,-0.1619611,0.5357101
1.308179,-0.4630881,0.1530288,0.3263837,-0.2181928,0.2657571,0.02882233,-0.3420341,0.5509336
1.365579,-0.5336719,0.1475734,0.3842611,-0.2890309,0.2597754,0.1580037,-0.3928118,0.5061964
1.257649,-0.5517298,0.1416042,0.2767594,-0.3072923,0.2530937,0.3029175,-0.425113,0.3954961
1.0826,-0.5417482,0.1202917,0.1020765,-0.2974514,0.2308848,0.4164183,-0.5643138,0.2611011
0.9552598,-0.547417,0.0869413,-0.02496801,-0.3031868,0.1964575,0.4866033,-0.7717237,0.1541595
0.8757848,-0.5691244,0.02628948,-0.1042142,-0.3248763,0.1345537,0.6014535,-0.9537673,0.004854729
0.7949931,-0.6089713,-0.02837399,-0.1848373,-0.3646105,0.07847087,0.7972658,-1.083043,-0.2293485
0.786344,-0.6599955,-0.08114451,-0.1933669,-0.4154163,0.02412406,0.9491285,-1.11718,-0.4302193
0.838611,-0.6613365,-0.1290725,-0.1410176,-0.4164217,-0.02552404,1.145519,-1.12981,-0.5597049
0.8681836,-0.5690786,-0.1611443,-0.1113889,-0.3236999,-0.05944485,1.424336,-1.216399,-0.6599184
0.8814653,-0.4306829,-0.2040372,-0.09806872,-0.1847044,-0.104299,1.610897,-1.314223,-0.7109926
0.8840688,-0.3431631,-0.2371213,-0.09543779,-0.09644718,-0.1394388,1.709288,-1.400779,-0.7458157
0.9122441,-0.3300558,-0.245178,-0.06724034,-0.08246889,-0.1496271,1.763999,-1.433434,-0.7660974
0.938598,-0.3000469,-0.2396693,-0.04086527,-0.05146243,-0.1463074,1.777599,-1.286914,-0.7619315
0.9247113,-0.2407862,-0.2226934,-0.05472875,0.008913576,-0.1315603,1.768631,-1.082067,-0.8260898
0.9108694,-0.213781,-0.2007376,-0.06854275,0.0371414,-0.1118568,1.710946,-0.9994261,-0.9296848
0.8818847,-0.2053772,-0.1855939,-0.09749205,0.04686308,-0.09897498,1.63473,-0.931717,-0.9951418
0.8514069,-0.2181301,-0.1868933,-0.1279232,0.03551088,-0.1025334,1.615073,-0.8154949,-1.022597
0.8338351,-0.2377519,-0.1835003,-0.1454323,0.01736083,-0.1013851,1.643273,-0.7457164,-1.041129
0.8253672,-0.2323631,-0.1764361,-0.153816,0.02428165,-0.09654098,1.652425,-0.6640481,-1.121583
0.8470257,-0.2165743,-0.1747241,-0.1320459,0.04165305,-0.09701518,1.659041,-0.4878694,-1.20487
0.8856202,-0.1738894,-0.1628877,-0.09330772,0.08596113,-0.08732255,1.685506,-0.2776995,-1.218618
0.930178,-0.1363955,-0.1590177,-0.04857124,0.1251079,-0.08554632,1.702027,-0.05049314,-1.18321
0.9324988,-0.1262242,-0.1679563,-0.04603591,0.1369497,-0.096522,1.71829,0.1202158,-1.076736
0.908551,-0.06937552,-0.1881072,-0.06973354,0.1954742,-0.118647,1.68803,0.1135184,-0.9044793
0.9166008,0.00996594,-0.2066054,-0.06139842,0.2764824,-0.13905,1.575795,0.07652633,-0.6929153
0.9041125,0.04492996,-0.16939,-0.07356612,0.3130883,-0.1036633,1.418319,0.03540467,-0.5196938
0.8867814,0.08795589,-0.105541,-0.09054115,0.3577135,-0.04156211,1.226385,-0.1785438,-0.419505
0.9142919,0.134146,-0.08009935,-0.06263876,0.4054416,-0.01778431,1.077521,-0.3566537,-0.3382689
0.9720141,0.1137887,-0.06944174,-0.004489113,0.3865422,-0.008706405,0.9766362,-0.3526514,-0.3102018
1.038114,0.1003874,-0.05451898,0.06207217,0.3745002,0.004719787,0.8343292,-0.2969659,-0.3153237
1.049942,0.09876584,-0.04951066,0.0743887,0.3741231,0.00831287,0.7228782,-0.1657788,-0.2893571
1.02954,0.05705448,-0.03812244,0.05449879,0.3335272,0.01836483,0.6449087,-0.01442835,-0.2116784
1.024547,0.07251321,-0.02798368,0.05003316,0.3499603,0.02724354,0.5187282,0.05667398,-0.07918468
0.997788,0.08906765,-0.04096623,0.02381226,0.3673376,0.01307401,0.4346188,0.07761568,0.001473445
0.9968782,0.04750967,-0.0540399,0.02344702,0.3264416,-0.001116507,0.4154598,0.08769337,0.0005297303
1.014893,0.03017206,-0.06025727,0.04200934,0.3095972,-0.008382977,0.3805078,0.107758,0.02691039
0.9758504,0.005117568,-0.06548156,0.003514092,0.2848616,-0.01459047,0.337482,0.0746778,0.1019591
0.953113,0.0001127952,-0.06627961,-0.0186785,0.2799977,-0.01630737,0.3189128,0.009875255,0.1771461
0.9642593,0.00820391,-0.07867631,-0.006991154,0.2880495,-0.02955988,0.3065925,-0.03014196,0.2499862
0.9709423,-0.03052039,-0.1039064,0.0002283923,0.2491044,-0.05558363,0.2818542,-0.07733108,0.304275
1.007161,-0.07445423,-0.1385791,0.03697762,0.2047686,-0.09098788,0.2977138,-0.1388516,0.2817272
1.066422,-0.1579925,-0.1777909,0.09676207,0.12065,-0.1308676,0.3698583,-0.2114413,0.174865
1.144317,-0.2146088,-0.1800338,0.1751671,0.06328113,-0.1337123,0.4823724,-0.2046651,0.01578393
1.190091,-0.1674319,-0.1444236,0.2214312,0.1095423,-0.09863439,0.5752801,-0.1676545,-0.06648895
1.184023,-0.08947848,-0.1321474,0.2158244,0.1864259,-0.08681882,0.4872482,-0.2207003,0.05334963
1.239238,0.02740162,-0.1606954,0.2714599,0.3020881,-0.1157544,0.2994855,-0.2768649,0.2310437
1.362374,0.07748169,-0.1998614,0.3949644,0.3508038,-0.1552337,0.1641349,-0.3328065,0.3326703
1.49025,-0.0531896,-0.2100187,0.5231427,0.2186208,-0.1656277,0.05164729,-0.3194917,0.3569367
1.573021,-0.2060806,-0.1682791,0.6061302,0.06407224,-0.1240452,0.03463249,-0.198206,0.2427552
1.545522,-0.276879,-0.1209609,0.578739,-0.008522127,-0.07680286,0.02843641,-0.09241216,0.1253059
1.435325,-0.2957134,-0.1134133,0.4685199,-0.02927831,-0.06925028,-0.07220633,0.06305545,0.1673334
1.266849,-0.2940814,-0.1236897,0.2998747,-0.02967885,-0.07944241,-0.1359475,0.1563056,0.2629632
1.077316,-0.3189049,-0.120697,0.1100172,-0.05663058,-0.07628835,-0.2119393,0.1278713,0.3649617
0.9882696,-0.3407769,-0.1089742,0.02049252,-0.08071137,-0.06432923,-0.2652969,0.226457,0.4222545
0.9840576,-0.3299825,-0.1085782,0.01565608,-0.07219098,-0.06362444,-0.2327697,0.3843715,0.3511203
0.9579174,-0.3201228,-0.1195993,-0.01124351,-0.06465598,-0.074267,-0.2400656,0.4619395,0.2700137
0.9070456,-0.292182,-0.1306261,-0.06299778,-0.03907696,-0.08484783,-0.1858214,0.4565549,0.2052842
0.8876001,-0.2505691,-0.1162002,-0.0834355,0.000148662,-0.06991082,-0.07585662,0.4295128,0.1208581
0.9114085,-0.2360876,-0.07771609,-0.06071512,0.01222687,-0.03085292,-0.01841423,0.5318566,0.1186155
0.9099602,-0.2352812,-0.06073639,-0.06333374,0.0106217,-0.01324021,0.07633107,0.6841763,0.1533148
0.8724064,-0.2289947,-0.06772004,-0.1021273,0.01449493,-0.01953629,0.1567409,0.8181696,0.1420498
0.8281531,-0.2000004,-0.06991295,-0.1476768,0.0410801,-0.02099192,0.1489847,0.9292953,0.1405339
0.7862453,-0.1531229,-0.05264818,-0.1909233,0.08555743,-0.002944918,0.0842149,0.9668982,0.1409676
0.8155129,-0.1250071,-0.04147774,-0.1630216,0.1112845,0.009047845,-0.02186383,1.068311,0.1462645
0.8612255,-0.1103017,-0.06703673,-0.1186881,0.1236135,-0.01565379,-0.1782809,1.214671,0.1998756
0.8515442,-0.1076363,-0.08360999,-0.1297491,0.1239146,-0.03133918,-0.3759836,1.291169,0.2728401
0.8546593,-0.1545598,-0.0558674,-0.1280042,0.07463836,-0.002682012,-0.5110872,1.306084,0.3360437
0.8414441,-0.2315305,0.0004651728,-0.1425701,-0.004672349,0.05458782,-0.5539425,1.201051,0.3502105
0.816969,-0.2787247,0.0674472,-0.168367,-0.05419028,0.122524,-0.5701037,1.037197,0.2979295
0.837188,-0.2780476,0.1094625,-0.1494317,-0.05581443,0.1655019,-0.5900774,0.8764377,0.2051804
0.85987,-0.2503308,0.1048445,-0.1279864,-0.03036928,0.161845,-0.6043367,0.6941012,0.1008921
0.8887535,-0.2338881,0.08767087,-0.1002858,-0.0161625,0.1456202,-0.6091195,0.558677,0.06988633
0.9056544,-0.2322536,0.09451422,-0.08450859,-0.01672331,0.1533904,-0.6313555,0.4954045,0.1290629
0.8835935,-0.2307101,0.1134903,-0.10763,-0.01733047,0.1732624,-0.6433871,0.448011,0.1971699
0.8755263,-0.2373623,0.1423876,-0.1166914,-0.02608514,0.203016,-0.6316111,0.3456727,0.2421123
0.8871188,-0.2432323,0.1661126,-0.106023,-0.03400601,0.2275486,-0.6202847,0.237037,0.2494829
0.8961745,-0.2432458,0.1624338,-0.09781836,-0.03601531,0.2246188,-0.6022466,0.1928569,0.2065688
0.9007337,-0.2430958,0.1731637,-0.09403488,-0.03780287,0.23603,-0.5815127,0.175664,0.1325229
0.8935788,-0.2444555,0.1927546,-0.1018884,-0.0410389,0.2562253,-0.5478943,0.1820525,0.05001069
0.8795373,-0.2465206,0.1940323,-0.11655,-0.04491644,0.258022,-0.490489,0.145896,-0.002397292
0.8728187,-0.240056,0.1873789,-0.1238085,-0.04019772,0.2517938,-0.4188359,0.02272984,0.00278144
0.8756043,-0.2347127,0.1675011,-0.1214807,-0.03653175,0.23224,-0.3645017,-0.1387143,0.02148663
0.8950295,-0.2343684,0.1545811,-0.10243,-0.03779464,0.2195368,-0.3589573,-0.2571004,0.02287267
0.9500553,-0.2389631,0.1328111,-0.0476949,-0.04392497,0.1978719,-0.3827865,-0.2183747,0.0176883
1.036502,-0.2615784,0.08906508,0.03854314,-0.06800328,0.1541167,-0.4213337,-0.1259463,-0.01464265
1.150019,-0.2969272,0.07167482,0.1519277,-0.1047404,0.1366021,-0.4473812,-0.09102242,-0.03704274
1.25027,-0.3138952,0.07298799,0.2521132,-0.1230194,0.1376766,-0.4191997,-0.1061971,0.03571012
1.249277,-0.288525,0.08480855,0.2511062,-0.09887938,0.149146,-0.3930137,-0.140772,0.1999498
1.162633,-0.2711435,0.1308228,0.1644846,-0.08264435,0.1946979,-0.4509034,-0.03653049,0.3567367
1.084858,-0.2993873,0.1706746,0.08675542,-0.1119485,0.2339766,-0.5394723,0.07725154,0.4156661
1.083174,-0.3407692,0.1483678,0.0851319,-0.154303,0.2109847,-0.5901986,0.02821171,0.431888
1.193642,-0.4084108,0.1018532,0.1956678,-0.2228257,0.1636724,-0.611601,-0.03632382,0.4966478
1.339208,-0.4945472,0.0744479,0.341301,-0.3097461,0.1353572,-0.5582145,-0.1537417,0.5797507
1.389716,-0.5210089,0.03747937,0.3918606,-0.336886,0.0973697,-0.4555014,-0.3068285,0.6380351
1.346141,-0.4798438,0.0241244,0.3483066,-0.2962833,0.08289118,-0.3879706,-0.3370423,0.6312886
1.25086,-0.4302968,0.03908466,0.2529993,-0.247174,0.09662902,-0.3163202,-0.3796896,0.4894977
1.086008,-0.3931481,0.02986662,0.08806181,-0.210332,0.08609554,-0.2594038,-0.5266497,0.2603271
0.9355008,-0.3801574,0.03383621,-0.06259397,-0.1975138,0.08866239,-0.2479373,-0.6571122,0.07035724
0.8978342,-0.4105317,0.02559685,-0.1004678,-0.2279245,0.07893867,-0.2204472,-0.7220788,-0.08692527
0.8947517,-0.4427966,-0.02693918,-0.1038086,-0.2600883,0.02484268,-0.1783369,-0.7249835,-0.25637
0.9097981,-0.4438282,-0.06815287,-0.08906223,-0.2608793,-0.01799928,-0.1152725,-0.7054879,-0.3935814
0.9691636,-0.4092509,-0.0983307,-0.0300299,-0.2259194,-0.04986457,-0.01884355,-0.7244116,-0.5113201
0.9781056,-0.3194558,-0.1172609,-0.02144805,-0.1355993,-0.07053096,0.0718685,-0.7241696,-0.6318295
0.9526912,-0.2270448,-0.1373744,-0.04724449,-0.04252364,-0.09241791,0.10924,-0.6992744,-0.7013692
0.929198,-0.1866758,-0.1510694,-0.07113715,-0.001357426,-0.107912,0.05403262,-0.6603392,-0.7461024
0.8735886,-0.172715,-0.1295584,-0.1271578,0.01352305,-0.08821407,-0.03277176,-0.5393507,-0.8191726
0.8335606,-0.168043,-0.1275016,-0.1676017,0.01922573,-0.08797326,-0.1170081,-0.4701154,-0.8897341
0.8290815,-0.1651999,-0.1249452,-0.1724924,0.02319874,-0.08722598,-0.2267118,-0.4893507,-0.9160647
0.8416194,-0.1447147,-0.1080854,-0.1603527,0.04490153,-0.07215954,-0.3139166,-0.4314452,-0.893519
0.844314,-0.1131703,-0.1154674,-0.1580343,0.07773973,-0.08131117,-0.4006019,-0.3369362,-0.8363547
0.820055,-0.09807019,-0.1171922,-0.1826394,0.09419759,-0.08477482,-0.5025076,-0.3070425,-0.7362971
0.7837268,-0.08757285,-0.1428885,-0.2192761,0.1061039,-0.112172,-0.5575968,-0.361303,-0.6168522
0.7435539,-0.07966389,-0.1779059,-0.2597109,0.1154604,-0.1488454,-0.5820813,-0.4242836,-0.4776754
0.7600883,-0.09457435,-0.1740098,-0.2433828,0.1020237,-0.1465524,-0.573324,-0.3836629,-0.2749105
0.8149462,-0.0994524,-0.1767524,-0.1886666,0.09863424,-0.1508372,-0.5190661,-0.2346388,-0.09955152
0.8513142,-0.1111256,-0.1804824,-0.1523689,0.08845403,-0.1560412,-0.4353201,-0.02305383,0.006417403
0.8959724,-0.1311106,-0.170769,-0.1077059,0.06995727,-0.1477265,-0.351493,0.09859965,0.0990998
0.9190569,-0.1005018,-0.1681904,-0.08453995,0.1020415,-0.1464651,-0.3343624,0.08132015,0.1278888
0.9338494,-0.061311,-0.1926257,-0.06959007,0.142687,-0.1721308,-0.3476357,0.07597283,0.1307398
0.9688971,-0.04220784,-0.229859,-0.03431113,0.1632154,-0.210502,-0.3482909,0.03220208,0.1669344
1.01902,-0.04427075,-0.2280347,0.01611334,0.1625389,-0.209717,-0.3535816,-0.04739704,0.1666911
1.096481,-0.06730149,-0.2237381,0.09394011,0.1408466,-0.2063551,-0.322823,0.01651928,0.1454836
1.10286,-0.06162916,-0.2307349,0.1007417,0.1478013,-0.2141758,-0.2654525,0.07753394,0.1334184
1.055226,-0.05182973,-0.2044057,0.05357757,0.15882,-0.1885551,-0.2226057,0.02200977,0.1347651
1.040443,-0.03959904,-0.1751962,0.03930133,0.1722002,-0.1599349,-0.1883364,0.01761464,0.1980073
0.997697,-0.01473245,-0.1606144,-0.002904966,0.1981397,-0.1458211,-0.1612328,0.02383934,0.2915864
0.9838087,-0.01742849,-0.15194,-0.01622687,0.1964332,-0.1374929,-0.1419431,-0.0558685,0.3537313
1.027737,-0.01681954,-0.1497141,0.02829112,0.1979416,-0.1354921,-0.1282203,-0.1469303,0.3631712
1.060882,-0.02286808,-0.1549971,0.062046,0.1926964,-0.14088,-0.1250854,-0.1859547,0.3397223
1.130166,-0.04482396,-0.1913887,0.1319526,0.1714425,-0.1772575,-0.1905819,-0.2288729,0.2967819
1.206299,-0.04542422,-0.2400571,0.208715,0.171439,-0.2257927,-0.359801,-0.3882392,0.1886319
1.236489,-0.05069454,-0.2487349,0.2395288,0.1666572,-0.2342172,-0.5191832,-0.5308623,0.1136604
1.278936,-0.08519892,-0.2416236,0.2825826,0.1325311,-0.2267304,-0.5747258,-0.5077257,0.2228523
1.377556,-0.1741033,-0.2819964,0.3817785,0.04389453,-0.2666033,-0.5650847,-0.4619715,0.3903291
1.470334,-0.2781046,-0.3272341,0.4750823,-0.05994619,-0.3112139,-0.4647332,-0.3487449,0.4545173
1.442623,-0.3215795,-0.3151885,0.4478304,-0.1033602,-0.2984105,-0.3026258,-0.09010944,0.4755882
1.357903,-0.3360971,-0.3008114,0.363482,-0.1179061,-0.2831412,-0.2887096,0.08033684,0.4747607
1.284254,-0.3435959,-0.2972863,0.2901036,-0.1255102,-0.2785866,-0.3472769,0.2723396,0.4176803
1.170306,-0.3411904,-0.2666017,0.1763131,-0.123275,-0.2467334,-0.3210825,0.6769362,0.3928588
1.097408,-0.3461586,-0.256413,0.103456,-0.1284668,-0.235237,-0.3986689,1.02571,0.4365372
1.082376,-0.3501736,-0.2703756,0.08834935,-0.1327479,-0.2477536,-0.5370673,1.371302,0.4844491
1.049271,-0.3485758,-0.2456938,0.05505775,-0.1314479,-0.2214894,-0.5405405,1.773713,0.4736133
0.9975685,-0.333958,-0.1673382,0.003060714,-0.11715,-0.1414174,-0.4818138,1.803163,0.3914859
0.9069644,-0.2974584,-0.05885805,-0.08793776,-0.08098366,-0.03109271,-0.4332542,1.50833,0.3036911
0.8484792,-0.2596982,-0.01027269,-0.1469066,-0.04356324,0.01945576,-0.4391542,1.204404,0.2573751
0.8523114,-0.2542748,-0.04098864,-0.1436339,-0.03848129,-0.009191338,-0.4326191,1.037338,0.2653929
0.8243382,-0.2742718,-0.03679636,-0.1722284,-0.05881798,-0.00283779,-0.3416917,1.137208,0.2559185
0.7722657,-0.2846433,-0.01297447,-0.2249692,-0.06952377,0.02322512,-0.2555354,1.193641,0.1930189
0.7231041,-0.2851091,-0.008559255,-0.2748304,-0.07031499,0.02994864,-0.1788472,1.101592,0.163169
0.7012437,-0.2710206,0.01430007,-0.2974048,-0.05653921,0.05517099,-0.1369325,1.119748,0.1477655
0.7079018,-0.2346555,0.0040519,-0.2914579,-0.02047127,0.04732802,-0.1444105,1.088927,0.145732
0.7186352,-0.2078375,-0.01332612,-0.2814159,0.006066878,0.03238534,-0.1731881,1.028128,0.1704335
0.7683054,-0.2091825,0.00764539,-0.2324024,0.004459418,0.05581121,-0.2611315,1.070171,0.1827264
0.8023479,-0.2250959,0.02266337,-0.1989697,-0.01169972,0.07329198,-0.3508699,1.02722,0.2020585
0.7877346,-0.244115,0.06428665,-0.2141359,-0.03094788,0.1173757,-0.4234269,0.9081361,0.164865
0.7949751,-0.2668407,0.1057965,-0.2073832,-0.05388564,0.1613319,-0.4904787,0.7618014,0.08451233
0.8189051,-0.2826535,0.1033933,-0.1838687,-0.06989174,0.1613484,-0.523699,0.620015,0.03432122
0.8360156,-0.2893395,0.1153001,-0.1670955,-0.07675019,0.1756355,-0.5391053,0.5499397,-0.02109619
0.8564274,-0.3073297,0.1476278,-0.1469384,-0.09488923,0.2102915,-0.5172783,0.4642156,-0.06023439
0.87731,-0.3158981,0.1868618,-0.1262253,-0.1035795,0.251789,-0.4889611,0.3913672,-0.09399178
0.8820427,-0.3030948,0.2108997,-0.1215752,-0.09086816,0.2780123,-0.477448,0.3160039,-0.1239744
0.8827437,-0.292311,0.2035647,-0.1208697,-0.08014317,0.2727709,-0.4698688,0.1967836,-0.1186015
0.892339,-0.2662782,0.2011558,-0.1111828,-0.05413411,0.2723506,-0.4837353,0.1399323,-0.1102245
0.8871768,-0.2359926,0.1986365,-0.1161669,-0.02383619,0.2717032,-0.489159,0.1012376,-0.07344608
0.8752037,-0.2374787,0.1975883,-0.1278761,-0.02527444,0.2723993,-0.5012551,0.06449493,-0.02209768
0.8668523,-0.2570381,0.2166584,-0.1358785,-0.04475153,0.2930765,-0.5135989,0.004574063,0.0109906
0.8770067,-0.2833529,0.2327777,-0.1252905,-0.07095041,0.3106565,-0.4865105,-0.1270916,0.04216162
0.9135099,-0.2998678,0.2311628,-0.08826985,-0.08731554,0.3103471,-0.4579963,-0.1933071,0.045503
0.9405401,-0.2942267,0.2088266,-0.06064047,-0.08148975,0.2891533,-0.4426643,-0.2447404,0.04632186
0.9598699,-0.2968056,0.1779457,-0.0406336,-0.08384786,0.2592448,-0.4414846,-0.3312894,0.07920976
0.9726373,-0.3195937,0.1461229,-0.0271158,-0.1063778,0.2282203,-0.4330375,-0.347007,0.127606
0.9998274,-0.3434628,0.118697,0.0008922681,-0.1299499,0.2014163,-0.3846529,-0.3687465,0.184556
1.081692,-0.3462464,0.1282649,0.08363515,-0.1323951,0.2114294,-0.3155684,-0.4189953,0.2405521
1.140518,-0.3255714,0.14881,0.1433918,-0.111338,0.2322439,-0.2503711,-0.4289252,0.2949118
1.108854,-0.3048891,0.1542306,0.1126976,-0.09022773,0.2377584,-0.234185,-0.3499886,0.3114223
1.046441,-0.2981257,0.1848898,0.05128351,-0.08298987,0.2683365,-0.2788826,-0.140495,0.2586022
1.025119,-0.328866,0.2054024,0.03097986,-0.113209,0.2885927,-0.3370084,0.0265187,0.2140578
1.096908,-0.4129863,0.1775186,0.1037995,-0.1967607,0.2602767,-0.352827,-0.01424412,0.2348478
1.250382,-0.5029765,0.1527112,0.2583082,-0.2861314,0.2348612,-0.2749952,-0.140881,0.277052
1.338263,-0.534855,0.1408818,0.3472148,-0.3173327,0.2222496,-0.1439949,-0.2078016,0.298891
1.328184,-0.5112038,0.1319237,0.3381362,-0.2929381,0.212338,-0.02925671,-0.217425,0.2718589
1.356158,-0.5022874,0.1098762,0.3670676,-0.2832031,0.1891695,0.0745569,-0.2263322,0.2040002
1.349231,-0.5061576,0.06186389,0.361037,-0.2861723,0.1398739,0.1310596,-0.344969,0.1690721
1.195348,-0.4640564,0.04537574,0.2079736,-0.2430817,0.121947,0.09710633,-0.5951616,0.163957
1.014544,-0.4191422,0.03392984,0.0279015,-0.1970855,0.108915,0.06056306,-0.788658,0.1079556
0.9047438,-0.4101808,-0.01519834,-0.0812559,-0.1869476,0.05806277,0.05362175,-0.882395,-0.0352338
0.8707757,-0.4111557,-0.05762032,-0.1146649,-0.1866513,0.01378937,0.01193677,-1.000614,-0.2509925
0.8886888,-0.4112851,-0.1171027,-0.09626791,-0.1854155,-0.04765928,0.01586193,-1.062372,-0.4202877
0.9341197,-0.3997117,-0.1675312,-0.05041928,-0.1723839,-0.1001542,0.1093964,-0.9930105,-0.4531813
0.9762462,-0.3690746,-0.1648639,-0.007933723,-0.1401975,-0.09963713,0.2277109,-0.9339568,-0.4688572
0.9595727,-0.314446,-0.1534666,-0.02430181,-0.08393146,-0.09045714,0.3767854,-0.9029674,-0.5365111
0.9282027,-0.271971,-0.1336219,-0.05541568,-0.03973596,-0.07288116,0.4699033,-0.8261838,-0.5888064
0.9112091,-0.2573269,-0.123436,-0.07219749,-0.02329565,-0.06500119,0.4746734,-0.7650733,-0.6514472
0.874698,-0.2189217,-0.1129394,-0.1085351,0.01697262,-0.05683503,0.47655,-0.7159906,-0.7572731
0.8549505,-0.1853209,-0.08998667,-0.1281405,0.05249361,-0.03622607,0.43178,-0.679764,-0.8638492
0.8381215,-0.1749035,-0.1036977,-0.1448509,0.06487703,-0.05228427,0.3592717,-0.6656391,-0.9155407
0.8102152,-0.1461615,-0.1120458,-0.1726537,0.09561949,-0.06297378,0.3174788,-0.575159,-0.877399
0.8090396,-0.1189107,-0.1168471,-0.1737318,0.1248927,-0.07010181,0.3019573,-0.4874571,-0.8355325
0.8080594,-0.1082078,-0.1449859,-0.1746116,0.1376274,-0.1005438,0.3091694,-0.4677321,-0.8231003
0.8071851,-0.1145083,-0.1593217,-0.1753742,0.1333552,-0.1171502,0.2868334,-0.4264745,-0.7567475
0.8287511,-0.1283732,-0.1861947,-0.1536775,0.121503,-0.1462517,0.2811077,-0.3013715,-0.6475052
0.86885,-0.1291286,-0.2142605,-0.1134223,0.1227338,-0.176494,0.3311295,-0.05189257,-0.5008905
0.912316,-0.1319943,-0.2137408,-0.06976984,0.1218178,-0.1780885,0.3816124,0.141991,-0.3413574
0.9119563,-0.1302654,-0.1928106,-0.06991088,0.1254509,-0.1592001,0.4208156,0.1365943,-0.218394
0.9033154,-0.112764,-0.1663049,-0.07829969,0.1448026,-0.1346548,0.4219353,0.038602,-0.1034837
0.9417153,-0.09697357,-0.1783086,-0.03961389,0.1623812,-0.1485304,0.4049273,-0.07019908,-0.07005531
0.9914483,-0.09271147,-0.1932077,0.01043817,0.1683612,-0.1652066,0.3950452,-0.08162143,-0.1234602
1.037787,-0.09289439,-0.1789305,0.05712635,0.1698177,-0.1526057,0.3817267,-0.00075427,-0.1459195
1.046256,-0.0688036,-0.171416,0.06597142,0.1954619,-0.1466616,0.3710911,0.03075668,-0.1450427
1.004661,-0.02882891,-0.1561304,0.0247721,0.2368963,-0.1328359,0.3440892,0.01643617,-0.09254559
0.975333,-0.005677015,-0.1444994,-0.0041436,0.2614059,-0.1225512,0.3226262,-0.00634762,0.03838346
0.9510337,0.01191126,-0.1513629,-0.02801807,0.2802407,-0.1306454,0.275926,-0.04055909,0.1597182
0.9415816,0.03375637,-0.1507448,-0.03703389,0.303212,-0.1311407,0.1799874,-0.07624803,0.2343444
0.9690591,0.04145224,-0.1564918,-0.009109358,0.3119044,-0.1378826,0.1218175,-0.08204517,0.2571172
1.012045,0.009762567,-0.1600349,0.03433329,0.2810726,-0.1423009,0.1077103,-0.05205715,0.2284232
1.072458,-0.03871481,-0.1581338,0.0952097,0.2333073,-0.1411544,0.1145186,-0.04928457,0.1762994
1.08353,-0.05712817,-0.1730605,0.1067469,0.2154555,-0.1567145,0.1063435,-0.06349883,0.1226579
1.072449,-0.06601011,-0.18221,0.0961274,0.2069823,-0.1663755,0.02270252,-0.1030956,0.09407517
1.135484,-0.08153804,-0.200425,0.1596132,0.1917091,-0.1849791,-0.08356993,-0.2402129,0.09086607
1.221098,-0.122897,-0.236991,0.2456585,0.1504514,-0.2218096,-0.123061,-0.3952637,0.07720895
1.348381,-0.2230905,-0.2578951,0.3733445,0.05020825,-0.2428517,-0.07787494,-0.4355039,0.06492992
1.474407,-0.2893708,-0.2857401,0.4997296,-0.01626649,-0.2707052,0.01171959,-0.3272107,0.07802563
1.475245,-0.2698988,-0.3242406,0.5008616,0.002875672,-0.3090807,0.09304459,-0.1741071,0.08909472
1.44103,-0.2658901,-0.3323874,0.4668568,0.006429767,-0.316964,0.085973,-0.1098262,0.1137988
1.39087,-0.2964826,-0.3181573,0.4168028,-0.02473176,-0.3023271,0.03714266,-0.09848084,0.1429053
1.304838,-0.3125938,-0.3174009,0.3307575,-0.04151596,-0.3010162,0.07442736,-0.006756748,0.1204427
1.271252,-0.3155904,-0.3063763,0.2970286,-0.04527857,-0.2892858,0.09356102,0.2633281,0.09166119
1.177585,-0.3100278,-0.2402283,0.2030822,-0.04056393,-0.2222791,0.06896004,0.6311934,0.08971363
0.9898536,-0.3040496,-0.1695591,0.01493431,-0.03550536,-0.1505988,0.02706738,0.9048075,0.1143017
0.9435233,-0.2964367,-0.1557365,-0.03194469,-0.02887406,-0.1356165,-0.1135399,1.052344,0.1666535
0.9686656,-0.2656656,-0.1441577,-0.007473149,0.0008621981,-0.1227359,-0.18483,1.080362,0.1734514
0.8689544,-0.2108147,-0.08574734,-0.1079651,0.05463212,-0.06288878,-0.1760916,0.9023006,0.1381727
0.8447735,-0.1690503,-0.06513337,-0.1330233,0.09527423,-0.04071231,-0.1937365,0.6184316,0.1220983
0.9188246,-0.1680326,-0.08967524,-0.0599315,0.09513081,-0.06357608,-0.1566305,0.4841126,0.1207938
0.9013431,-0.1621828,-0.06805055,-0.07844094,0.09978208,-0.04016801,-0.1559374,0.4535506,0.1240327
0.8942269,-0.1483012,-0.06448029,-0.08664159,0.1124286,-0.03471912,-0.1583153,0.4249917,0.1032252
0.8818141,-0.1637102,-0.08031751,-0.1001842,0.09574855,-0.04859233,-0.1148368,0.5304124,0.05340317
0.8303013,-0.1585128,-0.04798458,-0.1528606,0.09963992,-0.01421965,-0.1199281,0.676609,0.01714141
0.8436666,-0.1445223,-0.03549534,-0.1406808,0.1122901,0.0003754433,-0.09393429,0.733003,0.02105128
0.8402544,-0.1533295,-0.02816585,-0.1452882,0.1021091,0.009866839,-0.09288031,0.8338623,0.05434287
0.8286285,-0.1455032,-0.01401251,-0.1581075,0.1085289,0.02622788,-0.1595937,0.9475933,0.07454775
0.8366835,-0.148711,-0.01698168,-0.1512333,0.1038826,0.02550197,-0.2348421,0.9152536,0.07371828
0.8153973,-0.1571308,0.007048124,-0.1736772,0.09399325,0.05180046,-0.3215308,0.804758,0.05023049
0.8199273,-0.1584391,0.0377199,-0.1702719,0.09118545,0.08475609,-0.3205366,0.7248656,0.009564274
0.8346739,-0.185627,0.06096455,-0.1566078,0.06246977,0.1102889,-0.2564119,0.6654022,0.001526258
0.8530897,-0.2081169,0.06188605,-0.1392239,0.03842614,0.1134914,-0.1648719,0.655077,0.02363323
0.8866571,-0.2213286,0.05312909,-0.1066313,0.02363821,0.106997,-0.0450771,0.6394192,0.0600603
0.901979,-0.2177129,0.08501294,-0.09222205,0.02565945,0.1411143,0.01179887,0.5391898,0.1136819
0.9138316,-0.2056552,0.1139036,-0.08121672,0.03610869,0.1721986,0.06811622,0.398582,0.1721561
0.9123663,-0.2241908,0.1341625,-0.08346193,0.01595448,0.1946001,0.1482342,0.2212965,0.2513507
0.9054289,-0.2380184,0.1547228,-0.09111012,0.0005022676,0.2172405,0.2234364,0.09759517,0.338373
0.9092017,-0.2518057,0.1678386,-0.08797763,-0.0149113,0.2323622,0.3314968,0.03998983,0.392213
0.9118878,-0.2632723,0.1993957,-0.0858601,-0.02800085,0.2658392,0.4401902,-0.04529554,0.4100655
0.9236645,-0.2551828,0.2131612,-0.07457947,-0.02152588,0.2814266,0.5303552,-0.1027211,0.4047664
0.9278538,-0.2640005,0.2023743,-0.07081366,-0.0319446,0.2723521,0.5762553,-0.1722769,0.3896118
0.9155818,-0.2599951,0.196181,-0.08343655,-0.02952176,0.2677506,0.5785628,-0.2146575,0.3716059
0.9080263,-0.2455438,0.1958969,-0.09127084,-0.01663041,0.2689282,0.5702552,-0.2047776,0.3482149
0.9154489,-0.2492415,0.2009506,-0.08405478,-0.02186133,0.2753049,0.5594443,-0.2815118,0.3232756
0.9358147,-0.2452754,0.203186,-0.06382376,-0.01939851,0.2787172,0.5768297,-0.3305869,0.3064556
0.9616367,-0.2506297,0.2133122,-0.03806586,-0.02622308,0.2898671,0.5899648,-0.3286725,0.2953631
0.9889271,-0.2646472,0.2146158,-0.01077127,-0.04167505,0.292035,0.5851433,-0.3742468,0.2841735
1.002093,-0.2736318,0.2002574,0.002463516,-0.05205502,0.2783756,0.5747508,-0.4244831,0.2796635
1.005854,-0.2854578,0.1831423,0.006353294,-0.06523413,0.2617899,0.5370283,-0.4675206,0.3193695
1.050207,-0.2940413,0.1437167,0.05089051,-0.07512456,0.2227212,0.513668,-0.4281812,0.4309549
1.165069,-0.3164806,0.1178015,0.1659851,-0.09882092,0.1969894,0.5143122,-0.3450074,0.5551582
1.276848,-0.3303194,0.1310758,0.2780337,-0.1138625,0.2102745,0.5136524,-0.2650647,0.6022284
1.274344,-0.2986794,0.1539025,0.2758244,-0.08336641,0.2329412,0.4872433,-0.09865407,0.5507777
1.183434,-0.2728824,0.1862131,0.1852168,-0.05865093,0.2649222,0.3862251,0.03965502,0.5097094
1.094171,-0.2877019,0.2339322,0.09625233,-0.07448704,0.3121424,0.2540165,0.05091027,0.5528439
1.060305,-0.3080429,0.269723,0.06267201,-0.0957779,0.3472637,0.2057483,-0.05224353,0.5718019
1.125403,-0.3349871,0.257778,0.1280382,-0.1236031,0.3344762,0.2515228,-0.2295352,0.5491717
1.214106,-0.3836037,0.2217962,0.216987,-0.1730286,0.2974765,0.3026719,-0.3478483,0.5175098
1.230473,-0.4156085,0.1854293,0.2335694,-0.2057654,0.2599159,0.3686677,-0.4098653,0.4133401
1.182309,-0.4241516,0.1425089,0.1855809,-0.2149578,0.2156276,0.4344644,-0.4607758,0.2811544
1.040715,-0.4395518,0.1123424,0.04411563,-0.2309181,0.183923,0.4295229,-0.5119757,0.1272351
0.8380582,-0.4656563,0.07610236,-0.1584605,-0.2574866,0.145981,0.441477,-0.6697688,-0.09208679
0.7313003,-0.5070458,0.01742459,-0.2651808,-0.2992371,0.08544557,0.4581816,-0.9293273,-0.2939091
0.7697596,-0.5559472,-0.04996077,-0.2267141,-0.3483885,0.01605751,0.4504276,-1.118438,-0.4632636
0.8688885,-0.5833147,-0.1095478,-0.1275947,-0.3758857,-0.04566388,0.5626719,-1.141652,-0.6154355
0.9688136,-0.5606399,-0.1375685,-0.02768569,-0.3532105,-0.07593465,0.7618769,-1.106086,-0.7092479
1.028883,-0.4977046,-0.1695283,0.03236599,-0.2901358,-0.1102427,0.930474,-1.107219,-0.7846203
1.0293,-0.439594,-0.1988643,0.03276286,-0.2317411,-0.1420068,1.043705,-1.085139,-0.8835066
1.027054,-0.3821604,-0.181265,0.03049529,-0.1738763,-0.1268968,1.121728,-0.9967724,-0.9676082
1.005086,-0.3067683,-0.1638831,0.00850194,-0.09790753,-0.1120475,1.162635,-0.8776968,-1.018805
0.9503512,-0.2389993,-0.1662376,-0.04626231,-0.02942142,-0.1169616,1.114859,-0.8002818,-1.065791
0.9335041,-0.211202,-0.1633002,-0.06314149,-0.0007753785,-0.1165957,1.075374,-0.752179,-1.095514
0.9050491,-0.188213,-0.1542956,-0.09162822,0.0231834,-0.1101606,1.079115,-0.6428537,-1.081841
0.8581344,-0.1429001,-0.1405166,-0.1385702,0.06957483,-0.09893656,1.074237,-0.5260548,-1.052904
0.8231356,-0.1476107,-0.1304158,-0.173586,0.0660385,-0.09136484,1.132305,-0.4595034,-1.014721
0.77553,-0.1723781,-0.1213095,-0.2211911,0.04252788,-0.0847518,1.214983,-0.3738131,-0.9550308
0.7786186,-0.1598612,-0.106154,-0.2180757,0.05637177,-0.07204477,1.290223,-0.2918326,-0.8786794
0.8134155,-0.1308501,-0.1012059,-0.1832168,0.08676835,-0.06949308,1.356805,-0.2718531,-0.7884912
0.844964,-0.05454718,-0.1149954,-0.1515637,0.1645031,-0.08562016,1.353087,-0.2628032,-0.7048353
0.8928279,-0.001065704,-0.1219324,-0.1035476,0.219449,-0.09482988,1.312782,-0.2435527,-0.5947492
0.9222276,0.008335934,-0.1170498,-0.07394524,0.2303316,-0.09214881,1.225922,-0.2251974,-0.4245279
0.948241,0.061121,-0.1197157,-0.04767813,0.2845974,-0.09693964,1.081813,-0.1940923,-0.2469045
0.9737435,0.1101987,-0.1191653,-0.02187235,0.335138,-0.09843232,0.9020826,-0.1840354,-0.1121849
1.002597,0.1287483,-0.1019033,0.007331777,0.3551142,-0.08312702,0.7050319,-0.1733318,-0.09678376
1.02985,0.1106827,-0.06603048,0.03497798,0.3384201,-0.04912086,0.5488283,-0.1297462,-0.1727068
1.024573,0.08163706,-0.03312569,0.03013244,0.3106738,-0.01799093,0.3944858,-0.1040596,-0.1855913
1.029026,0.09839788,-0.03463126,0.03504977,0.3286463,-0.02117937,0.2526948,-0.02045291,-0.1374285
1.029647,0.09380981,-0.05996283,0.03616147,0.3251687,-0.04810249,0.1170061,0.1356037,-0.04745391
1.019834,0.06424192,-0.08457215,0.02686113,0.2965979,-0.07421239,-0.07355522,0.1965366,0.09173067
1.01925,0.02965822,-0.08816921,0.02680797,0.2628874,-0.07921852,-0.1728916,0.1914418,0.1841754
0.999518,-0.02183875,-0.07392046,0.007620192,0.2121321,-0.06628645,-0.1564098,0.1968477,0.2192386
0.9979929,-0.0413362,-0.06934381,0.006649157,0.19324,-0.06293345,-0.1444162,0.1631864,0.2721476
1.018695,-0.05719904,-0.07293873,0.02791293,0.1778437,-0.06765897,-0.1010469,0.1373657,0.3746746
1.055533,-0.08000182,-0.08429913,0.06531555,0.1553679,-0.08005711,-0.02786333,0.1509385,0.459937
1.119436,-0.07733821,-0.1233664,0.1297831,0.1582195,-0.1200691,-0.01810994,0.1235396,0.4608152
1.149413,-0.06344278,-0.1611841,0.1603183,0.1721651,-0.1587373,-0.1147286,-0.03995102,0.4094076
1.173802,-0.04753854,-0.1499552,0.1852498,0.1879831,-0.1482625,-0.2408751,-0.3055892,0.3228194
1.248879,-0.08068324,-0.1368881,0.2608445,0.1546167,-0.1358503,-0.2906566,-0.4831277,0.2662095
1.324368,-0.1361747,-0.1729671,0.3368139,0.09877026,-0.1724827,-0.2808455,-0.5438857,0.3068623
1.388056,-0.1432807,-0.2129361,0.4009332,0.09117996,-0.2129013,-0.2870896,-0.5592784,0.3888792
1.459432,-0.1634325,-0.2374363,0.4726728,0.07042018,-0.2377437,-0.3059283,-0.5043857,0.4800918
1.473888,-0.1998532,-0.2425666,0.4874076,0.03327431,-0.2431042,-0.2999791,-0.4400366,0.5552619
1.42268,-0.2246291,-0.2256382,0.4363745,0.007664008,-0.2262895,-0.3293524,-0.3390426,0.5747738
1.366842,-0.279992,-0.2211574,0.3805913,-0.04863324,-0.2218018,-0.3845805,-0.03811745,0.5804239
1.248925,-0.3116909,-0.2092055,0.262597,-0.08135553,-0.2097197,-0.3939978,0.3797044,0.590017
1.09049,-0.2876289,-0.1928058,0.1039462,-0.0583939,-0.1930647,-0.4330205,0.6511218,0.5801061
1.01812,-0.2641426,-0.1708016,0.03122299,-0.03607302,-0.1706797,-0.5239127,0.7767645,0.5721161
1.003217,-0.2242892,-0.1122098,0.01583633,0.002560221,-0.1115825,-0.6141606,1.002022,0.5308365
0.9817652,-0.1564853,-0.08909316,-0.006221178,0.06909697,-0.08783908,-0.7040404,1.226964,0.4299594
0.942356,-0.1049367,-0.09092911,-0.04634732,0.1193364,-0.08893181,-0.8216716,1.267405,0.3410381
0.9101929,-0.09777137,-0.07270853,-0.0793271,0.1251528,-0.06985749,-0.970123,1.277939,0.2843587
0.898455,-0.1457953,-0.07415534,-0.09196891,0.07574108,-0.07034632,-1.005493,1.206412,0.2763262
0.8570926,-0.2102856,-0.05731273,-0.1343091,0.009825955,-0.05244806,-0.8838844,1.087584,0.3036315
0.7837402,-0.239866,-0.03373363,-0.208699,-0.02121201,-0.02772259,-0.7446539,1.13146,0.2903748
0.6999677,-0.2393372,-0.02536202,-0.2935523,-0.02216719,-0.01812153,-0.652479,1.152511,0.2511984
0.6658586,-0.2324917,-0.005201007,-0.3287668,-0.01682535,0.003343846,-0.6341764,1.127763,0.181304
0.6860233,-0.2317303,-0.01148019,-0.3097117,-0.01758065,-0.001564618,-0.6486085,1.174726,0.08619888
0.6686922,-0.2292514,-0.009530805,-0.3281371,-0.01662554,0.001813362,-0.6524433,1.174745,0.0376767
0.6838807,-0.2247821,0.01635161,-0.314009,-0.01368148,0.0291739,-0.7054595,1.116627,0.01787466
0.7455583,-0.2279517,0.02368242,-0.2533417,-0.01837277,0.03802389,-0.8024871,0.977937,0.01919024
0.7612108,-0.2300752,0.03741788,-0.2386353,-0.02200963,0.0533108,-0.8882272,0.7563622,0.06063462
0.8169121,-0.2479927,0.05032472,-0.1838055,-0.04142741,0.06779236,-0.9119777,0.6180341,0.1044765
0.9104468,-0.2772115,0.06305121,-0.09106019,-0.07212838,0.08210772,-0.869078,0.5874421,0.1087213
0.9231847,-0.2805517,0.07422422,-0.07902603,-0.07692726,0.09487453,-0.8329718,0.5565231,0.05939238
0.9049894,-0.2845594,0.06691613,-0.09783869,-0.08236399,0.08915599,-0.8115715,0.5164785,0.005314191
0.9300549,-0.3193088,0.09211512,-0.07330411,-0.1185069,0.1159314,-0.7592542,0.4711291,-0.01694037
0.9443732,-0.3564061,0.1416114,-0.05943101,-0.1569554,0.166982,-0.663198,0.3867753,-0.01782508
0.9330897,-0.3566681,0.1715439,-0.07107536,-0.1585187,0.1984366,-0.5753136,0.2778912,-0.01876186
0.9379164,-0.3131109,0.1859774,-0.06652672,-0.1162056,0.2143491,-0.5657975,0.1632826,-0.03416432
0.9233272,-0.256552,0.1875251,-0.08131306,-0.06082742,0.2173213,-0.5717777,0.1102808,-0.01748268
0.9117575,-0.2216489,0.1961749,-0.09300038,-0.02703847,0.22733,-0.5270593,0.1013507,0.02955528
0.9362749,-0.2123111,0.2094339,-0.06852214,-0.01874744,0.2418717,-0.4878793,0.0206346,0.06784568
0.9385769,-0.2027524,0.2113328,-0.0661824,-0.01016875,0.2449672,-0.4795798,-0.08690333,0.1124563
0.9308448,-0.1997869,0.2129025,-0.07380194,-0.008118049,0.2476379,-0.4798137,-0.2027541,0.1579486
0.9304103,-0.2160664,0.2137114,-0.07405116,-0.02524866,0.2494433,-0.4767413,-0.2836064,0.2047022
0.9468281,-0.2300762,0.2098699,-0.05737737,-0.04004719,0.246486,-0.4793197,-0.2656281,0.2245899
0.9886081,-0.2512753,0.1852037,-0.01527357,-0.06197318,0.2225847,-0.4963742,-0.2749586,0.2075494
1.035251,-0.2787526,0.1411756,0.03175698,-0.09011555,0.179197,-0.5213129,-0.2619811,0.2126243
1.158971,-0.2915467,0.1202103,0.1559222,-0.1035116,0.1587444,-0.5693419,-0.1978373,0.2314885
1.317183,-0.2982207,0.1259779,0.3146248,-0.1107224,0.1648959,-0.6028811,-0.2098629,0.3149432
1.353591,-0.320155,0.1220397,0.3515533,-0.133126,0.1612127,-0.5874329,-0.1672464,0.4919273
1.315048,-0.3824793,0.1194092,0.3135417,-0.1958492,0.1587085,-0.5907327,0.001825514,0.5678879
1.273458,-0.4522961,0.166626,0.2724742,-0.2659898,0.2059233,-0.6065846,0.1130848,0.4694865
1.217259,-0.4865363,0.2075885,0.2167744,-0.3004713,0.2467552,-0.5680611,-0.0437058,0.3516379
1.235138,-0.4915473,0.1493711,0.2351146,-0.3056324,0.1882773,-0.5173351,-0.3859638,0.2766808
1.284884,-0.4762003,0.07437362,0.2852743,-0.2903352,0.112889,-0.4903088,-0.5630069,0.2123424
1.209711,-0.4718803,0.05927375,0.2104562,-0.2859564,0.09727061,-0.4318369,-0.6014368,0.1328951
1.092133,-0.4594467,0.0210219,0.09316685,-0.2733487,0.05837748,-0.3611842,-0.6764115,-0.02007371
0.9659074,-0.4154801,-0.0302288,-0.0328401,-0.2290872,0.006369648,-0.3525873,-0.7469971,-0.2115541
0.8347977,-0.4029176,-0.03228428,-0.1637986,-0.2161056,0.003449769,-0.364869,-0.7874674,-0.3701937
0.8384334,-0.4254737,-0.05072715,-0.1600703,-0.238117,-0.01595508,-0.3350919,-0.7388431,-0.5181508
0.8803779,-0.430951,-0.09205201,-0.1180803,-0.2429223,-0.05832919,-0.2446922,-0.7175613,-0.6241867
0.8934596,-0.3793521,-0.1225102,-0.10499,-0.1905237,-0.08991271,-0.09190561,-0.8159181,-0.6912652
0.9234996,-0.2949144,-0.1612965,-0.07496969,-0.1051591,-0.129888,0.04839053,-0.8451818,-0.7318201
0.9121356,-0.2596245,-0.1695251,-0.08637486,-0.06881937,-0.1393558,0.1378342,-0.73895,-0.7619264
0.8963104,-0.2477464,-0.1405121,-0.1022566,-0.05577528,-0.1116187,0.1982081,-0.5535259,-0.9169922
0.8534905,-0.2089768,-0.1060982,-0.1451418,-0.01573186,-0.07850507,0.1972482,-0.4876027,-1.080189
0.7923358,-0.1667776,-0.09076606,-0.2063634,0.02783921,-0.06448721,0.1533744,-0.6212006,-1.070044
0.8000362,-0.1231557,-0.1355273,-0.1987224,0.07291977,-0.1105679,0.0975549,-0.6685218,-0.9740754
0.8077109,-0.08137802,-0.1860489,-0.1910898,0.1162301,-0.1624053,0.0063808,-0.4963403,-0.8601712
0.7973183,-0.06994635,-0.1835399,-0.2014982,0.1292541,-0.1611981,-0.07980959,-0.2409879,-0.7730936
0.7779816,-0.07378598,-0.1638184,-0.2208161,0.1270518,-0.1427543,-0.1483246,-0.1619932,-0.6801523
0.7446154,-0.06070849,-0.1575366,-0.2541204,0.1417972,-0.1377163,-0.2195529,-0.3128481,-0.5208069
0.7504732,-0.05775655,-0.1634236,-0.2481486,0.1464338,-0.1448049,-0.2709945,-0.3957431,-0.3687166
0.8017897,-0.06443601,-0.1698163,-0.1966578,0.1414428,-0.1523495,-0.2915944,-0.2949099,-0.2292817
0.8914339,-0.06899362,-0.1746786,-0.106773,0.138565,-0.1583067,-0.2555129,-0.1274783,-0.09512337
0.9821229,-0.09990151,-0.1704751,-0.01577502,0.1093173,-0.1551344,-0.1982629,0.03368107,-0.01938538
1.02346,-0.108644,-0.1603471,0.02593711,0.1022059,-0.1459675,-0.1648006,0.114106,-0.01466246
1.019159,-0.07808683,-0.1629306,0.02207174,0.1343568,-0.1494368,-0.1582447,0.02996431,-0.03914861
1.011407,-0.05516272,-0.1767409,0.01480972,0.1588293,-0.1640529,-0.2093727,-0.1154807,-0.0498493
1.026914,-0.04574663,-0.2012758,0.03085471,0.1697402,-0.1893089,-0.2368626,-0.1695639,-0.0684526
1.028861,-0.05753393,-0.2131472,0.03338121,0.1593855,-0.2018117,-0.2067868,-0.1198351,-0.06482768
1.006414,-0.0585202,-0.1923404,0.01154934,0.1597619,-0.1815417,-0.1858726,-0.006868234,-0.01473245
0.9820935,-0.03308616,-0.1722797,-0.01212646,0.1864815,-0.1619189,-0.1551605,0.02000567,0.04607138
0.9731697,-0.01023402,-0.1707068,-0.02037883,0.2105352,-0.1606819,-0.1356681,0.02121475,0.132332
0.9834711,0.001771375,-0.1687805,-0.009382811,0.2236506,-0.1589877,-0.129831,0.0618347,0.1898095
0.995173,-0.007851666,-0.1566618,0.003033824,0.2150388,-0.146996,-0.1109236,-0.05319737,0.1912207
1.051241,-0.01952435,-0.1537505,0.05983311,0.2042718,-0.1441058,-0.08862386,-0.1660144,0.1968726
1.164685,-0.04917311,-0.1879352,0.1740202,0.1754175,-0.1782058,-0.06099052,-0.1644116,0.1968764
1.244665,-0.09714999,-0.23125,0.2547443,0.1281204,-0.2213292,-0.07068278,-0.1561357,0.1988104
1.27741,-0.0969508,-0.2284917,0.2882232,0.1288831,-0.2182709,-0.1084784,-0.1436104,0.1801174
1.347686,-0.09618626,-0.2175518,0.3592074,0.1300947,-0.2069205,-0.1484183,-0.2266977,0.1425971
1.439544,-0.1255695,-0.2461312,0.4517308,0.101043,-0.2349765,-0.1988584,-0.2892277,0.1807819
1.464342,-0.1329771,-0.2621436,0.4771317,0.09385277,-0.2503509,-0.2603806,-0.2328846,0.2670139
1.448791,-0.1459193,-0.2579829,0.4621016,0.08101651,-0.2454353,-0.3394438,-0.1616727,0.3823793
1.409748,-0.1649771,-0.2748577,0.4234766,0.06195657,-0.261436,-0.3715006,-0.04889828,0.5100092
1.329157,-0.1822792,-0.2922824,0.3431855,0.04454835,-0.2778652,-0.4139768,0.1295703,0.5269351
1.286134,-0.2190728,-0.288648,0.3003328,0.00754984,-0.2731117,-0.5515557,0.4511245,0.4532452
1.23169,-0.2297312,-0.278714,0.2459207,-0.0034057,-0.261933,-0.6710251,0.872439,0.4074459
1.077499,-0.2333628,-0.2734522,0.09162086,-0.007419732,-0.2552996,-0.7746202,1.206446,0.4363657
0.9852119,-0.2455404,-0.2577333,-0.0009147435,-0.02005737,-0.238082,-0.8983061,1.474511,0.4567713
1.014889,-0.2199076,-0.2270466,0.02838138,0.005045124,-0.2057701,-0.9885251,1.704939,0.3820817
0.9776742,-0.2125856,-0.1604942,-0.009335879,0.01177343,-0.1374686,-1.055872,1.693591,0.3111574
0.8910921,-0.2190815,-0.05610542,-0.09653284,0.004626449,-0.03121217,-1.06897,1.377671,0.3034604
0.8930823,-0.2051359,-0.0155526,-0.09525712,0.01786903,0.01131761,-1.032953,1.113624,0.3266587
0.8958284,-0.2227818,-0.03696295,-0.09331148,-0.0005267079,-0.008018504,-0.9784867,1.094134,0.3594194
0.8562164,-0.2422064,-0.04881924,-0.1337964,-0.02074261,-0.01771575,-0.8768076,1.12559,0.3533611
0.812168,-0.2567807,-0.06831661,-0.1787765,-0.03614397,-0.0349807,-0.7568586,1.074643,0.3163831
0.7438697,-0.2830231,-0.04797477,-0.24805,-0.06324296,-0.01234334,-0.6389562,1.057255,0.2566562
0.7082753,-0.2847462,-0.0008358616,-0.2846465,-0.06584504,0.03714409,-0.5591836,1.163648,0.2002409
0.6913369,-0.2739495,0.008054623,-0.3025956,-0.05594271,0.04842527,-0.5457311,1.224317,0.188075
0.6739265,-0.2524307,0.03931905,-0.321007,-0.03532708,0.08211085,-0.5399576,1.210886,0.1754656
0.7024288,-0.2258964,0.08773779,-0.2934781,-0.009699309,0.1329687,-0.5543102,1.135036,0.171123
0.7234842,-0.204917,0.1126183,-0.2733523,0.01037395,0.1602929,-0.6128883,0.9507802,0.17887
0.748711,-0.1807237,0.1255064,-0.2489972,0.03366413,0.1756147,-0.6835606,0.7730382,0.168099
0.7974428,-0.1719565,0.1212763,-0.2010678,0.04153225,0.1737942,-0.742951,0.5776202,0.1580217
0.8408584,-0.1865717,0.1308413,-0.1583765,0.02602258,0.1857305,-0.7463058,0.4224019,0.1385629
0.891544,-0.2355532,0.160714,-0.1083316,-0.02384801,0.2179232,-0.7118356,0.3549448,0.1206865
0.9134381,-0.3087044,0.189213,-0.08699203,-0.09788061,0.2486778,-0.6543449,0.2709608,0.08607962
0.9170122,-0.3608157,0.2077335,-0.08388558,-0.1508606,0.2693759,-0.5173514,0.2298717,0.004902233
0.9216972,-0.3641231,0.2002051,-0.07958175,-0.1550165,0.2639336,-0.3805124,0.1583201,-0.056247
0.9147907,-0.3255917,0.1965914,-0.08678407,-0.1173053,0.262302,-0.3342694,0.03615436,-0.07338744
0.9207731,-0.278519,0.1974762,-0.08101315,-0.07101759,0.2650533,-0.323283,-0.02159195,-0.05963126
0.9113559,-0.2408243,0.1849967,-0.09055864,-0.03406822,0.2543144,-0.3354584,-0.0515351,-0.02206594
0.8952414,-0.2292941,0.1998127,-0.1067194,-0.02324164,0.270736,-0.3538604,-0.06713153,0.01656043
0.9057073,-0.2163782,0.234586,-0.09621872,-0.01098703,0.3069715,-0.3263304,-0.1158828,0.0363196
0.9128793,-0.1897343,0.2519831,-0.08893174,0.01503743,0.3256788,-0.2999557,-0.1827576,0.00774278
0.9318092,-0.2123351,0.2338859,-0.06980789,-0.008142216,0.3087315,-0.2942729,-0.1738905,-0.0253965
0.9914881,-0.2583365,0.1894433,-0.009858795,-0.05468294,0.2652707,-0.2668807,-0.1728978,-0.01044784
1.11616,-0.3027141,0.1642989,0.1151552,-0.09955998,0.2409349,-0.2204856,-0.246767,0.0753926
1.281144,-0.3402814,0.1570946,0.2805421,-0.1375844,0.2343632,-0.1744222,-0.2905964,0.2551625
1.332143,-0.3300983,0.1623937,0.3319913,-0.1278121,0.2401173,-0.1736001,-0.208277,0.3837962
1.249669,-0.3508041,0.172275,0.2499946,-0.1488781,0.2502753,-0.2414071,-0.0596729,0.374402
1.208784,-0.4177971,0.1542949,0.2095974,-0.2161755,0.2323933,-0.3083268,-0.0086281,0.3767778
1.235325,-0.4682712,0.1444385,0.2366215,-0.266892,0.2224569,-0.3021061,-0.140471,0.4162267
1.27195,-0.5063515,0.1445911,0.2737124,-0.3051441,0.2223526,-0.2126776,-0.3833995,0.4047913
1.311377,-0.4917283,0.1033488,0.313574,-0.2906126,0.1806787,-0.08289222,-0.6082687,0.3379794
1.254718,-0.455524,0.03760585,0.2573057,-0.2544103,0.1143335,0.0006262903,-0.7058694,0.2201258
1.111944,-0.4307876,-0.01075675,0.1148659,-0.2295789,0.06520439,-0.005288319,-0.6812879,0.06066398
1.004491,-0.3851977,-0.03719852,0.007685028,-0.1837919,0.03784101,-0.009397584,-0.650405,-0.1186264
0.9255842,-0.3706604,-0.06604748,-0.07101079,-0.1689526,0.007926332,0.02230697,-0.6133987,-0.2948942
0.8952777,-0.3731286,-0.08352263,-0.1011633,-0.1710129,-0.01074649,0.02029133,-0.5800289,-0.4654266
0.9057615,-0.3665538,-0.08673026,-0.09057462,-0.1639242,-0.01527097,0.06662382,-0.6751279,-0.6307206
0.9040879,-0.3578541,-0.1066593,-0.09218438,-0.1546051,-0.03662308,0.1696507,-0.8151642,-0.6985482
0.9420044,-0.3022963,-0.1275788,-0.05423792,-0.09832423,-0.05905883,0.2377296,-0.8310847,-0.6761683
0.9710798,-0.2402844,-0.1516612,-0.0251602,-0.03548851,-0.08473726,0.3113456,-0.7422469,-0.7210028
0.9283998,-0.1980642,-0.1606742,-0.06786126,0.007650132,-0.09541226,0.3026873,-0.6044209,-0.8184865
0.8791191,-0.15787,-0.1336867,-0.1171815,0.04884875,-0.07013902,0.2219519,-0.4887583,-0.8916642
0.8499226,-0.1338246,-0.114401,-0.1464299,0.07397429,-0.0526073,0.189943,-0.4823002,-0.9418962
0.8362078,-0.1169451,-0.1024553,-0.1602015,0.09199809,-0.04244443,0.09203986,-0.5117802,-0.9292574
0.8306991,-0.1166797,-0.1095741,-0.1657636,0.09346024,-0.05136516,-0.01468544,-0.4512456,-0.8716634
0.8287831,-0.1179175,-0.1272971,-0.1677212,0.09345964,-0.0709003,-0.04850486,-0.3121018,-0.7996789
0.8193353,-0.1105429,-0.1148636,-0.1771911,0.1021008,-0.06028049,-0.08915957,-0.2099514,-0.7281605
0.7973866,-0.1118604,-0.119139,-0.1991345,0.1020686,-0.0663626,-0.07755165,-0.2667356,-0.6859988
0.7971366,-0.09582115,-0.1386955,-0.1993444,0.1194017,-0.08771108,-0.06173174,-0.3526838,-0.5940184
0.81881,-0.0714184,-0.1449914,-0.1775886,0.1450967,-0.09577639,-0.07793226,-0.2691222,-0.426172
0.8587608,-0.06851226,-0.1454822,-0.137507,0.1492834,-0.09800614,-0.04781132,-0.1667765,-0.2473483
0.9002876,-0.08306852,-0.1259024,-0.09579671,0.1359861,-0.08012744,0.0006854643,-0.08546147,-0.08830094
0.9229939,-0.08295802,-0.1182494,-0.07285264,0.1373245,-0.07413129,0.07165368,0.02912999,0.01542886
0.9595192,-0.03992996,-0.1330656,-0.03603539,0.1815411,-0.09055459,0.09763622,0.006627191,0.0876141
0.9981584,-0.0003511669,-0.1427687,0.002947905,0.22226,-0.1018098,0.02509839,-0.07599724,0.1288652
1.018641,-0.01178041,-0.1452447,0.02382306,0.2119129,-0.1057778,-0.02186359,-0.1506482,0.1002947
1.036747,-0.02708659,-0.1456083,0.04236464,0.1976213,-0.1075683,-0.02768371,-0.2424204,0.06075675
1.05023,-0.01380642,-0.159429,0.05632061,0.2118398,-0.1227461,-0.06077218,-0.2348807,0.02470805
1.046392,-0.02497916,-0.1667821,0.0529863,0.2015216,-0.1313818,-0.09844373,-0.2021083,-0.00561503
1.027918,-0.04281537,-0.1619877,0.03504028,0.1844493,-0.127791,-0.08654238,-0.1096416,0.04800226
1.00375,-0.02874769,-0.1636172,0.01141983,0.1991847,-0.1305407,-0.06004894,0.03689034,0.1408166
0.9655452,-0.0297984,-0.1552298,-0.02622183,0.1987007,-0.1231867,-0.06736485,0.03792884,0.1900893
0.9653312,-0.03445104,-0.1434367,-0.02586018,0.1945094,-0.1123372,-0.06516189,-0.01447674,0.2161626
1.016312,-0.04312284,-0.1240783,0.02570775,0.1861898,-0.09383033,-0.05406689,-0.0785525,0.2292398
1.045987,-0.08051652,-0.09551202,0.0559776,0.1490366,-0.06602282,-0.01402677,-0.2289013,0.2543751
1.072553,-0.09323338,-0.1042594,0.08314326,0.1364472,-0.07543654,0.04437226,-0.3871512,0.2911127
1.125443,-0.08109777,-0.1607115,0.1366317,0.1485976,-0.1324631,0.006746918,-0.4270458,0.2918001
1.23584,-0.07387621,-0.2179158,0.2476172,0.1557218,-0.1901497,-0.06226529,-0.3767133,0.2986139
1.369161,-0.06793911,-0.2265845,0.3815068,0.16145,-0.1992056,-0.1177383,-0.411423,0.3376773
1.411698,-0.06433119,-0.2155001,0.4245752,0.1647381,-0.1884097,-0.2369181,-0.4589805,0.3955298
1.460585,-0.07027817,-0.2286951,0.4739396,0.1583608,-0.2017908,-0.3138133,-0.4421677,0.4581993
1.529777,-0.1097109,-0.2326799,0.5435317,0.1183886,-0.2058559,-0.3010901,-0.3753799,0.4572715
1.472474,-0.1728879,-0.2256534,0.4865316,0.0545654,-0.1988014,-0.3185491,-0.2085483,0.4437403
1.353409,-0.2160876,-0.2290761,0.3676539,0.01061805,-0.2020848,-0.3745816,-0.03585548,0.4815386
1.223919,-0.2223295,-0.2258005,0.23822,0.003534314,-0.1985571,-0.4129691,0.285945,0.4965589
1.102918,-0.2273079,-0.2258792,0.1171397,-0.002371631,-0.1982692,-0.4384969,0.7778033,0.5233242
1.053809,-0.2396033,-0.2329024,0.06781589,-0.01567141,-0.2048104,-0.4875378,1.062261,0.5753594
1.025681,-0.2196941,-0.226976,0.03934106,0.003165133,-0.1982861,-0.558853,1.242148,0.5427368
1.017433,-0.1987457,-0.1975889,0.03062376,0.02298069,-0.1681847,-0.6036057,1.489432,0.4591724
1.003953,-0.1943804,-0.1435792,0.01655815,0.02615979,-0.1133459,-0.6221272,1.55764,0.374851
0.9211519,-0.1863453,-0.1043306,-0.06693305,0.03296135,-0.0731568,-0.6653571,1.380745,0.319108
0.8564767,-0.1944238,-0.08728941,-0.1323935,0.02360719,-0.0550691,-0.7024966,1.172938,0.354547
0.8152545,-0.2129229,-0.06598851,-0.1744817,0.003795753,-0.03262298,-0.657762,1.098375,0.369244
0.7516385,-0.2500435,-0.05739075,-0.2390283,-0.03466822,-0.02278926,-0.5564733,1.070082,0.3357324
0.712452,-0.3029623,-0.03981342,-0.279192,-0.0889545,-0.003893714,-0.4283981,1.011963,0.3329633
0.6890786,-0.3334109,-0.00420531,-0.3035702,-0.1207861,0.03310577,-0.2619374,0.9790344,0.2667155
0.6912608,-0.3414789,0.00561765,-0.3024007,-0.1302423,0.04438344,-0.1406109,0.9696217,0.1556072
0.7273931,-0.3224937,0.007066363,-0.2672706,-0.1126405,0.04733985,-0.1054298,0.9854281,0.0708654
0.7647699,-0.2881506,0.01335218,-0.2308688,-0.07966641,0.05517601,-0.09168073,0.9613978,-0.01013097
0.7994771,-0.2565906,0.01297154,-0.197096,-0.04945342,0.05637841,-0.09883975,0.8507781,-0.047943
0.8006218,-0.2305374,0.02105102,-0.1968343,-0.02471979,0.066064,-0.1251954,0.7064715,-0.06543868
0.7949743,-0.234353,0.04623406,-0.2033041,-0.02982372,0.09286684,-0.1396947,0.577851,-0.07621657
0.8170418,-0.2451141,0.09035484,-0.1819901,-0.04183912,0.1386113,-0.1329081,0.5059446,-0.08287183
0.8351752,-0.2418691,0.1211927,-0.1645349,-0.0398115,0.1710661,-0.1097289,0.4317029,-0.1211793
0.8653156,-0.2484862,0.1306439,-0.1349917,-0.04760641,0.1821157,-0.1016329,0.3390102,-0.1276444
0.9101667,-0.2607487,0.1586941,-0.09065379,-0.06100445,0.2117336,-0.07162123,0.2495779,-0.1243843
0.9485424,-0.2732591,0.1766814,-0.05270613,-0.07460514,0.2312457,0.001177934,0.157973,-0.1541964
0.9719279,-0.2697907,0.1603929,-0.02966455,-0.07217877,0.2164269,0.04264741,0.08352091,-0.1708391
0.9742974,-0.2338837,0.1490142,-0.02755783,-0.03726265,0.2064513,0.02914433,-0.01777826,-0.1694274
0.964042,-0.195164,0.1502921,-0.03799831,0.0005187788,0.2090558,-0.02866823,-0.05167224,-0.111029
0.9427247,-0.1782184,0.1619072,-0.05942624,0.01657873,0.221912,-0.09707447,-0.008337443,-0.00110058
0.9370885,-0.1819872,0.1915067,-0.06510125,0.01197513,0.2526586,-0.1174914,-0.02634545,0.09204515
0.9406305,-0.1906957,0.2192774,-0.06152835,0.00248092,0.2814737,-0.09327642,-0.04251112,0.1362028
0.9249301,-0.2001805,0.2291651,-0.07712994,-0.007742437,0.2922941,-0.06886035,-0.08797648,0.1167662
0.9140196,-0.2148505,0.2305277,-0.08787514,-0.02310494,0.2944687,-0.05548437,-0.1909961,0.08404637
0.9095894,-0.2233469,0.2230894,-0.0920748,-0.03224855,0.287713,-0.0472823,-0.2745412,0.06553083
0.9253885,-0.2298176,0.198926,-0.07598067,-0.03932123,0.2640956,-0.06050822,-0.3671274,0.060686
0.969492,-0.230871,0.1713258,-0.03151931,-0.04093122,0.2368992,-0.0712568,-0.446285,0.09983069
1.009734,-0.2332727,0.1495462,0.009140805,-0.04384387,0.2153773,-0.08198327,-0.508928,0.1555716
1.065665,-0.2684839,0.1247173,0.06554496,-0.07951999,0.1906583,-0.1189024,-0.5450776,0.2184747
1.14907,-0.3192727,0.1038814,0.14947,-0.1307261,0.1697845,-0.1318762,-0.5435856,0.3179645
1.230805,-0.3591958,0.1020546,0.2317627,-0.1710158,0.1677733,-0.1263579,-0.5417758,0.4271392
1.312261,-0.4067345,0.1036217,0.3137991,-0.2188653,0.1690117,-0.1109378,-0.4544098,0.5020611
1.383034,-0.4663756,0.09961066,0.3851577,-0.2787545,0.1645306,-0.0669268,-0.2678238,0.5316233
1.378503,-0.4829685,0.1066118,0.3811985,-0.2955239,0.1709232,-0.0325942,-0.1263109,0.5371601
1.327293,-0.4612992,0.1067824,0.3305269,-0.27395,0.1703496,-0.004485314,-0.1278543,0.5344466
1.285921,-0.4505081,0.08518059,0.2896436,-0.2631644,0.1478714,0.002696109,-0.2324273,0.5070348
1.209461,-0.4063779,0.06910197,0.2136074,-0.2189424,0.130788,-0.03525966,-0.3848952,0.4401267
1.188433,-0.3774213,0.06547269,0.1929294,-0.1897918,0.1260304,-0.06225674,-0.599582,0.3626742
1.179633,-0.4203506,0.03906234,0.1843994,-0.2324217,0.09837357,-0.01741402,-0.78608,0.301126
1.023021,-0.435571,-0.01527342,0.02797294,-0.2472347,0.04267979,0.07838572,-0.8437614,0.2101886
0.9517229,-0.4315574,-0.03126984,-0.0432224,-0.2427024,0.02522189,0.1576326,-0.7909803,0.05178035
0.9614399,-0.4448661,-0.02780427,-0.03348143,-0.2553782,0.02713193,0.2268531,-0.6980295,-0.1689394
0.8525237,-0.4429261,-0.07713496,-0.1424442,-0.2526881,-0.02383839,0.2732489,-0.6639906,-0.4450175
0.8257658,-0.4185365,-0.108857,-0.1693092,-0.2274289,-0.05727344,0.3010422,-0.7294823,-0.689005
0.8667417,-0.3425602,-0.09958281,-0.1284891,-0.1504627,-0.04977389,0.3830829,-0.8637017,-0.8029619
0.8920918,-0.1525569,-0.1030771,-0.1316613,-0.004611317,-0.08675738,0.7899375,-0.4442391,-0.9415843
0.8616962,-0.1620056,-0.09544242,-0.1616521,-0.01160848,-0.08140362,0.8135643,-0.3578648,-0.8804526
0.8409725,-0.1522913,-0.0779624,-0.1819584,0.0005850524,-0.06616296,0.8374932,-0.3482636,-0.7674882
0.8362533,-0.1395573,-0.1048825,-0.1862409,0.01581731,-0.09527372,0.8895313,-0.3131035,-0.6344315
0.8376479,-0.1101609,-0.1282322,-0.1843836,0.04772226,-0.1207585,0.9756985,-0.3216609,-0.4981294
0.8096275,-0.07751201,-0.1331128,-0.2119088,0.08288061,-0.1277113,1.017147,-0.3682879,-0.3892551
0.8184444,-0.07634632,-0.1390297,-0.2025577,0.08654654,-0.1356302,1.030199,-0.3559285,-0.2486684
0.8557446,-0.06427109,-0.127682,-0.1646783,0.1011024,-0.1262071,1.046098,-0.2592321,-0.09841875
0.8831387,-0.04283219,-0.1159595,-0.1366555,0.1249919,-0.1163257,1.036706,-0.1637105,-0.01554504
0.9191882,-0.02280418,-0.1166301,-0.09992532,0.1474301,-0.1187484,1.030615,-0.2250873,0.04367678
0.9580785,0.007111517,-0.1194724,-0.06030195,0.1797049,-0.1232494,0.9942386,-0.3087149,0.05867282
1.021856,0.02463331,-0.09681857,0.004259141,0.1995235,-0.1021571,0.9223556,-0.2032929,0.04366635
1.042801,0.04823335,-0.05592807,0.02603345,0.2253465,-0.062728,0.8588919,-0.1505881,0.07222536
1.01933,0.08673473,-0.02752735,0.003433525,0.2659851,-0.03568775,0.7270197,-0.2184353,0.1262354
1.014825,0.1222191,-0.03039078,-0.000166989,0.3035088,-0.03981146,0.5424889,-0.2358947,0.1867729
0.9812808,0.1354189,-0.05075727,-0.03277718,0.3186368,-0.0613396,0.441476,-0.2817632,0.2243703
0.9909754,0.09712662,-0.05079633,-0.02212282,0.2821489,-0.06244309,0.422496,-0.3122889,0.2231788
1.054526,0.0271618,-0.07355969,0.04240924,0.2138537,-0.08617458,0.4114004,-0.2926518,0.2283505
1.086207,-0.03037251,-0.1226957,0.07508891,0.1578468,-0.1361826,0.3916713,-0.3084513,0.2528679
1.122314,-0.05627437,-0.1725648,0.112205,0.1333265,-0.1868263,0.3023897,-0.3619985,0.2539828
1.15382,-0.06530899,-0.2289992,0.1447211,0.1255264,-0.2439345,0.1262158,-0.5386276,0.179112
1.228425,-0.09442687,-0.2220322,0.2203283,0.0974968,-0.2375351,0.04292679,-0.7806974,0.1085054
1.374245,-0.1653188,-0.2111869,0.3671306,0.02754913,-0.2271455,0.1209202,-0.8242093,0.2098667
1.504396,-0.234328,-0.2715882,0.4982263,-0.04065504,-0.287885,0.2167176,-0.5672068,0.3946412
1.57662,-0.2357456,-0.3045665,0.5713367,-0.04139883,-0.3210779,0.2725931,-0.2809343,0.4562424
1.495238,-0.2192394,-0.298139,0.4907577,-0.02434086,-0.3147348,0.2691794,-0.2468423,0.4260805
1.334496,-0.2511731,-0.2909463,0.3307127,-0.05583566,-0.3074892,0.1982712,-0.1951966,0.3935034
1.221403,-0.2848113,-0.2812829,0.2181976,-0.08913845,-0.2976296,0.130009,0.1622267,0.3918443
1.096178,-0.2865919,-0.2578637,0.09342197,-0.09067692,-0.2738665,0.05924442,0.5982619,0.4557972
1.048841,-0.2782781,-0.2256269,0.04640592,-0.08220367,-0.241135,0.01295462,0.8910383,0.5271376
1.061258,-0.2725153,-0.2265592,0.05902059,-0.07635435,-0.2414208,0.02852284,1.154051,0.5107804
1.014941,-0.2772815,-0.2051605,0.01278198,-0.08109761,-0.2192241,0.01616373,1.388091,0.4142645
0.9639942,-0.2796322,-0.1141324,-0.03819807,-0.08348026,-0.1272482,0.03305831,1.266994,0.3182483
0.8887821,-0.2615543,-0.007331581,-0.1135457,-0.06548113,-0.01935501,0.1180506,0.9393383,0.2588722
0.8679627,-0.2401849,0.03727146,-0.1345914,-0.0442299,0.0264756,0.1642125,0.860556,0.2462394
0.9192429,-0.2276602,-0.01444918,-0.08361583,-0.03185675,-0.02389464,0.216452,0.9127298,0.2420379
0.8955206,-0.2257648,-0.03963598,-0.1077087,-0.03014131,-0.04762042,0.2795604,0.9564001,0.1676094
0.8430901,-0.2303444,-0.009340057,-0.1605643,-0.03492509,-0.01576356,0.3176112,0.956771,0.05510673
0.7651787,-0.2259169,-0.013156,-0.2389431,-0.03072204,-0.01792871,0.3634109,0.895172,-0.0441924
0.6936,-0.2110216,-0.004117087,-0.3110165,-0.01606771,-0.007159183,0.366204,0.9224255,-0.07801618
0.7042593,-0.1844171,0.01206585,-0.3008623,0.01028227,0.01082418,0.3189797,0.8979702,-0.03283093
0.6880678,-0.1694139,0.01771396,-0.3175518,0.02501911,0.01833246,0.2472184,0.8090815,-0.004508273
0.6775834,-0.1831556,0.0550218,-0.3285101,0.01100015,0.05754988,0.1651085,0.7161477,0.01380994
0.7094228,-0.1996391,0.07613617,-0.2971046,-0.005770708,0.08061237,0.1105627,0.5772926,0.01762265
0.7147696,-0.2211256,0.08542146,-0.2921374,-0.02755308,0.09187281,0.06749795,0.5263095,-0.03322659
0.7502735,-0.2391223,0.1024986,-0.2569465,-0.04585199,0.1109403,0.02907647,0.4010847,-0.09551497
0.8100668,-0.2371214,0.103432,-0.1973898,-0.04415653,0.1138676,0.007435126,0.2885438,-0.169513
0.8568081,-0.2449235,0.1244918,-0.1508018,-0.05226404,0.1369132,-0.0005457618,0.3025246,-0.1998715
0.9076997,-0.2552205,0.1674349,-0.0999769,-0.06286295,0.1818225,0.01871181,0.1958667,-0.1849442
0.9485045,-0.2420576,0.2025651,-0.05915185,-0.04999517,0.2188869,0.06419081,0.1484727,-0.2104739
0.9625405,-0.2207581,0.219005,-0.04501065,-0.02898082,0.237216,0.08127232,0.1040095,-0.220142
0.9408448,-0.204514,0.2175507,-0.06651945,-0.01301004,0.2375924,0.07005232,-0.05123419,-0.1802483
0.9322185,-0.1979666,0.227185,-0.07488071,-0.006722761,0.248986,0.1082836,-0.1229866,-0.09867949
0.9517341,-0.191947,0.2503237,-0.05502496,-0.0009500495,0.2738,0.1588996,-0.2071969,0.001652495
0.9567217,-0.1750239,0.2657438,-0.04962504,0.01573944,0.2907997,0.1607975,-0.2620517,0.01952382
0.9645489,-0.1711316,0.2562627,-0.04131715,0.01941063,0.2827906,0.1166662,-0.3068696,0.005194562
1.009081,-0.2104498,0.21667,0.003760158,-0.0201171,0.2445516,-0.02268163,-0.3872569,0.06042761
1.169465,-0.3121706,0.149642,0.1647471,-0.1220353,0.1787508,-0.1387346,-0.3519819,0.1428091
1.414067,-0.4212478,0.07891451,0.4099988,-0.231294,0.109119,0.0167721,-0.3506525,0.26738
1.48987,-0.4270164,0.07032824,0.4864781,-0.2372202,0.1014957,0.2360004,-0.3730519,0.4596998
1.38179,-0.4039396,0.09517185,0.3790777,-0.2142676,0.1271705,0.1928617,-0.2691073,0.5860133
1.302377,-0.4701367,0.09387287,0.3003229,-0.2805452,0.1265723,0.1903678,-0.2331277,0.5682356
1.23445,-0.5108806,0.1097951,0.2330152,-0.3213158,0.1430659,0.3532935,-0.4521785,0.4872317
1.182311,-0.4707413,0.1152645,0.1814435,-0.2811383,0.1489781,0.3665156,-0.7710033,0.3834293
1.197969,-0.4433118,0.0702853,0.1976083,-0.2535955,0.1043142,0.3638125,-0.8988857,0.2610911
1.107237,-0.4157012,0.01260753,0.1073157,-0.2257883,0.04682635,0.4155299,-0.9430294,0.1589763
0.9428098,-0.3442694,-0.04919704,-0.05674225,-0.1540712,-0.01490875,0.3565346,-1.026515,0.03788767
0.863802,-0.2841292,-0.08951519,-0.1354486,-0.09355459,-0.0552703,0.2817798,-0.9966314,-0.1398246
0.8526658,-0.2964382,-0.1122531,-0.146343,-0.1053967,-0.07815466,0.2050919,-0.938171,-0.2960012
0.9026284,-0.3113178,-0.129973,-0.09618811,-0.1197213,-0.09611277,0.1637807,-0.8547682,-0.4233631
0.9205967,-0.2837387,-0.1066049,-0.0780678,-0.0915013,-0.07306315,0.2302342,-0.7220812,-0.5712415
0.9188145,-0.2780423,-0.08289252,-0.07973103,-0.08508097,-0.04973883,0.3408282,-0.7060081,-0.6897625
0.9396073,-0.2498971,-0.09192803,-0.05884609,-0.0561321,-0.05922237,0.4652189,-0.6821755,-0.7821223
0.9022612,-0.1949134,-0.0952901,-0.09612139,-0.0002697985,-0.06308392,0.5019078,-0.6165969,-0.8875792
0.8989507,-0.1649732,-0.09104326,-0.09937695,0.03061763,-0.05937981,0.4438846,-0.6073507,-0.9566791
0.8915493,-0.118515,-0.09553474,-0.1067335,0.07808341,-0.06444949,0.392232,-0.5851184,-0.9792875
0.8573236,-0.1017143,-0.0999029,-0.1409181,0.09594215,-0.06942391,0.3281801,-0.5906554,-0.9678375
0.8921574,-0.1188548,-0.1016727,-0.1060408,0.07989938,-0.07182085,0.275666,-0.558613,-0.9091462
0.8945892,-0.1219426,-0.1073029,-0.1035573,0.07793884,-0.07809235,0.2744022,-0.4156225,-0.8301862
0.8947195,-0.1488005,-0.1017009,-0.1033621,0.05222846,-0.07313897,0.2803059,-0.2524733,-0.7748784
0.9003471,-0.1495388,-0.09762661,-0.09765228,0.05265,-0.06971458,0.3073979,-0.1641593,-0.7402625
0.8683648,-0.09168383,-0.121547,-0.1295311,0.1116697,-0.09428044,0.3622818,-0.22927,-0.6425759
0.8728647,-0.02750514,-0.1590991,-0.1249025,0.1770099,-0.1324676,0.3466469,-0.2675541,-0.4909799
0.8643692,-0.002804452,-0.1818531,-0.1332397,0.2028586,-0.1558393,0.2677007,-0.2050328,-0.3722776
0.857732,-0.02689755,-0.1613484,-0.1396849,0.1798887,-0.1359278,0.2117366,-0.1712517,-0.2349182
0.8674129,-0.0209361,-0.1405177,-0.1297745,0.1869375,-0.1156582,0.1913676,-0.1300758,-0.08035092
0.8711327,0.01841487,-0.1606263,-0.125784,0.2273296,-0.1362903,0.1724996,-0.1966059,0.04609502
0.9293228,0.04075584,-0.1688755,-0.06727944,0.2506554,-0.1450197,0.06179843,-0.3133357,0.1548757
0.9965702,0.04566186,-0.1633683,0.0003266488,0.2564791,-0.1399444,-0.08882272,-0.2390825,0.1705074
1.029135,0.01185083,-0.1554063,0.03329198,0.2235082,-0.1323608,-0.1527503,-0.1778395,0.1390194
1.027248,-0.03149393,-0.1242055,0.03184338,0.1809174,-0.101481,-0.1661506,-0.2165361,0.1075883
1.01197,-0.05248177,-0.1123266,0.01703475,0.1605909,-0.08986309,-0.1557273,-0.2214246,0.0160268
1.007739,-0.05125729,-0.1356524,0.01330147,0.16238,-0.1133881,-0.149801,-0.2461472,0.00107216
0.9888081,-0.03758872,-0.1634186,-0.005109056,0.1765134,-0.1412901,-0.1457076,-0.2037975,0.08286259
0.9875854,-0.04697075,-0.1861565,-0.005791532,0.1674936,-0.1640983,-0.07085108,-0.0984358,0.1513355
1.004496,-0.04452936,-0.1931573,0.01167607,0.1701924,-0.1711006,0.03936388,-0.09638814,0.2422743
1.024878,-0.03639869,-0.1864489,0.0326289,0.1784737,-0.1643213,0.1233756,-0.1139064,0.2902989
1.059418,-0.06367397,-0.1790207,0.06775061,0.1512408,-0.1567468,0.1797098,-0.123454,0.2775902
1.073462,-0.1022353,-0.1747735,0.0823805,0.112613,-0.1522755,0.2712784,-0.1764605,0.2707673
1.088226,-0.1449915,-0.1758219,0.09772981,0.06968315,-0.1530202,0.399706,-0.2292103,0.2088154
1.131431,-0.139339,-0.179552,0.1415144,0.07505786,-0.1563657,0.4517004,-0.3823766,0.09885963
1.196981,-0.1112603,-0.1996178,0.2076279,0.1027589,-0.1759648,0.435675,-0.6676749,0.01518445
1.28425,-0.1195538,-0.269885,0.2954371,0.09399149,-0.2456814,0.4140244,-0.836884,0.02080593
1.40545,-0.09992276,-0.3665673,0.4171399,0.1130558,-0.3417255,0.3985554,-0.7563668,0.1221616
1.521916,-0.1183202,-0.406443,0.5340539,0.09400174,-0.3808685,0.4106179,-0.6220775,0.2304009
1.521111,-0.1859102,-0.3947928,0.5336213,0.02566876,-0.3683821,0.4173444,-0.5359748,0.298879
1.459324,-0.1959637,-0.3919692,0.4721088,0.01479124,-0.3646094,0.3815494,-0.4181142,0.3089992
1.35693,-0.21827,-0.3657001,0.3698733,-0.008413578,-0.3372704,0.3302403,-0.2185857,0.2973637
1.150728,-0.2549425,-0.2987994,0.1636995,-0.04605101,-0.269173,0.2970435,0.169714,0.2920523
1.070903,-0.2408539,-0.2567668,0.08376968,-0.03298517,-0.2258138,0.2458902,0.5477867,0.2646111
1.102913,-0.2195394,-0.25211,0.1155431,-0.01274257,-0.2197003,0.1383367,0.7639552,0.2897749
1.021208,-0.200135,-0.2396566,0.03347427,0.005548298,-0.205662,0.0287903,1.16822,0.3407584
1.009548,-0.1784772,-0.2261915,0.02133142,0.02605737,-0.1904864,-0.0639721,1.594937,0.3358984
1.028104,-0.1569004,-0.2023468,0.03929172,0.04645504,-0.1648094,-0.1604922,1.661544,0.3376976
0.8886367,-0.1253386,-0.09237743,-0.1008747,0.0768108,-0.05289116,-0.2108988,1.503842,0.3453783
0.8264904,-0.1137353,0.007710006,-0.1638113,0.08718334,0.04925304,-0.2060266,1.164096,0.353008
0.8766441,-0.1552698,-0.03351546,-0.114525,0.04439474,0.01017983,-0.1680251,0.830052,0.3519101
0.8844651,-0.2153661,-0.06750721,-0.1076339,-0.0169769,-0.02157766,-0.06844648,0.886214,0.2761867
0.8801461,-0.2400924,-0.03267798,-0.112932,-0.04299534,0.01555553,0.0543777,1.117802,0.1453348
0.8303691,-0.231653,-0.02372086,-0.1637251,-0.03585932,0.02687485,0.1581644,1.140788,0.01953826
0.7541012,-0.2149702,0.004965863,-0.241033,-0.02048469,0.05797024,0.2246493,1.12204,-0.02753482
0.7490744,-0.1999992,0.01909763,-0.2471088,-0.006821537,0.07454496,0.2057318,1.159225,0.001224494
0.781308,-0.1560597,-0.01232653,-0.215918,0.03581476,0.04558582,0.1691499,1.124529,0.05116137
0.7870761,-0.1139978,0.001509164,-0.2111721,0.07658012,0.06189716,0.1318104,1.094832,0.1196772
0.777838,-0.1308389,0.02308401,-0.2213992,0.05844997,0.08594761,0.05461734,0.943878,0.1289544
0.7607042,-0.1416919,0.05524182,-0.2394773,0.04631506,0.1205703,0.01141463,0.6492351,0.05888382
0.7228058,-0.1480497,0.1192674,-0.2782637,0.03868278,0.1870384,-0.02847007,0.4401819,-0.01053587
0.7237384,-0.1847367,0.1364966,-0.2781514,0.0007297145,0.2066749,-0.06918018,0.3286251,-0.06625444
0.7658655,-0.2117012,0.143429,-0.2367656,-0.02749057,0.2159655,-0.07414279,0.3390416,-0.09321256
0.7980793,-0.2314349,0.1546097,-0.2052048,-0.04846639,0.2294416,-0.1164003,0.3314051,-0.1051743
0.8394585,-0.2299493,0.1627927,-0.1643834,-0.04820518,0.239844,-0.1409684,0.2079851,-0.1352291
0.8786644,-0.2132464,0.2127546,-0.1256361,-0.03270457,0.2919363,-0.109103,0.06237931,-0.1554919
0.9261831,-0.1910437,0.2371133,-0.07847538,-0.01167832,0.3183233,-0.09752741,-0.1356211,-0.1584248
0.9691943,-0.1461966,0.2246487,-0.03572245,0.03202031,0.3077712,-0.1156357,-0.2186117,-0.1300736
0.9570729,-0.1228622,0.2259118,-0.04800569,0.0542349,0.3108184,-0.1359288,-0.1658807,-0.06003804
0.9341223,-0.1231034,0.2274109,-0.07102567,0.05290155,0.3139617,-0.1361609,-0.1711052,0.007260637
0.9153952,-0.1300663,0.238385,-0.08973303,0.04487259,0.3264291,-0.1381714,-0.2107102,0.05754637
0.9055199,-0.1467296,0.2476143,-0.09950212,0.027168,0.3369915,-0.1555187,-0.2683429,0.07661328
0.9345651,-0.1632734,0.226575,-0.07026607,0.009606909,0.3171161,-0.1914904,-0.3148595,0.06545359
1.029511,-0.2186618,0.1754821,0.02495212,-0.0467746,0.2670104,-0.2222616,-0.2847158,0.1104023
1.216327,-0.3125174,0.1246012,0.212116,-0.1415965,0.2169353,-0.1601479,-0.2116186,0.2508936
1.329794,-0.3652701,0.1237371,0.3259933,-0.1952833,0.2166938,-0.06647679,-0.09477436,0.4297002
1.259259,-0.3535839,0.1764596,0.2559126,-0.1844906,0.2698554,-0.03807017,0.1397646,0.5359797
1.191421,-0.3567003,0.2162659,0.1885555,-0.1884511,0.3099166,-0.03382536,0.2669482,0.522602
1.194027,-0.3940818,0.1818595,0.1916534,-0.2266185,0.2755792,-0.05369258,0.0710983,0.5048585
1.234583,-0.4084271,0.1458096,0.2327001,-0.2416829,0.2394111,-0.0722381,-0.1275771,0.5070816
1.337843,-0.4206235,0.1596131,0.3364352,-0.2545225,0.2529095,0.00635245,-0.3009017,0.4495601
1.350524,-0.4225013,0.1243447,0.349563,-0.2569586,0.2171507,0.1651559,-0.6295425,0.3628743
1.245133,-0.3904231,0.04459724,0.2445743,-0.2253456,0.136731,0.2910138,-0.8347707,0.2707703
1.153056,-0.3710031,0.00320022,0.1528422,-0.2062908,0.09448578,0.3275487,-0.8951358,0.1703425
1.013339,-0.3688587,-0.01784428,0.01340641,-0.2044066,0.07242585,0.3321543,-1.010983,0.06040485
0.8766939,-0.3971414,-0.05139979,-0.1230218,-0.2328404,0.03769827,0.3444163,-1.077466,-0.06295436
0.8589244,-0.449089,-0.1008072,-0.1406323,-0.284826,-0.01302589,0.3509189,-1.009838,-0.164902
0.9064437,-0.4693054,-0.1354768,-0.09300282,-0.3049621,-0.04914358,0.412115,-0.9609265,-0.2845624
0.9686859,-0.444118,-0.1529698,-0.03069028,-0.2795701,-0.06820097,0.5184684,-0.9947059,-0.4439568
1.00685,-0.3715478,-0.1922037,0.007509878,-0.2066661,-0.1090998,0.5495176,-0.943646,-0.5969744
1.015044,-0.2854259,-0.211048,0.01571038,-0.1200794,-0.129693,0.5148051,-0.8119794,-0.7425213
0.9832269,-0.2278543,-0.1908231,-0.01612954,-0.06191431,-0.1112846,0.4974066,-0.6872843,-0.8415167
0.9293467,-0.1999597,-0.1679254,-0.0700584,-0.03330337,-0.09025497,0.5019718,-0.5908168,-0.8741617
0.8874495,-0.1667009,-0.1234221,-0.1120259,0.0007864558,-0.04765741,0.4722816,-0.617221,-0.870193
0.8248326,-0.107773,-0.08585359,-0.1747284,0.06064988,-0.0120209,0.3873052,-0.697687,-0.8391076
0.7931948,-0.06996281,-0.09400172,-0.2064582,0.09948855,-0.02211825,0.2816019,-0.7290217,-0.7888504
0.7846623,-0.04492654,-0.1087715,-0.2150789,0.1256326,-0.03884665,0.1676291,-0.6961263,-0.697881
0.7562993,-0.03001025,-0.1235093,-0.2435157,0.1417217,-0.0555448,0.07829431,-0.6441812,-0.5943947
0.7513739,-0.06117223,-0.1459059,-0.2484893,0.1117829,-0.07989545,0.007375016,-0.7095484,-0.5005529
0.7580245,-0.09089033,-0.1542386,-0.2418507,0.08332517,-0.09016766,-0.03467056,-0.743331,-0.3868049
0.8032303,-0.09694507,-0.1627312,-0.1966109,0.07855664,-0.1005767,0.03676789,-0.5707237,-0.2934547
0.8712029,-0.08873625,-0.1733775,-0.1285509,0.0880677,-0.1131077,0.1230658,-0.344826,-0.208225
0.8996341,-0.07457166,-0.1602845,-0.09997431,0.1035414,-0.1018596,0.1315091,-0.209105,-0.09686866
0.9169953,-0.06686356,-0.1567287,-0.08240828,0.1125564,-0.1001011,0.1274346,-0.181375,-0.00443641
0.9642226,-0.04405105,-0.1792812,-0.03491703,0.1366646,-0.1243965,0.1001681,-0.1271518,0.05430035
1.031065,-0.02358746,-0.1941166,0.03224609,0.1584034,-0.1409137,0.0451261,-0.01867942,0.06560773
1.034292,-0.02043202,-0.1956768,0.03584619,0.1628041,-0.1440877,0.00235951,-0.02589716,0.02671375
1.016889,-0.01565933,-0.1801543,0.018863,0.1687827,-0.1301042,-0.01223069,-0.0724341,-0.004702451
1.036201,-0.0107199,-0.1616847,0.03863362,0.1748796,-0.1130934,-0.03022645,-0.05967402,0.01336281
1.008586,-0.01441426,-0.1530243,0.01151321,0.1722859,-0.1058069,-0.06921795,-0.07481112,0.059731
0.9736129,-0.02319807,-0.1445686,-0.02293646,0.1645381,-0.09863686,-0.04764001,-0.1239367,0.1247924
0.9706689,-0.02714284,-0.1581774,-0.0253304,0.1615579,-0.1134406,0.01010409,-0.1928011,0.2194982
0.991037,-0.04387076,-0.194383,-0.004388385,0.1457173,-0.150748,0.0531801,-0.2461924,0.2779046
1.04736,-0.06616575,-0.2364937,0.05252888,0.1242277,-0.1938641,0.1247228,-0.23708,0.2871301
1.076296,-0.08042257,-0.2632089,0.08207683,0.1106912,-0.2214837,0.1750436,-0.2194943,0.2877289
1.102016,-0.1092617,-0.2624761,0.108418,0.08248543,-0.2215487,0.2028474,-0.2134048,0.2692937
1.154165,-0.1391533,-0.291309,0.1611906,0.05313986,-0.251067,0.2140068,-0.2135831,0.2658043
1.212299,-0.1548114,-0.3492226,0.2199426,0.03794192,-0.3095471,0.131257,-0.2576975,0.2372017
1.319943,-0.1615645,-0.3697659,0.3281871,0.03156532,-0.330531,0.03995926,-0.3333087,0.1459018
1.433158,-0.2089843,-0.3692506,0.4419692,-0.01555793,-0.3303219,0.03233417,-0.3831193,0.08394771
1.481463,-0.3317286,-0.3896801,0.4907909,-0.1380804,-0.3509151,0.08904963,-0.3396983,0.08480696
1.468479,-0.4158906,-0.4165625,0.4782503,-0.2220863,-0.3778111,0.218735,-0.182836,0.157396
1.409915,-0.4066183,-0.4176539,0.4200381,-0.2127108,-0.3787579,0.3989517,0.09254235,0.2508633
1.311874,-0.3897874,-0.3728854,0.3222396,-0.1958155,-0.3336795,0.548205,0.521318,0.2748442
1.172878,-0.3803326,-0.2870917,0.1833647,-0.1863219,-0.2474057,0.5701434,0.9746322,0.2579255
1.041676,-0.3550729,-0.216677,0.0521594,-0.1610374,-0.1763396,0.4414681,1.259761,0.2570117
0.9527907,-0.3219878,-0.1856433,-0.03685249,-0.1279318,-0.1444859,0.241164,1.421295,0.2973974
0.9103958,-0.264239,-0.1276765,-0.0794877,-0.07015925,-0.08553681,0.09575448,1.580037,0.3231844
0.9146814,-0.1798533,-0.04733539,-0.07554532,0.01425782,-0.004059968,0.04804606,1.600313,0.3024922
0.9276211,-0.1217311,-0.02490351,-0.06303954,0.07241993,0.01964942,0.005710192,1.287471,0.2990794
0.9381498,-0.1211098,-0.0462811,-0.05302428,0.07308724,-0.000322437,-0.01435708,0.8964955,0.3190752
0.9225892,-0.1673162,-0.05479564,-0.06916735,0.02692935,-0.00731649,0.01623572,0.8292066,0.3326011
0.8650236,-0.2340906,-0.05834919,-0.1273743,-0.03979672,-0.009247204,0.04499433,0.9415039,0.2865567
0.7999993,-0.2568135,-0.05342234,-0.1930875,-0.06247111,-0.002606714,0.1341237,0.9296907,0.1599932
0.7402069,-0.2184077,0.005481923,-0.2536026,-0.02401501,0.05809061,0.2296026,0.917301,0.03286797
0.7074752,-0.1764661,0.06769767,-0.2870751,0.01798024,0.1221664,0.2236511,0.9379164,0.01696936
0.7060644,-0.1510806,0.05344249,-0.2892278,0.04342269,0.109824,0.1883962,0.8568044,0.125777
0.7120426,-0.1382559,0.03879467,-0.283976,0.05630571,0.09712723,0.1290418,0.8319127,0.2309231
0.7053655,-0.1395195,0.07800198,-0.2913483,0.05509933,0.13831,0.0005094652,0.8261207,0.2878957
0.7023655,-0.1604712,0.1054,-0.2949977,0.03420086,0.1676944,-0.1304001,0.6970608,0.2906549
0.7390157,-0.2132158,0.1196554,-0.2589377,-0.01849638,0.1839332,-0.1898461,0.576093,0.2202613
0.7704173,-0.2567585,0.1323861,-0.2280559,-0.06199736,0.19863,-0.2054061,0.4857533,0.1457437
0.787574,-0.2661806,0.1376858,-0.2113395,-0.0713814,0.2058646,-0.2154863,0.4219138,0.06835051
0.8238123,-0.2883314,0.1720075,-0.1754551,-0.09349424,0.2420764,-0.197214,0.3350721,0.001784662
0.8549372,-0.3114086,0.2049221,-0.1445935,-0.1165296,0.2768227,-0.1571591,0.2052916,-0.04881838
0.8712668,-0.3029738,0.2058864,-0.1284338,-0.1080439,0.2795462,-0.09620424,0.1061062,-0.1028945
0.8790052,-0.2994201,0.1953254,-0.120771,-0.1044256,0.2706584,-0.02852464,-0.04976204,-0.07942159
0.8948817,-0.30189,0.1737601,-0.1048762,-0.1068129,0.2506678,0.02054906,-0.1841236,-0.01632904
0.9063432,-0.2941254,0.1699035,-0.09330331,-0.09894358,0.2482769,0.0844375,-0.2344226,0.03314516
0.9037175,-0.2959924,0.1833777,-0.09572659,-0.1006805,0.2630985,0.1264557,-0.2567387,0.0500476
0.910513,-0.2988048,0.2071811,-0.08863973,-0.1033344,0.2881225,0.1294817,-0.2498792,-0.0145478
0.9148008,-0.2976753,0.2458824,-0.08397433,-0.1020152,0.3279092,0.1344122,-0.3203094,-0.07109309
0.9355583,-0.2990804,0.2406928,-0.06275584,-0.103197,0.3236609,0.1042202,-0.3792125,-0.09542231
0.9974714,-0.2933106,0.2022167,-0.0003022481,-0.09716784,0.2859735,0.03653802,-0.4036827,-0.07590616
1.098142,-0.2901587,0.1716974,0.1009825,-0.09371905,0.2560835,-0.05178179,-0.4611676,0.06459974
1.185701,-0.304176,0.1492235,0.1892182,-0.1074001,0.2340757,-0.108992,-0.3990065,0.2629796
1.266015,-0.3699968,0.160534,0.2702599,-0.1728436,0.2456864,-0.03939395,-0.2990587,0.4311819
1.475039,-0.4933672,0.1742247,0.4800422,-0.2957918,0.2595101,0.07233815,-0.2711539,0.5348818
1.607988,-0.5544841,0.1656597,0.6137575,-0.3564337,0.2509098,0.1338994,-0.3232025,0.6321671
1.418449,-0.5041359,0.1526304,0.4249635,-0.3055474,0.2376762,0.2148918,-0.4132566,0.6786765
1.193359,-0.4774537,0.1186787,0.2005731,-0.2782534,0.2033517,0.2841125,-0.3878618,0.5615312
1.110147,-0.5039585,0.0985521,0.117999,-0.3040641,0.1826855,0.2714692,-0.4454065,0.438829
1.067188,-0.503847,0.09628636,0.07560922,-0.3031689,0.1797169,0.3069125,-0.6883239,0.3534259
1.010925,-0.5191843,0.05290241,0.01984713,-0.3176262,0.1354715,0.4580186,-0.8718466,0.2024033
0.9181609,-0.5493949,0.005733637,-0.07248529,-0.3468534,0.08728856,0.5889508,-0.9584345,0.01644943
0.8795963,-0.5402135,-0.01822134,-0.1106812,-0.3365785,0.06217479,0.6879867,-0.9698712,-0.1857418
0.8347528,-0.5382898,-0.04375488,-0.155211,-0.3334448,0.0353475,0.8141635,-0.9693127,-0.347893
0.7579152,-0.5311076,-0.04712779,-0.2317801,-0.3249305,0.03055656,0.9319682,-1.081028,-0.4854919
0.7971557,-0.4834004,-0.05355569,-0.192304,-0.275765,0.02259744,1.052456,-1.285075,-0.608975
0.8180278,-0.414251,-0.1003408,-0.1712171,-0.2050291,-0.02582074,1.172451,-1.44331,-0.6407081
0.8297595,-0.3326443,-0.1475581,-0.1592812,-0.1217092,-0.07476075,1.294202,-1.416087,-0.6452092
0.9022959,-0.2917265,-0.1746847,-0.08654251,-0.07895669,-0.1036861,1.423591,-1.30785,-0.6707817
0.8822317,-0.2941957,-0.1834041,-0.1064004,-0.0794779,-0.1142653,1.470733,-1.203447,-0.7615014
0.8647381,-0.2904513,-0.1689394,-0.1236788,-0.0736815,-0.1017067,1.46506,-1.096499,-0.9403109
0.8597938,-0.2802941,-0.1460716,-0.1283944,-0.06137742,-0.08077742,1.46517,-1.117425,-1.08162
0.826851,-0.2623067,-0.1360559,-0.1610903,-0.04115786,-0.07272004,1.450756,-1.110967,-1.156755
0.8566367,-0.2460565,-0.1613207,-0.1310339,-0.02259964,-0.09995206,1.469954,-0.9219926,-1.186295
0.8594392,-0.241795,-0.2030316,-0.1279322,-0.01596466,-0.1436282,1.498061,-0.7050592,-1.159862
0.8451262,-0.245048,-0.2158339,-0.1419135,-0.01678859,-0.1583823,1.523982,-0.4896841,-1.134156
0.8517105,-0.2484977,-0.2162693,-0.1349611,-0.01776357,-0.1607442,1.603247,-0.3050544,-1.115744
0.8529983,-0.24488,-0.2317128,-0.1332656,-0.0116347,-0.1780772,1.684187,-0.156997,-1.0447
0.8821074,-0.2432647,-0.2514177,-0.1037064,-0.00748063,-0.1996232,1.755059,-0.04040764,-0.9331187
0.9066945,-0.2183355,-0.2627393,-0.07862515,0.02000641,-0.2127263,1.830005,-0.03111307,-0.8181167
0.9400953,-0.1552987,-0.2470726,-0.04468594,0.085611,-0.1987706,1.847063,-0.02770557,-0.6817015
0.9685288,-0.08895651,-0.2146289,-0.01567133,0.1545202,-0.1679574,1.806142,-0.03536582,-0.5782888
0.9653557,-0.04073295,-0.1961038,-0.01822354,0.2052968,-0.1509742,1.752058,-0.08219094,-0.5418846
0.9740269,-0.005899371,-0.1780323,-0.008895238,0.2426546,-0.1343501,1.662681,-0.07586913,-0.4800861
0.9783123,0.03752466,-0.1509616,-0.00392035,0.2885575,-0.1086276,1.538256,-0.09056272,-0.4141535
0.9859981,0.07460577,-0.1258881,0.004483406,0.3280549,-0.0848006,1.416309,-0.1511822,-0.4131122
1.001882,0.09786694,-0.1010993,0.02110943,0.3536521,-0.06115546,1.244027,-0.2585344,-0.4072579
1.006518,0.1367772,-0.09312234,0.02650842,0.3947999,-0.0542199,1.047466,-0.3430037,-0.3650457
1.011868,0.1577695,-0.1022029,0.0326352,0.4179129,-0.06424087,0.9195518,-0.3101028,-0.3150822
1.013477,0.1524184,-0.1012772,0.03503224,0.4145476,-0.0641563,0.779301,-0.3097803,-0.2056032
1.017708,0.1433904,-0.1027082,0.04005734,0.4073537,-0.06633075,0.599818,-0.2981897,-0.06878341
1.017825,0.1041754,-0.1116574,0.04097025,0.3698061,-0.07592736,0.4852937,-0.2046784,-0.03047699
1.002069,0.07408736,-0.1094771,0.02600662,0.3412063,-0.07430005,0.442933,-0.1845916,-0.047167
0.9747223,0.07704986,-0.1095278,-0.0005545699,0.3454683,-0.07481079,0.4081083,-0.2156362,-0.03105928
0.9447934,0.05892074,-0.1195903,-0.02970623,0.3284422,-0.08524198,0.3561314,-0.2547197,-0.00487554
0.9486588,0.02959794,-0.1468295,-0.02507319,0.30002,-0.1127597,0.3345502,-0.3155182,0.02371159
0.994424,-0.005297886,-0.1965347,0.02144955,0.2658186,-0.1626538,0.3604103,-0.3373537,0.07310168
1.058808,-0.07233333,-0.2362952,0.08657976,0.19927,-0.2025125,0.3987019,-0.2990483,0.138928
1.11812,-0.1356246,-0.2579768,0.1466212,0.13626,-0.2241984,0.4299992,-0.2588264,0.177539
1.165278,-0.1477874,-0.2588832,0.1944868,0.124178,-0.2250114,0.4193097,-0.2820198,0.1625371
1.21945,-0.1066976,-0.2361046,0.2493345,0.1651549,-0.2020377,0.3747461,-0.3495552,0.1668373
1.288447,-0.06028532,-0.2321622,0.318965,0.2112675,-0.1977956,0.2994291,-0.4114273,0.257383
1.383848,-0.06535343,-0.249264,0.4149431,0.2057176,-0.2144906,0.1858575,-0.3897428,0.3760529
1.458845,-0.1297637,-0.2563669,0.4904441,0.140648,-0.2210781,0.1580691,-0.2710987,0.416215
1.445015,-0.2305239,-0.2423672,0.4770268,0.03905733,-0.2064526,0.2065783,-0.1603726,0.354855
1.39396,-0.3101191,-0.2172029,0.426274,-0.04152929,-0.1805509,0.1739892,-0.07665272,0.2726679
1.310445,-0.3190676,-0.2013724,0.3429348,-0.0516163,-0.1638715,0.09939822,0.02147127,0.2234714
1.158963,-0.3204666,-0.1538491,0.191493,-0.05428532,-0.1153897,0.0500039,0.1818327,0.2016814
1.052938,-0.3534999,-0.09252658,0.08536796,-0.08870403,-0.05300258,0.06689425,0.3038911,0.2200603
1.050447,-0.3555536,-0.1028459,0.08263879,-0.09224275,-0.06215718,0.1656318,0.3187269,0.2260185
1.055798,-0.3429049,-0.126126,0.08761982,-0.08116306,-0.08417926,0.2108501,0.514126,0.1797759
1.023016,-0.3321863,-0.1223167,0.05434114,-0.07208267,-0.07902535,0.1908856,0.7650155,0.1176153
0.9811173,-0.2716188,-0.1480537,0.01182761,-0.01320932,-0.1033368,0.1382627,0.7211959,0.04034908
0.941754,-0.1978891,-0.1583562,-0.02826076,0.05878078,-0.1121378,0.06387498,0.6598257,0.02624221
0.9330148,-0.1772715,-0.1221324,-0.03782499,0.07762034,-0.07434101,0.07640951,0.7132763,0.09128319
0.938881,-0.2077992,-0.09223801,-0.03287272,0.04528101,-0.04280705,0.1313928,0.7824883,0.14375
0.8706757,-0.2289303,-0.07692001,-0.1020697,0.02230935,-0.02578915,0.195035,0.9465874,0.1913129
0.7830496,-0.2020256,-0.06837833,-0.1907529,0.04734943,-0.01549433,0.2491585,1.036269,0.1851619
0.740369,-0.1679541,-0.07119568,-0.2345409,0.07953698,-0.01651278,0.1800944,0.9954507,0.129544
0.7164269,-0.1318003,-0.07677727,-0.2596234,0.1137907,-0.02025705,0.06537292,1.006977,0.1163231
0.7505532,-0.1023916,-0.0717761,-0.2266528,0.1412847,-0.01338705,-0.06015571,1.045209,0.1300439
0.7801362,-0.1185098,-0.05042332,-0.1982244,0.1232372,0.009859343,-0.2323927,1.113629,0.1793158
0.7614029,-0.1407961,-0.01665085,-0.2180966,0.09900668,0.04554314,-0.3572683,1.184269,0.2313407
0.7597442,-0.1696347,0.02961295,-0.2208657,0.06820996,0.09372787,-0.4610983,1.068894,0.2331796
0.7586521,-0.215912,0.06863551,-0.2230276,0.01996271,0.1346714,-0.6000442,0.8382878,0.1989522
0.7941319,-0.2385517,0.07775596,-0.1885656,-0.004654867,0.1457019,-0.7016444,0.6901633,0.1173453
0.8822516,-0.2959766,0.08204254,-0.1014028,-0.06405976,0.1518762,-0.7142929,0.6271536,0.0339269
0.9468819,-0.3732928,0.1017552,-0.03766291,-0.1433505,0.1734429,-0.6508986,0.6088056,-0.01824811
0.9712978,-0.3658603,0.1121133,-0.01406941,-0.1378771,0.1856103,-0.5626227,0.6019768,-0.05649012
0.9857749,-0.3467919,0.1160356,-0.0003477602,-0.1207415,0.1912864,-0.4884709,0.5851635,-0.08584402
0.9988554,-0.3481575,0.1370981,0.01204207,-0.1240034,0.2140365,-0.4188385,0.5332592,-0.1202543
0.9675853,-0.2950404,0.1519166,-0.01985694,-0.07273758,0.2304662,-0.3662813,0.3947694,-0.1289416
0.9184715,-0.2435663,0.1692998,-0.06953992,-0.02306318,0.2493737,-0.3604916,0.2513128,-0.08920122
0.893054,-0.2206286,0.1913739,-0.09546742,-0.001869738,0.272875,-0.3704413,0.1827773,-0.0200333
0.8706188,-0.1882699,0.176962,-0.1183522,0.02880177,0.2597832,-0.3717523,0.0985525,0.03101546
0.8730838,-0.1667327,0.1723585,-0.1162743,0.04870845,0.2563831,-0.3791552,-0.03132245,0.05521449
0.8826218,-0.1617144,0.1839136,-0.1070585,0.05215152,0.2690168,-0.3929842,-0.1125453,0.102898
0.8956276,-0.191344,0.1666052,-0.09430814,0.02100003,0.2526545,-0.4054069,-0.1533736,0.1211064
0.9624164,-0.2497178,0.1383038,-0.02770727,-0.0388435,0.2251608,-0.4093239,-0.1820824,0.076422
1.106386,-0.3003926,0.09266951,0.1161397,-0.09093519,0.1801915,-0.4289374,-0.09967565,0.05787792
1.32268,-0.3596734,0.06065766,0.3323693,-0.1515765,0.1486999,-0.4435571,0.01390775,0.1363146
1.432488,-0.3907304,0.06380397,0.4421541,-0.1839318,0.1522221,-0.371915,0.04485471,0.3437426
1.329883,-0.3718388,0.08479701,0.3395485,-0.1662693,0.1734479,-0.2937786,0.1254536,0.6088281
1.217387,-0.3754699,0.1255678,0.2270526,-0.171053,0.2143097,-0.3238979,0.1678461,0.748147
1.198461,-0.4053598,0.1171038,0.2081122,-0.2020123,0.2057949,-0.3538977,0.04979789,0.7125475
1.259279,-0.4467648,0.09136938,0.268891,-0.2443969,0.179868,-0.3356779,-0.0546113,0.6512447
1.362948,-0.4997164,0.1051827,0.3724834,-0.2982303,0.1933478,-0.3420402,-0.1786742,0.5856497
1.339274,-0.4896121,0.08285328,0.3486837,-0.2889012,0.1705456,-0.2622485,-0.4172824,0.4710654
1.215498,-0.4253263,0.05571698,0.2247192,-0.2252751,0.1427992,-0.09319959,-0.6435141,0.397259
1.048645,-0.3625182,0.03641723,0.05760551,-0.1630049,0.1227558,-0.02244581,-0.7762547,0.2952759
0.8460427,-0.298865,0.005980062,-0.1453297,-0.09976513,0.09144625,-0.009893609,-0.791806,0.1103386
0.8483797,-0.330831,0.004514438,-0.1433909,-0.1320206,0.0889856,0.01286685,-0.7217998,-0.0342423
0.8937123,-0.416398,-0.03926928,-0.09851001,-0.2177544,0.04409129,0.02351809,-0.629425,-0.1740328
0.8214683,-0.4086912,-0.08692014,-0.1712473,-0.2100915,-0.004777441,0.05964263,-0.5869979,-0.3368978
0.8992018,-0.3942856,-0.0728925,-0.09403768,-0.195605,0.007934803,0.09446346,-0.6251311,-0.4569695
0.9314192,-0.353583,-0.08414513,-0.06236489,-0.1546961,-0.004720387,0.1328014,-0.6426069,-0.554569
0.8906936,-0.2642915,-0.09522937,-0.103648,-0.06507378,-0.01728411,0.1587995,-0.6756863,-0.6721673
0.9429374,-0.2608899,-0.08787948,-0.05196797,-0.06122105,-0.01148053,0.1228112,-0.7284134,-0.8222266
0.8863283,-0.2629108,-0.09692946,-0.109141,-0.06267643,-0.02213383,0.1198992,-0.6443672,-0.9273773
0.8865668,-0.2459937,-0.105322,-0.1094606,-0.04508634,-0.03217718,0.1474,-0.513252,-0.936927
0.9251334,-0.2573734,-0.1264133,-0.07144014,-0.05569222,-0.05495745,0.1397369,-0.4370778,-0.9047041
0.8563728,-0.2173097,-0.1339187,-0.140729,-0.01476109,-0.06418009,0.09516152,-0.3756055,-0.8495676
0.8624278,-0.1479974,-0.1167656,-0.1351788,0.05550462,-0.04876323,-0.02480439,-0.3672746,-0.7535044
0.8174662,-0.0783344,-0.1054663,-0.1806149,0.1261967,-0.03921,-0.1673107,-0.3852556,-0.6036643
0.7837815,-0.03780816,-0.1060273,-0.2147365,0.1678151,-0.04151913,-0.2887212,-0.3599449,-0.4497654
0.8360534,-0.04767999,-0.1286228,-0.1628557,0.1590836,-0.06585754,-0.3868357,-0.2902412,-0.3436873
0.8269983,-0.03811935,-0.1547641,-0.1722488,0.1698181,-0.09372919,-0.4387502,-0.1781998,-0.2743915
0.8683776,-0.01979268,-0.1703856,-0.1311486,0.1893377,-0.1110606,-0.5252357,-0.09280658,-0.2180772
0.8928037,-0.01702031,-0.1695236,-0.1069385,0.1933083,-0.1118799,-0.6346416,-0.0816457,-0.1236459
0.8964255,-0.01889467,-0.1482889,-0.1034675,0.192624,-0.09228968,-0.654156,-0.03972207,-0.01835129
0.9608895,-0.02913896,-0.1352322,-0.03908798,0.183549,-0.08083358,-0.598122,0.03714144,0.0601276
0.9645011,-0.03338379,-0.1451944,-0.03549549,0.1804415,-0.09234682,-0.5568478,0.04249225,0.1376467
0.9645644,-0.04434261,-0.1630407,-0.03538845,0.1705776,-0.1116891,-0.5645012,-0.03330627,0.1824733
0.9906978,-0.06774711,-0.1651624,-0.009151252,0.148217,-0.1152466,-0.5391471,-0.1109945,0.2070026
1.0154,-0.09609595,-0.1749144,0.01571151,0.1208537,-0.1263686,-0.4498097,-0.07044379,0.2165228
1.030091,-0.1194931,-0.1926407,0.03061336,0.09837818,-0.145394,-0.3578048,-0.02025804,0.1978412
0.9942414,-0.1095461,-0.1739245,-0.0049775,0.1091793,-0.1279007,-0.2956541,-0.08402439,0.2012261
0.9851915,-0.08517704,-0.1542913,-0.01372708,0.1343318,-0.1094096,-0.291427,-0.09198676,0.2190128
1.005931,-0.05850727,-0.1506088,0.007350369,0.1617109,-0.1067849,-0.2972332,-0.05271901,0.2574891
1.016572,-0.01115172,-0.1376215,0.01836534,0.2096974,-0.09476863,-0.2838488,-0.06965923,0.3124749
1.017781,0.02695818,-0.131461,0.01997773,0.2483541,-0.08949105,-0.3273656,-0.1203762,0.3515383
1.025366,0.03275949,-0.1327233,0.02799238,0.2546112,-0.09154705,-0.4022532,-0.2065188,0.3974057
1.091776,0.01891097,-0.1473832,0.09485297,0.24112,-0.1069111,-0.4564771,-0.234779,0.4292656
1.158689,-0.007568285,-0.1959019,0.1622328,0.2148934,-0.1560434,-0.5444507,-0.244889,0.4340671
1.198042,-0.04627217,-0.2488553,0.2020581,0.1763327,-0.2095179,-0.681571,-0.336146,0.4068204
1.266584,-0.08834164,-0.2504672,0.2710678,0.1342945,-0.2115544,-0.7876123,-0.4449245,0.3377317
1.334737,-0.1360046,-0.252346,0.33967,0.08655101,-0.2137568,-0.809581,-0.5351098,0.2970577
1.354789,-0.2398604,-0.3245482,0.3601375,-0.01749408,-0.2861764,-0.7684371,-0.4824764,0.344661
1.354834,-0.3659034,-0.3765255,0.3605488,-0.1438279,-0.3382589,-0.6267241,-0.3395837,0.422774
1.363893,-0.4039484,-0.3777854,0.3699081,-0.1822536,-0.3395039,-0.3794102,-0.2445791,0.4312245
1.33924,-0.391752,-0.3988285,0.3454739,-0.1705125,-0.3604037,-0.2265608,0.0001130192,0.4057279
1.275324,-0.377499,-0.4093093,0.2816848,-0.1567739,-0.3706042,-0.2627051,0.3351945,0.3483512
1.174947,-0.3384054,-0.3554609,0.1813314,-0.1182399,-0.3163309,-0.3577042,0.5844871,0.2150904
1.076009,-0.3295993,-0.2698407,0.08231032,-0.1100268,-0.2301358,-0.4768388,0.8631494,0.1808505
1.073417,-0.3431608,-0.2420325,0.0795286,-0.1242042,-0.2016008,-0.5902849,1.223448,0.3015518
1.078002,-0.3294712,-0.2365471,0.08382167,-0.1111441,-0.1952381,-0.5992508,1.663954,0.4039996
1.01397,-0.3175389,-0.1666914,0.0193984,-0.09984645,-0.124358,-0.5350876,1.86684,0.4154981
0.9343908,-0.2848859,-0.08579996,-0.06066391,-0.06782552,-0.04230072,-0.4635789,1.586859,0.3786141
0.8666407,-0.2318158,-0.0352791,-0.1289804,-0.01537955,0.009518314,-0.4381928,1.294779,0.363708
0.8559159,-0.2174543,-0.03422939,-0.140343,-0.001630778,0.01198675,-0.4429338,1.215284,0.3457475
0.8379537,-0.2281488,-0.05778211,-0.1590005,-0.01292484,-0.01003941,-0.4137844,1.1674,0.3007764
0.7728349,-0.2494434,-0.04426509,-0.2248581,-0.0348045,0.005099868,-0.3909904,1.159871,0.2619965
0.7317619,-0.2838104,-0.02953656,-0.2666982,-0.06974029,0.02153484,-0.299171,1.136759,0.1766947
0.7051175,-0.2934466,-0.01167809,-0.2941213,-0.07992588,0.04117243,-0.1337674,1.13253,0.0783015
0.7021356,-0.2672546,0.006898256,-0.2978765,-0.05426042,0.06158879,-0.07130437,1.177791,0.07123268
0.7195985,-0.2313814,0.01138979,-0.2811645,-0.01888784,0.0679692,-0.0674751,1.129606,0.1371009
0.7324837,-0.1948037,0.03171992,-0.2689927,0.0172164,0.09022499,-0.07346451,1.034924,0.2007775
0.7548887,-0.1768639,0.03425508,-0.2472502,0.0347094,0.09471059,-0.1397077,0.8957229,0.2005715
0.7651176,-0.2045078,0.04913655,-0.2376214,0.006643759,0.1115554,-0.2423054,0.7724133,0.1307901
0.7732683,-0.2439865,0.09312581,-0.2299987,-0.0332331,0.157509,-0.3514352,0.7780946,0.01004712
0.7870667,-0.2665798,0.1285776,-0.216648,-0.0562008,0.1949135,-0.4180084,0.6786017,-0.1152851
0.8046694,-0.2767868,0.1822001,-0.1994057,-0.06675713,0.2504636,-0.4279861,0.4894482,-0.1618683
0.8573287,-0.2588855,0.2159016,-0.1470145,-0.04917796,0.2860526,-0.411538,0.3902947,-0.1717559
0.9140785,-0.2326823,0.2305708,-0.09043782,-0.02326814,0.3025533,-0.419244,0.271958,-0.203599
0.9354802,-0.2062954,0.2528391,-0.06911419,0.002854802,0.326581,-0.4253067,0.1365994,-0.1914383
0.9381756,-0.1622579,0.2509079,-0.06640409,0.04665662,0.3263215,-0.4046676,0.02370266,-0.1469468
0.9454981,-0.141909,0.2555853,-0.05897735,0.06679566,0.3325679,-0.4591955,-0.06324402,-0.09184919
0.9505808,-0.1541202,0.2579895,-0.0537045,0.05439633,0.3364245,-0.5254253,-0.1003012,0.006441781
0.9446169,-0.1714276,0.254477,-0.05939598,0.03691872,0.3342351,-0.5285484,-0.1517958,0.06696295
0.946398,-0.203884,0.2544365,-0.05726397,0.004306951,0.335377,-0.5264722,-0.2190458,0.07853049
0.9521991,-0.2490995,0.2108048,-0.05103729,-0.04105066,0.2927767,-0.5158802,-0.2666644,0.09264568
0.9675542,-0.2880561,0.1725338,-0.03518579,-0.08013561,0.2553786,-0.5161882,-0.2826382,0.09014318
1.034454,-0.3058781,0.1791304,0.03227703,-0.09807005,0.2626839,-0.4768589,-0.2709134,0.1601976
1.196942,-0.3317962,0.1804731,0.195386,-0.1240808,0.2645677,-0.3522499,-0.2354442,0.3493922
1.364118,-0.3963642,0.1692425,0.3632305,-0.188717,0.2537078,-0.2395613,-0.09448479,0.5186923
1.311376,-0.434002,0.1801247,0.3111844,-0.2263919,0.2647882,-0.22747,0.1159593,0.5406234
1.183282,-0.4448515,0.1987557,0.1837952,-0.2372392,0.2834431,-0.257066,0.1418275,0.486917
1.239374,-0.4817746,0.1812964,0.2405847,-0.2741117,0.2658324,-0.2203961,-0.08665741,0.4982749
1.292902,-0.4858824,0.1500009,0.294789,-0.278111,0.2342092,-0.2022535,-0.3422223,0.4727877
1.297304,-0.4807957,0.09559588,0.2998337,-0.2728485,0.1793013,-0.1605694,-0.5110436,0.3732643
1.272632,-0.5033491,0.02293181,0.2757553,-0.2951496,0.1059629,-0.009948771,-0.6515044,0.3086998
1.100791,-0.4782835,0.0116975,0.1044467,-0.2697472,0.09388944,0.1205826,-0.8010694,0.2099507
0.9742844,-0.4402457,0.01369549,-0.02159334,-0.2312809,0.0948921,0.2674539,-0.9215487,0.07292201
0.892562,-0.4349538,-0.03636868,-0.1029154,-0.2254634,0.04368586,0.3919874,-0.9435378,-0.105382
0.8197981,-0.456343,-0.09837366,-0.1753382,-0.2462264,-0.0195973,0.4586858,-0.9213385,-0.3577714
0.8957739,-0.4870344,-0.1421534,-0.09907115,-0.2761875,-0.06477858,0.5899376,-0.8848226,-0.521383
0.923962,-0.4437552,-0.1490061,-0.07063237,-0.2320705,-0.07314167,0.6940644,-0.816896,-0.6097125
0.9093517,-0.348915,-0.1406926,-0.08502526,-0.1362828,-0.06643205,0.7680517,-0.8112772,-0.7698844
0.929783,-0.2605481,-0.155566,-0.06440402,-0.04685995,-0.08298795,0.7869068,-0.821784,-0.9358178
0.8947095,-0.1878009,-0.1667982,-0.09930954,0.02704576,-0.09596704,0.689927,-0.7477137,-1.00291
0.8938296,-0.1486232,-0.1461178,-0.1000378,0.06747458,-0.07708409,0.6294821,-0.688388,-0.9841398
0.8635142,-0.0992378,-0.1286489,-0.1302123,0.1181915,-0.06145032,0.5482113,-0.7173989,-0.9477849
0.8173469,-0.07310932,-0.1417968,-0.1762426,0.1457175,-0.07645941,0.3823987,-0.7537797,-0.8780534
0.8379667,-0.09500669,-0.1446232,-0.1554822,0.1252687,-0.08116239,0.2201222,-0.7031218,-0.7531689
0.8247096,-0.09307964,-0.114706,-0.1685876,0.128681,-0.05312718,0.1143897,-0.5336455,-0.6740011
0.8105661,-0.1038401,-0.08959674,-0.1825607,0.119429,-0.02989644,0.09885409,-0.3626352,-0.64564
0.7993828,-0.1275852,-0.09173273,-0.1935477,0.09720353,-0.03390025,0.09322456,-0.411184,-0.5802453
0.7942624,-0.1144782,-0.1097853,-0.1984388,0.1118306,-0.0538037,0.09771683,-0.504133,-0.4906534
0.846837,-0.09185313,-0.1438549,-0.1455952,0.1359665,-0.08970093,0.1065087,-0.3570426,-0.358833
0.9179048,-0.07077225,-0.1840579,-0.07421383,0.1585387,-0.131701,0.08726082,-0.1718466,-0.2010061
0.983124,-0.07301491,-0.1736481,-0.008635135,0.157758,-0.1230499,0.1077261,0.002899593,-0.1221187
0.9839782,-0.08040601,-0.122308,-0.007377022,0.1517896,-0.07342186,0.1049301,0.1293376,-0.06864359
0.9534612,-0.04865643,-0.1036353,-0.03744928,0.1849133,-0.05640831,0.07729715,0.02416458,0.001464236
0.9620614,-0.007166959,-0.115199,-0.02836641,0.2277191,-0.06957381,0.02853499,-0.009479513,0.04969732
0.9786795,0.0255717,-0.136738,-0.01123034,0.2617063,-0.09265355,-0.1001285,0.02735029,0.1047918
1.016016,0.02941623,-0.1497544,0.02665595,0.2667207,-0.1071457,-0.1994267,-0.02765846,0.1178961
1.041985,0.01497024,-0.1332863,0.0532025,0.2533549,-0.09208395,-0.2405164,0.01584773,0.09763027
1.03232,0.02649841,-0.1219235,0.0441381,0.2658639,-0.08205449,-0.2631664,0.01463561,0.1231056
1.023572,0.02821507,-0.120955,0.03600691,0.2684529,-0.08234334,-0.279552,-0.003656633,0.1642583
0.9972754,0.02033142,-0.1187703,0.01033953,0.2613251,-0.08133769,-0.289214,0.04044779,0.2316342
0.9818865,0.02725201,-0.1213542,-0.004412064,0.2688775,-0.0850207,-0.2669958,-0.02695835,0.3118621
1.010411,0.009553611,-0.1273643,0.02475496,0.2516807,-0.09204825,-0.26407,-0.0767634,0.3404873
1.055911,-0.03557508,-0.1689282,0.07089961,0.2069184,-0.1345463,-0.2581014,-0.1204559,0.3391046
1.117345,-0.09170283,-0.2391569,0.1329764,0.1510189,-0.2056232,-0.2501561,-0.2063821,0.2986849
1.187491,-0.1225092,-0.2750754,0.2037561,0.1203028,-0.242299,-0.2894847,-0.3074865,0.1949525
1.235903,-0.1396546,-0.2749537,0.2527824,0.1031124,-0.2428372,-0.2952032,-0.5471955,0.09930932
1.290091,-0.2314007,-0.305666,0.3075543,0.01119028,-0.2741048,-0.2117472,-0.7518556,0.09715292
1.401429,-0.331143,-0.3720786,0.4194303,-0.08885129,-0.3409603,-0.03252645,-0.740359,0.1674759
1.497792,-0.348829,-0.4200689,0.516269,-0.1069485,-0.3892722,0.1622315,-0.5679775,0.241915
1.490944,-0.3443181,-0.4356498,0.5098147,-0.1029472,-0.4050426,0.2839957,-0.2624207,0.2940869
1.396494,-0.3456834,-0.3789666,0.4156553,-0.1049066,-0.3484063,0.3714691,0.07201801,0.2674106
1.23431,-0.3398096,-0.271402,0.2536428,-0.09969838,-0.2407375,0.4236967,0.2821987,0.187434
1.084394,-0.3114654,-0.2088993,0.1037704,-0.07207891,-0.1779754,0.4177423,0.5252167,0.1666235
1.025098,-0.2616043,-0.1696952,0.04438923,-0.02299141,-0.1383577,0.336799,0.9253027,0.2092337
1.016743,-0.2341198,-0.1324919,0.03582501,0.003678774,-0.1005905,0.1951442,1.155003,0.278891
1.020329,-0.206074,-0.09130401,0.03908641,0.03087532,-0.05869475,0.07030786,1.302143,0.3007912
0.9959635,-0.1367564,-0.0115294,0.01428609,0.09931253,0.02192319,-0.03105268,1.490126,0.2687744
0.9503396,-0.08390479,0.033185,-0.03187331,0.1512536,0.06760513,-0.1488633,1.294337,0.2599413
0.9438755,-0.09173525,0.01930627,-0.03896482,0.1424814,0.05480477,-0.2654113,0.8864685,0.2216566
0.9316852,-0.1089055,0.01139523,-0.05186442,0.1243357,0.04806911,-0.2935635,0.5676208,0.1873406
0.8756896,-0.1348687,-0.01136905,-0.1086407,0.09736183,0.02656437,-0.2536021,0.403891,0.1822776
0.8136509,-0.2209416,-0.03996664,-0.1715195,0.01024302,-0.0007008893,-0.2111348,0.5319891,0.1075652
0.7622133,-0.2803528,-0.0106317,-0.223843,-0.05024636,0.03002924,-0.08089488,0.6305013,0.0286446
0.7483291,-0.2438988,0.02522454,-0.2386433,-0.0148974,0.06733398,0.0759255,0.7228095,0.01239308
0.7674442,-0.2114945,0.006917239,-0.2204581,0.01638103,0.05051843,0.102877,0.8929409,0.07482756
0.7696721,-0.2006655,0.00683807,-0.2191588,0.02606828,0.05196424,0.0779932,0.8744566,0.1888807
0.761579,-0.1593989,0.05140538,-0.2281651,0.06618012,0.0980801,0.06463596,0.913691,0.2274588
0.7497299,-0.136186,0.08677946,-0.2408991,0.08822703,0.1350163,-0.02833929,0.860398,0.1860816
0.728069,-0.1351289,0.1049584,-0.263404,0.08810715,0.1547597,-0.1723975,0.6135329,0.1329249
0.748554,-0.1272554,0.1041667,-0.2437098,0.09479235,0.1555232,-0.2715525,0.6201957,0.1186492
0.7912428,-0.1310863,0.118598,-0.2017478,0.08976099,0.171489,-0.3720262,0.6473906,0.1433081
0.8026626,-0.1306092,0.1520548,-0.190982,0.0890252,0.206448,-0.4645779,0.5768238,0.1814946
0.8508956,-0.1531256,0.1643329,-0.1433234,0.065283,0.2201845,-0.4733984,0.518372,0.2596197
0.9569194,-0.2272296,0.213855,-0.03779056,-0.01005875,0.2711095,-0.4152085,0.3054334,0.3315348
1.01408,-0.2808725,0.264496,0.01896234,-0.06494844,0.3230849,-0.3080082,0.03835495,0.3571871
0.9659823,-0.2905715,0.2468074,-0.02946331,-0.07589774,0.3066489,-0.199518,-0.1934403,0.3464385
0.8940596,-0.306942,0.253199,-0.1016379,-0.09351474,0.3141976,-0.1390897,-0.2756726,0.3075788
0.866546,-0.3232607,0.2708665,-0.1293291,-0.1110689,0.3329143,-0.1115849,-0.2190973,0.259323
0.8597848,-0.2940267,0.252806,-0.1361928,-0.08305139,0.3157837,-0.07712863,-0.2073088,0.1835265
0.8821228,-0.2709017,0.2567466,-0.1138808,-0.06111756,0.320524,-0.0220624,-0.1727652,0.1105369
0.9160541,-0.2893105,0.2590796,-0.07989847,-0.08068651,0.3235175,0.004142757,-0.1850332,0.07111493
0.9391165,-0.2941563,0.2496392,-0.05670857,-0.08665679,0.3145901,0.04416453,-0.2513364,0.07869998
0.9595673,-0.3188552,0.2467877,-0.03605629,-0.1124396,0.3120968,0.1594791,-0.2819423,0.1406959
0.9613789,-0.3693374,0.2090672,-0.03397239,-0.1639597,0.2745743,0.2917682,-0.3669083,0.2069107
1.053015,-0.4234537,0.1684216,0.05800173,-0.2190611,0.2339625,0.4122471,-0.3861861,0.3209159
1.251489,-0.5078702,0.159661,0.256873,-0.3044009,0.2250701,0.5427172,-0.2533393,0.4694455
1.37357,-0.5329863,0.1526673,0.3793955,-0.3303672,0.2177791,0.6854749,-0.0759336,0.5023149
1.362119,-0.4562352,0.1776972,0.3684123,-0.2543808,0.2423476,0.7406173,0.02224345,0.3810153
1.252944,-0.3544143,0.2253533,0.2597087,-0.1532289,0.2893792,0.6843554,-0.06492648,0.237463
1.102246,-0.2892669,0.2183505,0.1094694,-0.08864933,0.2815887,0.6685563,-0.2578456,0.2302758
1.028591,-0.2994856,0.2015134,0.0362508,-0.0993336,0.2638005,0.6722598,-0.5121667,0.2746838
1.100324,-0.3677294,0.2083073,0.1083928,-0.167941,0.2694801,0.6711243,-0.8256939,0.2694699
1.163274,-0.4675265,0.1505089,0.171721,-0.2679989,0.2104057,0.7553302,-1.087154,0.2750239
1.083027,-0.5460235,0.05139763,0.09181601,-0.3466491,0.1098602,0.8343242,-1.207024,0.2086412
1.00862,-0.5731175,-0.01877319,0.01771006,-0.3737809,0.03810412,0.8659473,-1.135001,0.04398963
