accx,accy,accz,body_accx,body_accy,body_accz,body_gyrox,body_gyroy,body_gyroz
1.145432,-0.4676075,-0.2234042,0.1584867,-0.1251079,-0.07464315,-0.2106838,0.1752136,-0.2767425
1.213244,-0.5395097,-0.2002375,0.2274459,-0.1956213,-0.05164241,-0.113683,0.1149828,-0.2815079
1.307843,-0.6653929,-0.2310577,0.3231663,-0.3201865,-0.08257441,0.1023842,0.2668766,-0.1066836
1.315214,-0.7320684,-0.2810225,0.3316192,-0.3855997,-0.1325965,0.3088558,0.4400596,0.1308798
1.160412,-0.7283703,-0.2536315,0.1778433,-0.3806772,-0.1052068,0.3930293,0.3596891,0.258294
1.000742,-0.6831166,-0.2128025,0.01913268,-0.3342186,-0.06432164,0.3685273,0.255853,0.20498
0.9612058,-0.6137222,-0.185701,-0.0195131,-0.2636226,-0.03710658,0.3922832,0.2355259,0.1198681
1.030903,-0.5510546,-0.1132391,0.05100472,-0.1997444,0.03552415,0.4136955,0.1050502,0.07997509
1.082114,-0.4495073,-0.05914179,0.1029699,-0.09696978,0.08984121,0.3577721,0.001133324,0.03125968
1.063998,-0.3527304,-0.05401731,0.08554002,0.001054113,0.09522906,0.3210918,-0.06549939,0.05003101
1.046895,-0.3197434,-0.08556561,0.06905241,0.03530576,0.06397969,0.1611768,-0.1102604,0.06805269
1.001665,-0.2987964,-0.1239231,0.02436943,0.05752992,0.02594949,-0.04828447,-0.001048005,0.04446906
0.934668,-0.3189742,-0.118277,-0.0421495,0.03863527,0.0319456,-0.1240807,0.1338587,0.03903076
0.8349462,-0.3771863,-0.106732,-0.1414571,-0.01829345,0.04385913,-0.144001,0.1902493,-0.004972021
0.7126916,-0.3735517,-0.09246099,-0.2633527,-0.0133796,0.05851261,0.0001891077,0.1610274,0.005300251
0.6928566,-0.3479004,-0.07663122,-0.2828711,0.01354386,0.07473417,0.2375222,0.1494526,0.06077374
0.6841299,-0.3369616,-0.07347282,-0.291308,0.02574487,0.07828854,0.3582691,0.2577654,0.06543801
0.6445117,-0.2893989,-0.04566649,-0.3306469,0.07455583,0.1064896,0.3626801,0.314073,0.08247255
0.6658362,-0.2361001,-0.02535968,-0.309038,0.1290837,0.127184,0.2646303,0.2553691,0.07368905
0.667061,-0.2006609,-0.015609,-0.3075085,0.1657256,0.1373088,0.1356818,0.1557857,0.07431543
0.7076063,-0.2060311,-0.0009765864,-0.2666247,0.1615233,0.1522948,-0.01945415,0.09653119,0.1089056
0.8117535,-0.2550789,-0.004699151,-0.1620944,0.1135997,0.1488987,-0.1468918,0.1346987,0.1110129
0.822394,-0.2966033,-0.00295273,-0.1510193,0.07314938,0.1509376,-0.1803782,0.1535798,0.123425
0.8195064,-0.3577979,-0.0005330986,-0.153417,0.01297443,0.1536098,-0.1807445,0.1351589,0.0684195
0.873554,-0.4075735,0.006543892,-0.09882186,-0.03583679,0.1608936,-0.09657047,0.1483544,-0.09549327
0.916962,-0.4075689,0.02816535,-0.05480822,-0.0349216,0.1826708,0.03277159,0.1725563,-0.3083785
0.9483879,-0.3854138,0.04099118,-0.02272033,-0.0119069,0.1955956,0.09296898,0.1759879,-0.5230616
0.9550551,-0.3203903,0.05337916,-0.01533848,0.05392735,0.2080199,0.08385936,0.1171722,-0.586955
0.974223,-0.2690092,0.05002738,0.004592008,0.1060703,0.2046359,0.07352909,-0.02270589,-0.5078639
1.047585,-0.2649268,0.01318211,0.07875923,0.1108636,0.1676847,0.1194733,-0.2189529,-0.3698129
1.167552,-0.3225533,-0.05548579,0.1995648,0.05389383,0.09883357,0.2062469,-0.3514906,-0.1300078
1.318137,-0.4688594,-0.1270759,0.3510103,-0.09181095,0.02698235,0.4034934,-0.338211,0.0552537
1.357534,-0.5523757,-0.1263924,0.3912726,-0.1747778,0.02732963,0.5984884,-0.309593,-0.001145199
1.221586,-0.519666,-0.07955076,0.2561728,-0.1415624,0.07376414,0.5707256,-0.3550869,-0.09971925
1.101757,-0.4745052,-0.07457449,0.1371604,-0.0959307,0.07826591,0.4024098,-0.4118111,-0.0702541
1.106976,-0.456223,-0.1309823,0.1431519,-0.07720486,0.02131925,0.1663362,-0.5133692,0.007617367
1.08654,-0.4933129,-0.2354828,0.1234379,-0.1138726,-0.08378024,-0.02814938,-0.6285085,0.191587
0.9709077,-0.5604417,-0.3171386,0.008472355,-0.1805948,-0.1660874,-0.06555993,-0.5409874,0.3787801
0.8929712,-0.6003212,-0.32813,-0.06885287,-0.2200756,-0.1777709,-0.09826801,-0.3565385,0.3916179
0.8980351,-0.6068316,-0.3154714,-0.06323031,-0.2261859,-0.1658323,-0.1693669,-0.277855,0.3556899
0.9804455,-0.6049849,-0.2961924,0.01969083,-0.2239276,-0.1472883,-0.1688107,-0.2045417,0.2472578
1.080144,-0.6090403,-0.2745605,0.1198552,-0.2275503,-0.1263954,-0.06457791,-0.1778192,0.07018988
1.05116,-0.5893514,-0.260991,0.09129042,-0.2073987,-0.1135595,0.105363,-0.2417301,-0.05320292
0.9690237,-0.5070051,-0.2184308,0.009524554,-0.1245524,-0.07171973,0.2677169,-0.3141306,-0.1550978
0.9311874,-0.4071562,-0.1658452,-0.02798916,-0.02416252,-0.0198359,0.38358,-0.4219704,-0.1976901
0.906143,-0.3973832,-0.1773693,-0.05275661,-0.01380743,-0.03203989,0.4149598,-0.4723589,-0.187172
0.8878191,-0.3819316,-0.2135267,-0.07084465,0.002264236,-0.06885297,0.3586484,-0.4092317,-0.1516472
0.8085567,-0.2700604,-0.2051575,-0.1499064,0.1147886,-0.06111288,0.2403066,-0.3218084,-0.1252965
0.7404452,-0.2458957,-0.1957201,-0.2178443,0.1396323,-0.05227503,0.07226086,-0.2497574,-0.1802667
0.7387826,-0.2854405,-0.1688757,-0.2193502,0.1007832,-0.02599846,-0.03369212,-0.2565764,-0.2435374
0.6712249,-0.2547875,-0.1186934,-0.2867556,0.132139,0.02364884,-0.008557475,-0.3220591,-0.2795503
0.6349452,-0.2577639,-0.1371737,-0.3228746,0.1298639,0.004665804,0.06980052,-0.3689756,-0.2735948
0.6851336,-0.2762921,-0.1669803,-0.2725029,0.1120272,-0.02561257,0.1688715,-0.381002,-0.2092872
0.7064758,-0.2610859,-0.1807931,-0.2509421,0.1279076,-0.03986643,0.2462399,-0.3145024,-0.1226818
0.7595472,-0.2720205,-0.2285335,-0.1976065,0.1176231,-0.08801662,0.2625384,-0.2216087,-0.07092416
0.8171155,-0.2735576,-0.2337953,-0.139721,0.1167057,-0.09365469,0.3200819,-0.1988332,-0.1032828
0.8217016,-0.2740653,-0.2147683,-0.1347604,0.1167817,-0.07496754,0.4205298,-0.1785255,-0.09819897
0.8594053,-0.2786291,-0.2254828,-0.09662294,0.1127606,-0.08598293,0.4550218,-0.1298502,-0.03324619
0.8994218,-0.2417062,-0.2405962,-0.05611308,0.1501806,-0.1013559,0.3964536,-0.1146502,0.01456804
0.9380883,-0.2164927,-0.2708479,-0.01689544,0.1758405,-0.131823,0.2622237,-0.06410156,0.04887161
1.023979,-0.2323049,-0.2896873,0.06960048,0.1604184,-0.1508305,0.1429561,0.05910954,-0.009563797
1.077117,-0.2693069,-0.2896858,0.1233901,0.1237449,-0.1509454,0.1070736,0.1508021,-0.09523907
1.077278,-0.3146763,-0.2915678,0.1242392,0.0786389,-0.152888,0.1398574,0.1836135,-0.1211928
1.071571,-0.3502661,-0.2724203,0.1192471,0.04324617,-0.1337414,0.2177252,0.1976556,-0.180475
1.068406,-0.3626818,-0.2481453,0.1168138,0.03096215,-0.1094047,0.3030894,0.1958498,-0.2610335
1.070042,-0.3480168,-0.2451431,0.1191877,0.04569551,-0.1062767,0.2688185,0.1593007,-0.2954489
1.077006,-0.346483,-0.2627788,0.1268887,0.04723679,-0.1237214,-0.03362947,0.06192558,-0.2751611
1.124876,-0.3896782,-0.2797508,0.1754858,0.003990417,-0.1404366,-0.3369198,-0.07987323,-0.2507718
1.232495,-0.516096,-0.2812556,0.283811,-0.1225331,-0.1416175,-0.2547489,-0.1183685,-0.227751
1.351463,-0.7039258,-0.3131242,0.4034531,-0.3105151,-0.1730935,0.06307172,0.1112859,-0.1032815
1.37833,-0.7905046,-0.3546102,0.4309449,-0.3972777,-0.2141158,0.3304438,0.4798466,0.06813475
1.232821,-0.7585242,-0.31466,0.285993,-0.3654933,-0.1736278,0.4447198,0.6173706,0.1286191
1.028182,-0.6927211,-0.229853,0.08183,-0.299878,-0.08820656,0.39004,0.4039208,0.1059133
0.9581679,-0.5728233,-0.1762394,0.01220549,-0.1801435,-0.0339029,0.3058783,0.1613633,0.1133436
1.019738,-0.4819611,-0.1432078,0.07408047,-0.08940905,-0.0001091411,0.2319476,0.1194377,0.1166441
1.054626,-0.4787512,-0.1260055,0.1091895,-0.08628595,0.01792111,0.09980776,0.1222923,0.06364616
1.036815,-0.4547584,-0.1211767,0.09151808,-0.06233676,0.02363621,-0.0107177,0.104205,0.04474948
1.038233,-0.4256162,-0.1183181,0.09299492,-0.03319428,0.02743202,-0.1051282,0.1434564,0.08581064
1.004695,-0.4310196,-0.1308989,0.05943661,-0.0385542,0.0158317,-0.1724659,0.2158461,0.1304451
0.9325143,-0.4206122,-0.1482666,-0.01284337,-0.02806121,-0.0005189465,-0.150989,0.2706479,0.1381015
0.8773662,-0.4244992,-0.1502819,-0.06816306,-0.03182213,-0.001486616,-0.1385679,0.2574008,0.09262244
0.8026744,-0.4355994,-0.1301455,-0.1430914,-0.04275746,0.01972278,-0.03717307,0.2349358,0.06093704
0.7302471,-0.4161311,-0.1040488,-0.2158092,-0.02308692,0.04691246,0.1737261,0.2599559,0.06392215
0.6907247,-0.3854437,-0.09719702,-0.2556622,0.007838164,0.05487095,0.2850389,0.2792437,0.08134499
0.6563067,-0.3346825,-0.09341719,-0.2904355,0.05886959,0.05976485,0.2782794,0.3084979,0.09400909
0.6312189,-0.2794989,-0.07670063,-0.3158862,0.1143509,0.07759619,0.1874146,0.3007269,0.05532553
0.6638316,-0.2401123,-0.05273775,-0.2836273,0.1540555,0.1026678,0.09788182,0.2405343,-0.00329745
0.7490397,-0.2182843,-0.03715916,-0.198749,0.1762128,0.1193418,0.01227217,0.2158818,-0.03022994
0.7819044,-0.2291467,-0.03804773,-0.1661783,0.1656809,0.1195278,-0.1162128,0.1841485,0.00119664
0.7795354,-0.2620563,-0.03291219,-0.1687975,0.1330937,0.1257094,-0.2283023,0.153119,0.03115951
0.8015603,-0.3221999,-0.01955835,-0.1469725,0.07325664,0.1400737,-0.3151522,0.1825325,-0.03152981
0.824271,-0.3842939,0.001068921,-0.1244068,0.01144847,0.1616686,-0.2518282,0.2267456,-0.1556004
0.8667392,-0.386804,0.03331533,-0.0820254,0.009201816,0.1948324,-0.1001015,0.2366334,-0.3467039
0.8896908,-0.3388505,0.043421,-0.05910091,0.0573958,0.2057973,-0.05149808,0.1997989,-0.5463249
0.8848869,-0.2630315,0.02884334,-0.06387256,0.1334313,0.1920125,-0.07695926,0.1260859,-0.5952016
0.9086908,-0.1847117,0.01716359,-0.03997839,0.2119395,0.1810517,-0.1852686,0.002514763,-0.5268799
0.9563728,-0.1705734,-0.009623941,0.007849829,0.2262313,0.1549031,-0.288995,-0.1160304,-0.4356371
1.018944,-0.2583577,-0.05530012,0.07061963,0.1385573,0.1097814,-0.3283633,-0.1667843,-0.3394321
1.063427,-0.4237154,-0.09298984,0.1153465,-0.02673859,0.07255965,-0.2977999,-0.2156478,-0.2685603
1.146976,-0.575923,-0.1348316,0.1991765,-0.1789321,0.03109959,-0.07091286,-0.2310788,-0.2069263
1.329668,-0.6144524,-0.1724573,0.3821736,-0.2174872,-0.006228144,0.311697,-0.115141,-0.1520237
1.43506,-0.5403091,-0.1702985,0.4878774,-0.1433977,-0.003850826,0.5845977,0.004443498,-0.2049968
1.31681,-0.4368016,-0.1362281,0.369924,-0.03996123,0.03036369,0.4605185,-0.07754151,-0.283129
1.121354,-0.3675202,-0.1046977,0.1747293,0.02923779,0.06196799,0.1726598,-0.2575659,-0.1778555
1.029054,-0.3798202,-0.1381014,0.08264364,0.01684617,0.02857071,-0.006210925,-0.3942309,0.0687144
1.012118,-0.5002445,-0.236072,0.06586907,-0.1036778,-0.06945726,-0.1631466,-0.5033014,0.3518077
1.025254,-0.625529,-0.3242752,0.0791128,-0.2290665,-0.1577757,-0.104181,-0.3858943,0.4736522
1.033376,-0.636866,-0.3625821,0.08728836,-0.2405035,-0.1962456,-0.07503188,-0.1468017,0.340392
1.015576,-0.5929488,-0.3171022,0.06948863,-0.1966712,-0.1509642,-0.2448211,-0.1120021,0.2368224
1.027629,-0.5762531,-0.2473516,0.08148664,-0.1800349,-0.0814364,-0.1784655,-0.1103724,0.1106824
1.010525,-0.5472222,-0.2183262,0.06427415,-0.1510301,-0.05264942,-0.07383859,-0.1337696,-0.06785154
0.9522389,-0.4825339,-0.1760396,0.005826113,-0.08632851,-0.01061148,0.06778633,-0.2486132,-0.08789489
0.9088954,-0.4202569,-0.1552577,-0.0377299,-0.02399578,0.009914481,0.31266,-0.2964001,-0.1680649
0.8675142,-0.3468258,-0.179905,-0.07936925,0.04953292,-0.01499423,0.3085005,-0.3547264,-0.2351492
0.8571445,-0.2502767,-0.199702,-0.09003596,0.1462175,-0.03505659,0.2893995,-0.4049405,-0.1639465
0.8439418,-0.1880025,-0.2124577,-0.1035665,0.2086568,-0.04807935,0.2093462,-0.3976795,-0.1669548
0.8194509,-0.1975867,-0.2013971,-0.128408,0.1992562,-0.03728492,-0.05201325,-0.3232351,-0.1268086
0.7775644,-0.2357562,-0.1811032,-0.170659,0.1612772,-0.01725334,-0.1674901,-0.157629,-0.1238364
0.6857748,-0.2543395,-0.1591689,-0.262817,0.1428809,0.004423985,-0.2031371,-0.1196516,-0.241621
0.6476892,-0.2739891,-0.1465454,-0.3012622,0.1234067,0.01679678,-0.1923808,-0.180457,-0.3013337
0.6633744,-0.2748643,-0.1704214,-0.2859138,0.1226886,-0.007323863,-0.08809483,-0.210744,-0.3257636
0.7030042,-0.2545371,-0.1950595,-0.246584,0.143149,-0.03220016,0.08605434,-0.2844789,-0.2437727
0.7768054,-0.2601759,-0.2339518,-0.1730344,0.1376139,-0.07132308,0.2989843,-0.3085192,-0.1168842
0.8149634,-0.2509183,-0.2581982,-0.1350717,0.1469404,-0.09578957,0.3778822,-0.2074015,-0.04820169
0.8601515,-0.2418145,-0.2353912,-0.090018,0.1560733,-0.07318854,0.3724906,-0.06782397,0.01332974
0.9301308,-0.2373796,-0.2362069,-0.02011063,0.1604925,-0.07419231,0.3392284,-0.02601983,-0.0002787563
0.9448537,-0.2078213,-0.2390128,-0.005398505,0.1899852,-0.07716512,0.2887031,-0.08156874,0.001066295
0.9605066,-0.2194109,-0.2374094,0.01030142,0.178275,-0.07570469,0.301681,-0.09260707,0.02291873
1.044941,-0.2313321,-0.2646337,0.09483577,0.1661734,-0.1030453,0.29173,-0.0492707,0.004678907
1.074263,-0.2258691,-0.2691752,0.1243036,0.1713919,-0.1076735,0.2605547,0.03196865,0.009376208
1.030513,-0.2586013,-0.2411601,0.08073664,0.1383478,-0.07971211,0.267063,0.1059994,-0.06422297
1.049345,-0.276752,-0.2169045,0.09978027,0.1198159,-0.05547497,0.3220861,0.06393407,-0.1647857
1.061145,-0.2718528,-0.2247661,0.1118135,0.1242637,-0.06331853,0.4840067,-0.02592127,-0.1680033
1.084587,-0.2823918,-0.2527959,0.1355028,0.1132031,-0.09129309,0.6754059,-0.03624876,-0.1248634
1.199647,-0.3320459,-0.2902363,0.2508147,0.0629578,-0.1286398,0.7218244,0.00766905,-0.07273405
1.247231,-0.3830854,-0.3390455,0.2986446,0.01126004,-0.177314,0.5123356,0.02788608,-0.05179107
1.219882,-0.4051031,-0.3281124,0.2715206,-0.0114784,-0.1662004,0.1508427,-0.03641025,-0.1025275
1.216287,-0.5368725,-0.2847439,0.2681185,-0.144024,-0.1226014,0.008560444,-0.1513387,-0.2200694
1.22332,-0.7564262,-0.2661886,0.2752975,-0.3643981,-0.1037625,0.3224484,-0.153359,-0.2726333
1.195792,-0.8015933,-0.2274884,0.2478604,-0.4104114,-0.06472441,0.8178503,-0.02223,-0.1979938
1.121826,-0.6545793,-0.2333733,0.1739182,-0.2642479,-0.07021739,0.9783557,0.1157009,-0.0866011
1.084607,-0.515605,-0.2562677,0.1366523,-0.1261095,-0.092667,0.6874941,0.1635931,0.03080765
1.099074,-0.4332002,-0.192754,0.1509966,-0.04451418,-0.02865695,0.3306268,0.12604,0.06705776
1.121937,-0.3760523,-0.1380225,0.1736607,0.01185594,0.02661996,0.1278738,0.1181496,0.02601757
1.12391,-0.3465806,-0.1095829,0.1753551,0.04058233,0.05564932,-0.1199249,0.06679824,0.034925
1.088827,-0.3274676,-0.09452762,0.1399118,0.05898133,0.07133197,-0.3565474,-0.02352304,0.07087661
1.042287,-0.3496897,-0.1330503,0.09292956,0.03607388,0.03346696,-0.3445096,0.06417078,0.1138981
0.9799054,-0.402585,-0.1536372,0.03002453,-0.01748041,0.01356161,-0.2562191,0.1929197,0.1488749
0.8996245,-0.4189689,-0.1465194,-0.05085608,-0.03449738,0.02137959,-0.1698826,0.1999861,0.09541993
0.7817371,-0.4214961,-0.1287067,-0.1694117,-0.03763104,0.03990685,0.01718105,0.1717156,0.02179998
0.6687237,-0.4194733,-0.09702673,-0.2831491,-0.03618646,0.07231099,0.2306174,0.1483147,0.03348631
0.6370489,-0.3978513,-0.0848146,-0.3155864,-0.01511336,0.08525127,0.417741,0.1741941,0.05491467
0.6334916,-0.3540482,-0.08331375,-0.3199253,0.02817082,0.08747816,0.4607738,0.1997767,0.05365356
0.6356649,-0.2802118,-0.08603755,-0.3185328,0.1015167,0.08547208,0.3936571,0.1720357,0.06547057
0.6654828,-0.2310378,-0.08107183,-0.2894767,0.1502245,0.09114135,0.3243825,0.1715808,0.01857511
0.7442896,-0.2298569,-0.07583489,-0.2113967,0.150957,0.09706217,0.1768237,0.201333,-0.05267792
0.8290197,-0.2420688,-0.07034095,-0.1273463,0.1383071,0.103215,0.1091297,0.2478878,-0.05418119
0.8268953,-0.2515152,-0.04111371,-0.1300958,0.1284262,0.1330709,0.09303665,0.2797854,-0.02565733
0.8014735,-0.2554089,-0.023547,-0.1560829,0.1240953,0.1512302,-0.006077987,0.2058926,0.001191529
0.8086255,-0.2776175,-0.007393571,-0.1494318,0.101442,0.167934,0.05240974,0.09726307,0.002009085
0.8602477,-0.3289112,0.008033352,-0.09824218,0.04969209,0.1838624,0.1966068,0.06686377,-0.08917981
0.9350154,-0.3665546,0.002966176,-0.02383635,0.01157946,0.179241,0.2702068,0.05036292,-0.2592435
0.9325292,-0.3158532,0.003616131,-0.02661458,0.06179859,0.1802746,0.351141,0.009667415,-0.3828329
0.9178059,-0.2244365,-0.005312484,-0.04156232,0.1527194,0.1716618,0.3687166,0.004625941,-0.3947111
0.9421616,-0.2221436,0.006706136,-0.01736624,0.1544999,0.1839231,0.3794929,-0.03131707,-0.3278529
0.9564539,-0.2480733,0.02424682,-0.003171576,0.128037,0.2016289,0.4538856,-0.1714525,-0.2379445
1.062931,-0.2834115,-0.04547135,0.1032659,0.09214035,0.1319938,0.5642071,-0.3067372,-0.1931068
1.259105,-0.4067688,-0.1616846,0.2994497,-0.03180205,0.01577965,0.756272,-0.3587485,-0.1072959
1.327828,-0.4885387,-0.2264016,0.3682177,-0.1141816,-0.04901994,0.894119,-0.3456042,0.03093055
1.265026,-0.5114872,-0.1913181,0.3054797,-0.1377577,-0.01409474,0.9312976,-0.3302301,0.01522462
1.25701,-0.5777572,-0.1252477,0.2975263,-0.2046637,0.05174853,0.9450548,-0.3905195,-0.07012709
1.253399,-0.581396,-0.1097291,0.2939624,-0.208936,0.06697572,0.8319084,-0.466793,-0.08884051
1.126148,-0.5441749,-0.1088031,0.1667271,-0.1723343,0.06754896,0.7021806,-0.5173038,-0.1304629
0.9309926,-0.5840393,-0.1216819,-0.02845054,-0.2127933,0.05425822,0.7284789,-0.5599738,-0.1419506
0.8202872,-0.5987088,-0.1298104,-0.1392177,-0.2280222,0.04566088,0.7853676,-0.5581405,-0.1692485
0.9197948,-0.5691223,-0.1382651,-0.03980592,-0.1989504,0.03668329,0.8500913,-0.5527775,-0.2858237
1.040155,-0.5606782,-0.1988322,0.08043034,-0.190967,-0.02445724,1.016898,-0.5404773,-0.3145775
1.003572,-0.5222336,-0.2200467,0.04369808,-0.1529219,-0.0462907,1.181775,-0.5006758,-0.2857835
0.9797553,-0.4856492,-0.1785863,0.01970528,-0.1166703,-0.005488489,1.275822,-0.499336,-0.3147862
0.9607493,-0.4688851,-0.1482327,0.0004983543,-0.1001694,0.02417323,1.385227,-0.5341854,-0.3599044
0.9094398,-0.4474171,-0.1440228,-0.05103522,-0.07889339,0.02766164,1.47817,-0.6055281,-0.4319489
0.9093827,-0.4443935,-0.1561646,-0.05133624,-0.07599065,0.01477187,1.507842,-0.6704704,-0.4530354
0.8885691,-0.3937636,-0.1602139,-0.07240889,-0.02541139,0.009951044,1.456654,-0.6598761,-0.3655036
0.8900323,-0.321384,-0.209112,-0.07121496,0.04698494,-0.03973882,1.244583,-0.5862098,-0.3013619
0.9076135,-0.2816134,-0.2697908,-0.05390824,0.0868342,-0.1012247,0.9793345,-0.4516852,-0.3324585
0.8726225,-0.2753484,-0.2431497,-0.08917439,0.09323204,-0.07539956,0.8879285,-0.3571534,-0.4048466
0.8439709,-0.3396953,-0.203556,-0.118097,0.02906385,-0.03662401,1.004318,-0.3698099,-0.443074
0.782353,-0.3668665,-0.1830901,-0.179976,0.002110563,-0.01697305,1.149412,-0.3429044,-0.414473
0.7663816,-0.3572666,-0.1572622,-0.1961906,0.01196286,0.008046636,1.263868,-0.2564597,-0.3666452
0.8184191,-0.3363612,-0.1531051,-0.1443703,0.0331512,0.01140425,1.375239,-0.2624078,-0.3574016
0.8134921,-0.2373292,-0.1465705,-0.1494811,0.132492,0.0171493,1.346884,-0.3455496,-0.325498
0.8358467,-0.2054868,-0.1445488,-0.127271,0.1646619,0.01839204,1.26849,-0.393431,-0.2398666
0.885573,-0.2293152,-0.1680417,-0.07764548,0.1411707,-0.005868562,1.223216,-0.36528,-0.1968925
0.9135878,-0.2407502,-0.1701798,-0.04968552,0.1300733,-0.008762082,1.14921,-0.2713275,-0.1950606
0.9457533,-0.2866015,-0.1533486,-0.01752865,0.08455209,0.007327333,1.227289,-0.221052,-0.2007057
0.9466879,-0.2753191,-0.1368758,-0.01655789,0.0961512,0.02307281,1.359717,-0.2547546,-0.2001451
0.9559372,-0.2366455,-0.107329,-0.007229962,0.1351229,0.0519068,1.372036,-0.2856655,-0.1632102
0.9653358,-0.1984095,-0.1095087,0.002287033,0.1736329,0.04902804,1.345716,-0.2968308,-0.1105999
0.9435745,-0.1385119,-0.1360878,-0.01931914,0.2337731,0.02176219,1.28967,-0.352607,-0.005739464
0.9327092,-0.1237825,-0.1445335,-0.02999494,0.2487052,0.01264132,1.308147,-0.4970381,0.1448369
0.9389363,-0.153223,-0.1615693,-0.02354591,0.2194178,-0.005058128,1.36831,-0.5712561,0.273905
0.9830168,-0.2182831,-0.1706896,0.02078689,0.1544529,-0.01482961,1.391037,-0.4774505,0.3316648
1.022671,-0.2430687,-0.1664438,0.06072081,0.1296988,-0.01122139,1.404958,-0.440615,0.2722682
0.9942704,-0.2099839,-0.1568598,0.03262304,0.1627479,-0.002259922,1.316201,-0.5698691,0.2333593
0.9784305,-0.2198097,-0.1369633,0.01710438,0.1528168,0.01702974,1.263865,-0.6966051,0.2980805
1.063116,-0.2776237,-0.1459859,0.1021254,0.09482545,0.007416383,1.33062,-0.6917029,0.3488983
1.186009,-0.3365869,-0.1490202,0.2253626,0.03561256,0.003807376,1.31315,-0.6697613,0.3678112
1.228924,-0.3201531,-0.1123538,0.2686195,0.05172639,0.03991499,1.058932,-0.7455455,0.3700271
1.207675,-0.3033239,-0.07946338,0.2476992,0.0681687,0.07226145,0.6073901,-0.829311,0.3193703
1.228474,-0.3994551,-0.06936645,0.2687984,-0.02841288,0.081827,0.3484824,-0.8779152,0.2063742
1.28694,-0.5037929,-0.07880925,0.3275259,-0.133259,0.07186221,0.3825891,-0.8606417,0.1207416
1.28109,-0.5656442,-0.07648202,0.3218845,-0.1956668,0.07367368,0.3905305,-0.6441202,0.1891422
1.204777,-0.5798539,-0.06174242,0.2457148,-0.2104684,0.0879008,0.3155937,-0.2905647,0.2724088
1.111424,-0.5549061,-0.05950815,0.1524293,-0.1861338,0.08962288,0.1466187,-0.1570274,0.2156201
1.03895,-0.565028,-0.06424912,0.07994259,-0.1968766,0.0843669,-0.07962472,-0.2970035,0.1532269
1.040385,-0.58937,-0.0941201,0.08128464,-0.221835,0.05397546,-0.1275175,-0.3303963,0.05781321
1.037799,-0.6057477,-0.1371559,0.07852566,-0.2388122,0.01041223,-0.0252404,-0.2634371,-0.1170544
0.9852195,-0.5923403,-0.163906,0.02569616,-0.2259754,-0.016872,0.07045007,-0.2620683,-0.1460198
0.9709582,-0.5456045,-0.1875216,0.01111165,-0.1797703,-0.04102647,0.1872473,-0.1728486,-0.06640959
0.9605358,-0.5129347,-0.2032621,0.0002977467,-0.1475823,-0.05730726,0.2200085,-0.05901317,-0.0653799
0.9018382,-0.4537507,-0.2001213,-0.05885373,-0.08882508,-0.05470431,0.1480476,-0.006695522,-0.1751757
0.7887728,-0.3947634,-0.1885773,-0.1724274,-0.03020643,-0.04369163,0.1943666,0.06002196,-0.351394
0.7011287,-0.3807248,-0.1858549,-0.2606225,-0.01647833,-0.04149058,0.2501647,0.05206336,-0.3975086
0.7327917,-0.3510768,-0.1960758,-0.2295386,0.01291549,-0.05221977,0.2532963,0.04861037,-0.3302228
0.7590282,-0.3242787,-0.2073353,-0.2038937,0.03951229,-0.06397154,0.3136408,0.1907593,-0.3237853
0.7458723,-0.3345392,-0.1999344,-0.2176397,0.02909902,-0.05704384,0.2890604,0.321067,-0.3255905
0.7262247,-0.3706088,-0.1519368,-0.2378631,-0.007079381,-0.009497701,0.2802144,0.3236168,-0.3252135
0.680285,-0.3979566,-0.0934062,-0.2843519,-0.03449529,0.04860421,0.3527252,0.2944285,-0.359054
0.7306744,-0.3599395,-0.07329664,-0.2344723,0.003492201,0.06830653,0.3328828,0.3243194,-0.3804134
0.8434303,-0.2932984,-0.07603523,-0.122176,0.07013971,0.0651791,0.2528359,0.3504554,-0.358463
0.9212222,-0.2571502,-0.07419107,-0.04478681,0.1063258,0.06664922,0.1082655,0.3195467,-0.2945168
0.9735058,-0.2504264,-0.07649716,0.00715254,0.1131122,0.06398043,-0.03702183,0.2683707,-0.1976313
0.938007,-0.2678012,-0.07240624,-0.02863348,0.09581778,0.06771678,-0.1337252,0.2049676,-0.08783706
0.9149931,-0.2928192,-0.05770437,-0.05188015,0.07089108,0.08206908,-0.2204598,0.217063,-0.05077495
0.9859716,-0.3111126,-0.06038319,0.01891843,0.0526945,0.07904246,-0.1950308,0.3189478,-0.06002894
1.010944,-0.3165661,-0.05419928,0.04376028,0.04733938,0.08487705,-0.1855271,0.3700645,-0.03246961
0.9659476,-0.2841924,-0.02813494,-0.001320112,0.07980989,0.1105872,-0.2825997,0.346264,-0.02716961
0.9096982,-0.2309009,-0.01745837,-0.05761181,0.1331926,0.120901,-0.3898931,0.2848381,-0.01037945
0.877804,-0.2268481,-0.0129685,-0.08950775,0.1373259,0.1250153,-0.4856152,0.2537115,0.04012937
0.8841764,-0.2799428,-0.01322275,-0.08309598,0.08429534,0.1243683,-0.4045727,0.2928356,0.02885614
0.9003067,-0.3420922,-0.007149178,-0.06688428,0.02218939,0.1300278,-0.1978145,0.3554286,-0.06870035
0.9231341,-0.3625333,0.01949082,-0.04393291,0.001769526,0.1562285,-0.09144558,0.3876705,-0.268314
0.9245388,-0.3047315,0.03781473,-0.04236221,0.05957042,0.1740833,-0.08323355,0.2460476,-0.4341491
0.9178919,-0.2224553,0.02960345,-0.04880203,0.1418231,0.1653683,-0.1829236,-0.02882258,-0.3995365
0.9736787,-0.2041531,-0.03941178,0.007231263,0.1600756,0.09581047,-0.3235927,-0.1615395,-0.2446094
1.138254,-0.2994804,-0.1523083,0.1720891,0.06466824,-0.01766929,-0.3881283,-0.1125127,-0.05037549
1.41862,-0.4792928,-0.1945915,0.4527639,-0.115257,-0.06057411,-0.2987291,-0.06949772,0.03673545
1.553658,-0.5719913,-0.1452575,0.5881184,-0.2080971,-0.01189453,-0.07427813,-0.1058514,-0.1023907
1.340984,-0.4837757,-0.1111161,0.3757434,-0.1200426,0.02156514,0.004552176,-0.1721914,-0.1914747
1.140676,-0.3494827,-0.135108,0.1756956,0.01407855,-0.003131739,-0.09968099,-0.2908456,-0.03839109
1.182288,-0.3031907,-0.2100791,0.217513,0.06019219,-0.07882711,-0.2888418,-0.3502998,0.2223646
1.18126,-0.3689008,-0.3229141,0.2166297,-0.005702408,-0.1923998,-0.6038091,-0.2396929,0.4929005
1.073503,-0.4739745,-0.3456295,0.10895,-0.1109662,-0.2158564,-0.8523134,-0.1440722,0.5886889
1.015288,-0.5070107,-0.2793183,0.05074136,-0.1441944,-0.1502784,-0.9688559,-0.09131194,0.4493714
0.9988142,-0.5150806,-0.2672486,0.03420285,-0.1524516,-0.1389233,-1.02242,-0.05599029,0.3651714
1.031007,-0.5413994,-0.2489944,0.06626299,-0.1789452,-0.1213566,-0.9067944,-0.09115634,0.3321678
1.050677,-0.5099776,-0.1980152,0.085735,-0.1476778,-0.0710315,-0.6787378,-0.08670462,0.2267013
0.9847508,-0.4704634,-0.1725508,0.01954728,-0.1082907,-0.04618345,-0.4626028,-0.098133,0.1678204
0.9030871,-0.4131304,-0.1399922,-0.06243823,-0.0510527,-0.01420137,-0.2648547,-0.1843952,0.06914147
0.8230269,-0.3001907,-0.1448735,-0.1428741,0.06182575,-0.019619,-0.1849624,-0.2423176,-0.05305053
0.7879431,-0.2371573,-0.1863371,-0.1783774,0.124829,-0.06157878,-0.3010471,-0.2259882,-0.03231636
0.7482016,-0.1668146,-0.2057936,-0.2185699,0.1951659,-0.08149062,-0.4573234,-0.1109204,0.04208893
0.6439481,-0.1006468,-0.2019705,-0.3232918,0.2613422,-0.07808049,-0.588242,-0.004098455,0.1353857
0.6161231,-0.1446289,-0.1782064,-0.3515859,0.2173709,-0.05468497,-0.7580027,0.01485521,0.2049666
0.610303,-0.1841239,-0.1819975,-0.357858,0.177877,-0.05879901,-0.8657132,-0.01123379,0.1865042
0.6169763,-0.2238857,-0.1976056,-0.3516013,0.1380972,-0.07468372,-0.865069,-0.05160632,0.1843728
0.7357544,-0.2918379,-0.2134196,-0.2331883,0.07010129,-0.09072709,-0.7491868,-0.05393827,0.1984467
0.8281389,-0.2920992,-0.2549339,-0.1411057,0.06976703,-0.1324218,-0.5311275,0.01180424,0.1988543
0.8844005,-0.2907572,-0.2671384,-0.0850765,0.07100489,-0.1447551,-0.3985813,0.1776618,0.2147206
0.9278638,-0.3089681,-0.268975,-0.04177425,0.05265786,-0.1466655,-0.3693539,0.3270988,0.210342
0.9231344,-0.2970377,-0.2655266,-0.0465946,0.06441958,-0.1432321,-0.3264046,0.3437725,0.1593342
0.9388578,-0.2751308,-0.2213702,-0.03089433,0.08612469,-0.09902904,-0.2716666,0.3244613,0.07471162
0.9412498,-0.2115771,-0.1923998,-0.0284605,0.1494423,-0.06994889,-0.2311501,0.2628309,0.03909731
0.9518214,-0.1594082,-0.2057559,-0.01778551,0.2013376,-0.0831322,-0.2418343,0.196317,0.1029304
1.014345,-0.1824452,-0.2473041,0.04489883,0.1779846,-0.1244453,-0.305418,0.2344626,0.18068
1.065514,-0.1894464,-0.2712343,0.09628157,0.1706196,-0.1480777,-0.3944046,0.3316124,0.2064287
1.067346,-0.1808538,-0.2590561,0.09837092,0.1787956,-0.1355379,-0.4536639,0.4249571,0.1768023
1.018954,-0.2306605,-0.2440897,0.05027306,0.1285158,-0.1201445,-0.4089893,0.4310547,0.09959872
1.008724,-0.29447,-0.2190983,0.04036555,0.06417483,-0.09466009,-0.2899289,0.3451132,0.02460946
1.038166,-0.3156386,-0.2047109,0.07015356,0.04241667,-0.07971428,-0.106042,0.2781456,0.01502997
1.088196,-0.330915,-0.2388704,0.1205467,0.0264956,-0.1132515,0.01262518,0.2831539,0.06059502
1.174715,-0.3880403,-0.3168179,0.2074387,-0.03132533,-0.1905134,-0.2186375,0.3338286,0.07051324
1.181741,-0.4446015,-0.3592978,0.2148376,-0.0886271,-0.2322431,-0.6467281,0.3677971,-0.001754235
1.215034,-0.5162641,-0.2876861,0.2484912,-0.1610668,-0.1598134,-0.8073107,0.3715187,-0.1047737
1.369367,-0.6890493,-0.198893,0.4031612,-0.3346536,-0.07013238,-0.4883238,0.3760915,-0.130083
1.410355,-0.807228,-0.1983619,0.4444442,-0.4536414,-0.06864459,0.008703079,0.3809073,0.03246495
1.278226,-0.7408328,-0.2257741,0.312552,-0.3880411,-0.09503447,0.1298695,0.3614615,0.2927934
1.130942,-0.6765241,-0.2252726,0.1654311,-0.3244915,-0.09344852,0.005234255,0.369332,0.4040782
1.089615,-0.6246077,-0.2140421,0.1241868,-0.2732805,-0.08107422,-0.003467016,0.4681992,0.3423151
1.120397,-0.5117404,-0.1668709,0.1549662,-0.1610517,-0.03270317,-0.09449614,0.5418556,0.2787684
1.083578,-0.4637572,-0.09299531,0.1180588,-0.1136319,0.04242351,-0.2733574,0.4225159,0.2484323
0.993312,-0.4215678,-0.0587623,0.02762033,-0.07192727,0.07795159,-0.3581891,0.1959285,0.2169946
0.9377601,-0.3559886,-0.04386055,-0.02818686,-0.006753923,0.09418288,-0.404908,0.1215407,0.2293608
0.9193816,-0.369355,-0.06163016,-0.04689654,-0.02044939,0.07776704,-0.4589901,0.2066908,0.2303563
0.890718,-0.3738121,-0.1312609,-0.07595926,-0.02516238,0.009504904,-0.4774747,0.3004284,0.1598801
0.8113406,-0.3601503,-0.155353,-0.1557939,-0.01168693,-0.01321071,-0.379864,0.3661192,0.09183298
0.7112778,-0.3684394,-0.1196555,-0.2563603,-0.02009622,0.02386623,-0.2224845,0.3605855,0.06971757
0.6441651,-0.3509636,-0.0855606,-0.3240077,-0.002678357,0.05933873,-0.09487685,0.3573864,0.1398871
0.6258209,-0.3271169,-0.07174417,-0.3428993,0.02116874,0.07452543,-0.03462127,0.4433878,0.2036878
0.6330774,-0.2958816,-0.06537917,-0.3361839,0.05245801,0.08224682,-0.07706371,0.4972637,0.1132685
0.6265915,-0.2571708,-0.03356996,-0.3431862,0.09127036,0.1153917,-0.1399842,0.4663998,0.02563466
0.6349075,-0.2215563,0.00449084,-0.3353446,0.1270265,0.1547599,-0.2260299,0.3783048,0.02991035
0.699338,-0.2012245,0.01532073,-0.2713313,0.147531,0.1668607,-0.3669901,0.2280949,0.06769888
0.7714508,-0.2304687,0.009316141,-0.1995663,0.1184815,0.1620816,-0.472424,0.06210513,0.1697476
0.8104378,-0.2829398,0.006189696,-0.1608492,0.06621835,0.1601268,-0.490298,-0.02927455,0.2546101
0.8415384,-0.3591034,0.007730447,-0.1299363,-0.009729906,0.1627777,-0.4173363,0.007526534,0.1900212
0.9035667,-0.4484193,0.002086789,-0.06801148,-0.09882564,0.1581757,-0.3045771,0.0903058,0.01874189
0.9576277,-0.4689503,0.01076058,-0.01397052,-0.1191298,0.1678166,-0.1892589,0.1563507,-0.1922445
0.9502906,-0.3848021,0.03847421,-0.02124778,-0.03474503,0.1964168,-0.1023978,0.2111423,-0.4491313
0.9449542,-0.2431153,0.06067222,-0.02644901,0.1071898,0.2194149,-0.1158126,0.1709339,-0.5695135
0.9535494,-0.1529237,0.07584437,-0.01764821,0.1976374,0.2352939,-0.2091807,0.08653386,-0.4759664
0.9773429,-0.1512789,0.07510023,0.006416745,0.199538,0.2351569,-0.3346509,0.009491943,-0.3484146
1.064606,-0.2133235,0.05148517,0.09401141,0.1377391,0.2120427,-0.4145375,-0.2095298,-0.1216261
1.159397,-0.3630114,-0.03777227,0.1891856,-0.01172112,0.1231754,-0.2940404,-0.3542012,0.1054631
1.276828,-0.5853678,-0.1822647,0.3070399,-0.2338691,-0.0210386,0.007086614,-0.1616519,0.09844695
1.378376,-0.7319168,-0.2180321,0.4090327,-0.380222,-0.05663479,0.2439791,-0.02515376,0.02159073
1.310833,-0.6319181,-0.1419263,0.3419376,-0.2800252,0.01954266,0.1686227,-0.2307797,-0.02155764
1.167931,-0.4522775,-0.1155631,0.199466,-0.1001704,0.04588573,-0.1485344,-0.4680378,0.03567099
1.077878,-0.4542867,-0.1250087,0.109814,-0.1019406,0.0363338,-0.3129898,-0.5016673,0.2242618
1.021248,-0.5423335,-0.1355011,0.05354554,-0.189719,0.02565344,-0.2184485,-0.3897197,0.3499719
0.997346,-0.618668,-0.1959595,0.02996555,-0.2657507,-0.03506932,-0.1416833,-0.2349057,0.3479448
0.9897551,-0.6185787,-0.2626549,0.02265488,-0.2653162,-0.1020985,-0.2153195,-0.1778,0.2257149
1.007337,-0.5330141,-0.2786633,0.04047622,-0.1793555,-0.1185011,-0.2592335,-0.2088271,0.09043597
1.050146,-0.5055398,-0.2432111,0.08348459,-0.1514276,-0.08349288,-0.171706,-0.1806417,0.03706819
1.056071,-0.4456166,-0.1981662,0.08956832,-0.09098993,-0.03893215,-0.08426594,-0.1308963,-0.02522628
1.031587,-0.3702556,-0.1834515,0.06519951,-0.01505368,-0.02473417,0.03262405,-0.09925317,-0.1058327
0.9811965,-0.3549347,-0.1609476,0.01488158,0.0009005035,-0.002774082,0.08821661,-0.09595012,-0.1943465
0.9048279,-0.2783705,-0.1377385,-0.0614569,0.07815025,0.01986819,-0.02852485,-0.1530522,-0.2255533
0.8653375,-0.2417612,-0.1461913,-0.1009552,0.1154895,0.0108287,-0.114154,-0.1769956,-0.2047686
0.8387016,-0.2394895,-0.1542411,-0.1276303,0.118526,0.002174641,-0.2598222,-0.1523116,-0.2459521
0.7686407,-0.2309788,-0.1572367,-0.1977534,0.1278258,-0.001440175,-0.4277639,-0.1248096,-0.2887177
0.6714006,-0.2848934,-0.1539088,-0.2950679,0.07471453,0.001256364,-0.4285202,-0.1394074,-0.3478822
0.5942264,-0.29811,-0.1492404,-0.3723149,0.06230729,0.005283613,-0.3989347,-0.2524302,-0.3901272
0.5925553,-0.3065853,-0.1748569,-0.3740405,0.05464091,-0.02098122,-0.2306287,-0.3947688,-0.2834945
0.6832081,-0.3005849,-0.2342085,-0.2834068,0.0614444,-0.08098528,0.03515596,-0.4216884,-0.1255973
0.8284821,-0.26979,-0.2951383,-0.1381031,0.09303163,-0.1425666,0.1247051,-0.256298,-0.05331615
0.9197095,-0.3136754,-0.2981846,-0.04679,0.04992267,-0.1462565,0.09005148,-0.08148533,-0.1120541
0.9150919,-0.3247368,-0.2553685,-0.05126433,0.03961743,-0.1040681,0.0952487,-0.05065804,-0.2033382
0.9105673,-0.2948197,-0.2282506,-0.05558966,0.07026708,-0.07755505,0.1902559,-0.03087173,-0.2192505
0.9361624,-0.2401143,-0.220956,-0.0297412,0.1256778,-0.07083754,0.2394688,0.02952658,-0.1745712
0.9634691,-0.1366515,-0.237578,-0.002129809,0.2298133,-0.08800537,0.2188796,0.06933099,-0.08916143
0.9932579,-0.08884924,-0.2608018,0.02801142,0.2782469,-0.1117401,0.1227914,0.07923216,-0.05564154
1.019407,-0.09782057,-0.2542133,0.05455585,0.2698546,-0.1056238,-0.06019585,0.10925,-0.05268147
1.028335,-0.1446977,-0.2372473,0.06391513,0.2234927,-0.08908734,-0.09874193,0.1474316,-0.001172424
1.010194,-0.2154626,-0.2268772,0.04623456,0.1531702,-0.07910111,0.01310342,0.1295351,0.02692235
0.9899847,-0.2623493,-0.2370088,0.02651033,0.1066475,-0.08956876,0.1487198,0.1208632,0.04030042
0.9990694,-0.2816714,-0.2677578,0.03609841,0.08760864,-0.1206038,0.2577547,0.1142291,0.02419151
1.037542,-0.292996,-0.2758439,0.07508818,0.07648619,-0.1289233,0.2975721,0.06719617,-0.01764723
1.086765,-0.314106,-0.2550456,0.1248364,0.05549861,-0.108303,0.3396222,0.02011045,0.002988066
1.101247,-0.30018,-0.2136903,0.1398456,0.06946895,-0.06706803,0.344658,-0.08520062,-0.0004842792
1.078822,-0.2764952,-0.1760694,0.117941,0.09312233,-0.02950912,0.2050829,-0.2528722,-0.0396388
1.105296,-0.3045581,-0.1979181,0.1449212,0.06495361,-0.05136273,-0.04524305,-0.3939788,-0.03999628
1.242364,-0.3949675,-0.2696034,0.2824728,-0.02563342,-0.1229972,-0.1529539,-0.4047142,0.00385708
1.410663,-0.5329288,-0.3379162,0.4512206,-0.1638389,-0.1912026,-0.04512577,-0.1603655,0.165839
1.422897,-0.5952567,-0.3418169,0.4638534,-0.2264673,-0.1949363,-0.03306923,0.1956126,0.3771381
1.270472,-0.6114351,-0.2723022,0.311757,-0.2429883,-0.1251907,-0.120852,0.3064112,0.4825892
1.138405,-0.6745991,-0.1990664,0.1799338,-0.3065209,-0.05165762,-0.1346699,0.2341918,0.4816653
1.067086,-0.6753819,-0.1265906,0.1087655,-0.3076813,0.02118091,-0.08359942,0.3041198,0.4289679
1.055286,-0.61371,-0.05055477,0.09702184,-0.2463792,0.09763982,0.005345996,0.3594796,0.3604169
1.08957,-0.5073761,-0.01267038,0.1312686,-0.1403935,0.1359993,0.01256252,0.2411932,0.28089
1.075288,-0.3497023,-0.005990952,0.1168569,0.01696284,0.1431951,-0.1075734,0.1744776,0.2252745
1.051696,-0.2961303,-0.02368289,0.09304399,0.07024994,0.1260496,-0.3055959,0.1434893,0.2027526
0.9748042,-0.3210331,-0.0656105,0.01584111,0.04509233,0.08468825,-0.5327836,0.07717118,0.1493282
0.8377118,-0.3010238,-0.1170052,-0.1216462,0.06487256,0.03387131,-0.6952117,0.07266466,0.07622386
0.8322624,-0.3017671,-0.1366152,-0.1275653,0.06392175,0.01484497,-0.737043,0.1303976,0.03298304
0.8273777,-0.3607161,-0.1094795,-0.1329821,0.00478294,0.04256655,-0.5673397,0.2405829,-0.03298489
0.662783,-0.422076,-0.1013677,-0.2981574,-0.05675113,0.05126284,-0.2308912,0.3026013,-0.1824217
0.5495051,-0.4311195,-0.09433079,-0.4120477,-0.06595287,0.0588792,0.02966441,0.236496,-0.3292007
0.6031903,-0.3779946,-0.0686703,-0.3589857,-0.01296854,0.08510988,0.1361163,0.1794928,-0.4027034
0.6723085,-0.3094384,-0.06414045,-0.2904803,0.05546542,0.09019606,0.1807238,0.1927431,-0.4240818
0.6736099,-0.2777261,-0.05138084,-0.2897632,0.08707176,0.1034932,0.2344156,0.1747144,-0.3722036
0.7021771,-0.2765228,-0.05758276,-0.2617372,0.08818131,0.09780497,0.2570631,0.1230164,-0.2785891
0.7802025,-0.2610098,-0.07345875,-0.1841976,0.1036076,0.08241414,0.2343806,0.121595,-0.219993
0.8563498,-0.2528421,-0.05875765,-0.1084724,0.1116906,0.09756783,0.2555042,0.1125177,-0.2102486
0.8864878,-0.2571234,-0.07028686,-0.07868819,0.1073212,0.08645509,0.2907893,0.07114796,-0.1900558
0.8901227,-0.2445308,-0.07664724,-0.07533767,0.1198169,0.08047194,0.3029986,0.03569408,-0.09789316
0.9418467,-0.2679413,-0.06534008,-0.02382897,0.09629607,0.09211445,0.3146554,-0.01510411,-0.01062169
0.956645,-0.3256739,-0.06320935,-0.009178841,0.03843581,0.09453625,0.307553,0.04344036,-0.01719193
0.9541307,-0.3500802,-0.03017709,-0.01177746,0.01388264,0.1278128,0.3087113,0.1693657,-0.1037659
0.9786715,-0.3421796,0.006272292,0.01273892,0.02161726,0.1644564,0.3060859,0.1588198,-0.2163115
0.9380397,-0.2906379,0.02092901,-0.02786133,0.07297422,0.179253,0.300708,0.1064665,-0.2923767
0.9377844,-0.2223543,0.02784584,-0.02803289,0.1410533,0.1862502,0.3258761,0.0612479,-0.3302531
0.9480977,-0.2349681,0.0424123,-0.01758645,0.1282122,0.2008323,0.3858494,-0.01319671,-0.3426328
0.9206318,-0.2967118,0.06974064,-0.04487252,0.06621456,0.2281059,0.5798492,-0.03776065,-0.3259604
0.9541344,-0.3178671,0.09235907,-0.01114575,0.04477638,0.2505936,0.8715161,-0.07028011,-0.2840914
0.9609486,-0.2908051,0.1086266,-0.004065533,0.07152595,0.2666478,1.01854,-0.2077679,-0.1754613
0.9752945,-0.2530605,0.0774648,0.01058477,0.1089282,0.2351837,0.9607,-0.4261881,0.0403899
1.039104,-0.287267,-0.0050481,0.07473292,0.07434825,0.1522746,0.9435735,-0.5449363,0.3074615
1.201293,-0.420939,-0.08701042,0.2372887,-0.05972859,0.06982024,1.109933,-0.4369527,0.4108104
1.460539,-0.554109,-0.1221075,0.4969162,-0.1933311,0.03413771,1.264967,-0.3648176,0.2335884
1.488748,-0.5574803,-0.09291841,0.5255027,-0.197154,0.06265285,1.29043,-0.5029622,0.08977039
1.39934,-0.4881292,-0.09012125,0.4364415,-0.1282618,0.0646931,1.169916,-0.6841293,0.2026519
1.370567,-0.5020883,-0.1184583,0.4079637,-0.1426771,0.03552142,0.9200898,-0.7905593,0.3133843
1.185973,-0.5236041,-0.1413036,0.2235926,-0.1646377,0.01176916,0.7440272,-0.7069181,0.3189294
1.048825,-0.5434221,-0.2016729,0.08658584,-0.1848807,-0.04957262,0.7192154,-0.5031871,0.2834683
1.05929,-0.6185456,-0.2290351,0.097107,-0.2604005,-0.07796443,0.7580513,-0.4123943,0.1258858
1.041187,-0.5936491,-0.2231842,0.07897371,-0.2358611,-0.07319035,0.7560627,-0.3733786,-0.001347636
1.09529,-0.5326029,-0.2420308,0.132964,-0.1751228,-0.09315085,0.7224077,-0.3926946,-0.003009215
1.131621,-0.5119856,-0.2363908,0.1690982,-0.1547566,-0.08865182,0.7394552,-0.4487206,-0.04302707
1.067448,-0.4550653,-0.2286987,0.1046444,-0.09802521,-0.08211807,0.7260273,-0.3298301,-0.1157394
1.014862,-0.4539727,-0.2299303,0.05169488,-0.09705672,-0.08451648,0.7302526,-0.2122602,-0.1894888
0.9376169,-0.4361509,-0.2121821,-0.02599374,-0.07929332,-0.06793571,0.763386,-0.2058556,-0.233817
0.8793261,-0.3412857,-0.1982772,-0.08480213,0.01557844,-0.05519155,0.7006259,-0.2141595,-0.2116781
0.8227516,-0.2747927,-0.1941366,-0.1419585,0.08213968,-0.05219913,0.6105816,-0.3014423,-0.1836505
0.7063287,-0.2201688,-0.1981918,-0.259015,0.1368864,-0.05738484,0.4698024,-0.3830386,-0.142613
0.6216461,-0.2174799,-0.1974218,-0.3443671,0.1397434,-0.05772308,0.3011246,-0.3998564,-0.110846
0.5661011,-0.2468762,-0.1883901,-0.4005977,0.1105499,-0.04977289,0.2230658,-0.3840129,-0.1200971
0.554115,-0.2444743,-0.1779036,-0.4132637,0.11318,-0.04033752,0.2326612,-0.3834319,-0.111305
0.5881541,-0.2457984,-0.1659129,-0.379877,0.1121008,-0.02936471,0.3609355,-0.4396008,-0.03020126
0.6350023,-0.2234286,-0.175912,-0.3336339,0.1347246,-0.04034597,0.4936857,-0.4676058,0.1077907
0.748425,-0.1921613,-0.2036241,-0.2207527,0.1662469,-0.06900242,0.4813075,-0.4787638,0.2077575
0.8546515,-0.1867351,-0.2201728,-0.1149934,0.1719208,-0.08645498,0.3514161,-0.392995,0.2194668
0.875123,-0.2348664,-0.1959166,-0.09490966,0.1240215,-0.06305895,0.2321219,-0.2310549,0.1487289
0.8932062,-0.3374953,-0.1288693,-0.07713346,0.02160247,0.003174414,0.2610027,-0.2097791,0.04514595
0.9393446,-0.3737492,-0.08640242,-0.03122206,-0.01446655,0.04487391,0.4014778,-0.2169319,-0.008380162
0.9540849,-0.3299345,-0.09286822,-0.0166312,0.02950825,0.03768517,0.5564686,-0.1858384,0.0009608503
1.00957,-0.2759324,-0.09931643,0.03877817,0.08364606,0.03055542,0.6090707,-0.1503964,0.003880819
1.129582,-0.217446,-0.09221156,0.158781,0.1422423,0.03701717,0.5378397,-0.03436773,-0.08034184
1.16,-0.1724428,-0.093089,0.1892482,0.187325,0.03553221,0.5060631,0.06432154,-0.2365555
1.152114,-0.1632514,-0.0976119,0.1814557,0.1965596,0.03043469,0.4844875,0.07892567,-0.3804088
1.169036,-0.2104819,-0.09919088,0.1985035,0.149329,0.02831145,0.4332157,0.08922386,-0.4061883
1.156176,-0.3187774,-0.1343663,0.1857885,0.04098538,-0.007379886,0.4614456,0.1502333,-0.2763331
1.162694,-0.4348275,-0.2093348,0.1924592,-0.07516199,-0.08283662,0.4117671,0.2210814,-0.05443975
1.179463,-0.4881405,-0.2618773,0.2093776,-0.128617,-0.135838,0.05196807,0.2354262,0.1331998
1.239897,-0.5567398,-0.2494593,0.2699474,-0.1973943,-0.1238453,-0.3827934,0.224593,0.09540625
1.303496,-0.7387391,-0.2091536,0.3336562,-0.3795954,-0.0839265,-0.3391334,0.2367116,-0.003999396
1.18615,-0.8472867,-0.180882,0.2163815,-0.4883511,-0.0559998,0.2024297,0.2304303,0.07476785
0.9942171,-0.7532346,-0.1627891,0.02447027,-0.3944919,-0.03820819,0.593073,0.1034773,0.1611943
0.9510748,-0.6068696,-0.2019042,-0.01870197,-0.2482838,-0.07758048,0.4894943,-0.002641106,0.2724788
1.043648,-0.4801475,-0.2467306,0.07379079,-0.1216685,-0.122619,0.1469633,0.1521559,0.3347438
1.094732,-0.3874524,-0.1751346,0.1247465,-0.02902362,-0.05118842,-0.1386193,0.3008508,0.1690425
1.026041,-0.3834986,-0.094628,0.05587872,-0.0250627,0.02920033,-0.2925001,0.1450995,0.08023176
0.9615608,-0.4051018,-0.09247152,-0.00882685,-0.04660357,0.03128437,-0.3162576,-0.01669414,0.09363899
0.9576262,-0.4022177,-0.1011348,-0.01303277,-0.04360409,0.02258996,-0.28257,0.02329086,0.08996944
0.932579,-0.4080475,-0.1201273,-0.0383928,-0.0492675,0.003603456,-0.3204684,0.1052024,0.1207376
0.8514376,-0.3939188,-0.1375761,-0.119883,-0.03492332,-0.01380543,-0.354758,0.1963697,0.05136132
0.7658809,-0.362391,-0.1277148,-0.2058161,-0.003132955,-0.003873053,-0.3605021,0.2189537,-0.00425318
0.7425949,-0.3429846,-0.1108051,-0.2294953,0.01657966,0.01313692,-0.3619798,0.1683951,0.01729616
0.7673326,-0.3332377,-0.09920579,-0.2051548,0.02667239,0.02486298,-0.2710644,0.2226528,0.02658932
0.7638349,-0.3554388,-0.07684657,-0.2090411,0.00485203,0.04737207,-0.2199071,0.2931103,0.08498158
0.7354569,-0.3651758,-0.03113134,-0.2377877,-0.004473677,0.09325619,-0.2195117,0.3746934,0.1178048
0.7178577,-0.3338809,0.0008269583,-0.2557243,0.02725941,0.1253968,-0.2038517,0.4877472,0.115991
0.7084707,-0.302282,0.008636892,-0.2654061,0.05931945,0.1333957,-0.2484543,0.4622674,0.1016541
0.7395185,-0.2584879,0.01527868,-0.2345998,0.1035924,0.1402255,-0.2873811,0.3769095,0.08729862
0.7763779,-0.210502,0.02529298,-0.1979193,0.1520678,0.1504193,-0.3620229,0.2517603,0.1210126
0.7797403,-0.2179758,0.02658083,-0.1946658,0.1450859,0.1518709,-0.4863876,0.1197038,0.1300563
0.8353689,-0.2916476,0.01116105,-0.1390707,0.07189999,0.1365921,-0.5937752,0.1509674,0.1221967
0.91488,-0.3605007,0.009258657,-0.05951535,0.00352064,0.1348019,-0.6572893,0.2313406,0.06723538
0.9095626,-0.3833236,0.01719804,-0.06471064,-0.01884328,0.1428191,-0.6236055,0.2756602,-0.05698186
0.8863716,-0.3657081,0.0315549,-0.08770396,-0.0007840577,0.1572146,-0.6111587,0.2822863,-0.1749633
0.9113026,-0.3229256,0.0619927,-0.06250198,0.04242709,0.1876466,-0.5990657,0.2649635,-0.2862273
0.9121392,-0.2998465,0.06503868,-0.06132354,0.0659183,0.1906369,-0.5427916,0.2901239,-0.3465612
0.917339,-0.2731594,0.05757409,-0.05571356,0.09299868,0.1830608,-0.5550073,0.2299346,-0.3331055
0.9779204,-0.2296947,0.06664837,0.005342653,0.1368336,0.1919626,-0.5699962,0.06623048,-0.2524282
1.00834,-0.2140595,0.05781563,0.03629658,0.1528109,0.1828915,-0.5915411,-0.09897352,-0.1198609
1.038519,-0.258699,0.01044341,0.06706398,0.1084796,0.1352113,-0.6121693,-0.2476371,0.01763446
1.146969,-0.4060391,-0.08531894,0.1761463,-0.03859036,0.03906951,-0.4549333,-0.2665543,0.1234184
1.279412,-0.6082616,-0.1752262,0.3092549,-0.2405795,-0.05128663,-0.06824605,-0.1332902,0.1148609
1.34896,-0.7042022,-0.1878811,0.3794842,-0.3363145,-0.06445378,0.2564653,0.01984437,0.009001956
1.319219,-0.5624963,-0.1504172,0.3504206,-0.1944168,-0.02755734,0.09839111,0.01517922,-0.0644604
1.262015,-0.3269396,-0.1368066,0.2938711,0.04132991,-0.01456161,-0.373955,-0.2248523,0.04953394
1.147567,-0.254636,-0.1787789,0.1800385,0.1138259,-0.05718953,-0.7365441,-0.3965444,0.3333901
0.9688039,-0.3777111,-0.218513,0.001840611,-0.009056922,-0.09761292,-0.8102251,-0.2369296,0.4982316
0.9626277,-0.5967653,-0.2140576,-0.003823066,-0.2279203,-0.09387264,-0.5505049,-0.03729886,0.4280009
1.043196,-0.6828413,-0.2301946,0.07720545,-0.3138014,-0.1107418,-0.3887158,-0.04194434,0.2667894
1.002238,-0.602613,-0.2710933,0.03665692,-0.233363,-0.152381,-0.467221,-0.009154959,0.1286039
1.013605,-0.5564763,-0.2616947,0.04838087,-0.1869895,-0.1437219,-0.4285131,0.0378032,0.01510841
1.042629,-0.5045573,-0.2279298,0.07771239,-0.1347982,-0.1106865,-0.3619079,-0.05752576,-0.04599161
0.981598,-0.4478634,-0.2082729,0.0169367,-0.0777919,-0.09174112,-0.2568534,-0.07453626,-0.04232512
0.9504826,-0.4315146,-0.1851951,-0.01397316,-0.06108866,-0.06935116,-0.1150308,-0.07780138,-0.07842155
0.8855329,-0.389905,-0.1821544,-0.07876424,-0.01908271,-0.06697007,-0.11998,-0.1068567,-0.1233599
0.8208149,-0.3520944,-0.1872057,-0.1433652,0.01916385,-0.07264931,-0.1022833,-0.05404073,-0.1661125
0.8203665,-0.3155674,-0.1791884,-0.14373,0.05616233,-0.06522531,-0.1493131,-0.1190591,-0.2175637
0.7796248,-0.2810366,-0.1851123,-0.184412,0.09119434,-0.07170512,-0.295243,-0.1513304,-0.1713354
0.7582464,-0.2600215,-0.1906803,-0.2057445,0.1127332,-0.07778936,-0.3463354,-0.05316423,-0.1113061
0.736582,-0.2481894,-0.1929865,-0.227366,0.1251034,-0.08056963,-0.3912136,-0.0334078,-0.08150425
0.6955334,-0.2592362,-0.1959205,-0.2683633,0.1146006,-0.08393319,-0.4172266,-0.08496347,-0.05563678
0.7105821,-0.2552737,-0.1924502,-0.2532432,0.119105,-0.080846,-0.4304759,-0.2066591,-0.04987548
0.7390624,-0.261059,-0.2098074,-0.2246597,0.1138519,-0.09853763,-0.4443488,-0.2298765,0.02723372
0.82209,-0.2853026,-0.2363222,-0.1414882,0.09012448,-0.1253361,-0.3861168,-0.07785245,0.1176941
0.9207874,-0.2934514,-0.2480349,-0.04260029,0.08247016,-0.1372788,-0.3376406,0.1022676,0.1238481
0.9470766,-0.3016072,-0.2389798,-0.01607289,0.07478286,-0.1283968,-0.3307048,0.2466555,0.05612324
0.9474433,-0.2927181,-0.2107922,-0.01542221,0.08411098,-0.1003224,-0.3480911,0.2416986,-0.03472762
0.9235131,-0.2713615,-0.1886277,-0.03902559,0.1058737,-0.07820953,-0.3474151,0.1747703,-0.03098245
0.9083334,-0.2526045,-0.1800878,-0.05383821,0.1250002,-0.06965922,-0.3198027,0.1203696,0.04737171
0.9305792,-0.2340831,-0.1961337,-0.03118683,0.1438503,-0.08563314,-0.3135581,0.07732763,0.09437291
0.9713935,-0.236244,-0.2253328,0.01006952,0.1419724,-0.1146991,-0.3069077,0.122192,0.06613405
1.007796,-0.2507218,-0.235713,0.04694714,0.1277274,-0.1248847,-0.2977285,0.1629187,0.009108872
1.00194,-0.259771,-0.2256144,0.0415943,0.1188569,-0.1145291,-0.2544974,0.2229843,-0.003646625
0.9882255,-0.2429735,-0.2019789,0.02840539,0.1357759,-0.0905734,-0.1928088,0.2747116,-0.01607323
0.9822782,-0.2067954,-0.1992496,0.02300185,0.172015,-0.08746094,-0.1597822,0.2484472,-0.01804593
0.9747796,-0.1965514,-0.2122427,0.01606069,0.1822562,-0.1000086,-0.1093037,0.2569873,0.012769
0.9904661,-0.2116543,-0.2203495,0.03231459,0.1670823,-0.1076087,-0.04441523,0.2366009,0.02833618
1.030891,-0.2528962,-0.2429288,0.07331337,0.1256976,-0.1296203,0.02498235,0.2282085,0.0516301
1.094463,-0.3283269,-0.2479802,0.1374599,0.050051,-0.134043,0.02806504,0.3425088,0.03741507
1.156171,-0.3754139,-0.2383246,0.1997363,0.00267622,-0.123697,-0.1605914,0.4087931,-0.05521727
1.189472,-0.3771669,-0.2404149,0.2335903,0.000567852,-0.1250352,-0.4901173,0.2881344,-0.1655901
1.253213,-0.4455487,-0.2344292,0.2978576,-0.06823113,-0.1182358,-0.6867362,0.1626268,-0.218034
1.380945,-0.6058658,-0.2360603,0.4260739,-0.2290188,-0.1189918,-0.5234665,0.3107411,-0.1422121
1.436613,-0.7066333,-0.2435731,0.4821679,-0.3302971,-0.1255689,-0.2429418,0.5388846,-0.02833759
1.353249,-0.7075969,-0.2311709,0.3991539,-0.331794,-0.1121712,-0.08590851,0.5932492,0.07878054
1.227986,-0.6966771,-0.1726526,0.2741466,-0.3214107,-0.05259885,0.05388724,0.5844073,0.2033396
1.10219,-0.6468213,-0.08183502,0.1485006,-0.2720763,0.03932788,0.1323415,0.5427036,0.2195475
1.070675,-0.5324452,-0.05023854,0.1170266,-0.1581914,0.07208212,0.1264895,0.5051617,0.1950652
1.129645,-0.4076716,-0.05449992,0.1759291,-0.0338691,0.06901813,0.02477997,0.464024,0.249214
1.103938,-0.3085908,-0.02818688,0.1500445,0.06480371,0.09655845,-0.2046781,0.3865801,0.2959189
1.049182,-0.2954035,-0.03121202,0.09500274,0.07762412,0.09478063,-0.3887526,0.3533596,0.2951713
0.9788737,-0.3329772,-0.047348,0.02430353,0.03971989,0.07990251,-0.5679713,0.3175462,0.2258237
0.846539,-0.3256615,-0.0332331,-0.1085218,0.04673681,0.09527696,-0.6857311,0.3726748,0.1128737
0.7862875,-0.3346104,-0.03649961,-0.1693526,0.03751681,0.09326353,-0.6189466,0.481769,0.02219637
0.7000587,-0.3401622,-0.03122605,-0.2562347,0.03171842,0.0997759,-0.5776349,0.4394607,-0.01990724
0.5767734,-0.2755834,-0.01127952,-0.3802286,0.09607155,0.1209395,-0.5037785,0.3953784,-0.002691406
0.5925356,-0.2415664,-0.01828357,-0.3652086,0.1298795,0.1151235,-0.3897628,0.3726143,0.004454935
0.6134729,-0.2387906,-0.01930407,-0.3450244,0.1324568,0.1152547,-0.4045962,0.328226,0.01273455
0.6083602,-0.2418117,-0.0179499,-0.3508797,0.129241,0.117718,-0.4384844,0.3279411,0.07854117
0.663745,-0.263029,-0.01871224,-0.296208,0.1078263,0.118016,-0.4723761,0.2985628,0.1221877
0.727323,-0.2529826,0.001576472,-0.2332975,0.1176673,0.1393109,-0.5183934,0.2951207,0.09886949
0.7996145,-0.2557858,0.01988407,-0.1616158,0.114646,0.1585648,-0.5810683,0.3070146,0.07068162
0.838135,-0.2602712,0.02801587,-0.1236398,0.1099252,0.1675772,-0.670225,0.2800337,0.07867562
0.8645941,-0.2510272,0.02789296,-0.09765524,0.1189125,0.1682633,-0.7020807,0.283436,0.0860692
0.9158465,-0.2829998,0.03351008,-0.04680571,0.0866586,0.1746121,-0.7729386,0.2680218,0.08060445
0.9318342,-0.3082696,0.04526038,-0.03114943,0.06108033,0.1870116,-0.8390492,0.2454359,0.05880793
0.9445085,-0.3176663,0.04200139,-0.01873715,0.05134683,0.1843141,-0.7687277,0.2544407,0.00895356
0.9601626,-0.3100014,0.04766792,-0.003278796,0.05864636,0.1904497,-0.7323613,0.2917862,-0.01926634
0.9841625,-0.2848762,0.06654325,0.02058797,0.08337781,0.2096974,-0.7901681,0.3458343,-0.0776317
0.9906619,-0.2738035,0.07753028,0.02701225,0.09402773,0.2209556,-0.8532619,0.29165,-0.177228
0.9444348,-0.2498045,0.07302919,-0.0192367,0.1175737,0.2166203,-0.8884594,0.1904518,-0.2059598
0.9403377,-0.2330001,0.06456491,-0.02330644,0.1338926,0.2082124,-0.8418893,0.1690342,-0.2100391
0.9397144,-0.2304365,0.07127464,-0.02385598,0.1359358,0.2148658,-0.7664623,0.1542471,-0.2170866
0.9272435,-0.2285421,0.07260273,-0.036209,0.1372717,0.2160222,-0.7638317,0.1167923,-0.1844511
0.9404714,-0.2181823,0.07552981,-0.02282106,0.1470323,0.2186601,-0.7966469,-0.001952505,-0.1325085
0.9201414,-0.1931754,0.08638162,-0.04295091,0.1713964,0.2291031,-0.8056819,-0.191082,-0.04698351
0.9396518,-0.2128981,0.06946939,-0.02320207,0.1509841,0.211661,-0.7790455,-0.2379558,0.01706678
0.9983307,-0.251484,0.03914828,0.0357514,0.1116593,0.180688,-0.6961226,-0.1828538,0.05588598
1.074919,-0.2900724,-0.001633359,0.1126459,0.07228165,0.1391331,-0.570152,-0.1758977,0.1968352
1.22447,-0.3634361,-0.07320312,0.2625287,-0.001920572,0.06667174,-0.4012085,-0.06594025,0.3774163
1.373496,-0.4402528,-0.1278937,0.4118967,-0.07962051,0.01097693,-0.1911304,0.2173625,0.4084813
1.458109,-0.5029087,-0.1129455,0.4968456,-0.1431967,0.02481679,-0.07274898,0.4086756,0.2595302
1.40293,-0.4997126,-0.05600217,0.4419723,-0.1409477,0.08055645,-0.1357825,0.2588095,0.1560701
1.275264,-0.4515232,-0.03566399,0.3145606,-0.09372081,0.0996032,-0.2564106,-0.1229453,0.2891716
1.200942,-0.44367,-0.09745452,0.2404256,-0.08683586,0.03643947,-0.3376303,-0.3880454,0.4399607
1.119855,-0.4504223,-0.1902179,0.1594485,-0.09455404,-0.0577719,-0.4420219,-0.3951583,0.4887478
1.072773,-0.4794947,-0.2282434,0.1123926,-0.1245825,-0.09731055,-0.5664217,-0.3507217,0.6348281
1.035782,-0.5395213,-0.2408746,0.07534334,-0.1855476,-0.1115075,-0.6371208,-0.3901162,0.7125886
1.001686,-0.5927935,-0.2586122,0.04110599,-0.2397312,-0.1308502,-0.6380852,-0.3601781,0.5376373
1.056325,-0.6130351,-0.2444734,0.09552394,-0.2608459,-0.1183425,-0.5973186,-0.3185474,0.3341921
1.053664,-0.5794273,-0.2466319,0.09256433,-0.2280607,-0.1221454,-0.5477894,-0.340148,0.1480784
1.024655,-0.527305,-0.2443256,0.06318078,-0.1767001,-0.1214851,-0.462885,-0.2238798,-0.008573705
1.017833,-0.4394906,-0.1933143,0.05591256,-0.08957857,-0.07211071,-0.3760658,-0.1534684,-0.05184877
0.9135654,-0.3254051,-0.16427,-0.04887115,0.0238863,-0.0446857,-0.313304,-0.2101828,-0.1005113
0.8151461,-0.2637893,-0.1545387,-0.1478683,0.08495187,-0.0365495,-0.2636351,-0.1953313,-0.1045091
0.7372941,-0.2187359,-0.1645345,-0.2263491,0.1295197,-0.04811148,-0.3316344,-0.2319342,-0.03343104
0.6682527,-0.1867566,-0.1800059,-0.2960555,0.1610692,-0.06511536,-0.4565067,-0.2384228,0.01831895
0.6425741,-0.1927763,-0.1681298,-0.3224177,0.1546654,-0.05473373,-0.5440526,-0.2030955,0.09650437
0.5837137,-0.1981213,-0.1845406,-0.3819611,0.148972,-0.07259637,-0.6224782,-0.2388731,0.1271855
0.5758249,-0.2162247,-0.2042525,-0.3905126,0.1305463,-0.0937133,-0.6430982,-0.2103489,0.1440343
0.6607678,-0.2639733,-0.2175223,-0.3061926,0.08249369,-0.1083365,-0.6500465,-0.1762702,0.2197423
0.7701129,-0.3468626,-0.2310074,-0.1974146,-0.0006868432,-0.1231181,-0.6038239,-0.08226425,0.1986335
0.8413711,-0.425788,-0.2111204,-0.126657,-0.07989301,-0.1044657,-0.4176183,0.06424621,0.09969715
0.8333809,-0.4333039,-0.2023743,-0.1350758,-0.08767731,-0.09688768,-0.1718828,0.06380933,0.01038938
0.8504151,-0.388153,-0.1924476,-0.1183951,-0.04277926,-0.08805883,0.1108419,0.01026758,-0.02008175
0.8984945,-0.3050406,-0.1858807,-0.07059237,0.04009823,-0.08251696,0.2962614,-0.02504872,0.01864309
0.9465963,-0.1984842,-0.2071928,-0.02269061,0.1464367,-0.1047791,0.2832674,-0.02273107,0.01130866
1.011652,-0.1266316,-0.2155574,0.04223901,0.2180829,-0.1140167,0.1815764,0.001304234,0.006529699
1.035502,-0.1169471,-0.2347038,0.06603133,0.2275635,-0.1339565,0.01369424,0.02099744,0.04098009
1.042692,-0.1630254,-0.2503858,0.07322516,0.1812735,-0.1503496,-0.1135243,0.1086558,0.03764085
1.039249,-0.2286977,-0.2466116,0.06983938,0.1153727,-0.1472009,-0.1115668,0.1968026,0.02115889
1.022029,-0.280023,-0.2484946,0.05272236,0.06379641,-0.1496209,-0.06991004,0.2621596,-0.0200636
1.031489,-0.3082828,-0.2379513,0.06232471,0.03526054,-0.1395234,-0.0161272,0.3081329,-0.0692838
1.057197,-0.3356328,-0.2403434,0.08820758,0.007609219,-0.142268,0.01169236,0.3230388,-0.089931
1.107124,-0.3852145,-0.2493381,0.1383347,-0.0422973,-0.1515202,0.0044272,0.376014,-0.121007
1.133985,-0.4061024,-0.2480899,0.1654131,-0.06353006,-0.1504333,-0.1367157,0.3680095,-0.1142085
1.151398,-0.4065817,-0.2543723,0.1830508,-0.06436952,-0.1567794,-0.4803534,0.283916,-0.08980223
1.239291,-0.4988778,-0.2299095,0.2711667,-0.1570353,-0.1322821,-0.6079885,0.2712478,-0.1491567
1.325204,-0.6465318,-0.2066145,0.3572866,-0.3050599,-0.1088541,-0.3249422,0.3453962,-0.1907404
1.310866,-0.6924396,-0.2373133,0.3431261,-0.3513266,-0.1393225,-0.03054049,0.4879689,-0.09629847
1.100585,-0.5569036,-0.2097501,0.09287598,-0.2359889,-0.1064803,0.7370187,-0.5058762,-0.3180485
0.9399145,-0.3598523,-0.2905551,-0.06660249,-0.03700742,-0.1861211,0.2268894,-1.014376,-0.1346989
0.8693038,-0.3210548,-0.3946486,-0.1360278,0.003733576,-0.2890691,-0.09806349,-0.9261914,0.1681439
0.9794011,-0.5237199,-0.4147945,-0.02475163,-0.1969777,-0.308078,-0.01736416,-0.6159946,0.1988306
1.118902,-0.7352702,-0.3232919,0.1159221,-0.4065631,-0.2154353,0.350426,-0.4461586,-0.001955692
1.138293,-0.7228095,-0.2916857,0.1364745,-0.3921187,-0.1826761,0.7416281,-0.250295,-0.2038089
1.05866,-0.5589078,-0.246277,0.0579851,-0.2262028,-0.136095,0.8932799,-0.4001571,-0.3338294
0.9755794,-0.4021254,-0.2013708,-0.02397686,-0.06736871,-0.08999345,0.9010382,-0.6092989,-0.3988747
0.9149834,-0.3253834,-0.238047,-0.08348087,0.0114624,-0.12545,0.8682264,-0.540592,-0.4687755
0.8355987,-0.2633874,-0.2222421,-0.1617986,0.07557863,-0.1084005,0.7772445,-0.5825685,-0.4763428
0.7582706,-0.200078,-0.2205013,-0.2380795,0.141029,-0.1053894,0.6607297,-0.5437327,-0.373482
0.7219765,-0.2352573,-0.2386074,-0.2733377,0.1079992,-0.1221993,0.5360788,-0.4188301,-0.3331867
0.6804346,-0.2606097,-0.2107906,-0.3138437,0.08479242,-0.09306016,0.518704,-0.421231,-0.3478974
0.635061,-0.2483079,-0.2121694,-0.3581692,0.09922511,-0.09309039,0.5562836,-0.3846014,-0.3462959
0.6377465,-0.276775,-0.2073987,-0.3544103,0.07286466,-0.08694562,0.592919,-0.3858173,-0.3159668
0.65775,-0.2542076,-0.2142535,-0.3332946,0.09750593,-0.09240174,0.658609,-0.3361413,-0.2258971
0.6878979,-0.2397029,-0.2385598,-0.3019842,0.1140438,-0.1152856,0.6565685,-0.2033044,-0.1549831
0.7279414,-0.2700377,-0.2417606,-0.2607184,0.08569375,-0.1170405,0.6478833,-0.1368837,-0.1177701
0.7473999,-0.2750678,-0.2553558,-0.2399708,0.08259286,-0.1291661,0.7022575,-0.09147934,-0.1076689
0.7890163,-0.3004317,-0.2591073,-0.1969941,0.05909726,-0.1314235,0.8044374,-0.1359136,-0.06213863
0.8741858,-0.2983012,-0.2684457,-0.1103911,0.06303063,-0.1392427,0.9094441,-0.1480151,0.05994068
0.976431,-0.2587331,-0.2710388,-0.006640923,0.1043324,-0.1402904,0.9209524,-0.06022152,0.1038757
1.039489,-0.230538,-0.2545531,0.05798704,0.1341878,-0.1222322,0.8265533,-0.03243137,0.05004224
1.046146,-0.1956812,-0.2426401,0.06627086,0.1706262,-0.1087191,0.6552001,-0.04528606,-0.06046881
1.075018,-0.1919192,-0.2141809,0.09681248,0.1758847,-0.07863292,0.517617,-0.07160215,-0.1759012
1.102316,-0.1961881,-0.2244615,0.1258126,0.1730207,-0.08726087,0.4566917,-0.02151496,-0.1979835
1.093917,-0.1986055,-0.2478542,0.1191351,0.1719103,-0.1089771,0.4350822,0.07010528,-0.1886062
1.09919,-0.2364347,-0.2286864,0.126137,0.1352852,-0.08811053,0.4706871,0.0996887,-0.2317806
1.110633,-0.3110066,-0.2380119,0.1393041,0.06181116,-0.0957162,0.5142542,0.1259385,-0.3218845
1.122204,-0.425506,-0.2618214,0.1525834,-0.05169659,-0.117786,0.5583341,0.1265542,-0.3743423
1.13286,-0.4571488,-0.2756447,0.1649215,-0.08244935,-0.1298503,0.5414961,0.1465468,-0.3680936
1.173205,-0.4237246,-0.2952622,0.2069102,-0.04822928,-0.1476895,0.3584425,0.1537058,-0.3673132
1.260663,-0.4937506,-0.3023439,0.2959622,-0.1175455,-0.1529727,0.1464185,0.08928962,-0.3961573
1.290355,-0.5825264,-0.3048358,0.3271846,-0.2056879,-0.1536447,0.157739,0.0793318,-0.4777206
1.242856,-0.6790031,-0.299889,0.2811377,-0.3015956,-0.1468552,0.5060401,0.1415584,-0.50013
1.174615,-0.8182619,-0.3001447,0.2142582,-0.440333,-0.1452444,0.9136554,0.2614699,-0.3084231
1.102566,-0.7707413,-0.3012832,0.1434686,-0.3923185,-0.1444919,0.9646126,0.3331941,-0.02443683
1.10131,-0.5639145,-0.2594911,0.1433648,-0.1850053,-0.100784,0.7150636,0.3033986,0.05492667
1.130181,-0.4317001,-0.1946756,0.1732778,-0.0522985,-0.03402904,0.4733671,0.2868951,-0.05844488
1.095794,-0.3885792,-0.1475048,0.1398203,-0.008673803,0.01510127,0.3104026,0.1599992,-0.1184905
1.078131,-0.4163826,-0.1288131,0.12297,-0.03596168,0.03576644,0.2386134,-0.09817325,-0.1461347
1.065582,-0.404879,-0.1146496,0.1111194,-0.02393151,0.05191004,0.2692232,-0.190511,-0.1280889
1.026139,-0.3305748,-0.1341961,0.07225828,0.05090865,0.03434208,0.2411146,0.01957729,-0.03063806
0.9905938,-0.3365994,-0.2011389,0.03718138,0.04542692,-0.03063053,0.1529423,0.2633855,-0.02881821
0.8495361,-0.3193956,-0.1936525,-0.1035162,0.06317628,-0.02118747,0.08969353,0.2629736,-0.04900901
0.6944079,-0.2836576,-0.1489738,-0.2583833,0.09945778,0.02543067,0.04494655,0.179234,-0.02212922
0.6691982,-0.309638,-0.1346277,-0.283416,0.07401357,0.04169484,0.1316011,0.1548358,-0.02618606
0.6464801,-0.2934863,-0.07933106,-0.3060225,0.09068891,0.0988825,0.2629519,0.148924,-0.0065223
0.6301321,-0.2949873,-0.05536653,-0.3223044,0.08969391,0.1247042,0.324041,0.1837488,-0.01183519
0.6696297,-0.2918436,-0.05516788,-0.2827676,0.09332145,0.1267182,0.3585825,0.1928823,-0.05607541
0.6942093,-0.2348541,-0.02236185,-0.2581583,0.1507678,0.1612891,0.2745445,0.1438581,-0.08372658
0.7149633,-0.1980483,-0.0302377,-0.2373696,0.1879976,0.1551193,0.1309558,0.06239564,-0.1002503
0.7517157,-0.1698497,-0.03431876,-0.2005651,0.21658,0.152677,0.005497219,-0.01182881,-0.04045774
0.7858979,-0.2053095,-0.02396534,-0.1663035,0.1814558,0.1645942,-0.08311115,-0.005965796,0.03998279
0.8199088,-0.2658724,-0.0279628,-0.1321788,0.1211731,0.1620787,-0.06159599,0.01446405,0.0460063
0.8682061,-0.2985466,-0.01565649,-0.08372838,0.08871909,0.1757784,-0.01633597,0.02383438,-0.01347983
0.9089996,-0.3300891,-0.01732252,-0.04274024,0.057335,0.1754112,0.08444732,0.07306667,-0.1592753
0.9252073,-0.2969202,-0.01717881,-0.02629656,0.09060042,0.1767534,0.2143993,0.1360927,-0.3735869
0.9454993,-0.2432835,-0.001237622,-0.005728771,0.1442715,0.1937877,0.1988367,0.178874,-0.5573198
0.9746317,-0.1887414,0.007298971,0.02371619,0.1987841,0.2033069,0.1399359,0.1217617,-0.5570119
1.028427,-0.160161,0.0005764652,0.07785647,0.2272672,0.1974518,0.134399,-0.03957062,-0.3923991
1.156552,-0.2463247,-0.05897835,0.2063527,0.1409335,0.1386453,0.1837608,-0.174005,-0.2317157
1.350322,-0.3783687,-0.1664094,0.4005089,0.008644023,0.03184209,0.3295385,-0.2160498,-0.126968
1.470912,-0.5155185,-0.2316631,0.5214822,-0.1288242,-0.03290176,0.496653,-0.1868153,-0.13101
1.405661,-0.5586668,-0.1727188,0.4565885,-0.1723548,0.02644075,0.5458946,-0.1892219,-0.1547285
1.255204,-0.4414102,-0.1035345,0.3064408,-0.05553306,0.09591777,0.4107025,-0.3024066,-0.08653317
1.096208,-0.3626308,-0.1396674,0.1476884,0.0227694,0.05997661,0.1498878,-0.4619351,0.02082338
0.9439383,-0.3889652,-0.1927106,-0.004409477,-0.004077985,0.007027505,-0.1406602,-0.5479189,0.2258892
0.9316598,-0.4489479,-0.2608155,-0.01658875,-0.06460543,-0.06107543,-0.3391827,-0.4562967,0.3452224
1.011318,-0.5205984,-0.3085737,0.06310051,-0.1368264,-0.108916,-0.3617655,-0.3049916,0.2573788
1.046423,-0.5440084,-0.2560904,0.0981711,-0.1608243,-0.05658912,-0.2980588,-0.268308,0.2377821
1.069914,-0.5238159,-0.2215599,0.1215644,-0.141227,-0.02227969,-0.1583648,-0.275598,0.1803079
1.033262,-0.5112802,-0.2004563,0.08475006,-0.1292843,-0.001454398,0.08235064,-0.315472,0.003997375
0.9571105,-0.4804431,-0.1678909,0.008372665,-0.09902946,0.03078121,0.2626245,-0.3575764,-0.1130958
0.9007967,-0.3887638,-0.2082757,-0.04822801,-0.007915594,-0.009980764,0.3250617,-0.3225736,-0.1834428
0.8213462,-0.2775356,-0.2346016,-0.1280199,0.1027667,-0.03672676,0.3468803,-0.3192055,-0.09168944
0.8134071,-0.2218619,-0.2252741,-0.1363459,0.1579117,-0.02785719,0.3346507,-0.3437406,0.07952732
0.8202834,-0.2181028,-0.2376435,-0.1298913,0.1611536,-0.04071675,0.2493638,-0.3331042,0.1013432
0.7618322,-0.231323,-0.2339928,-0.1887882,0.1474205,-0.03758305,0.08162858,-0.2755797,0.04840412
0.7641069,-0.2585899,-0.2169599,-0.1869718,0.1196382,-0.02108865,-0.02591858,-0.2013802,-0.04927395
0.7594704,-0.2835533,-0.1960363,-0.1920679,0.09415182,-0.0007207369,0.04853301,-0.2422442,-0.1029108
0.7238998,-0.2925607,-0.1961811,-0.228088,0.08461012,-0.001434866,0.2027843,-0.3101187,-0.04441578
0.7395076,-0.3244379,-0.2209238,-0.2129082,0.05218508,-0.02675766,0.3815731,-0.2873096,0.01968282
0.7559489,-0.3601256,-0.2211752,-0.1968629,0.01593512,-0.02759684,0.5472156,-0.213651,0.05376663
0.7888242,-0.343138,-0.199645,-0.1643422,0.03234648,-0.006658889,0.6000761,-0.146071,-0.02053429
0.8280253,-0.3220085,-0.1680024,-0.1254474,0.05288671,0.02438974,0.7447375,-0.2498784,-0.1197223
0.8507594,-0.2872042,-0.1632579,-0.1029664,0.0870891,0.02853984,1.045622,-0.4089988,-0.08584422
0.9152572,-0.1793475,-0.1963825,-0.03866578,0.1943296,-0.005178876,1.094612,-0.3714969,-0.06821919
0.9909852,-0.09490616,-0.2256957,0.03692065,0.2781356,-0.03508459,0.8325229,-0.3084886,-0.1304989
1.048968,-0.1119528,-0.2559441,0.09481381,0.2604261,-0.06592146,0.6281117,-0.3081771,-0.2080703
1.108532,-0.1687703,-0.2652729,0.1543339,0.2029092,-0.07583076,0.666684,-0.2517793,-0.3420179
1.180375,-0.2284143,-0.2665464,0.2261678,0.142522,-0.07767256,0.7501459,-0.1449905,-0.4226135
1.255469,-0.3254208,-0.3214427,0.3012761,0.04472521,-0.1331198,0.686499,0.03659595,-0.3235107
1.291474,-0.46793,-0.3881294,0.3373034,-0.09862019,-0.200334,0.5864738,0.2470562,-0.1314078
1.331884,-0.5940289,-0.3784944,0.3777268,-0.2255939,-0.1911953,0.4116033,0.4592163,0.008848629
1.377061,-0.6943317,-0.2531006,0.4228906,-0.3267969,-0.06625849,0.2776695,0.5917071,-0.0752121
1.357642,-0.840005,-0.1133769,0.4034128,-0.4733771,0.07305167,0.4826894,0.4111218,-0.2218834
1.293152,-0.9160725,-0.1073519,0.3388023,-0.5503347,0.0787052,0.887495,0.2313261,-0.1052231
1.08476,-0.7749894,-0.1698156,0.1302142,-0.4100992,0.01590749,1.255976,0.3015846,0.04090875
0.8384205,-0.5906583,-0.1733902,-0.1164018,-0.2265507,0.01203199,1.202051,0.2701093,0.07806559
0.9319107,-0.4651522,-0.1425303,-0.02326401,-0.1017485,0.04262136,0.7702508,0.2346498,0.1004878
1.089731,-0.3576576,-0.09046377,0.1341354,0.005126362,0.09444439,0.5367248,0.2782076,0.03081537
0.9970455,-0.3575731,-0.01396184,0.04096477,0.004674068,0.1707248,0.3998322,0.09009922,0.0609278
1.018657,-0.3921136,-0.002166652,0.06202922,-0.03032421,0.1823128,0.3656576,-0.1215038,0.1116402
1.065525,-0.3847285,-0.04604598,0.1082912,-0.02332176,0.1382319,0.4479414,-0.08691816,0.04318103
0.9209408,-0.3924613,-0.07514913,-0.03695556,-0.03136521,0.1089248,0.3256445,0.05210987,0.05587448
0.8405805,-0.3735294,-0.102032,-0.1180303,-0.01267505,0.08182997,0.2623403,0.12435,0.003305466
0.7567108,-0.3513746,-0.0911706,-0.2026569,0.009303465,0.09246731,0.2178029,0.04776077,-0.02553721
0.6765368,-0.34365,-0.06392461,-0.2836168,0.0169133,0.1194738,0.1613135,-0.05788896,0.06947594
0.707463,-0.344066,-0.07671773,-0.2534893,0.01643921,0.1064222,0.2904904,-0.04016225,0.08614164
0.7033388,-0.3830076,-0.06879763,-0.2584088,-0.02250825,0.1140613,0.3468949,0.09427017,0.1309205
0.720255,-0.3935098,-0.05135498,-0.2422691,-0.03296775,0.1311968,0.4148812,0.3106252,0.1075038
0.7276531,-0.354745,-0.03345766,-0.235615,0.005885782,0.1487573,0.3996024,0.4295179,0.009634991
0.7074022,-0.2844999,0.01808171,-0.2565654,0.07626212,0.1999257,0.224356,0.2970024,-0.005883992
0.7321196,-0.2227236,0.02968102,-0.2324914,0.1382065,0.2111145,0.1426343,0.1431063,-0.01502531
0.722536,-0.2157818,0.02067023,-0.2426523,0.1453449,0.2016474,-0.007523554,0.08034615,0.05831388
0.7418291,-0.2307606,0.04455755,-0.2238612,0.1305819,0.2250265,-0.07306762,-0.02194072,0.1062248
0.7847834,-0.2761476,0.04510333,-0.1813262,0.085421,0.2250062,-0.02558533,-0.03392076,0.03671172
0.8414444,-0.3170636,0.04143696,-0.1249962,0.04473471,0.2207103,-0.003846556,-0.002425982,-0.08395436
0.9159221,-0.3102069,0.05918363,-0.05075916,0.05182001,0.2377585,0.1853703,-0.1171061,-0.3289344
0.8997672,-0.2750979,0.07982752,-0.06706516,0.08715324,0.2576301,0.336264,-0.2222862,-0.535182
0.9223008,-0.2054189,0.097794,-0.04459589,0.1570475,0.2747452,0.3699851,-0.3309986,-0.5692034
1.081273,-0.1528585,0.05332182,0.114394,0.209808,0.2293371,0.3349489,-0.4766914,-0.4972803
1.321683,-0.1630521,-0.02352465,0.3548957,0.199791,0.1514666,0.2047084,-0.5132129,-0.4085889
1.449078,-0.2903533,-0.0590293,0.4824379,0.07263465,0.1148491,0.05082859,-0.598371,-0.3485313
1.281882,-0.6512187,-0.1092405,0.3154207,-0.2881206,0.06343868,-0.2037068,-0.8057269,-0.2342204
1.151992,-1.138358,-0.1459714,0.1857207,-0.7751738,0.02542713,-0.06362543,-0.9071058,-0.1540749
1.197722,-1.281556,-0.1052591,0.2316355,-0.9182837,0.06478404,0.8116304,-0.8265123,-0.2182251
1.108916,-0.8568473,-0.1016841,0.1429974,-0.4934457,0.06693521,1.49854,-0.7991417,-0.390862
0.9479434,-0.4001154,-0.2047189,-0.01783054,-0.03651488,-0.0375852,1.1784,-0.9974923,-0.5378508
0.8923919,-0.3472814,-0.3155559,-0.07326349,0.01659803,-0.1499613,0.5601275,-1.114128,-0.4230218
0.9233337,-0.4681471,-0.3284708,-0.04222647,-0.1039108,-0.1644562,0.5853424,-0.8783026,-0.1902473
1.016318,-0.5728737,-0.2588138,0.05083333,-0.2082062,-0.09640596,0.7951527,-0.5296448,-0.1484078
1.050265,-0.663468,-0.1951976,0.08483665,-0.2982935,-0.03441079,1.101143,-0.3700294,-0.2525152
0.9849306,-0.6317013,-0.1548068,0.01953884,-0.2659387,0.004353836,1.700872,-0.3825904,-0.4270754
0.8962075,-0.4770449,-0.1564515,-0.0691685,-0.1106078,0.001083918,1.877354,-0.4520493,-0.604713
0.8229659,-0.366334,-0.1936214,-0.1424123,0.0008652606,-0.03770562,1.866066,-0.5551197,-0.6420368
0.8135181,-0.2940722,-0.2064977,-0.1518738,0.07397167,-0.05219099,1.909157,-0.5770834,-0.579379
0.7794923,-0.2015983,-0.2428872,-0.1859168,0.1673626,-0.09017279,1.740525,-0.5179188,-0.5173191
0.7080648,-0.176779,-0.2703767,-0.2573553,0.1931576,-0.1192312,1.619233,-0.5178481,-0.4686575
0.7176214,-0.2274565,-0.2387808,-0.2477931,0.1434991,-0.08917299,1.384798,-0.5353234,-0.4598624
0.7220732,-0.3101687,-0.2315552,-0.2433076,0.0618355,-0.08344696,1.288871,-0.5460967,-0.4822429
0.7090352,-0.3856215,-0.2181849,-0.256273,-0.01254937,-0.07153219,1.516766,-0.538576,-0.4737814
0.7376053,-0.4036339,-0.2072746,-0.227582,-0.02948066,-0.06202852,1.644614,-0.4768705,-0.4155957
0.7617638,-0.3565361,-0.2272499,-0.2032456,0.01870788,-0.08335759,1.754303,-0.3910209,-0.3668625
0.8138784,-0.2502369,-0.212874,-0.1508899,0.1261033,-0.07027901,1.732089,-0.3268367,-0.3677764
0.8662115,-0.1516869,-0.2126211,-0.09824869,0.2257475,-0.07126383,1.561367,-0.3892196,-0.3481428
0.8855083,-0.1262736,-0.215932,-0.07857602,0.2522416,-0.07574992,1.342018,-0.4472615,-0.2467373
0.9234243,-0.1883207,-0.1950527,-0.04021752,0.1912486,-0.05598082,1.108451,-0.3373757,-0.1322914
0.9542324,-0.2504487,-0.1885443,-0.008903351,0.1301361,-0.05051626,1.115444,-0.2244756,-0.09577172
0.9631688,-0.2374846,-0.1634919,0.0005979616,0.1440684,-0.02644031,1.086667,-0.1485326,-0.1296117
0.9709969,-0.2281512,-0.1449998,0.009044631,0.154316,-0.00885773,0.9283896,-0.04005975,-0.1502688
0.9799651,-0.2200485,-0.1331996,0.01867891,0.1632725,0.002098552,0.799004,0.06058548,-0.1025438
0.9822445,-0.2096264,-0.1040635,0.02166619,0.174482,0.03045401,0.6379148,0.1048639,-0.07330194
0.9655794,-0.200462,-0.07180222,0.00574484,0.1843613,0.06199445,0.621596,0.01234809,-0.1114811
0.9566237,-0.1370198,-0.01927103,-0.002436448,0.2484395,0.1138597,0.7790393,-0.200273,-0.09781832
0.9767935,-0.1047298,-0.03301099,0.01853363,0.2812795,0.09950231,0.9664833,-0.363566,0.04125498
1.045516,-0.13714,-0.1153459,0.08807758,0.2493248,0.01659202,0.9828852,-0.3068663,0.2405041
1.150589,-0.1970376,-0.1571325,0.1939856,0.1897808,-0.02573222,0.8677671,-0.1210128,0.2956567
1.179015,-0.2609943,-0.169859,0.2232496,0.126071,-0.0389601,0.8947339,-0.06060822,0.1785976
1.125369,-0.2900976,-0.1277034,0.1704335,0.0971067,0.0027302,0.966622,-0.1344617,0.129212
1.112964,-0.3560776,-0.05437989,0.1588383,0.0311596,0.07562359,1.030638,-0.2850097,0.1442289
1.136739,-0.4193098,-0.03594353,0.1833929,-0.03214148,0.09366176,0.9995439,-0.5119578,0.1205635
1.166043,-0.3586151,-0.04117244,0.2134378,0.0283895,0.08806147,0.7443035,-0.795731,0.1194826
1.242126,-0.3181234,-0.0628313,0.2902121,0.06862941,0.06605269,0.5179276,-0.9926575,0.1924733
1.322221,-0.457298,-0.1235002,0.3709381,-0.07087929,0.005051134,0.4720456,-0.7669802,0.3561148
1.369625,-0.7105689,-0.2519177,0.418899,-0.3245576,-0.1236833,0.5255306,-0.1896148,0.4525914
1.373411,-0.9169248,-0.3314854,0.4231503,-0.5313773,-0.2035493,0.4797236,0.3002387,0.3226467
1.235292,-0.8912506,-0.1784504,0.2853917,-0.5061975,-0.05078781,0.3586356,0.3354763,0.1179703
1.036307,-0.7226611,0.001003066,0.08664963,-0.3381052,0.1284208,0.3638216,-0.008323375,0.002129915
1.010526,-0.6167359,0.01140557,0.06099332,-0.2326571,0.1386045,0.402426,-0.1232704,-0.02410229
1.069523,-0.4749499,-0.02032584,0.1199999,-0.09131327,0.1066735,0.4514502,-0.1416568,0.0561652
1.025087,-0.3740079,-0.05512839,0.07546042,0.009228414,0.07168383,0.4532502,-0.4151873,0.184509
0.9538239,-0.4175609,-0.1185646,0.003986127,-0.03468161,0.00806809,0.4364961,-0.5248571,0.2201636
0.8902467,-0.4719778,-0.1798919,-0.05990353,-0.08941273,-0.05343315,0.6003869,-0.4172262,0.1650508
0.8197901,-0.5909059,-0.2177808,-0.1307643,-0.2086108,-0.0914892,0.8026329,-0.3106352,0.0287629
0.7506428,-0.6393707,-0.2251206,-0.2003949,-0.2572961,-0.09898606,1.077897,-0.3062379,-0.2239193
0.620604,-0.5182931,-0.2054872,-0.3309799,-0.1363823,-0.07949539,1.3707,-0.3458913,-0.4521857
0.5655934,-0.4208338,-0.1858341,-0.3865801,-0.0390242,-0.05996702,1.40456,-0.2577945,-0.4922941
0.646629,-0.315638,-0.1720057,-0.3061554,0.06613313,-0.04624244,1.371834,-0.1555817,-0.4311385
0.6978656,-0.2175583,-0.1071878,-0.2555308,0.1642321,0.01849353,1.329416,-0.05636774,-0.4095621
0.7516291,-0.1397329,-0.02054969,-0.2023638,0.2421243,0.1050707,1.180042,-0.1829435,-0.3423942
0.8040442,-0.07377407,0.02188947,-0.1505176,0.3081836,0.1474653,1.019643,-0.4607453,-0.2245386
0.8333223,-0.1355267,0.03214103,-0.1217717,0.2465493,0.1576817,0.8760118,-0.4112819,-0.2000283
0.898866,-0.2069265,0.02702941,-0.05671787,0.1752703,0.1525362,0.7344392,-0.3653683,-0.2575886
0.9000964,-0.2402948,0.02867229,-0.05593203,0.1420139,0.1541384,0.5249627,-0.3896073,-0.3095984
0.9055006,-0.2982357,0.02785127,-0.05092572,0.08416807,0.1532627,0.2916448,-0.2258162,-0.2476453
0.9815642,-0.3348844,0.02473661,0.02478647,0.04759267,0.1500725,0.1609516,-0.03351493,-0.1754975
1.006294,-0.3639424,0.03748035,0.04920979,0.01858414,0.1627138,0.1306488,0.2383294,-0.2757495
1.012,-0.3520835,0.05999412,0.05464983,0.03046806,0.1850921,0.1181601,0.4994424,-0.4331937
0.9836909,-0.3054488,0.1278265,0.02611094,0.07710341,0.2527494,0.06921592,0.5536987,-0.6018605
0.9290539,-0.2587338,0.211472,-0.02872318,0.1237934,0.3361719,0.05457684,0.2962324,-0.6444436
0.972344,-0.2170245,0.19342,0.01440016,0.1654488,0.3178386,0.0697881,-0.1279729,-0.3673096
1.148727,-0.2918372,0.02771733,0.1906443,0.09054893,0.1517858,0.09747601,-0.1923816,-0.03714622
1.421455,-0.453022,-0.1333506,0.4632512,-0.07075894,-0.009706121,0.1229914,0.02279353,0.0911967
1.54154,-0.5557745,-0.1087013,0.5832184,-0.1736678,0.01444677,-0.10561,0.04422179,0.0552088
1.398979,-0.5679768,-0.06293251,0.4405159,-0.1860517,0.05965203,-0.6758918,-0.24804,0.03591501
1.140079,-0.5372277,-0.1515952,0.1814298,-0.1554985,-0.02963609,-1.203227,-0.5669379,0.115679
0.8770364,-0.5528852,-0.2033005,-0.08185462,-0.1713559,-0.08202273,-1.243757,-0.5126127,0.1790053
0.925892,-0.5708991,-0.2094388,-0.03329681,-0.1895641,-0.0888899,-0.9286569,-0.399197,0.2322223
1.153877,-0.5484402,-0.2620023,0.1943388,-0.1672846,-0.14222,-0.7222842,-0.4369186,0.2046259
1.137777,-0.5591579,-0.2986174,0.1778404,-0.1781584,-0.1796285,-0.6717363,-0.2575716,0.06860737
1.136842,-0.5392854,-0.3020015,0.1764523,-0.1584109,-0.1838205,-0.6880556,-0.1261146,-0.01625992
1.130508,-0.4441147,-0.2484617,0.169607,-0.06332811,-0.1310912,-0.7192884,-0.2011118,-0.08083893
1.003531,-0.3463977,-0.1941539,0.04205982,0.034341,-0.07758629,-0.6799947,-0.1439557,-0.1411525
1.03318,-0.3185316,-0.2150011,0.07107733,0.06219747,-0.09922127,-0.6810819,-0.0645769,-0.2050082
0.9807651,-0.3340385,-0.2058221,0.01797422,0.0467147,-0.09080897,-0.6743485,0.01191339,-0.2420886
0.8159019,-0.2716863,-0.1654251,-0.1476296,0.1091193,-0.05115259,-0.6005961,0.1297492,-0.1691768
0.7517804,-0.23616,-0.1511593,-0.2125348,0.1447197,-0.03759755,-0.5848092,0.1323153,-0.1235309
0.6744945,-0.2518674,-0.1532232,-0.2906334,0.1291003,-0.04033989,-0.5875826,0.09831601,-0.08585258
0.5870389,-0.1711361,-0.166751,-0.3789134,0.2099248,-0.05451232,-0.6147111,0.03223536,-0.04047433
0.5009458,-0.1342065,-0.1595769,-0.4658219,0.2469432,-0.04794714,-0.6515519,-0.0496264,-0.04623892
0.5654615,-0.167801,-0.1731162,-0.4020904,0.2134221,-0.06205817,-0.6401388,-0.03516475,0.0473937
0.6927773,-0.1686796,-0.2178492,-0.2755067,0.2125907,-0.1073234,-0.5925459,0.03946932,0.1607623
0.7081293,-0.2196247,-0.2569588,-0.2608187,0.1616575,-0.1469227,-0.433927,0.1784262,0.194739
0.8072405,-0.3021521,-0.2735889,-0.1622924,0.07910021,-0.1639955,-0.2421795,0.3080284,0.1956551
0.8425353,-0.330501,-0.2351239,-0.1274967,0.05067635,-0.1259206,-0.1070568,0.3600074,0.1377276
0.856194,-0.2862489,-0.2029667,-0.1142483,0.09480757,-0.09409678,-0.008069279,0.3687215,0.06764062
0.9633386,-0.2085886,-0.1953877,-0.007424609,0.1723005,-0.08679146,0.01359054,0.3328864,0.001271988
0.9763914,-0.1209014,-0.1884398,0.005394018,0.2597705,-0.08005661,-0.06029814,0.2899753,-0.0159876
1.052824,-0.04785791,-0.2034624,0.08167415,0.3325399,-0.0952307,-0.2432214,0.2423489,0.007926624
1.104208,-0.06827845,-0.2047065,0.1329789,0.3117788,-0.09656446,-0.4152747,0.2088884,0.02435828
1.044602,-0.1181416,-0.2037953,0.0733577,0.2614984,-0.09568041,-0.4486877,0.1905356,0.1389226
1.071705,-0.1659268,-0.2111051,0.1004989,0.2132116,-0.1029541,-0.3863634,0.2129147,0.2672715
1.143688,-0.2548326,-0.2064999,0.1725643,0.1237151,-0.09824958,-0.3156975,0.4141386,0.2608865
1.242491,-0.3340058,-0.2126542,0.2714845,0.04386186,-0.1042406,-0.3168481,0.5903804,0.1468266
1.266884,-0.4417719,-0.2235723,0.296013,-0.06466962,-0.1149314,-0.3508625,0.4547171,0.06520802
1.2453,-0.5634618,-0.2479995,0.2745701,-0.187201,-0.1390667,-0.4327248,0.2589264,0.1837565
1.342407,-0.6034117,-0.278149,0.3718048,-0.2280546,-0.1688587,-0.5593973,0.2609094,0.3226061
1.445763,-0.6139344,-0.2855052,0.4752603,-0.2395263,-0.1757895,-0.5541342,0.3013129,0.3126368
1.460605,-0.646845,-0.2768085,0.4901541,-0.2734132,-0.166597,-0.3958944,0.3328294,0.3551235
1.293043,-0.6386301,-0.2436773,0.3225748,-0.2661842,-0.1328976,-0.2132925,0.41026,0.4810381
1.053591,-0.5764161,-0.1997895,0.08302336,-0.204949,-0.08836845,-0.1967015,0.4188407,0.5825652
1.036835,-0.5280144,-0.1691577,0.06608068,-0.1575049,-0.05702344,-0.3930023,0.4660265,0.6272994
1.123909,-0.4635234,-0.1444809,0.1528807,-0.09393985,-0.03156499,-0.5677308,0.5553388,0.5453305
1.124092,-0.3940034,-0.1089737,0.1527044,-0.02530758,0.004787599,-0.6025669,0.4059779,0.4557883
1.08234,-0.3832462,-0.08422758,0.1105075,-0.0153969,0.03043654,-0.5884862,0.2057965,0.4578571
1.020141,-0.3854844,-0.1052052,0.04778,-0.01843945,0.01041189,-0.613348,0.2267118,0.4334061
0.9262959,-0.4087036,-0.1291953,-0.04667472,-0.04242064,-0.01258191,-0.5894348,0.3254408,0.37918
0.7983052,-0.4310351,-0.1340451,-0.1753473,-0.06547108,-0.01639816,-0.407405,0.4113193,0.2694197
0.6572162,-0.4093521,-0.1164917,-0.3171776,-0.04446263,0.002221039,-0.1529608,0.4638242,0.1402652
0.5709105,-0.3538632,-0.06866751,-0.4042653,0.01039709,0.05113806,0.04550364,0.4355086,0.1421792
0.5586494,-0.2485975,-0.05317569,-0.4173259,0.1150778,0.06774341,0.07541893,0.4135459,0.1687359
0.5533655,-0.1886539,-0.04264199,-0.423403,0.1744755,0.07940398,0.006451053,0.4236417,0.1494898
0.5401864,-0.1824762,0.001209475,-0.4373455,0.1801386,0.1243876,-0.05198093,0.3813134,0.1146693
0.563197,-0.1409326,0.01512414,-0.4150463,0.2211886,0.1394309,-0.1982576,0.3366465,0.05617806
0.5997109,-0.1229423,0.01365803,-0.3791724,0.238696,0.1390806,-0.4040137,0.296066,0.04989852
0.6260293,-0.1451627,0.02320216,-0.3534052,0.2159922,0.1497185,-0.619386,0.1963138,0.05842587
0.6993871,-0.1790116,0.03141007,-0.2804961,0.1816496,0.1589891,-0.82466,0.1415621,0.04219229
0.815699,-0.2560658,0.03611964,-0.164521,0.1040835,0.1647218,-0.8715095,0.1732683,0.02433264
0.8809881,-0.3383153,0.04945267,-0.09945246,0.02129953,0.17903,-0.7733805,0.18876,-0.09073914
0.9307467,-0.3296268,0.09817746,-0.04979861,0.02943042,0.2286736,-0.6391947,0.1742862,-0.3402942
1.017796,-0.2529268,0.1247055,0.03725736,0.1055504,0.2560553,-0.5695949,0.1582334,-0.5899134
1.051007,-0.1915324,0.1022749,0.07057804,0.1663419,0.2344033,-0.6273579,0.03984175,-0.6447603
1.089272,-0.1605922,0.08061368,0.1090466,0.1966528,0.2134368,-0.6552491,-0.1683032,-0.4696121
1.233631,-0.1734217,0.04539261,0.2536904,0.1831624,0.1788191,-0.5405879,-0.2162618,-0.2405915
1.364355,-0.2474671,-0.0178079,0.384762,0.1084194,0.1161259,-0.4384454,-0.1378529,-0.1043673
1.427917,-0.4608977,-0.1267085,0.4487147,-0.105747,0.007634874,-0.443946,-0.1411486,-0.0357194
1.428716,-0.7306995,-0.2280672,0.4499221,-0.3763169,-0.0934089,-0.3323092,-0.1426988,0.0686646
1.389782,-0.7568475,-0.1963578,0.4113895,-0.4032497,-0.06147187,0.07685955,-0.06312722,0.1425296
1.38644,-0.6243174,-0.1398046,0.4084181,-0.2715,-0.00476971,0.3843921,-0.06410917,0.03191952
1.220989,-0.5145368,-0.1764337,0.2432889,-0.1624774,-0.041321,-0.0417147,-0.344744,-0.06319472
0.9018142,-0.3893255,-0.2066977,-0.07562524,-0.03798958,-0.07157173,-0.7914563,-0.6553041,0.09777273
0.848957,-0.4718682,-0.2404645,-0.1282845,-0.1212157,-0.1053822,-0.8777821,-0.5512773,0.2126975
1.066529,-0.6899958,-0.2768148,0.08942886,-0.3399812,-0.1418242,-0.5767301,-0.3049554,0.06550496
1.264159,-0.6734101,-0.2686606,0.287146,-0.3239781,-0.1338,-0.4321642,-0.1622159,-0.06831866
1.287837,-0.5880793,-0.2817558,0.3108525,-0.2391621,-0.1470532,-0.2729749,0.03202493,-0.1274429
1.136516,-0.5339826,-0.2285492,0.1594929,-0.1855014,-0.09402331,-0.1583149,-0.05134986,-0.2740278
0.9570917,-0.4281009,-0.1385503,-0.02004281,-0.07997071,-0.004212464,-0.02032027,-0.2814262,-0.441773
0.7984413,-0.364495,-0.1663617,-0.1788764,-0.01662922,-0.03221887,0.1107172,-0.2646845,-0.4724576
0.6750688,-0.2747946,-0.1987497,-0.3024928,0.07289049,-0.06480599,0.01820727,-0.3293736,-0.2932358
0.6048064,-0.234224,-0.2166721,-0.3730431,0.113357,-0.08292831,-0.005015141,-0.3079331,-0.03159611
0.5487818,-0.2819747,-0.2409635,-0.4293783,0.0655698,-0.1074161,0.01086721,-0.1283346,0.03961668
0.5170759,-0.271987,-0.2083408,-0.4613948,0.07557939,-0.07498145,-0.07420534,-0.1337874,-0.0742492
0.5057285,-0.2939481,-0.1897708,-0.4730292,0.05369025,-0.05658677,-0.07203094,-0.1020657,-0.1643239
0.5406925,-0.2957583,-0.1890117,-0.4383058,0.05199516,-0.05598715,0.01373356,-0.08327058,-0.2241126
0.6190115,-0.2371821,-0.1965603,-0.3601608,0.1107229,-0.06367697,0.1851501,-0.04188471,-0.2375124
0.687414,-0.1918863,-0.2132594,-0.2918496,0.1561991,-0.08049677,0.3293126,0.141558,-0.1495298
0.7457267,-0.1089861,-0.1923643,-0.2335344,0.2392989,-0.05969953,0.3219483,0.1812666,-0.05260901
0.8005759,-0.08412029,-0.1766694,-0.178582,0.2643716,-0.04407757,0.2347711,0.2037465,0.04697583
0.8965489,-0.09566867,-0.183144,-0.08240238,0.2530237,-0.05059888,0.1236651,0.215788,0.1544462
1.000957,-0.07718507,-0.2031053,0.02231387,0.2716881,-0.07058002,0.08230793,0.1675855,0.2332137
1.050679,-0.09009255,-0.2361743,0.07244059,0.2589292,-0.1036403,0.04426946,0.2126363,0.2829676
1.086324,-0.08830236,-0.2354707,0.1085741,0.260824,-0.1028974,-0.09754273,0.2918566,0.2309889
1.122544,-0.1064299,-0.1832513,0.1453569,0.2427466,-0.05060542,-0.2518557,0.3966837,0.1205885
1.166406,-0.1387719,-0.128014,0.1898409,0.2103915,0.004738589,-0.2990365,0.3147096,0.01825026
1.181149,-0.1582514,-0.1329715,0.2052513,0.1908285,-7.935252e-05,-0.1948102,0.08780211,-0.06625651
1.176697,-0.2933478,-0.1647061,0.2014973,0.0555737,-0.03164373,-0.05113956,0.05346385,-0.04801099
1.229071,-0.4653927,-0.167226,0.2545842,-0.1167038,-0.03396469,0.06814893,0.1485837,-0.02823046
1.246055,-0.4674705,-0.1653179,0.2722819,-0.1190818,-0.03183013,0.1063209,0.233693,-0.06895807
1.256204,-0.4345289,-0.1645603,0.2831299,-0.08649733,-0.03081937,-0.09361407,0.06926916,-0.07755872
1.38999,-0.5788783,-0.1594966,0.417584,-0.2312496,-0.02547702,-0.2531384,-0.2954755,-0.07796058
1.480046,-0.700038,-0.1661676,0.5082583,-0.3528442,-0.0318449,0.01350049,-0.4118249,0.0220045
1.373252,-0.6945883,-0.1943545,0.4020138,-0.347844,-0.05970512,0.3608383,-0.1559665,0.1950073
1.197638,-0.7431613,-0.2288555,0.2268615,-0.3968609,-0.09385594,0.3822652,0.2135666,0.2080963
1.127607,-0.7237067,-0.2001889,0.1571926,-0.3778249,-0.06481467,0.2858869,0.3084251,0.1424553
1.153958,-0.5435808,-0.0971681,0.1838022,-0.1980743,0.03860554,0.1798094,0.2758112,0.1454437
1.152912,-0.4116613,-0.01991273,0.1829078,-0.06647494,0.1162826,0.01025365,0.2868444,0.1711409
1.117443,-0.4144577,-0.03429562,0.1474827,-0.06953126,0.1023378,0.006316793,0.0876981,0.1818101
1.084038,-0.4300002,-0.06284952,0.114013,-0.08527288,0.0742308,0.1190203,-0.08166011,0.1483472
1.020565,-0.4020162,-0.04061535,0.05036738,-0.05742714,0.0969142,0.200663,-0.1074888,0.07753742
0.9271128,-0.4294133,-0.07680944,-0.04336001,-0.08490189,0.06116584,0.414212,-0.09431061,-0.002630428
0.8175415,-0.4375257,-0.1415808,-0.1533011,-0.09303163,-0.0031678,0.5889246,0.02518437,-0.1309532
0.6513266,-0.3808414,-0.1132826,-0.319967,-0.03630483,0.0255577,0.6666958,0.03365985,-0.2907347
0.4949285,-0.3666438,-0.1053848,-0.4768774,-0.02200592,0.03387082,0.8762081,-0.008951843,-0.3456083
0.4662072,-0.3037403,-0.1228105,-0.5061471,0.04105459,0.01684692,0.985924,-0.03638941,-0.2420467
0.470712,-0.2295765,-0.1012389,-0.5021981,0.1154256,0.03880534,0.978028,-0.1025525,-0.1042983
0.4926092,-0.2010712,-0.1047519,-0.4808364,0.1441804,0.03566272,1.00625,-0.05676435,-0.02040151
0.6267941,-0.133856,-0.09495152,-0.3471423,0.2116769,0.04581528,0.8816492,-0.04280032,0.04640827
0.7366025,-0.1253502,-0.07791322,-0.2377609,0.2204837,0.06318576,0.6857904,-0.04502559,0.07795903
0.7835638,-0.160262,-0.0675294,-0.1911508,0.18588,0.07387946,0.5053529,-0.01054153,0.05283164
0.8549589,-0.1933468,-0.02241294,-0.1200242,0.1530986,0.1192806,0.3441035,-0.03670645,0.03355202
0.9060239,-0.2537761,0.005440655,-0.0691423,0.09295889,0.1473895,0.3177393,-0.01927051,-0.02055693
0.9392147,-0.2794531,0.02868521,-0.03604978,0.0675517,0.1708548,0.313696,-0.03451064,-0.1500844
0.9463113,-0.2935217,0.05928397,-0.02896952,0.0537293,0.2016334,0.3260658,-0.06212551,-0.2737354
0.9622347,-0.2806494,0.06661013,-0.01298472,0.06682183,0.2090914,0.4067214,-0.03913812,-0.3732583
1.052729,-0.259358,0.08339899,0.07764311,0.08830544,0.2259568,0.4876849,-0.03882632,-0.4500749
1.10011,-0.2806538,0.1083349,0.1252234,0.06717158,0.2509063,0.5812613,0.005688097,-0.4719536
1.086069,-0.2722125,0.1322992,0.1114372,0.07574241,0.2748135,0.6541685,-0.00192281,-0.4578672
1.068406,-0.2497337,0.1342966,0.09407247,0.09831615,0.2766751,0.6947004,-0.1799234,-0.3548964
1.06071,-0.2437092,0.04720537,0.08671131,0.1043991,0.1893618,0.7200859,-0.4799212,0.03568523
1.171366,-0.2956188,-0.0817349,0.1977277,0.05250893,0.06010881,0.8420276,-0.645366,0.5325138
1.318248,-0.437611,-0.1113136,0.3449857,-0.08950308,0.0301275,0.9884511,-0.489866,0.5656467
1.31623,-0.564847,-0.07358594,0.3433439,-0.2167937,0.06736685,0.7528282,-0.4223404,0.3757462
1.218473,-0.621473,-0.08676141,0.2459455,-0.2734993,0.05362231,0.386078,-0.6256983,0.4480461
1.100081,-0.6248805,-0.1078699,0.1278798,-0.2769973,0.03186865,0.3911301,-0.7387653,0.364824
0.995169,-0.6373584,-0.1186244,0.02325482,-0.2895617,0.02039801,0.5274289,-0.6904074,0.1482443
1.017743,-0.6528937,-0.1714206,0.04607323,-0.3051649,-0.03317945,0.5799396,-0.6361502,0.1318917
1.113381,-0.5758245,-0.2377229,0.1419121,-0.2281314,-0.1003204,0.5877951,-0.6229703,0.06734298
1.139581,-0.4848089,-0.2835016,0.1682679,-0.1371083,-0.1469854,0.5218631,-0.6322579,0.06178573
1.168354,-0.4697498,-0.2826073,0.1971466,-0.121992,-0.1470131,0.4787727,-0.6302315,0.08464225
1.182551,-0.4716029,-0.265204,0.2113927,-0.1237347,-0.1305555,0.4828197,-0.5642621,-0.04870393
1.117761,-0.4633547,-0.2701872,0.1465903,-0.1153206,-0.1364962,0.4953437,-0.4172532,-0.1171598
1.044066,-0.446247,-0.2474813,0.07281613,-0.09798986,-0.1147495,0.5120643,-0.2944262,-0.213528
0.9318305,-0.3978397,-0.2277092,-0.03956494,-0.04930207,-0.09592913,0.4468984,-0.2323936,-0.3112465
0.8027451,-0.3284071,-0.2230522,-0.1688578,0.02046707,-0.09220881,0.3153113,-0.1802297,-0.3532628
0.6760344,-0.277503,-0.1822307,-0.2958274,0.07175956,-0.05230276,0.1665017,-0.1723032,-0.4289999
0.5523716,-0.2365536,-0.1607279,-0.4197841,0.1131421,-0.03168956,0.0390447,-0.2156523,-0.385201
0.5107226,-0.1892832,-0.1578146,-0.4617405,0.1608811,-0.02963702,0.02673002,-0.2568086,-0.3661237
0.4891386,-0.1618747,-0.1496299,-0.4836217,0.1887831,-0.02228244,0.1188483,-0.2746165,-0.326709
0.4939034,-0.1648452,-0.1673257,-0.4791198,0.1863188,-0.04077604,0.2745429,-0.2800063,-0.1275414
0.5549772,-0.1999353,-0.1946573,-0.4182519,0.1517364,-0.06887157,0.4396207,-0.2668218,0.02463258
0.6389579,-0.2465066,-0.2315409,-0.334401,0.105664,-0.1064825,0.562392,-0.1579048,0.1453168
0.7602235,-0.2606598,-0.2358276,-0.2131754,0.09199355,-0.1114563,0.6641383,0.0465394,0.1692512
0.8266249,-0.2415034,-0.1848944,-0.1467163,0.111611,-0.06116591,0.7021398,0.130919,0.1284416
0.8885421,-0.2155197,-0.1405958,-0.0846412,0.1380286,-0.01746327,0.6635733,0.02085082,0.1585942
1.025647,-0.1740471,-0.1091646,0.05271962,0.1799022,0.01341935,0.6145787,-0.05204553,0.1070383
1.148683,-0.1051955,-0.1053671,0.1761015,0.249115,0.01671402,0.5234737,-0.07015382,-0.01090979
1.237687,-0.06751039,-0.1394187,0.2655293,0.287112,-0.01779693,0.3244705,-0.1786309,-0.1308944
1.261989,-0.1030725,-0.1904884,0.2903158,0.2518021,-0.06928404,0.07365516,-0.2210141,-0.183646
1.278493,-0.2146122,-0.2469217,0.3073431,0.1404459,-0.1260924,-0.1275271,-0.01971468,-0.1455381
1.336396,-0.4202561,-0.2746043,0.3657913,-0.06508813,-0.1541048,-0.2133203,0.3870393,-0.1405954
1.34822,-0.6103359,-0.3004652,0.3781592,-0.2551278,-0.1802455,-0.2099606,0.837076,-0.02479653
1.342284,-0.6580217,-0.305563,0.3727472,-0.3028311,-0.1855676,-0.3259613,1.084008,0.2069956
1.313988,-0.7150423,-0.1958685,0.3449362,-0.3599091,-0.07603679,-0.5784181,0.9676444,0.2432575
1.260061,-0.894474,-0.08518625,0.2914377,-0.539417,0.0345446,-0.5910613,0.4391515,0.005123142
1.234705,-0.9503924,-0.1317259,0.2664414,-0.5954057,-0.01203539,-0.08019393,-0.1047574,-0.1612025
1.140243,-0.7566626,-0.1889412,0.1722585,-0.4017137,-0.06923435,0.6291941,0.02086459,0.140404
1.024383,-0.5395745,-0.1392144,0.0565927,-0.184609,-0.01943712,0.7712524,0.3492795,0.5574592
1.050158,-0.4589912,-0.1226799,0.08247556,-0.103943,-0.002780493,0.4045398,0.1568506,0.5673038
1.073328,-0.4412614,-0.1260776,0.1056686,-0.08606069,-0.006007444,0.1972294,-0.1220195,0.4189982
0.9809453,-0.3665892,-0.09246381,0.01322624,-0.0111666,0.02782176,0.04394734,-0.4924794,0.3534767
0.938294,-0.2869914,-0.09647902,-0.0295642,0.06871875,0.02406228,-0.07187044,-0.801257,0.3059582
0.9524165,-0.3135423,-0.09775775,-0.01565442,0.04251485,0.02307482,0.04085664,-0.3883291,0.3003344
0.8824721,-0.3701645,-0.1120116,-0.08587762,-0.01370814,0.009143301,0.06829048,0.06592615,0.2638936
0.7338128,-0.3751701,-0.1420434,-0.2348728,-0.01826832,-0.02053902,0.09496858,0.2471862,0.1461694
0.6160993,-0.3638578,-0.1106874,-0.3529653,-0.006468359,0.01119091,0.2064701,0.3241032,0.05301334
0.5574182,-0.3276626,-0.06281122,-0.4120502,0.0302526,0.05946217,0.2670231,0.06810982,0.08208939
0.4829856,-0.2737504,-0.00941432,-0.4868886,0.08472365,0.1132708,0.4032554,0.03170004,0.1342908
0.5395482,-0.2514839,0.001179782,-0.4307103,0.1075753,0.1242868,0.4040653,0.1522764,0.06252369
0.7438272,-0.1977927,-0.02275812,-0.2267726,0.1618692,0.1007734,0.2558277,0.1394806,0.02049171
0.7724452,-0.1183889,0.01249739,-0.1984381,0.2418834,0.1364487,0.09021596,0.2097088,0.05167593
0.7392921,-0.1362703,0.02193713,-0.2318077,0.2246076,0.1462963,-0.2705354,0.1336981,0.07705467
0.8196047,-0.201053,0.01418901,-0.1516382,0.1604135,0.1389369,-0.5102558,0.1316119,0.1442644
0.8688802,-0.2702703,0.03142077,-0.102428,0.09175763,0.1565312,-0.4525884,0.2376683,0.09860353
0.9235934,-0.3825157,0.0366068,-0.04770088,-0.01995914,0.1620467,-0.3699758,0.3119232,-0.08089322
0.9680052,-0.41188,0.08488656,-0.00319791,-0.04882888,0.210616,-0.302614,0.4752143,-0.3078727
0.9965052,-0.3086639,0.1332359,0.02546612,0.05484927,0.2592071,-0.3208329,0.4061969,-0.5319477
1.07826,-0.1986241,0.1346778,0.1074508,0.1653187,0.260834,-0.4062554,0.2111437,-0.4995177
1.172562,-0.1840434,0.08250128,0.2020402,0.1802926,0.2087766,-0.4525152,-0.0203698,-0.2977047
1.303676,-0.3518332,-0.06014684,0.3334854,0.0128541,0.06617498,-0.464345,-0.2529236,-0.06872964
1.363161,-0.6060101,-0.1619224,0.3933281,-0.2410147,-0.03562834,-0.3586711,-0.2004763,0.1741896
1.308183,-0.6604186,-0.124418,0.338713,-0.2951508,0.001777479,-0.2704412,-0.1840965,0.1585089
1.241237,-0.48413,-0.097073,0.2721156,-0.1186126,0.02895865,-0.4579672,-0.2787138,0.05726605
1.091644,-0.3668888,-0.1808272,0.1228432,-0.001133929,-0.0550195,-0.8699632,-0.4241323,0.1290231
0.9403011,-0.4557774,-0.269543,-0.0282172,-0.08979231,-0.144013,-1.2531,-0.6226343,0.2665447
0.9494043,-0.5930061,-0.3333096,-0.01887012,-0.2267941,-0.2081013,-1.32961,-0.4752718,0.4873406
1.060562,-0.6749239,-0.3876712,0.09249385,-0.3084805,-0.2628158,-1.186348,-0.1575854,0.5404437
1.138964,-0.6902684,-0.3635141,0.1710655,-0.3235772,-0.2390278,-1.151991,0.04448135,0.3437861
1.117148,-0.5946783,-0.3070787,0.1493773,-0.2277095,-0.1829634,-1.10631,0.1795975,0.2013161
1.0377,-0.4901268,-0.2392526,0.07001192,-0.12284,-0.1154984,-0.9183525,0.06106543,0.01922275
0.9496046,-0.4171258,-0.1926393,-0.01804859,-0.04947537,-0.06922819,-0.8062835,-0.1314188,-0.1399656
0.8990653,-0.3198577,-0.231228,-0.06859926,0.04820235,-0.1081371,-0.795423,-0.1542729,-0.105717
0.8921991,-0.265544,-0.2397726,-0.07551781,0.1029672,-0.1169747,-0.8434326,-0.1774917,-0.04751718
0.8656661,-0.2361029,-0.2407641,-0.1021374,0.1328933,-0.1182275,-0.9405285,-0.1002356,0.06984963
0.8120273,-0.236155,-0.2593854,-0.1558893,0.1333505,-0.1370742,-1.017439,0.07780383,0.2157944
0.7101297,-0.2978178,-0.2150813,-0.2579174,0.07221207,-0.09295495,-1.068322,0.1226294,0.1973899
0.5826574,-0.3367686,-0.1955333,-0.3855245,0.03379288,-0.07354812,-1.024999,0.1281214,0.06557059
0.5809791,-0.3441953,-0.1968925,-0.3873255,0.0269,-0.07500304,-0.9563835,0.1255846,-0.02895716
0.6451117,-0.3277929,-0.1872312,-0.3232854,0.04383495,-0.06539117,-0.8758219,0.1104502,0.006487352
0.6311769,-0.3123365,-0.1840119,-0.3372657,0.05981935,-0.06217462,-0.6053012,0.1156937,0.07021257
0.6689283,-0.2901829,-0.1657357,-0.2994991,0.08249245,-0.04385464,-0.3311178,0.04465961,0.1010497
0.7316869,-0.2458357,-0.1860293,-0.2366531,0.127346,-0.06405841,-0.1898722,-0.03148902,0.1847183
0.7534659,-0.2573063,-0.2143466,-0.214706,0.116363,-0.09224051,-0.05939398,-0.07991205,0.2468719
0.8903063,-0.2454065,-0.2318791,-0.07761197,0.1287256,-0.109592,-0.01660793,-0.07289808,0.2695965
1.007237,-0.1932216,-0.2663752,0.0396583,0.1813424,-0.14386,-0.08604432,0.073874,0.2908098
1.039311,-0.1941309,-0.2585581,0.07215157,0.180827,-0.1357651,-0.2159514,0.2490301,0.2015016
1.120001,-0.2260392,-0.2269819,0.1533305,0.1492677,-0.1038592,-0.3818308,0.3496269,0.01175676
1.1661,-0.3131895,-0.1983895,0.1999778,0.06241569,-0.07488371,-0.4018994,0.3751719,-0.1966479
1.192594,-0.3970562,-0.1840482,0.2270633,-0.02120557,-0.06010626,-0.2240147,0.4371733,-0.3697992
1.209334,-0.4241793,-0.2367028,0.2444224,-0.04813445,-0.1122726,-0.09381163,0.50535,-0.3772259
1.218203,-0.4548589,-0.3485551,0.2539234,-0.07866641,-0.2235844,-0.1758873,0.4977094,-0.1973927
1.301516,-0.4931488,-0.4369915,0.3378641,-0.1168488,-0.3114243,-0.4434739,0.5518776,0.04696437
1.364337,-0.6179519,-0.4015647,0.4012923,-0.2415764,-0.2753382,-0.6560133,0.5948324,0.1826342
1.362717,-0.8321143,-0.32537,0.4002397,-0.4556828,-0.1984133,-0.4406086,0.6054825,0.1606546
1.258783,-0.9171867,-0.3152524,0.2968159,-0.5406996,-0.1874896,-0.03754754,0.642635,0.1916998
1.060697,-0.7815505,-0.2719018,0.09916802,-0.404985,-0.1432545,0.03904374,0.5728767,0.3042715
0.981802,-0.598167,-0.2088072,0.02063329,-0.2214793,-0.07919685,-0.04765755,0.5320199,0.3379123
1.033957,-0.4601879,-0.1721742,0.07307065,-0.08332167,-0.04152482,-0.1638071,0.5438724,0.3028632
1.048022,-0.3424378,-0.1034792,0.08734135,0.03466693,0.02827987,-0.3908642,0.4122952,0.2531211
1.01254,-0.331919,-0.08337203,0.05199028,0.04548134,0.0495596,-0.5077844,0.2189303,0.2606878
1.003077,-0.3702045,-0.1379215,0.04258536,0.00754249,-0.003763307,-0.5420782,0.1615769,0.2553326
0.9580716,-0.371926,-0.1841017,-0.002432426,0.006212839,-0.04867109,-0.6376919,0.3503277,0.1292613
0.8437291,-0.4021439,-0.1906129,-0.116853,-0.02357289,-0.0538696,-0.6634467,0.5616931,0.04348021
0.7036648,-0.3766505,-0.1265669,-0.2570523,0.002389317,0.01152452,-0.5891621,0.5732538,0.04259195
0.536876,-0.3247504,-0.05664288,-0.4240185,0.05479068,0.08282664,-0.4658832,0.5312008,0.07711237
0.5383458,-0.343346,-0.05422337,-0.4227483,0.03672414,0.08664613,-0.3384805,0.5226324,0.1132512
0.6572136,-0.3307287,-0.05398068,-0.3040801,0.04989256,0.08830137,-0.2882676,0.52734,0.03731871
0.6235759,-0.2837508,-0.01542805,-0.337898,0.09743791,0.1282696,-0.3154637,0.5125281,-0.05888089
0.626698,-0.2310109,-0.0001833622,-0.3349202,0.1507549,0.1449231,-0.3823789,0.4396395,-0.07556535
0.6689228,-0.1823095,-0.01681664,-0.2927892,0.2000341,0.1296819,-0.5171375,0.3264876,-0.003869666
0.6457865,-0.1926056,-0.0121663,-0.3159557,0.1903064,0.1356978,-0.6971183,0.2457214,0.1235959
0.7273615,-0.2268795,-0.01244096,-0.2343365,0.1565811,0.1367536,-0.8175152,0.2666439,0.1638155
0.786461,-0.2807703,-0.01573249,-0.1751103,0.1032102,0.1347492,-0.8273694,0.2839,0.1317537
0.8373766,-0.3608267,0.002323981,-0.1239809,0.02363956,0.154042,-0.6530686,0.3100229,0.001841462
0.9404096,-0.3786819,0.01715131,-0.0206467,0.006233297,0.1700477,-0.3989912,0.4012994,-0.2607439
0.9342876,-0.3110684,0.05797798,-0.02638299,0.07425879,0.2119872,-0.3637512,0.3670682,-0.4377107
0.9882472,-0.2242781,0.07917585,0.02804112,0.161423,0.2342241,-0.517584,0.1895404,-0.4360691
1.12289,-0.1939211,0.00166333,0.1632192,0.1921115,0.1576687,-0.6579132,-0.07465529,-0.2786836
1.256457,-0.3225669,-0.1318393,0.2973804,0.0637495,0.02503536,-0.6748141,-0.2522139,0.004285636
1.441126,-0.5826424,-0.2158675,0.4826846,-0.1960921,-0.05821193,-0.5128255,-0.04712276,0.1767851
1.454772,-0.707148,-0.1702026,0.4969815,-0.3204074,-0.01185061,-0.3615987,0.1125117,0.117373
1.299542,-0.5640873,-0.1191632,0.3423931,-0.1771864,0.03980582,-0.4609853,-0.2013621,0.07857968
1.15062,-0.3923857,-0.1643031,0.1940823,-0.005341956,-0.00479232,-0.7750264,-0.5478307,0.1678557
1.007997,-0.4004268,-0.213166,0.05202562,-0.01325121,-0.05318503,-1.057706,-0.6072023,0.2593994
0.9998068,-0.5135303,-0.2884801,0.04435187,-0.1262308,-0.1280951,-1.043678,-0.4037302,0.3565796
1.099721,-0.6249014,-0.3422329,0.1447303,-0.2374818,-0.1815014,-0.8217844,-0.07700693,0.3212785
1.131584,-0.6432727,-0.2773222,0.1770031,-0.2557279,-0.1162915,-0.7247832,0.03740807,0.1517444
1.120436,-0.5389824,-0.2266768,0.1662054,-0.1512966,-0.06538462,-0.6641568,-0.0379644,0.0900146
1.059182,-0.4481402,-0.1907978,0.1052384,-0.0602894,-0.02927487,-0.4975627,-0.1262316,-0.02928253
0.937966,-0.3744484,-0.1418043,-0.01575789,0.01359477,0.01992264,-0.4172469,-0.2510618,-0.2311745
0.8479325,-0.2803018,-0.1686328,-0.1056361,0.1079599,-0.006726553,-0.4382716,-0.3009417,-0.2923142
0.7926534,-0.2152352,-0.1869212,-0.1608174,0.1732656,-0.02485885,-0.5279036,-0.2436635,-0.2586797
0.7457272,-0.151371,-0.1878575,-0.2076928,0.2373801,-0.02566056,-0.6749488,-0.1504324,-0.1276122
0.6802551,-0.1455689,-0.2031564,-0.2731483,0.2434322,-0.04084369,-0.7729412,-0.005583816,-0.001996992
0.6042015,-0.1786751,-0.1842407,-0.3492045,0.2105632,-0.02182856,-0.821905,0.06463215,-0.00239962
0.5846229,-0.1763426,-0.193653,-0.3687876,0.2131087,-0.03115523,-0.8495331,-0.007098444,-0.01875421
0.6037543,-0.2053261,-0.219547,-0.3496446,0.184304,-0.05697493,-0.8818263,-0.02273131,0.01803454
0.6403313,-0.2407995,-0.2416743,-0.3130229,0.1489674,-0.07903625,-0.828943,0.07585196,0.1106311
0.6892169,-0.2876408,-0.268958,-0.2640452,0.1022151,-0.1062584,-0.6910516,0.1901572,0.148294
0.7161117,-0.3548993,-0.2523559,-0.2369995,0.03499464,-0.0895946,-0.5726624,0.3280338,0.1201116
0.7502037,-0.3644845,-0.2448668,-0.2026896,0.02539647,-0.08203886,-0.3949356,0.4019547,0.09676864
0.8542019,-0.3179791,-0.2323131,-0.09840102,0.07183913,-0.0694097,-0.2575153,0.3945334,0.05203678
0.9842301,-0.2330591,-0.1935998,0.03199107,0.1566475,-0.03060924,-0.1912523,0.4275921,0.03874557
0.9984518,-0.1730593,-0.2069992,0.04664622,0.2164845,-0.04390819,-0.1488106,0.4268404,0.05739603
0.9764197,-0.1390221,-0.2260318,0.02510974,0.2503027,-0.06282592,-0.3123193,0.3964986,0.07178753
1.070552,-0.08543308,-0.2424999,0.1197918,0.3036091,-0.0791633,-0.5686583,0.4208292,0.03518356
1.145183,-0.1108529,-0.2791079,0.195016,0.2778347,-0.1156226,-0.7007662,0.4923144,-0.08928692
1.147835,-0.2077028,-0.2492451,0.1982944,0.1805502,-0.08558999,-0.6692359,0.5736732,-0.2243737
1.161553,-0.2769665,-0.189159,0.2126558,0.1107674,-0.02531045,-0.4882261,0.5187105,-0.2553492
1.164555,-0.3480019,-0.1968831,0.2163055,0.03912831,-0.03281655,-0.3135926,0.431879,-0.08891871
1.187049,-0.4223818,-0.258439,0.2394384,-0.03593589,-0.09412998,-0.3104967,0.4625119,0.08632275
1.242254,-0.4822454,-0.3145711,0.2952605,-0.09655682,-0.1499941,-0.4990676,0.4339192,0.1042598
1.338377,-0.5974344,-0.3017685,0.3919644,-0.2125651,-0.1368948,-0.5772179,0.3686595,0.1000204
1.433871,-0.7261573,-0.2760662,0.4879859,-0.3421543,-0.1108629,-0.2662496,0.3243687,0.1047202
1.351974,-0.7528158,-0.3132367,0.4065434,-0.3697062,-0.1476676,0.1459375,0.2309727,0.1347515
1.197235,-0.710303,-0.3243863,0.2521696,-0.3280925,-0.158412,0.2603345,0.2776734,0.2692035
1.157317,-0.6469051,-0.307345,0.2125146,-0.2655791,-0.1409224,0.1666724,0.5344886,0.4103759
1.168631,-0.5553491,-0.2858749,0.2239834,-0.1748765,-0.1189578,0.03530334,0.7307804,0.3664079
1.175544,-0.4717016,-0.1831354,0.2309397,-0.09204001,-0.01567606,-0.1991894,0.5806045,0.2420337
1.115335,-0.4189891,-0.0610209,0.1706572,-0.04008989,0.1070261,-0.281521,0.1983966,0.2295645
1.046695,-0.3778668,-0.005006954,0.1018286,0.0003208316,0.1636663,-0.1348594,0.02803588,0.1766883
1.041345,-0.3695117,-0.05505894,0.09617341,0.008014883,0.1142688,-0.1244599,0.09568077,0.09242756
0.933289,-0.3716493,-0.1466391,-0.01229764,0.005264838,0.02336121,-0.1182921,0.2191948,0.07651115
0.7444662,-0.3141376,-0.1313567,-0.2016384,0.06221034,0.03932719,-0.08024178,0.3323986,0.06018017
0.596584,-0.2572588,-0.08299156,-0.3501264,0.118565,0.08838169,-0.1401522,0.3207051,0.1240661
0.4718338,-0.2341015,-0.04740424,-0.4755487,0.1412344,0.1246584,-0.08041259,0.2976969,0.2214992
0.4333626,-0.241883,-0.009819002,-0.5147307,0.1329936,0.1629258,-0.003696184,0.3239345,0.2643092
0.4600944,-0.2771225,-0.01113484,-0.4887191,0.09731584,0.1622764,0.03928372,0.337886,0.2484871
0.4784159,-0.2034208,0.02329024,-0.4710993,0.1705935,0.197343,0.0537988,0.3620406,0.164027
0.5670283,-0.08218983,0.02914141,-0.3831449,0.2914068,0.2038016,-0.1497097,0.3139616,0.1332783
0.6691286,-0.05944706,-0.004116185,-0.2816388,0.3137275,0.1711082,-0.437309,0.1991879,0.144038
0.677361,-0.1180075,0.02935653,-0.2739221,0.2547276,0.2050936,-0.6883744,0.06239429,0.1667626
0.7238922,-0.2492817,0.03595354,-0.2278179,0.1229853,0.2121443,-0.7672049,-0.03436201,0.1963122
0.8387111,-0.370811,0.03822649,-0.1133301,0.0009531645,0.2148043,-0.5880905,-0.01074205,0.1508906
0.9364883,-0.4736146,0.0644699,-0.01578568,-0.1023874,0.2413607,-0.2691682,0.07266072,0.01344522
1.01848,-0.5150738,0.06220847,0.06606877,-0.1444116,0.2393311,0.1743134,0.1491313,-0.2933992
1.034869,-0.3952602,0.08304371,0.08240819,-0.02518251,0.2603098,0.3599709,0.04110646,-0.5503132
1.057212,-0.2978627,0.04705303,0.1047798,0.07161736,0.2243676,0.1362139,-0.3002583,-0.4712941
1.171835,-0.3203991,-0.07511952,0.2194978,0.04847265,0.1021438,0.0828087,-0.5466261,-0.2218364
1.318857,-0.4211797,-0.1831914,0.3666687,-0.05292641,-0.006079774,0.294816,-0.3993276,0.004654579
1.45925,-0.52244,-0.2122141,0.5072438,-0.1548122,-0.0353499,0.3970741,0.02595312,0.03391986
1.457025,-0.4710968,-0.14304,0.505209,-0.104095,0.03348865,0.2751019,0.2332763,-0.08066301
1.27023,-0.3915844,-0.09331526,0.3185882,-0.02520183,0.08279649,-0.04749922,-0.03908906,-0.04242094
1.094553,-0.4210207,-0.08522726,0.1430494,-0.05524541,0.09039069,-0.3459367,-0.4682747,0.07861439
1.074848,-0.5457178,-0.09174318,0.1234357,-0.1805338,0.08330693,-0.2659848,-0.5946169,0.1369041
1.132827,-0.7086383,-0.1727285,0.1814543,-0.3440221,0.001682748,0.02899843,-0.502464,0.09269861
1.106214,-0.6925639,-0.2635482,0.1548242,-0.3284796,-0.08984155,0.1182776,-0.4119308,-0.01748458
1.08647,-0.5779909,-0.2974921,0.1350037,-0.2143882,-0.1245472,0.06664903,-0.1914262,-0.003101048
1.109413,-0.5835093,-0.2440781,0.1578071,-0.220326,-0.07194126,0.02011089,-0.1256881,-0.01891103
1.054812,-0.5786902,-0.166653,0.1029997,-0.2158556,0.004639594,0.03443148,-0.3283515,-0.1772023
0.998241,-0.5503902,-0.173123,0.04615693,-0.1878267,-0.002704027,0.2267655,-0.4002799,-0.3024862
1.027838,-0.3919992,-0.1420701,0.04904719,-0.03194357,0.01260204,0.09964092,0.07065135,0.1486957
0.9667947,-0.3946237,-0.1261763,-0.01134746,-0.03303484,0.02911732,0.06095006,0.1023256,0.1794202
0.8496123,-0.3841157,-0.1601336,-0.127959,-0.02100057,-0.004167373,0.06514412,0.153317,0.1626436
0.7133123,-0.3772758,-0.1551204,-0.2637581,-0.01264376,0.001563616,0.0787168,0.1327331,0.1648243
0.6265905,-0.3505248,-0.102725,-0.3500353,0.01561228,0.05471621,0.2111799,0.1622113,0.1668191
0.6058886,-0.3332367,-0.1209659,-0.370331,0.03439,0.03726558,0.3540091,0.2769566,0.1744095
0.5859486,-0.3268719,-0.09969604,-0.3898833,0.04222491,0.0593521,0.404524,0.3437888,0.1939469
0.585609,-0.2921648,-0.05382846,-0.389834,0.07837784,0.1060557,0.3769327,0.382734,0.09235814
0.5891219,-0.2129394,-0.001595809,-0.385912,0.1590192,0.1591355,0.3065016,0.3519897,-0.03148928
0.5986887,-0.1676582,0.04470006,-0.3758988,0.2056783,0.2062797,0.2040826,0.2789021,-0.04150969
0.6893213,-0.2056052,-0.004862925,-0.2847672,0.1690618,0.1575551,-0.001498348,0.1479939,-0.0009803708
0.7937706,-0.2287315,-0.01364057,-0.179755,0.147209,0.1495952,-0.2188799,0.04129676,0.0008179717
0.8160953,-0.2541019,0.01808735,-0.1567974,0.1230475,0.1821111,-0.3345591,0.0851906,-0.06615287
0.8675651,-0.3241176,0.03571538,-0.1046223,0.05417091,0.2004885,-0.2889947,0.1110751,-0.2328953
1.001036,-0.371942,0.09304284,0.02962541,0.00741321,0.2585176,-0.1366849,0.1879965,-0.5147395
1.026525,-0.3673339,0.08732978,0.05595652,0.01301587,0.2534482,-0.101129,0.2651924,-0.6616819
1.018738,-0.3415538,0.05808107,0.04906971,0.0397201,0.2247751,-0.1952103,0.1639883,-0.5523659
1.175464,-0.3562752,0.05048031,0.2067429,0.02585357,0.2176727,-0.2782037,0.0229029,-0.387757
1.277644,-0.3860077,-0.01057389,0.3099039,-0.003091973,0.1570328,-0.1327512,-0.2037957,-0.1512728
1.28307,-0.4748414,-0.0812061,0.3163281,-0.09120381,0.08672656,0.2341451,-0.3631563,0.06781426
1.397571,-0.6387301,-0.1535414,0.4318234,-0.2544298,0.01462816,0.5041386,-0.3176114,0.0281996
1.437111,-0.6206221,-0.185393,0.4723312,-0.2357075,-0.01707277,0.4727016,-0.4119612,-0.03289174
1.222846,-0.4195538,-0.1971872,0.2589877,-0.03406128,-0.02879682,-0.142099,-0.6868314,0.06803168
0.9702093,-0.3440424,-0.312721,0.007207881,0.04199944,-0.1443337,-0.8833642,-0.8430355,0.2332048
0.9215755,-0.54707,-0.3875857,-0.04063813,-0.1605045,-0.2192645,-0.7939497,-0.5861115,0.4693687
0.9969797,-0.8109602,-0.3486191,0.03548612,-0.4238909,-0.1804139,-0.3121552,-0.1224014,0.4936402
1.012281,-0.774765,-0.3318579,0.05144279,-0.3871985,-0.1638048,-0.09859577,-0.03772178,0.2536529
1.021001,-0.6492375,-0.3026426,0.06075321,-0.2611625,-0.1347659,0.007981836,-0.1449957,0.09916036
1.041787,-0.6133827,-0.2727605,0.08206643,-0.2247736,-0.1050745,-0.02888972,-0.1501527,-0.07675358
1.004663,-0.4327018,-0.2639829,0.04540561,-0.04352404,-0.09649414,-0.0626081,-0.255262,-0.2195483
0.9447552,-0.332142,-0.2137954,-0.01410226,0.05764138,-0.0465043,0.03090416,-0.3035175,-0.2268747
0.8418564,-0.3365161,-0.1903992,-0.1166616,0.0539064,-0.02330193,0.001075752,-0.2626293,-0.284564
0.7253479,-0.2212723,-0.1848251,-0.2328839,0.1698156,-0.01791555,-0.0141828,-0.2855021,-0.2003288
0.66418,-0.2002382,-0.1839699,-0.2938067,0.1915317,-0.01724059,-0.04311495,-0.2107569,-0.06433516
0.6047485,-0.200101,-0.2131623,-0.3530189,0.1923559,-0.04660477,-0.2309894,-0.1437229,-0.04853875
0.5815886,-0.1629277,-0.2006894,-0.3759676,0.2302089,-0.03429384,-0.3408499,-0.1724163,-0.007465926
0.6054506,-0.2439693,-0.1951533,-0.351884,0.1498281,-0.02890806,-0.3848128,-0.1809378,-0.04894462
0.6107815,-0.3187192,-0.2079773,-0.3463041,0.07571043,-0.04186964,-0.2944983,-0.1929421,-0.08410038
0.6641402,-0.3737604,-0.2073564,-0.2926537,0.02126733,-0.04137207,-0.02189695,-0.152142,-0.0458413
0.7523444,-0.3862985,-0.2378395,-0.2041031,0.009291145,-0.07196273,0.2175555,-0.08996036,-0.03363459
0.7997722,-0.3430172,-0.2454808,-0.1562663,0.05309772,-0.07969382,0.4512132,-0.08307692,0.01769756
0.8224236,-0.3314588,-0.2379596,-0.1331391,0.06514443,-0.07224185,0.5760651,-0.09787731,0.01390378
0.8558446,-0.2632167,-0.2424027,-0.09917418,0.1338358,-0.07673101,0.5607747,-0.1139649,-0.03983788
0.9759454,-0.1481166,-0.2271385,0.02153751,0.249342,-0.0614877,0.4527171,-0.1101718,-0.1215527
1.117804,-0.06887275,-0.2319561,0.1640692,0.3289409,-0.06629893,0.1643614,-0.148801,-0.2780915
1.159565,-0.1241322,-0.2592,0.2065533,0.2739744,-0.09350778,-0.0001366415,-0.1694001,-0.3293565
1.211758,-0.3333133,-0.3056669,0.259507,0.06501394,-0.1399087,0.06105545,0.001961398,-0.2614188
1.285152,-0.4976026,-0.3570205,0.3336809,-0.09913028,-0.1911617,0.1259587,0.3139183,-0.2082911
1.241671,-0.5636329,-0.3717976,0.2909818,-0.165086,-0.205798,0.1526211,0.5346478,-0.1840918
1.223078,-0.6076945,-0.37701,0.273153,-0.2091325,-0.2108228,0.07955297,0.5401407,-0.1780837
1.344587,-0.7000231,-0.3670438,0.3953942,-0.3014915,-0.2006154,0.02555741,0.4862197,-0.1626993
1.399233,-0.7714849,-0.3394909,0.4507216,-0.3730124,-0.1727618,0.1926818,0.4840906,-0.1120233
1.275448,-0.7202419,-0.304196,0.3275497,-0.3218385,-0.1371026,0.458851,0.4761652,-0.03688883
1.066619,-0.6661078,-0.2099341,0.1192487,-0.2677654,-0.04241072,0.6037216,0.4598326,0.07278041
0.9542265,-0.5516742,-0.1088048,0.007294652,-0.1533705,0.05921253,0.6109846,0.4368302,0.168044
1.000377,-0.3414507,-0.07421358,0.05379292,0.05684522,0.09435558,0.4602094,0.3762039,0.1092429
1.011007,-0.2227992,-0.04530077,0.06468325,0.17552,0.1238689,0.1162261,0.1732871,0.05633965
0.9739541,-0.2156049,-0.0410415,0.02780725,0.1827615,0.1287667,-0.1771678,-0.09587005,0.1922666
0.988712,-0.2962192,-0.1175224,0.04266096,0.1022086,0.05295203,-0.3147856,-0.08577517,0.272028
0.9702704,-0.3687635,-0.1738773,0.02423805,0.02973181,-0.00271702,-0.408742,0.09662771,0.2318238
0.9133944,-0.3571024,-0.1609971,-0.0326921,0.04146201,0.01086337,-0.4211728,0.1223071,0.2393507
0.8286527,-0.3678278,-0.1521324,-0.1175547,0.03080474,0.02043906,-0.3693359,0.1375201,0.287576
0.7129327,-0.4008912,-0.1597273,-0.233453,-0.002193337,0.01356258,-0.2849453,0.2208195,0.3183165
0.6882284,-0.4013355,-0.1338534,-0.2583794,-0.002575699,0.04015888,-0.14704,0.2862931,0.2704001
0.7029114,-0.3961907,-0.07528584,-0.243947,0.002627487,0.09944857,-0.01635253,0.3359739,0.1659196
0.6442044,-0.3932897,-0.04483027,-0.302917,0.00558333,0.1306205,0.07403061,0.2848081,0.07175579
0.6405411,-0.3304843,-0.038407,-0.3068398,0.06843966,0.1377473,0.1096511,0.2328473,0.01664622
0.674388,-0.2391038,-0.02490501,-0.2732334,0.1598649,0.151932,0.04609661,0.2309879,0.01999441
0.6765079,-0.2233177,-0.0227457,-0.2713207,0.1756841,0.1547456,-0.07759701,0.1909517,0.04339254
0.7612381,-0.2341788,-0.02470588,-0.1867526,0.1648374,0.1534036,-0.1667013,0.1947413,0.05519177
0.8293486,-0.2595143,-0.01815393,-0.1187506,0.1394903,0.1605306,-0.1766542,0.2001688,-0.04052195
0.8385885,-0.322865,-0.0005428281,-0.1095607,0.07609643,0.178667,-0.05337857,0.2428047,-0.3007739
0.8904331,-0.331443,0.02671022,-0.05770579,0.06744036,0.2063888,0.08930016,0.3398355,-0.5631007
0.9478848,-0.2885294,0.04966005,-0.00018375,0.1102395,0.2297437,0.04973346,0.3035172,-0.6847694
1.055415,-0.2587538,0.05238093,0.1074736,0.1398622,0.2327985,-0.0429233,0.1291189,-0.6641588
1.16119,-0.2594352,0.001933683,0.2134244,0.1389866,0.1826067,-0.06828292,-0.14149,-0.5378645
1.215607,-0.3636836,-0.1081519,0.268054,0.03449993,0.07269316,-0.03600804,-0.2726012,-0.3270955
1.284713,-0.564893,-0.204462,0.3373941,-0.1669912,-0.02352909,0.1464105,-0.1462712,-0.1715002
1.271439,-0.6458338,-0.193566,0.3243594,-0.2482501,-0.01262551,0.273329,-0.1552541,-0.1629439
1.176457,-0.5242424,-0.1610973,0.2296025,-0.1270007,0.01977642,-0.006828182,-0.3971203,-0.08624881
1.063392,-0.4554983,-0.2266797,0.1167377,-0.05861149,-0.04594132,-0.4721403,-0.6086718,0.1351713
0.9922382,-0.5825623,-0.3100143,0.04574908,-0.1860347,-0.129473,-0.5974041,-0.5865673,0.3492114
1.034758,-0.7003239,-0.3732127,0.08839771,-0.3041512,-0.1929207,-0.4279997,-0.3364622,0.4053032
1.068983,-0.6893951,-0.3805694,0.1227124,-0.2935604,-0.2005665,-0.3266693,-0.1293624,0.2144179
1.072118,-0.650196,-0.3087584,0.1258952,-0.2546684,-0.1290716,-0.2495119,-0.1034113,-0.004765262
1.062638,-0.5768022,-0.2673743,0.1164192,-0.1815385,-0.08801954,-0.1024675,-0.2008206,-0.08324452
1.000447,-0.45541,-0.2145981,0.05418385,-0.06035852,-0.03558348,0.008413405,-0.309147,-0.1228576
0.9723311,-0.3854594,-0.1727513,0.02597619,0.009434544,0.005919744,0.07089853,-0.3705164,-0.1634967
0.9162067,-0.3429473,-0.2052401,-0.03028661,0.05184198,-0.02691349,0.09452323,-0.3968934,-0.1588296
0.7976286,-0.2740664,-0.2032603,-0.1490451,0.1206662,-0.02527718,0.04987101,-0.3001324,-0.0233575
0.7299029,-0.2433034,-0.2131492,-0.2169849,0.1514125,-0.03550667,-0.06337685,-0.146269,0.1261498
0.652622,-0.2580301,-0.2134632,-0.2945013,0.1366999,-0.03615598,-0.2068771,-0.07171013,0.09057663
0.5624998,-0.2645373,-0.1561139,-0.3848651,0.1302281,0.02086522,-0.2722826,-0.08704754,-0.04185463
0.553202,-0.2732313,-0.1477779,-0.3943923,0.1215824,0.02888119,-0.1971062,-0.2132709,-0.135958
0.5934698,-0.2948747,-0.146939,-0.3543226,0.09999244,0.02940724,-0.04643149,-0.32008,-0.1232642
0.6466493,-0.3096459,-0.1570305,-0.3012928,0.08527371,0.0190092,0.1777704,-0.31963,-0.02189411
0.7275187,-0.3078967,-0.192366,-0.2205112,0.08706947,-0.01662726,0.4335795,-0.2828015,0.0528819
0.8014401,-0.2834641,-0.2131745,-0.1466065,0.1115384,-0.03773059,0.5244754,-0.260134,0.07537617
0.80868,-0.2579463,-0.243554,-0.1393074,0.1370775,-0.06839719,0.5093982,-0.2767786,0.0585085
0.8484601,-0.2211543,-0.2341893,-0.09939028,0.1738703,-0.05930899,0.4776787,-0.27998,-0.006890884
0.9815583,-0.1354849,-0.2360821,0.03392203,0.2595132,-0.06146466,0.2789936,-0.2862375,-0.1643667
1.078736,-0.07562998,-0.2753702,0.1313861,0.319305,-0.1009988,0.03006016,-0.2641256,-0.3999058
1.160164,-0.1339247,-0.2822762,0.2131626,0.2608994,-0.1081304,-0.05037118,-0.1245168,-0.5592052
1.256916,-0.2894529,-0.3160176,0.3103112,0.1052027,-0.1420724,-0.01760162,0.1260984,-0.5467546
1.270451,-0.4777259,-0.3671524,0.3242732,-0.08330047,-0.1933773,-0.03071419,0.4642201,-0.3322231
1.260728,-0.5927476,-0.3840098,0.3149881,-0.1986096,-0.2103676,-0.1343285,0.6211769,-0.01329376
1.31585,-0.6240536,-0.3577642,0.3705412,-0.2302491,-0.18421,-0.1915598,0.5247866,0.09336352
1.359151,-0.747292,-0.298514,0.4142467,-0.3538518,-0.1249964,-0.08024061,0.5131193,-0.03976134
1.271981,-0.8658148,-0.2659184,0.3274356,-0.4727507,-0.09238147,0.2218173,0.5571322,-0.06565995
1.090747,-0.7910192,-0.237109,0.1465012,-0.3983211,-0.0634952,0.5024055,0.4923648,0.07523632
0.9962251,-0.7306353,-0.2002607,0.05221001,-0.3382714,-0.02651296,0.4789355,0.48936,0.145302
1.025546,-0.686176,-0.1618023,0.08169017,-0.294097,0.0121342,0.2757434,0.6460341,0.08917366
1.030622,-0.5157888,-0.06553913,0.08685591,-0.1239323,0.1086365,0.1023427,0.701864,0.03305089
0.9626925,-0.3921108,0.02274557,0.01894653,-0.0004080234,0.197203,-0.0123658,0.3247649,0.06374509
0.9378347,-0.3620819,0.01142939,-0.005957819,0.02953525,0.1862001,-0.0240967,-0.2069055,0.1645388
0.9515052,-0.3991793,-0.04378515,0.007603518,-0.007583938,0.1313183,0.05513675,-0.2518184,0.2403931
0.8923885,-0.4471698,-0.09085853,-0.05168008,-0.0555371,0.08458674,0.1683395,-0.03277629,0.1626728
0.7629731,-0.415816,-0.122689,-0.1813131,-0.02409007,0.05309991,0.2488638,-0.04663442,-0.01263119
0.6216422,-0.4103,-0.1092496,-0.3229019,-0.01842749,0.06687973,0.2298959,-0.05065169,-0.06839269
0.5851605,-0.3936046,-0.08289903,-0.3596653,-0.001535257,0.09356343,0.2522705,-0.01827645,-0.04801544
0.6616758,-0.3423855,-0.07904059,-0.2834371,0.04992694,0.09774312,0.4567863,-0.05426775,-0.05338058
0.6927934,-0.3474911,-0.06483997,-0.2525947,0.04510558,0.1122483,0.6477386,0.02735652,-0.05320087
0.6758401,-0.3178689,-0.03990842,-0.2697968,0.07504706,0.1374625,0.6779545,0.06088623,-0.1390329
0.6693761,-0.2454291,-0.005994888,-0.2764707,0.1478342,0.171631,0.6182384,-0.01674777,-0.2806862
0.657566,-0.1794701,0.00333828,-0.2884401,0.2141597,0.181185,0.4550324,-0.07239078,-0.3210832
0.6626007,-0.1542684,-0.01807601,-0.2835027,0.2397354,0.1599505,0.185668,-0.1087982,-0.2105793
0.7553218,-0.2175856,-0.001242369,-0.1908072,0.1767875,0.1769164,0.0008482052,-0.1146533,-0.0322025
0.9012493,-0.2943902,0.004816293,-0.04482739,0.1003365,0.1830541,0.04912692,-0.1165966,0.02988141
0.9389911,-0.3440362,-0.005895557,-0.006954716,0.05102151,0.1723627,0.1848624,-0.006235627,-0.05505399
0.9595551,-0.3725856,0.02352519,0.01381493,0.02277703,0.20174,0.3226002,0.1737015,-0.3065161
1.06386,-0.3979882,0.05043158,0.1183931,-0.002347895,0.228534,0.4517065,0.1994764,-0.7032116
1.058496,-0.4107171,0.07036179,0.113362,-0.01482553,0.2482772,0.4596284,-0.02581798,-0.8795809
1.035767,-0.3943371,0.04105732,0.09101477,0.001780548,0.218705,0.4639947,-0.5173425,-0.641413
1.178008,-0.4472641,-0.0742128,0.2336754,-0.05094367,0.1030819,0.5415164,-0.7947162,-0.2979881
1.275007,-0.5191127,-0.1685294,0.331119,-0.1226098,0.008326278,0.7585332,-0.4857823,-0.1433396
1.223445,-0.5570884,-0.1382954,0.2800095,-0.1604182,0.03803897,1.05663,-0.2330261,-0.1919732
1.157758,-0.6300156,-0.03827528,0.2147674,-0.233185,0.1374603,0.987362,-0.5548344,-0.275565
1.098092,-0.6270486,-0.02264174,0.1555253,-0.2300547,0.1524205,0.8219999,-0.930656,-0.217922
0.965396,-0.5938416,-0.08963495,0.02322275,-0.1966709,0.08468028,0.9279409,-1.010673,-0.1953067
0.8474269,-0.6618059,-0.1944246,-0.09438616,-0.2644349,-0.02092804,0.9923916,-0.9826315,-0.2800768
0.9708925,-0.6848089,-0.2998515,0.02940798,-0.2872039,-0.1272393,1.155998,-0.7327481,-0.3103188
1.16677,-0.6265859,-0.310611,0.2255835,-0.2287032,-0.1389383,1.374567,-0.3863167,-0.4190856
1.123448,-0.5517187,-0.2755221,0.1825245,-0.1535056,-0.1048316,1.420105,-0.2999385,-0.4643648
1.006345,-0.4460169,-0.2222116,0.06564385,-0.04741599,-0.05253435,1.61829,-0.5188315,-0.4226498
0.9376279,-0.3544782,-0.1934233,-0.002896801,0.0445678,-0.02478108,1.833993,-0.8571095,-0.5066551
0.886778,-0.2856475,-0.2699291,-0.05361446,0.1138959,-0.1023365,1.860638,-0.9194385,-0.4173504
0.9388641,-0.2483812,-0.3373045,-0.001437121,0.1517029,-0.1707685,1.798301,-0.8232811,-0.2692205
0.9482457,-0.2644755,-0.33668,0.007998486,0.1361817,-0.1711972,1.605092,-0.7486435,-0.2709852
0.8611303,-0.2754302,-0.2916801,-0.07909674,0.1258214,-0.1272367,1.459916,-0.5816266,-0.3255951
0.7869009,-0.2832317,-0.2368859,-0.1533351,0.1186257,-0.07345885,1.423534,-0.5847504,-0.4989441
0.6525783,-0.3078528,-0.2063111,-0.2876873,0.09461307,-0.04387083,1.484272,-0.7035955,-0.5247575
0.5614291,-0.3137598,-0.1849704,-0.3788737,0.08930976,-0.02348369,1.608351,-0.7174963,-0.4176361
0.6217266,-0.3088376,-0.2181455,-0.3186045,0.0948248,-0.05757671,1.588225,-0.6084697,-0.3306802
0.7233596,-0.2968345,-0.2457283,-0.2169745,0.1074039,-0.08603949,1.593403,-0.3788189,-0.1796162
0.8039871,-0.2532792,-0.2091864,-0.136313,0.1515129,-0.0503366,1.623831,-0.3221185,-0.2003702
0.820883,-0.192779,-0.1725855,-0.1193392,0.2125373,-0.01453156,1.556154,-0.4806518,-0.2355924
0.8039749,-0.149496,-0.1391036,-0.1361216,0.2563066,0.01819867,1.535227,-0.6157371,-0.07282483
0.8313046,-0.1301787,-0.1231635,-0.1086158,0.2760616,0.03342992,1.456797,-0.6205966,0.07191067
0.909445,-0.1204939,-0.1194222,-0.03024717,0.2861244,0.03650297,1.373112,-0.5493628,0.1404118
0.9936043,-0.1058207,-0.102038,0.05419112,0.3011048,0.05325667,1.351261,-0.5023001,0.06572909
