accx,accy,accz,body_accx,body_accy,body_accz,body_gyrox,body_gyroy,body_gyroz
1.444393,-0.8094473,-0.2922446,0.4223345,-0.5216656,-0.3485159,0.7697283,-0.5913489,-0.1395073
1.348603,-0.643017,-0.1584741,0.3269794,-0.3542024,-0.2139296,1.122663,-0.6491665,-0.1848951
1.093327,-0.4795513,-0.1239414,0.07214539,-0.1896671,-0.178565,0.906184,-0.7106078,-0.179987
0.9614762,-0.5442742,-0.2703753,-0.05926689,-0.2532737,-0.3241424,0.6916246,-0.6985365,-0.1971635
0.9963694,-0.5250438,-0.3657714,-0.02394279,-0.2328743,-0.4186478,0.7445755,-0.4029954,-0.2826344
1.025182,-0.4819016,-0.3357745,0.005293717,-0.1885058,-0.3877128,0.860368,-0.08330496,-0.2906348
0.9828536,-0.4926431,-0.2217506,-0.03661718,-0.19796,-0.2726899,1.123744,-0.1558997,-0.3898364
0.9315856,-0.4499412,-0.1203141,-0.08747368,-0.1539077,-0.1701842,1.434375,-0.2802112,-0.6191263
0.8044002,-0.3950891,-0.1383661,-0.2142504,-0.09764191,-0.1870924,1.556466,-0.2034378,-0.7370113
0.6301373,-0.2734218,-0.1602718,-0.3880997,0.02549996,-0.2077784,1.552083,-0.2837036,-0.6366222
0.5517168,-0.1366927,-0.1237155,-0.4660881,0.1637574,-0.1699254,1.454623,-0.4474964,-0.4490232
0.5481993,-0.1221008,-0.13376,-0.4691365,0.1799192,-0.1785957,1.276121,-0.4808069,-0.3649647
0.5803879,-0.1565356,-0.1355878,-0.4364223,0.1470806,-0.178972,1.175696,-0.4822754,-0.3996252
0.5987393,-0.1816827,-0.1081312,-0.4174712,0.1235416,-0.1499872,1.167505,-0.3343317,-0.4911013
0.5891384,-0.2077297,-0.10513,-0.426383,0.09910248,-0.1453822,1.176202,-0.2242375,-0.4951636
0.6340179,-0.1962905,-0.06147589,-0.3807118,0.1121388,-0.1000514,1.151353,-0.250799,-0.3837806
0.7237311,-0.1441357,-0.02401035,-0.2900936,0.1658703,-0.06083973,1.140594,-0.2305364,-0.2711463
0.8546021,-0.08487583,-0.02990401,-0.1581984,0.2266764,-0.06492333,1.090594,-0.3030295,-0.1272639
1.061236,-0.03757782,-0.01020331,0.04957835,0.2754778,-0.04335485,0.8723697,-0.3060662,-0.01633362
1.274529,-0.03055412,-0.007941668,0.264123,0.2839486,-0.03917428,0.648114,-0.2526741,-0.006991641
1.408594,-0.04460126,-0.003041887,0.39953,0.2712783,-0.03231116,0.4796914,-0.2558703,-0.02855944
1.460688,-0.03684682,0.04047206,0.45303,0.2803264,0.01320351,0.3712154,-0.1594278,-0.003675337
1.469833,-0.03680627,0.06043394,0.4636157,0.2815654,0.03519571,0.2608569,-0.1600165,0.1007882
1.468853,-0.1007989,0.02916762,0.4640797,0.2186658,0.005980823,0.07493208,-0.09179562,0.2764916
1.51938,-0.3146724,-0.1149696,0.5160272,0.005772918,-0.136091,0.03062444,0.1900758,0.4087231
1.57794,-0.5852906,-0.267868,0.5759557,-0.263976,-0.2869126,-0.1311237,0.347541,0.1033984
1.516787,-0.655962,-0.2061289,0.516092,-0.333878,-0.2230822,-0.3323878,0.2870545,-0.2597371
1.352813,-0.6608895,-0.1040644,0.3533035,-0.3381171,-0.1189071,0.06947996,0.1889535,0.08122247
1.170294,-0.7154975,-0.1478379,0.1718493,-0.3920966,-0.1605484,0.5802213,0.3537626,0.47796
1.097103,-0.606423,-0.142455,0.09959266,-0.2824326,-0.1530114,0.5918017,0.6671195,0.4283699
1.105247,-0.4568436,-0.09735934,0.1085409,-0.1322854,-0.1057395,0.2901729,0.8525461,0.3153002
1.039772,-0.3785563,-0.1024252,0.04374068,-0.05344113,-0.1086079,-0.1687476,0.6841105,0.2078477
0.9738538,-0.3294307,-0.04100016,-0.02162722,-0.003764685,-0.04496643,-0.4338681,0.1716213,0.3439361
0.7854334,-0.3678256,-0.005417464,-0.2096146,-0.04161378,-0.007151919,-0.2294667,-0.09532234,0.6133311
0.4457534,-0.3699593,-0.0481452,-0.5489636,-0.04320622,-0.04763771,0.06367362,-0.1982663,0.5813312
0.3670989,-0.3964225,-0.06409296,-0.6273638,-0.06913173,-0.06133854,0.198063,-0.2598651,0.4786782
0.4304211,-0.4141834,-0.04391166,-0.5638313,-0.08635682,-0.03890941,0.3736485,-0.04753501,0.3450846
0.355802,-0.2980627,0.001217672,-0.6382509,0.03029971,0.008464608,0.4197603,-0.001882545,0.134265
0.3437957,-0.2491793,0.01483219,-0.6500366,0.0797183,0.02431559,0.2631638,-0.1392613,0.07906039
0.4038327,-0.1445089,0.03187902,-0.5897278,0.1849192,0.04358446,0.1523336,-0.2808632,0.1052674
0.4386489,-0.05765212,0.05478476,-0.5545612,0.2722936,0.06869098,-0.1291194,-0.4439015,0.1699492
0.521172,-0.1528029,0.06059271,-0.4715865,0.1776366,0.07667113,-0.331965,-0.4514704,0.2172414
0.6783601,-0.1977801,0.1489055,-0.3138285,0.1331189,0.1671195,-0.02462757,-0.3126359,0.1078345
0.8654489,-0.3197215,0.2274281,-0.1260419,0.01159609,0.2477312,0.3179715,-0.03872175,-0.06776374
1.000402,-0.4058229,0.2580185,0.009736868,-0.07412923,0.2803513,0.4606545,-0.02394782,-0.1883491
1.106398,-0.326521,0.2805285,0.1166786,0.005508549,0.3048174,0.492784,-0.2485179,-0.2138596
1.25993,-0.3547211,0.2255362,0.2712624,-0.02239236,0.2516927,0.3769018,-0.2828992,-0.2711859
1.377703,-0.4204941,0.1078142,0.3901712,-0.08789972,0.135738,0.2431962,-0.34471,-0.3473534
1.42994,-0.6004547,-0.05530882,0.4436033,-0.2676228,-0.02572509,0.2476192,-0.2589502,-0.3162618
1.568423,-0.8288207,-0.1024489,0.5833107,-0.4957675,-0.07131257,0.5660056,-0.1167064,-0.3082145
1.623273,-0.730427,-0.04871675,0.6393835,-0.3971505,-0.01613056,0.875396,-0.2296027,-0.2949914
1.255164,-0.5888255,-0.1551108,0.2724626,-0.2553037,-0.1211713,0.660193,-0.2856858,-0.2507469
0.8920949,-0.6536085,-0.2948352,-0.08947237,-0.3198037,-0.2596309,0.3917647,-0.3120669,-0.2872421
1.035759,-0.6399921,-0.3422605,0.0552633,-0.3058547,-0.3058674,0.5364821,-0.1138561,-0.3006383
1.189738,-0.5611692,-0.3057369,0.2102498,-0.2266386,-0.2682153,0.7717326,0.1758734,-0.2944466
1.06508,-0.5287811,-0.1858917,0.08653296,-0.1937888,-0.147287,1.098988,-0.01996151,-0.3915013
0.9500668,-0.4292425,-0.1507715,-0.02760895,-0.09371524,-0.1111179,1.370791,-0.2182488,-0.6052283
0.7318791,-0.3184379,-0.1677176,-0.2449941,0.01769743,-0.1270422,1.215794,-0.1768606,-0.764687
0.5674951,-0.1739012,-0.1592781,-0.4086337,0.1629101,-0.1176025,1.201953,-0.266627,-0.6231206
0.6313533,-0.04135934,-0.1583964,-0.3440721,0.2961843,-0.1157371,1.372872,-0.4111047,-0.3710879
0.5673139,-0.09965496,-0.1518989,-0.4074295,0.2386607,-0.1082681,1.250024,-0.5025038,-0.3263522
0.5247079,-0.1578523,-0.1721654,-0.4493549,0.1812576,-0.1275708,1.169429,-0.4443942,-0.4569893
0.5608796,-0.174964,-0.1508775,-0.4124843,0.1649473,-0.1053232,1.118318,-0.3017378,-0.5892031
0.5339943,-0.1903717,-0.1040152,-0.4386337,0.1503362,-0.05750186,1.1156,-0.3648825,-0.5169748
0.6539625,-0.1267175,-0.07813492,-0.3178756,0.214772,-0.03066167,1.328943,-0.4375953,-0.3187933
0.7546195,-0.1032483,-0.02368877,-0.2163623,0.2389968,0.02474479,1.369745,-0.4046542,-0.1591342
0.8421311,-0.03611124,-0.01949221,-0.1279212,0.3068517,0.0298997,1.272464,-0.4663787,-0.01242356
1.035052,0.06815243,-0.01100701,0.06600329,0.4117816,0.03933769,1.037168,-0.4193447,-0.01768363
1.214569,0.09196218,0.05485594,0.2465896,0.4361895,0.1061435,0.6312944,-0.2761416,-0.02435635
1.406271,0.1118957,0.1114232,0.4394132,0.4566352,0.1636377,0.4241232,-0.18972,0.1171953
1.434885,0.06776683,0.1528234,0.4691749,0.4129147,0.2059408,0.3008601,-0.07403499,0.1659296
1.445979,0.002192771,0.1215156,0.481417,0.3476298,0.1755022,0.1535661,0.04671318,0.3370574
1.573919,-0.1171158,0.03578542,0.6104759,0.2284798,0.09059848,0.1496401,0.2863451,0.6747688
1.627238,-0.4411405,-0.1418036,0.6648573,-0.09552099,-0.08621189,0.09955576,0.4372746,0.6588836
1.691288,-0.6918088,-0.3410381,0.7298802,-0.3462929,-0.2847136,-0.2896204,0.3775789,0.0781985
1.524036,-0.6419755,-0.2738492,0.5634803,-0.2966722,-0.2168283,-0.6094291,0.4243569,-0.4285036
1.176443,-0.5688725,-0.1424313,0.2165958,-0.2238679,-0.08473907,-0.1738738,0.4188098,0.009346765
1.094435,-0.6300032,-0.1744502,0.1351404,-0.285362,-0.1161032,0.3452955,0.4852798,0.538093
1.116623,-0.536009,-0.1498332,0.1577223,-0.1917773,-0.09084265,0.1002381,0.857863,0.2878163
1.096254,-0.2933919,-0.08198895,0.1375926,0.05039899,-0.02236243,-0.3283768,1.043827,0.2986839
1.034763,-0.1688597,-0.01369847,0.07618818,0.1744662,0.04655795,-0.6585635,0.58995,0.6293382
0.8612378,-0.1795947,0.05624375,-0.09739575,0.1632405,0.1171221,-0.8911082,-0.2221697,0.7374003
0.5666054,-0.3284714,-0.02532516,-0.3922199,0.01384405,0.03616267,-0.557861,-0.5063685,0.9102158
0.2915191,-0.4292049,-0.09251133,-0.6676073,-0.08743888,-0.0304302,-0.1570726,-0.308366,0.8052911
0.2859786,-0.3966275,-0.07255291,-0.6735242,-0.05543621,-0.009895964,-0.09736213,-0.09150169,0.5458621
0.3754301,-0.3740985,-0.08846264,-0.5844855,-0.03350093,-0.02524694,-0.03247536,0.3621957,0.4039984
0.3810182,-0.2820943,-0.04019111,-0.5793104,0.05789556,0.02356671,-0.1246882,0.5424968,0.02178785
0.4378605,-0.1795802,0.01325954,-0.5228499,0.1597894,0.07754216,-0.2400732,0.238715,-0.06542206
0.5286631,-0.1271069,0.04068551,-0.4323714,0.2116271,0.105473,-0.3621445,0.01623561,0.1891264
0.6581464,-0.1378841,0.1036301,-0.3031334,0.2001931,0.1688977,-0.6079575,-0.2028185,0.2800047
0.8307967,-0.2679301,0.1571792,-0.1306364,0.06946288,0.2228954,-0.4967527,-0.2489097,0.3690392
0.9783966,-0.3840201,0.2282119,0.01690719,-0.04734118,0.2943363,-0.2852741,0.003683328,0.2765171
1.081972,-0.431806,0.2612488,0.1205197,-0.0958678,0.3277294,-0.1280206,0.1328331,0.04293875
1.097778,-0.3622745,0.2799529,0.1364465,-0.02709743,0.3467248,0.07272905,0.08295876,-0.1341715
1.11985,-0.3187692,0.2865884,0.1587105,0.01563259,0.3535735,-0.03971848,-0.1276137,-0.3316156
1.238148,-0.4961445,0.1188564,0.2772587,-0.1625272,0.1859646,-0.100224,-0.439794,-0.3577914
1.383752,-0.7609757,-0.1388458,0.423152,-0.4281433,-0.07171047,0.01822494,-0.5627727,-0.3658036
1.534887,-0.9345167,-0.2443208,0.5745953,-0.6024524,-0.1772508,0.1959363,-0.4245818,-0.4229456
1.562783,-0.7522462,-0.1137009,0.6027907,-0.4209085,-0.04677775,0.6513189,-0.2772577,-0.3659908
1.288242,-0.4808961,-0.03986269,0.3285126,-0.1502211,0.0268429,0.8091843,-0.2996054,-0.3640845
0.9663295,-0.5413834,-0.2072401,0.006807051,-0.2112936,-0.1408146,0.4884726,-0.4075059,-0.4255242
0.9970865,-0.5948949,-0.3379877,0.03770705,-0.2653054,-0.2718952,0.3747011,-0.4705098,-0.5021951
1.206733,-0.573274,-0.3394241,0.2474324,-0.2440931,-0.2737032,0.6132992,-0.2172507,-0.5464623
1.221914,-0.5631837,-0.2550191,0.262626,-0.2343122,-0.189692,1.018148,0.2068808,-0.5499865
1.027959,-0.4375314,-0.1448274,0.0686112,-0.1088651,-0.07990213,1.396531,0.2246096,-0.7132935
0.7475038,-0.3613659,-0.1510645,-0.2119778,-0.03279906,-0.08654009,1.465785,0.06601907,-0.9740251
0.6401172,-0.3009559,-0.1730158,-0.3195629,0.02761397,-0.1088849,1.317644,0.05244755,-1.049079
0.7132356,-0.190433,-0.1542865,-0.2466911,0.1382348,-0.0905365,1.294477,-0.06658745,-0.8203434
0.651865,-0.1288769,-0.1596883,-0.308338,0.1999723,-0.09630139,1.353484,-0.2444755,-0.5451694
0.6279994,-0.1154888,-0.1571653,-0.3324917,0.2136106,-0.09411897,1.412579,-0.30261,-0.5102428
0.7027123,-0.1721035,-0.1501806,-0.2580614,0.1572992,-0.0874483,1.527081,-0.2140691,-0.5542428
0.6554043,-0.2005782,-0.1309971,-0.3056306,0.1291671,-0.06854868,1.477081,-0.06847241,-0.525126
0.6391249,-0.2219484,-0.09803434,-0.3221356,0.1081671,-0.03583734,1.374431,0.01175992,-0.4684301
0.6363266,-0.2256647,-0.08434573,-0.3251101,0.1048396,-0.02236649,1.416824,-0.007995894,-0.383033
0.6545917,-0.09036179,-0.07400782,-0.3069582,0.240541,-0.01221294,1.248121,-0.140107,-0.3017922
0.7895755,-0.01386407,-0.055689,-0.1720135,0.3174354,0.005953878,0.9072609,-0.2576315,-0.2185641
0.8863401,0.02627015,-0.02830832,-0.07520743,0.3579499,0.03321302,0.7016688,-0.3612806,-0.1070261
1.011621,0.07698064,0.02411798,0.05019626,0.4090072,0.08554514,0.5861284,-0.4387691,-0.03174337
1.142196,0.01400341,0.07280077,0.1809689,0.3463256,0.1341562,0.543587,-0.4255985,0.0287095
1.230913,-0.01111265,0.08628697,0.2699475,0.3214379,0.1475862,0.5449768,-0.4539632,0.1256119
1.385515,-0.03928839,0.0994222,0.4248575,0.2934101,0.1606728,0.5355397,-0.3655044,0.2094357
1.439181,-0.1253271,0.1054557,0.4788557,0.2074287,0.1666569,0.4948967,-0.1920372,0.3238403
1.446539,-0.2459549,0.07174503,0.4865456,0.08676196,0.1328881,0.4074508,-0.1712986,0.3876229
1.58356,-0.4760153,-0.0247268,0.6238717,-0.1434334,0.03634312,0.2553,-0.1913472,0.1837533
1.650509,-0.6088825,-0.1418495,0.6910719,-0.2765226,-0.08087026,0.1466209,-0.261688,0.05741179
1.450372,-0.5826806,-0.1201494,0.4911017,-0.2506137,-0.05927647,0.3724941,-0.3164528,0.4355868
1.146186,-0.58981,-0.0707053,0.1869767,-0.2580883,-0.009950288,0.6241335,-0.2420435,0.7291875
1.087642,-0.6234649,-0.1425185,0.1283774,-0.2921224,-0.08188951,0.4888884,0.04290711,0.290462
1.153885,-0.4911727,-0.1317772,0.1944466,-0.1602265,-0.0712788,0.3315358,0.3768244,-0.1275494
1.104758,-0.223298,-0.03751078,0.1450279,0.1072467,0.02285599,0.3053737,0.1457503,0.1493912
1.075446,-0.161562,0.01593291,0.1153073,0.1685794,0.07616853,0.3728086,-0.3165063,0.464375
0.9961353,-0.3206333,0.02454001,0.03547447,0.009099956,0.08464323,0.6632127,-0.3509784,0.5872437
0.7868383,-0.4406678,-0.04960845,-0.1744512,-0.1113495,0.01035824,0.9404048,-0.1485537,0.6591469
0.5766797,-0.4217329,-0.07889239,-0.3853313,-0.09283341,-0.01906788,1.114143,0.08735547,0.4629903
0.46838,-0.3713374,-0.0446945,-0.4944227,-0.04285489,0.0149825,1.293811,0.06523486,0.3037672
0.5141873,-0.3658497,-0.03786203,-0.449449,-0.03777775,0.02166279,1.407069,-0.1288898,0.1416914
0.5701765,-0.2547831,-0.01281347,-0.3943067,0.07288719,0.04655437,1.47737,-0.1210319,-0.1194437
0.6066365,-0.1260763,-0.009013808,-0.3586819,0.2011998,0.05019129,1.440119,-0.1332839,-0.09180374
0.6095742,-0.1085128,0.01207639,-0.3565462,0.2183707,0.07111139,1.221403,-0.1466397,-0.0978355
0.515556,-0.1096801,0.0539613,-0.4513144,0.2168034,0.1128164,0.9211643,-0.1578225,-0.1586365
0.5232897,-0.1328209,0.05041739,-0.4442594,0.1932459,0.1090796,0.6658571,-0.2612527,-0.1107683
0.6170306,-0.133133,0.1204431,-0.3511074,0.192492,0.1788947,0.6272988,-0.2154418,-0.1906513
0.7250783,-0.1403361,0.244793,-0.2435439,0.1848152,0.3030101,0.6368043,-0.2348091,-0.1085618
0.8425044,-0.1581411,0.3023894,-0.1264883,0.1664983,0.3603381,0.4708645,-0.3504131,0.03238349
0.8893669,-0.1386703,0.3280387,-0.07987989,0.1854142,0.3856717,0.3584109,-0.3659836,0.06056265
1.012815,-0.2048814,0.3798706,0.04342816,0.118601,0.4371258,0.3843212,-0.4285989,0.1598156
1.125846,-0.257761,0.400551,0.1564251,0.06506976,0.4573507,0.3481577,-0.4453198,0.1329331
1.210737,-0.2284985,0.3685741,0.2413767,0.09363119,0.4248247,0.1783354,-0.4873247,0.09817588
1.381833,-0.2629603,0.3328092,0.4126092,0.05842004,0.3884032,0.100106,-0.7065354,0.1188947
1.369315,-0.4399485,0.1650725,0.4002824,-0.1193628,0.2198919,0.3011419,-0.8918407,0.03092872
1.396276,-0.7506376,-0.03464397,0.4274639,-0.4308828,0.01927878,0.6220663,-0.8179136,-0.03701775
1.555406,-0.8758166,-0.03629986,0.5868182,-0.5569105,0.01660832,0.9083549,-0.4950827,-0.1210944
1.327082,-0.6768537,-0.0824742,0.3586987,-0.3587879,-0.0306891,1.001607,-0.2940897,-0.2502011
0.9843392,-0.5606928,-0.2456753,0.0161185,-0.2434356,-0.1951094,0.8786926,-0.3664249,-0.3214758
0.9855041,-0.668932,-0.3229045,0.0173963,-0.3524338,-0.2736376,0.8556365,-0.406377,-0.3149544
1.193399,-0.7006782,-0.3584089,0.2253527,-0.384875,-0.3105002,1.04084,-0.2017015,-0.2848488
1.345023,-0.5990825,-0.3215356,0.3769842,-0.2838951,-0.2750219,1.284904,-0.05753642,-0.3067909
1.134352,-0.5365909,-0.2228729,0.1662576,-0.2219275,-0.1777702,1.445365,-0.3114533,-0.4012416
0.7991124,-0.4691437,-0.2136424,-0.1691082,-0.1549047,-0.16995,1.470714,-0.6025062,-0.5590015
0.7585109,-0.3518372,-0.2263208,-0.2099007,-0.03791954,-0.1840243,1.454098,-0.6605645,-0.6162494
0.7782221,-0.2475261,-0.2215976,-0.1904332,0.06617146,-0.1806708,1.466163,-0.6375107,-0.5461752
0.7376334,-0.1855283,-0.2157563,-0.2313032,0.1280432,-0.1761618,1.515134,-0.6252163,-0.5347321
0.6830366,-0.1991764,-0.1835127,-0.2862041,0.1143523,-0.1452031,1.570386,-0.6216406,-0.5949647
0.5731454,-0.2110259,-0.1810343,-0.396406,0.1025316,-0.1439538,1.591543,-0.4700969,-0.7580813
0.5903384,-0.1865323,-0.1569401,-0.3795117,0.1271146,-0.1210263,1.555216,-0.1716323,-0.9144673
0.6341043,-0.1393988,-0.09918804,-0.3360136,0.174387,-0.06437307,1.491255,0.09736505,-0.8463749
0.5805726,-0.03419118,-0.06040071,-0.3897648,0.2797707,-0.02661413,1.527523,0.1390321,-0.7166028
0.6117148,0.02656292,-0.02428391,-0.3587778,0.3407232,0.00854497,1.540976,0.06722415,-0.5888987
0.6931825,0.03133879,-0.02511301,-0.2773868,0.3457022,0.006827065,1.302827,0.1805409,-0.4362219
0.8226799,0.04817414,0.008356686,-0.1478775,0.3627271,0.03947388,1.050406,0.1898814,-0.4369343
0.9947485,0.04434029,0.08174713,0.02429573,0.3590514,0.1121032,0.9871869,0.04585247,-0.4334126
1.106516,0.0488229,0.1177599,0.1362569,0.3636441,0.1474102,0.957994,-0.05166226,-0.2624675
1.257014,0.06208223,0.1499136,0.2870264,0.3769499,0.1789051,0.8662409,-0.2643044,-0.01860703
1.415419,0.05168039,0.1341159,0.4457635,0.3665164,0.1624857,0.6843651,-0.3884955,0.2293757
1.524959,-0.01231377,0.114666,0.5556716,0.3023995,0.1424418,0.5068971,-0.263568,0.2909497
1.617385,-0.1565747,0.1086365,0.6484725,0.1579153,0.1358377,0.3377821,-0.02554841,0.322334
1.60981,-0.2711089,0.009503323,0.6412491,0.04305372,0.03614289,-0.04244657,0.1121271,0.4844014
1.599133,-0.3254513,-0.0725083,0.630866,-0.01171762,-0.04642087,-0.51007,-0.0283837,0.4602054
1.589174,-0.424419,-0.05702801,0.6211164,-0.1112081,-0.03148282,-0.6171201,-0.1448134,0.4655124
1.371554,-0.5311076,-0.06727622,0.4035933,-0.2185015,-0.04226106,-0.3111883,-0.07419605,0.6876864
1.09632,-0.5397503,-0.1481637,0.1283288,-0.2278156,-0.1236633,-0.1018265,0.09516705,0.7310003
1.029224,-0.4861962,-0.1700398,0.06106853,-0.1749822,-0.1460342,-0.1694728,0.3687533,0.6468973
1.068998,-0.4186841,-0.1211191,0.1005491,-0.1082248,-0.0975823,-0.3720045,0.5617799,0.5285679
1.008407,-0.2788997,-0.1007757,0.03953898,0.03078231,-0.07767637,-0.7674335,0.5350253,0.3365769
0.961447,-0.2002539,-0.0523185,-0.007956211,0.1086339,-0.02962173,-0.9694636,0.3916559,0.3507263
0.9882402,-0.3052031,-0.03004251,0.01819309,0.002874908,-0.007712185,-0.7047124,0.3419905,0.5288229
0.8529616,-0.3650133,-0.05212586,-0.117828,-0.0577593,-0.03012601,-0.3434186,0.5271355,0.6337717
0.6807842,-0.3399346,-0.02286449,-0.2908333,-0.03351491,-0.001159937,-0.06086493,0.7499001,0.6437397
0.6141304,-0.3349818,-0.03358391,-0.3583819,-0.02940173,-0.01214049,0.06928525,0.6991295,0.5410521
0.4992212,-0.2839326,-0.02836814,-0.4742292,0.02080665,-0.00715295,0.07228789,0.6197925,0.4001275
0.4895661,-0.2574676,0.01353154,-0.4848387,0.04643201,0.0345498,0.1345187,0.7210263,0.2823591
0.5661435,-0.2786389,-0.003745423,-0.4092047,0.02442336,0.0171049,0.1490983,0.6530714,0.2082218
0.5167034,-0.2736507,0.01295913,-0.4595523,0.02857676,0.0336677,-0.003630481,0.4650637,0.234944
0.5126518,-0.2705618,0.02269633,-0.4644524,0.03083419,0.04328633,-0.2542112,0.2848451,0.2320058
0.5447573,-0.2598463,0.02221125,-0.4331152,0.04072184,0.04270264,-0.514244,0.1038409,0.1295573
0.5094131,-0.2602565,0.09118457,-0.4691279,0.03948764,0.1115935,-0.5724041,-0.009265417,0.07289759
0.5817569,-0.3093838,0.1449875,-0.397335,-0.01045947,0.1653249,-0.3482292,-0.2334079,0.08988174
0.7585575,-0.3557279,0.1887442,-0.220954,-0.0576178,0.2090133,-0.1345345,-0.2440967,0.1070355
0.9538787,-0.3163165,0.2424873,-0.02591411,-0.01901194,0.2626817,-0.07402849,-0.09339677,0.08998653
1.099854,-0.2271346,0.2904671,0.1199152,0.06937577,0.310569,-0.04862142,-0.2440618,0.06130322
1.157577,-0.2037262,0.3396364,0.1776173,0.09200142,0.3596146,-0.07539559,-0.2444389,0.04368367
1.303008,-0.2143594,0.3708714,0.3231351,0.08059473,0.3906801,-0.2081401,-0.2203031,0.03206298
1.467461,-0.2194294,0.3874752,0.4877602,0.07475777,0.4070533,-0.400654,-0.3841594,0.05976927
1.499161,-0.2714946,0.3388872,0.5196926,0.02192985,0.3581586,-0.5699128,-0.3626087,0.07236395
1.510595,-0.4603103,0.2042923,0.5313882,-0.1676436,0.2231686,-0.5686873,-0.4124412,0.01560803
1.563417,-0.7244457,0.08199074,0.5844709,-0.4325253,0.1003763,-0.2700992,-0.4102153,-0.02461402
1.620439,-0.7258047,0.09334464,0.641723,-0.4346034,0.111143,0.09171262,-0.2000158,-0.0209196
1.392791,-0.4997855,0.1293582,0.4142456,-0.209257,0.1464749,0.1254487,-0.2019564,-0.03634731
0.8841176,-0.4153083,-0.002635441,-0.09433509,-0.1253916,0.01370825,-0.04575718,-0.4994467,-0.08925359
0.6963911,-0.4667441,-0.1444366,-0.2820506,-0.1773707,-0.1289515,-0.1009745,-0.8048892,-0.1208846
0.9571634,-0.5173358,-0.2422132,-0.02133828,-0.228432,-0.2276612,-0.1174567,-0.5800369,-0.1643584
1.204563,-0.5208417,-0.3042807,0.2259411,-0.2323276,-0.2907192,-0.1250659,-0.1155189,-0.244042
1.140573,-0.4782026,-0.1859068,0.1617705,-0.1899918,-0.1733747,0.1073299,-0.03925839,-0.2901748
0.9103685,-0.431686,-0.1298977,-0.0686747,-0.1436869,-0.118417,0.4508743,-0.1289874,-0.4153315
0.6877081,-0.346951,-0.1956742,-0.2916337,-0.05906987,-0.1852536,0.5529775,-0.2798171,-0.5590602
0.5297812,-0.2462517,-0.1844814,-0.4499028,0.04160375,-0.1751179,0.5089488,-0.3538365,-0.5135432
0.5624406,-0.1783941,-0.1819639,-0.4176078,0.1095217,-0.1736431,0.5453334,-0.3488714,-0.3827982
0.5958395,-0.1610124,-0.1669221,-0.3845716,0.1270401,-0.1596187,0.5790792,-0.4291617,-0.2591458
0.5862662,-0.1675328,-0.1289429,-0.394484,0.1207213,-0.1226224,0.6275914,-0.2894404,-0.2555197
0.635852,-0.1362681,-0.09304926,-0.3451946,0.1522406,-0.08766977,0.7279416,-0.09028095,-0.4096633
0.5531707,-0.1325537,-0.04607342,-0.4281123,0.156251,-0.0415881,0.6121563,0.008908752,-0.4728543
0.5097247,-0.1142036,-0.03244662,-0.471718,0.1749268,-0.02880616,0.4168738,0.02757885,-0.4098407
0.6243723,-0.03436575,0.0005057578,-0.3571363,0.255108,0.003351339,0.4118939,-0.199483,-0.3193164
0.8302535,-0.01702855,-0.01242229,-0.1512142,0.2727928,-0.01032225,0.301905,-0.3120077,-0.2341746
1.111717,-0.01921728,-0.04190383,0.1304009,0.2709417,-0.04050095,0.1281416,-0.2355693,-0.1454956
1.235297,0.009288607,-0.009567973,0.2542363,0.2997608,-0.00881446,0.1208526,-0.1752054,-0.01531162
1.347915,0.03635311,-0.02071014,0.3671968,0.3271002,-0.02055873,0.03744519,-0.08575483,0.03115709
1.479088,0.05372321,-0.01514178,0.4987746,0.3446927,-0.01554607,-0.1596797,0.01229239,0.06627133
1.400518,-0.005504875,-0.001489508,0.4206468,0.2856211,-0.00240418,-0.3231837,0.1471808,0.2109277
1.394851,-0.1583093,-0.0364988,0.4154303,0.1328963,-0.03787969,-0.4138071,0.2381312,0.3135812
1.47956,-0.3832093,-0.08602215,0.5005757,-0.09200531,-0.08782558,-0.3383004,0.4014443,0.3921152
1.464458,-0.548152,-0.1600924,0.4858715,-0.2570258,-0.1622732,-0.2631404,0.5397448,0.4004189
1.438249,-0.5619822,-0.1332644,0.4599996,-0.2709967,-0.1357737,-0.4074982,0.3127549,0.3230329
1.299076,-0.6094684,-0.04823851,0.3210805,-0.3186687,-0.05102348,-0.4678342,0.1136063,0.3908902
1.115487,-0.6482538,-0.04362272,0.1376509,-0.3576656,-0.04662856,-0.2298548,0.1827412,0.5315711
1.115405,-0.5344134,-0.04891634,0.1376266,-0.2440438,-0.05208856,-0.05627152,0.3909453,0.6078036
1.113309,-0.4022325,-0.06264472,0.1354849,-0.1120731,-0.06592966,-0.2223415,0.6743212,0.4861285
1.037152,-0.2149419,-0.05192243,0.05918053,0.0750246,-0.05526707,-0.5811666,0.7019193,0.2826401
1.045055,-0.0928722,0.01456443,0.0668364,0.1969189,0.01121201,-0.8508456,0.4018667,0.4706059
0.9828491,-0.2552078,0.04765603,0.004289814,0.03441989,0.04434502,-0.8588035,0.1393105,0.6913374
0.7892094,-0.3592009,0.0250808,-0.1897782,-0.06972972,0.02185582,-0.6082951,0.1772435,0.6101828
0.6114137,-0.3328509,-0.03284559,-0.3680764,-0.04352954,-0.0359445,-0.3207627,0.3539345,0.5758738
0.4525836,-0.3667019,-0.04969096,-0.5274624,-0.07752137,-0.05262669,-0.1946335,0.4293637,0.4584088
0.4346497,-0.3155962,-0.0309715,-0.5459779,-0.02654472,-0.0337083,-0.1620612,0.4502358,0.2820435
0.5063787,-0.2487068,-0.04840805,-0.4748268,0.04022885,-0.05091106,-0.1916555,0.4624942,0.1862312
0.4596965,-0.231439,-0.04660134,-0.5220552,0.05739331,-0.0488366,-0.2746244,0.4798083,0.04411056
0.4967021,-0.2090283,-0.02381717,-0.4855388,0.07971027,-0.02575159,-0.3645962,0.4747398,0.02078711
0.5745421,-0.2181392,0.01888513,-0.4081089,0.07051143,0.01728306,-0.4660774,0.3964667,-0.005931079
0.5096733,-0.2149025,0.1004615,-0.4732895,0.07366204,0.09921994,-0.5278192,0.2677801,-0.1010376
0.5313885,-0.2548805,0.1686054,-0.4517709,0.0335965,0.1677463,-0.5212385,0.1104967,-0.07039481
0.6508975,-0.2933332,0.2034835,-0.3323285,-0.004947506,0.2030196,-0.435744,-0.01377304,-0.08935017
0.7974077,-0.2430089,0.2063534,-0.1857447,0.04528096,0.2062863,-0.390379,-0.1402921,-0.1546485
0.939342,-0.2125588,0.2335091,-0.04359383,0.07562984,0.2338286,-0.3942001,-0.2610023,-0.1420509
0.9983999,-0.2202957,0.2757346,0.01581926,0.06778434,0.2764186,-0.3079956,-0.3090382,-0.1128899
1.139985,-0.2363456,0.2895063,0.1578873,0.05161572,0.2905203,-0.2727639,-0.384168,-0.08988199
1.310832,-0.2426034,0.311447,0.3293302,0.04522714,0.3127435,-0.3146013,-0.483078,-0.1086842
1.38454,-0.2551333,0.2732345,0.4037245,0.0325532,0.2747535,-0.4020904,-0.6012774,-0.1269855
1.429008,-0.3321805,0.1204046,0.4489424,-0.04465167,0.122076,-0.5675504,-0.7560353,-0.1032579
1.43556,-0.4926508,-0.1064247,0.4562802,-0.2052905,-0.1046757,-0.6371365,-0.8524022,-0.1011663
1.481759,-0.659708,-0.2050496,0.5032724,-0.3725188,-0.2032932,-0.4844758,-0.7983558,-0.1431189
1.554109,-0.6871387,-0.03270136,0.5763948,-0.4001085,-0.03099738,-0.108718,-0.5162373,-0.1805581
1.483588,-0.6986847,0.06900717,0.5065993,-0.4117828,0.07060824,0.2165286,-0.3716038,-0.195386
1.063205,-0.758496,-0.03311943,0.08686949,-0.4716725,-0.03166709,0.34978,-0.6861811,-0.311759
0.6163006,-0.7417661,-0.09851482,-0.3594629,-0.454952,-0.09725323,0.5710497,-0.8665119,-0.5695236
0.9472952,-0.7659048,-0.1646484,-0.02797031,-0.4790122,-0.1636129,0.8719312,-0.384059,-0.7075034
1.364164,-0.7095375,-0.2192623,0.389331,-0.4224614,-0.2184784,1.154492,0.0843402,-0.6042946
1.001298,-0.5313041,-0.1484415,0.02682983,-0.2439255,-0.1479232,1.558047,-0.1398104,-0.5750767
0.8287479,-0.5208296,-0.103498,-0.145426,-0.2330217,-0.1032487,1.854283,-0.3135255,-0.7591734
0.9623519,-0.4452513,-0.1827549,-0.01159342,-0.1568845,-0.1827696,1.780188,-0.172622,-0.8521241
0.8432816,-0.2306551,-0.2435553,-0.1304933,0.05839788,-0.2438206,1.729127,-0.3465338,-0.7251707
0.8632279,-0.1958938,-0.2377149,-0.1104266,0.09396433,-0.2382071,1.732911,-0.4250345,-0.6200688
0.8235829,-0.2438992,-0.2577327,-0.1499923,0.04686993,-0.2584173,1.527385,-0.3403297,-0.6928468
0.6827552,-0.2692895,-0.2532113,-0.2907711,0.02248311,-0.2540426,1.538827,-0.3728094,-0.7847179
0.7223478,-0.2789569,-0.1951839,-0.2511473,0.01390017,-0.1961067,1.795767,-0.1367454,-0.8166668
0.6542987,-0.2372263,-0.1761312,-0.319168,0.05678606,-0.1770822,2.033035,0.02844447,-0.8486547
0.6415763,-0.1576654,-0.1655938,-0.3318496,0.1375622,-0.1665047,2.196526,-0.008539979,-0.7373959
0.6911046,-0.03161448,-0.1496235,-0.2822532,0.2648752,-0.1504219,2.015698,0.0804997,-0.5370728
0.678531,0.06393191,-0.1584967,-0.2947176,0.3617131,-0.1591075,1.668903,0.1527829,-0.4498655
0.762233,0.1000043,-0.1326124,-0.2108541,0.3990852,-0.1329586,1.331338,0.2788121,-0.3886053
0.7332115,0.1089764,-0.06455643,-0.2396526,0.409342,-0.06456029,1.025491,0.2892159,-0.2686105
0.7185058,0.1136112,0.02129701,-0.2540669,0.4152233,0.02171137,0.8903221,0.05550806,-0.02179161
0.8540953,0.1151424,0.09499365,-0.1181115,0.4179411,0.09589652,0.7283094,-0.09458359,0.2460028
0.9913384,0.03751309,0.1272213,0.0195741,0.3414184,0.1286738,0.7114323,-0.05851308,0.3087354
1.165123,-0.03625622,0.1894398,0.1938734,0.2686596,0.1914915,0.8378697,0.1024318,0.3395877
1.256758,-0.01702757,0.2857032,0.2860837,0.2887903,0.2883896,0.7871811,0.1327942,0.4216127
1.320914,0.03710374,0.3142107,0.350857,0.3437056,0.3175509,0.7053733,-0.0009454216,0.4201735
1.411814,0.05943391,0.2792038,0.4423965,0.3666917,0.283199,0.4857441,-0.146554,0.4601023
1.437828,-0.01395083,0.2604409,0.4690476,0.2938247,0.2650751,0.300553,-0.2220378,0.5832526
1.492535,-0.1398954,0.2231281,0.5243646,0.1682524,0.2283705,0.3334595,-0.0899591,0.6211603
1.523402,-0.3338712,0.07459723,0.5557887,-0.02549826,0.080406,0.1818667,-0.04751185,0.5105022
1.497543,-0.5519941,-0.06525444,0.5304108,-0.2435363,-0.05892719,-0.03171176,-0.1779978,0.272037
1.367397,-0.5167597,-0.0398874,0.4006441,-0.2083417,-0.03308911,-0.131306,-0.2462785,0.1437361
1.156084,-0.3681341,-0.04213897,0.1895955,-0.05986224,-0.03491344,-0.03779065,-0.2253828,0.4698686
1.169945,-0.4007208,-0.2326261,0.2035945,-0.0926858,-0.225012,0.1121027,0.02799192,0.8049463
1.246702,-0.3802919,-0.3232386,0.2803613,-0.07257269,-0.3152655,-0.2999145,0.3499866,0.5414221
1.155702,-0.2955492,-0.167168,0.1892405,0.0117856,-0.1588527,-0.8748263,0.3754855,0.2814726
1.117379,-0.3403863,-0.03731181,0.150664,-0.0334966,-0.02865988,-0.915052,0.01841287,0.4433819
1.073569,-0.385847,-0.04383994,0.106469,-0.07945606,-0.0348517,-0.6041896,-0.2740042,0.5573034
0.9763276,-0.4721636,-0.08449898,0.008716116,-0.1663166,-0.07517287,-0.2304265,0.0180223,0.6287436
0.8898064,-0.5006709,-0.08398031,-0.07843561,-0.1954021,-0.074313,0.01373465,0.3987161,0.609816
0.6386312,-0.345454,-0.01991173,-0.3303472,-0.04078572,-0.009897894,0.2023595,0.402029,0.4244582
0.4708973,-0.2485451,0.02491741,-0.4989026,0.05550887,0.03528364,0.3157025,0.2435464,0.4316277
0.5928831,-0.1902568,-0.01317497,-0.3777959,0.1131721,-0.002451849,0.1322762,0.1000384,0.3346069
0.624759,-0.1522164,-0.0580869,-0.3468287,0.1505749,-0.04700397,-0.1149296,0.1606335,0.07623119
0.5376403,-0.1645244,-0.01366945,-0.4348612,0.1376133,-0.002224237,-0.3184183,0.2542215,0.06084559
0.5278157,-0.148926,0.02715513,-0.4455813,0.1525377,0.03896463,-0.5424162,0.1653517,0.0773954
0.5274271,-0.1839831,0.02380344,-0.4468237,0.1167823,0.03597746,-0.7321366,0.09168298,0.1058025
0.5649862,-0.2278596,0.08666693,-0.4100548,0.0721801,0.0992026,-0.9001683,-0.007635888,0.1261699
0.6852649,-0.2764956,0.1361485,-0.2904839,0.02279031,0.1490383,-0.8288159,-0.1082715,0.04048951
0.8158705,-0.2921514,0.1385139,-0.16049,0.006354145,0.151744,-0.6869492,-0.0386931,0.03740495
0.9173698,-0.2129315,0.150497,-0.05950016,0.08476944,0.164046,-0.7706468,0.1013878,0.03831681
0.9541876,-0.1783858,0.1560945,-0.0230891,0.1184877,0.1699335,-0.7584889,0.2244567,0.08109356
0.9729532,-0.1719807,0.1973071,-0.004631199,0.1240417,0.2113998,-0.7298676,0.1498262,0.1226366
1.092424,-0.1845992,0.2265003,0.1146245,0.1105466,0.2408024,-0.8248441,-0.005072362,0.03547738
1.228372,-0.2264166,0.1816396,0.250441,0.0678253,0.196098,-0.8688971,0.05901891,-0.0123233
1.289236,-0.3437935,0.01031619,0.311241,-0.050482,0.02487166,-0.9855053,-0.009682084,-0.04016984
1.416653,-0.645026,-0.2386293,0.4386435,-0.3526657,-0.2240366,-0.9549169,-0.1758072,-0.03521475
1.561189,-0.8502205,-0.2502474,0.5831911,-0.5588173,-0.235669,-0.5524551,-0.08349599,-0.02180678
1.518779,-0.7613957,-0.07224481,0.5407906,-0.4709314,-0.05771908,-0.1230492,-0.006078895,-0.05244275
1.367379,-0.64012,-0.02434284,0.3893722,-0.3505505,-0.009898276,-0.03831922,-0.001913573,-0.08976653
1.081858,-0.645589,-0.07951963,0.1037834,-0.3568492,-0.06517909,-0.1750227,0.01205832,-0.2702273
0.770972,-0.6532515,-0.1791112,-0.2072271,-0.3652599,-0.1648927,-0.05784052,0.02287536,-0.4462226
1.049226,-0.6362402,-0.2654758,0.07084927,-0.3489004,-0.2513896,0.1289029,0.1426165,-0.4448035
1.445356,-0.5918426,-0.2046353,0.466752,-0.3050455,-0.1906809,0.3060308,0.1841084,-0.3871012
1.112944,-0.4807383,-0.1133284,0.134056,-0.1943648,-0.09949462,0.7475824,0.02139647,-0.400491
0.8070583,-0.4619069,-0.1105522,-0.1721743,-0.1758325,-0.09682059,0.8724251,-0.1268531,-0.5666314
0.7666838,-0.3950967,-0.1178712,-0.2129511,-0.1091952,-0.1042185,0.6905748,-0.1462914,-0.6690582
0.5576696,-0.1734505,-0.1097265,-0.4224104,0.1124016,-0.09612585,0.7460969,-0.2884961,-0.465121
0.578252,-0.1084704,-0.1059377,-0.4022955,0.1774469,-0.09235904,0.6989776,-0.5198074,-0.238424
0.6437002,-0.1288061,-0.1026474,-0.3373146,0.1572767,-0.08905776,0.5339012,-0.3266445,-0.3501621
0.5991867,-0.1084464,-0.09488382,-0.3822746,0.1778859,-0.08124804,0.5198572,-0.02353521,-0.4668577
0.6479629,-0.1172225,-0.07635486,-0.3339058,0.169428,-0.06263621,0.5157681,-0.05826084,-0.3737302
0.5854671,-0.1070661,-0.07024082,-0.3967529,0.1799565,-0.05640171,0.4759328,-0.06564689,-0.3913347
0.633778,-0.08956487,-0.0757718,-0.3487213,0.1978695,-0.06177447,0.3630819,-0.07938169,-0.3314502
0.7410463,-0.02732898,-0.06919692,-0.241647,0.2605427,-0.05500374,0.1906963,-0.166058,-0.141455
0.7990901,0.03523144,-0.06750274,-0.1837021,0.323551,-0.0530764,0.04228244,-0.1304935,-0.08153599
1.028898,0.007707589,-0.05451503,0.04610557,0.296469,-0.03981879,-0.1183748,-0.1376036,-0.02705652
1.142656,-0.01120352,-0.001697437,0.1599579,0.2779774,0.01330409,-0.1931693,-0.1500787,0.05247021
1.198757,0.03017249,0.07085463,0.2162362,0.3197359,0.08619372,-0.2069487,-0.09924071,0.2073026
1.36665,0.0672215,0.1252719,0.3843738,0.3571162,0.140975,-0.4077081,-0.08451182,0.3069182
1.438617,0.03464599,0.1093748,0.4566306,0.3248066,0.1254602,-0.6161442,0.006249279,0.3440313
1.452824,-0.1051151,0.04919894,0.4711483,0.1852336,0.06567619,-0.6917263,0.1745935,0.6738851
1.528787,-0.3313237,-0.03278065,0.5474159,-0.0408716,-0.01590803,-0.9160996,0.2294215,0.8420978
1.605482,-0.4826993,-0.1462631,0.6243831,-0.1922262,-0.128994,-1.120751,0.1605931,0.5411399
1.466448,-0.5522829,-0.1751681,0.4855615,-0.2618602,-0.157499,-1.073644,0.1285747,0.3580702
1.253577,-0.6411966,-0.1592738,0.2728199,-0.350879,-0.1411962,-0.9021917,0.1582552,0.5353372
1.197897,-0.5932897,-0.2007082,0.2171718,-0.3031128,-0.1822074,-0.6553837,0.391468,0.6709213
1.186613,-0.485866,-0.1768048,0.2058157,-0.1958468,-0.1578601,-0.6537573,0.8688682,0.5024389
1.184743,-0.4227208,-0.08869573,0.2037661,-0.1328617,-0.06928121,-0.9476626,1.082987,0.4247058
1.122585,-0.2676255,-0.002569302,0.1413177,0.02207977,0.01734329,-1.138107,0.9759959,0.512715
1.004325,-0.231183,0.03527452,0.02265878,0.05837775,0.05571167,-1.222382,0.9022978,0.5509634
0.8209972,-0.3299817,-0.01091436,-0.1611713,-0.04055684,0.01006944,-1.156518,0.8235924,0.6653157
0.5351709,-0.3167379,-0.01110962,-0.4475902,-0.02744086,0.01043836,-0.9920422,0.7736307,0.6655379
0.4048009,-0.2719855,-0.01243063,-0.5786191,0.01719224,0.009695451,-0.8801393,0.7045798,0.5687139
0.4474498,-0.2389277,-0.04169987,-0.5366647,0.05013929,-0.01898473,-0.6884015,0.4959496,0.5269133
0.4952507,-0.241254,-0.01409068,-0.4895616,0.04770892,0.009222153,-0.617962,0.429281,0.3327455
0.5114889,-0.2643261,-0.02946558,-0.4739958,0.02453712,-0.005548543,-0.6677263,0.5459846,0.1404104
0.4961192,-0.1903764,0.003878246,-0.4899872,0.09838897,0.02840375,-0.7433099,0.5589888,0.08298395
0.4959915,-0.1306185,0.08951414,-0.4906628,0.1580475,0.1146492,-0.997144,0.3666594,0.07887376
0.5055005,-0.1385307,0.08053201,-0.4816067,0.1500285,0.1062724,-1.16462,0.07247458,0.1454847
0.5834228,-0.1863796,0.09560961,-0.4040235,0.1020591,0.1219447,-1.213893,0.002241848,0.195203
0.7554145,-0.2921238,0.1578222,-0.2322424,-0.003823816,0.184734,-1.103867,0.2493817,0.1774687
0.9232561,-0.3389078,0.2431618,-0.06447597,-0.05076578,0.2706237,-0.8501071,0.4179889,0.1422708
0.988152,-0.2915814,0.3236193,0.0004790617,-0.003614216,0.3515935,-0.9439175,0.3126694,0.1085625
0.9786946,-0.2393041,0.3150235,-0.008792178,0.04847383,0.3434577,-1.090739,0.1518588,-0.0001130905
1.070899,-0.2536586,0.2945369,0.08371607,0.03391643,0.3233642,-1.050568,0.01210727,-0.1140917
1.182356,-0.3796592,0.2230892,0.1955812,-0.09230012,0.2522299,-1.035337,-0.1827074,-0.1037514
1.2586,-0.6303727,0.01005875,0.2723234,-0.3432381,0.03942415,-0.7911841,-0.3193075,-0.122314
1.470435,-0.818636,-0.1586101,0.4847256,-0.5317214,-0.1291096,-0.3852518,-0.3877244,-0.1674014
1.598898,-0.696183,-0.1134186,0.6137981,-0.4094635,-0.08386586,-0.0723913,-0.4168011,-0.1446377
1.391051,-0.5428289,-0.09146149,0.4065727,-0.2562589,-0.06192922,-0.09315782,-0.3767982,-0.1570968
1.08199,-0.5686924,-0.2326367,0.09811943,-0.282211,-0.2031873,-0.3377115,-0.3925464,-0.1902155
0.954074,-0.5345525,-0.2653672,-0.02921692,-0.2480884,-0.2360511,-0.2607195,-0.2270163,-0.2010931
1.018057,-0.5199034,-0.2287558,0.03531317,-0.2333769,-0.1996093,-0.1198706,0.1514233,-0.2140543
1.068585,-0.5327898,-0.1831385,0.08635651,-0.2461144,-0.154184,0.07474499,0.2264569,-0.2848792
0.941912,-0.4449714,-0.05340833,-0.03983503,-0.1580555,-0.02465753,0.4650947,0.005536382,-0.4497309
0.8015681,-0.3790875,-0.09431131,-0.1797297,-0.0918368,-0.06576935,0.5003883,-0.1818794,-0.6048322
0.7365506,-0.238762,-0.1605622,-0.2443238,0.04891604,-0.1322296,0.4283252,-0.1692282,-0.6422906
0.6372884,-0.08203132,-0.08274367,-0.3431771,0.2061594,-0.0546162,0.4254896,-0.2020221,-0.5000554
0.6022495,-0.09236375,-0.1104915,-0.3778067,0.1964116,-0.08255994,0.3098601,-0.416717,-0.3238568
0.6184073,-0.1028304,-0.1222219,-0.3612224,0.1865855,-0.09447298,0.2974565,-0.3746808,-0.356826
0.5901663,-0.1184586,-0.09703061,-0.3890032,0.1716381,-0.0694475,0.1990975,-0.2603567,-0.4501885
0.5787174,-0.1800717,-0.134658,-0.3999424,0.1107322,-0.1072201,-0.0511821,-0.2769277,-0.466229
0.5968184,-0.1934729,-0.09406505,-0.3812669,0.0980537,-0.06674842,-0.2592556,-0.1665842,-0.5076301
0.6899434,-0.2041624,-0.04030414,-0.2874897,0.08809344,-0.01308238,-0.1652038,-0.06901767,-0.4638506
0.7957106,-0.2047556,-0.001815589,-0.1809832,0.0882286,0.02533816,0.1263073,0.001825842,-0.2998984
0.8834977,-0.1600902,0.009296783,-0.09236576,0.1336147,0.03640754,0.09567217,0.01237355,-0.1319998
1.088229,-0.06101177,-0.02190627,0.1132842,0.2333985,0.005183675,0.00688536,0.0101764,-0.0070658
1.270887,0.03830725,0.02262445,0.2969396,0.3333967,0.04971294,-0.1044325,0.1305385,-0.00117688
1.259196,0.0580232,0.05519711,0.2863058,0.3537517,0.08230026,-0.3762935,0.07785011,0.01830838
1.251602,0.07901691,0.07422515,0.2798096,0.3753283,0.1013546,-0.5224961,0.001870594,0.1173194
1.383233,0.05223486,0.0944206,0.4125553,0.3490568,0.1215825,-0.7849129,0.05943404,0.234085
1.48458,-0.1776662,-0.01470416,0.5150134,0.1195809,0.01249073,-0.9674609,0.1199545,0.511208
1.576335,-0.4550697,-0.1445816,0.6078482,-0.1574883,-0.1173557,-0.9046683,0.3745169,0.6649675
1.636239,-0.5252284,-0.1980313,0.6687711,-0.227398,-0.170774,-1.111218,0.537988,0.3337699
1.462933,-0.5057166,-0.1746659,0.496394,-0.2077091,-0.1473703,-1.340153,0.3316088,0.04475854
1.262771,-0.5860431,-0.1381812,0.2970461,-0.287914,-0.1108338,-1.109685,0.2111252,0.2830506
1.200145,-0.6047871,-0.164625,0.2351052,-0.3065755,-0.137206,-0.740845,0.4729491,0.5399864
1.199092,-0.5443645,-0.1369914,0.2345999,-0.2460923,-0.1094764,-0.7044661,0.8949492,0.46639
1.179371,-0.4800415,-0.08227702,0.215285,-0.1817156,-0.05463774,-0.8432774,1.067558,0.4143913
1.086656,-0.3004391,-0.05802762,0.1228335,-0.002055461,-0.03023395,-1.059079,0.8018796,0.4027722
1.065702,-0.2128883,-0.03261736,0.1020015,0.08556104,-0.004639407,-1.359236,0.4414294,0.4592972
1.003927,-0.287041,-0.0181386,0.04020917,0.01148071,0.01005181,-1.32694,0.4303456,0.6198769
0.8240295,-0.2684756,0.0427443,-0.1398351,0.03012245,0.07117234,-1.167937,0.5498922,0.5436201
0.667127,-0.2507477,0.02164325,-0.2970024,0.04792849,0.05032978,-1.135202,0.5413749,0.4657789
0.4514494,-0.2868407,-0.05384208,-0.5130414,0.0119134,-0.02488072,-0.9771031,0.5998169,0.4701271
0.3973691,-0.2844824,-0.008639195,-0.5675517,0.0143479,0.02061033,-0.903828,0.6651107,0.2716272
0.507668,-0.2897259,-0.0115732,-0.4577193,0.009177717,0.01797572,-0.9421995,0.6966296,0.1306527
0.438668,-0.2584296,-0.01764683,-0.527192,0.04054375,0.01221039,-0.9570267,0.6471491,0.1031001
0.4505594,-0.1793517,0.04585971,-0.5157515,0.119686,0.07603145,-1.065051,0.4266167,0.1239937
0.5845348,-0.1435507,0.04491042,-0.38218,0.1555421,0.07539928,-1.163641,0.3511826,0.2127288
0.6085769,-0.2014377,0.0728165,-0.3584741,0.09769519,0.1036203,-1.22741,0.3904858,0.2483612
0.6973604,-0.3125643,0.1441055,-0.2699437,-0.0134109,0.1752163,-1.179257,0.3906418,0.2617169
0.8083645,-0.3723264,0.2113608,-0.1590991,-0.07317287,0.2427631,-0.9631637,0.4534616,0.1694797
0.9007209,-0.3559949,0.2757818,-0.06680405,-0.05685882,0.3074494,-0.8988156,0.452528,0.02588598
1.0424,-0.2799681,0.3281182,0.0749107,0.01913698,0.3600122,-0.9720543,0.2603325,-0.03979999
1.096996,-0.2015817,0.3987936,0.1296321,0.09748016,0.4308599,-1.013012,-0.1071179,-0.100778
1.162559,-0.256358,0.3303936,0.1953984,0.04264751,0.362562,-1.100553,-0.375026,-0.1127615
1.278739,-0.5171441,0.03577497,0.3118443,-0.2182085,0.06796198,-1.098387,-0.397401,-0.2115542
1.378721,-0.8136717,-0.218158,0.4121376,-0.5148122,-0.1860398,-0.8354729,-0.2884822,-0.3525227
1.547105,-0.8242933,-0.129978,0.5808532,-0.5254984,-0.09800898,-0.3385574,-0.1193835,-0.2461245
1.564741,-0.6414703,0.02463773,0.5988153,-0.3427051,0.05638826,-0.0003788595,-0.1707791,-0.1419129
1.226519,-0.5639259,-0.1364312,0.260886,-0.2651362,-0.1049602,-0.1415691,-0.2816872,-0.2264038
0.8996116,-0.508471,-0.2323003,-0.06578177,-0.2095901,-0.2011618,-0.2684476,-0.1823298,-0.273872
0.9934899,-0.487503,-0.2201506,0.02827974,-0.1884568,-0.1893861,-0.2031006,-0.04568003,-0.3036597
1.219017,-0.5302531,-0.3020224,0.2539339,-0.2309623,-0.2716593,-0.1944058,0.2475301,-0.4121791
1.20593,-0.4720938,-0.1627177,0.2409165,-0.1724749,-0.1327693,0.1228826,0.4088498,-0.5211336
1.065376,-0.4375827,-0.0532954,0.1003661,-0.1375493,-0.02376355,0.6144968,0.1401804,-0.6490442
0.8278469,-0.3843562,-0.1280319,-0.1372272,-0.08382143,-0.09891187,0.67811,-0.03495597,-0.725776
0.6825517,-0.1978368,-0.1058416,-0.282648,0.1032834,-0.07712415,0.5947044,-0.09987225,-0.6104283
0.7287675,-0.1038394,-0.1182284,-0.2366054,0.1979418,-0.08989967,0.6576112,-0.3611114,-0.4217695
0.701109,-0.1014646,-0.133853,-0.2644683,0.2010394,-0.1058945,0.6331635,-0.4995071,-0.3122907
0.7044839,-0.1200018,-0.117329,-0.2613131,0.1832705,-0.08971787,0.5559985,-0.2863777,-0.3534541
0.6798493,-0.1565203,-0.09341662,-0.2861672,0.147551,-0.06612569,0.4855633,-0.1232144,-0.4545388
0.5752104,-0.1673349,0.0007928179,-0.3910101,0.137553,0.02779302,0.3750863,-0.2004933,-0.4724896
0.6348838,-0.1737764,0.01649263,-0.3315088,0.1319345,0.0432313,0.4110481,-0.1780912,-0.4679603
0.6614925,-0.1210154,-0.02386923,-0.3050244,0.185515,0.002634722,0.477458,-0.1045461,-0.3705967
0.6890204,-0.05675078,-0.04884616,-0.2775593,0.2505849,-0.02255233,0.2995519,-0.1269808,-0.1820093
0.827798,-0.008136232,-0.04072817,-0.1387733,0.2999781,-0.01462086,0.08350479,-0.1386724,-0.1283099
0.8895915,0.02995794,0.003185933,-0.07689474,0.33881,0.02912961,-0.05999811,-0.2690843,-0.1744055
1.019428,-0.007048356,0.0324833,0.05310295,0.3024857,0.05828451,-0.1651534,-0.4085694,-0.1586017
1.248127,-0.0005390939,0.09327546,0.2820336,0.3096069,0.1189519,-0.1502105,-0.28637,-0.01438554
1.412192,0.04118835,0.1039097,0.446386,0.3518634,0.1294736,-0.2466916,-0.1416429,0.1817201
1.472861,0.03346733,0.08530674,0.5073751,0.3445761,0.1107639,-0.4274039,-0.167197,0.3049926
1.525566,-0.05771133,0.08704835,0.5604057,0.2537246,0.1123982,-0.3677644,-0.0902469,0.4351675
1.62426,-0.2694242,-0.01555672,0.6594024,0.04222487,0.009680567,-0.3935348,0.07768246,0.5111519
1.615487,-0.378745,-0.1029327,0.6508782,-0.06699656,-0.07781524,-0.8172914,0.09227026,0.255441
1.548215,-0.3646937,-0.07346139,0.583772,-0.05295259,-0.04846932,-1.104256,0.1202287,-0.0002619828
1.164905,-0.561194,0.1015127,0.1514699,-0.3000999,0.1107268,0.370153,-0.4443149,-0.4103979
1.551077,-0.7804536,-0.07477907,0.5392629,-0.5180196,-0.06471796,0.8665204,-0.3525293,-0.3766774
1.786872,-0.7257828,-0.06803066,0.7767014,-0.462011,-0.05724056,0.9154,-0.4011821,-0.3079898
1.451168,-0.498805,-0.08733341,0.4426264,-0.2336787,-0.07592362,0.5797094,-0.3856181,-0.3220801
1.000915,-0.4665264,-0.2914188,-0.00604134,-0.2000156,-0.2794876,0.3215288,-0.3371247,-0.2978246
1.127927,-0.5214322,-0.31791,0.1224958,-0.2535,-0.3055407,0.316166,-0.2082962,-0.267739
1.258955,-0.5808516,-0.1833963,0.2549829,-0.3114553,-0.1706544,0.6441119,-0.04700634,-0.3492299
1.025826,-0.6326629,-0.1770868,0.02324123,-0.3617523,-0.1640222,1.175567,-0.1765829,-0.5037634
0.9954518,-0.5176319,-0.07299953,-0.00582438,-0.2451484,-0.05965026,1.444662,-0.3708027,-0.6835655
0.805697,-0.3534491,-0.05906789,-0.1943463,-0.07932851,-0.04546447,1.397321,-0.3605743,-0.7304176
0.5765485,-0.1608688,-0.1575728,-0.4223293,0.114952,-0.1437402,1.391647,-0.4941297,-0.5513538
0.6257675,-0.06295326,-0.08314577,-0.3719964,0.214621,-0.06910316,1.35505,-0.6993994,-0.4203679
0.4866324,-0.171689,-0.1178961,-0.5100484,0.1076769,-0.1036568,1.080678,-0.6241407,-0.5425627
0.4670544,-0.1846226,-0.1352223,-0.5285516,0.09655761,-0.1207943,0.8914008,-0.5358617,-0.6443998
0.5514348,-0.163102,-0.05590751,-0.4430818,0.1199027,-0.04129351,0.9830959,-0.5268069,-0.5819874
0.564295,-0.1873483,-0.0919479,-0.4290967,0.09747964,-0.07714666,1.060458,-0.374277,-0.5392387
0.7156528,-0.128361,-0.0580018,-0.2765621,0.1582783,-0.04300933,1.060957,-0.2662197,-0.433045
0.7381173,-0.07775822,-0.0471035,-0.2528577,0.2106693,-0.03191383,1.036824,-0.2797861,-0.2313537
0.8231164,-0.03616154,-0.0612702,-0.1665496,0.2540184,-0.04587608,0.8775864,-0.2860644,-0.1794564
1.027762,-0.03984011,-0.0051345,0.03947566,0.2520428,0.01047193,0.6975971,-0.3028335,-0.1940758
1.145317,-0.06257167,0.004976289,0.1584745,0.2309508,0.02080251,0.6647099,-0.2289904,-0.140107
1.286788,-0.01974808,0.08212056,0.3014396,0.2753381,0.09817197,0.6541206,-0.1338535,-0.1094068
1.324512,0.001889611,0.1268594,0.3406909,0.2984514,0.1431371,0.4874435,-0.175875,-0.01987629
1.408175,0.01513922,0.07521425,0.4258894,0.3130763,0.09171318,0.24792,-0.1688663,0.159238
1.5367,-0.04689057,0.04987817,0.5559348,0.2523097,0.0665875,0.13239,-0.03318424,0.3835835
1.535896,-0.2285964,-0.05458084,0.5566068,0.07174644,-0.0376755,0.1073279,0.1465787,0.5083091
1.546951,-0.3958709,-0.1694761,0.5690646,-0.0945083,-0.1523888,-0.145164,0.2735461,0.1818955
1.420147,-0.5012753,-0.1580167,0.4435645,-0.1990094,-0.1407568,-0.4859975,0.2387564,-0.149227
1.218687,-0.5116571,-0.1236693,0.2432884,-0.2085919,-0.1062394,-0.2876021,0.2323582,0.1477827
1.163879,-0.501214,-0.1515516,0.1895312,-0.1974383,-0.1339479,0.1165509,0.4277978,0.4821682
1.170987,-0.5281099,-0.1519262,0.19755,-0.2236976,-0.1341392,0.1151652,0.7277083,0.4509847
1.198071,-0.4620015,-0.100192,0.2254039,-0.1570121,-0.08220709,-0.07989776,0.8964762,0.4131325
1.208497,-0.3382022,-0.05350921,0.2364549,-0.03268367,-0.03530796,-0.4181578,0.6582224,0.4011564
1.165189,-0.2998536,0.02198905,0.1936241,0.006153071,0.0404259,-0.6118672,0.3279201,0.4954149
0.9927577,-0.3478538,0.0368319,0.02152272,-0.04139649,0.05552168,-0.3635916,0.3151702,0.6787093
0.728501,-0.3742082,-0.008298573,-0.2425463,-0.06733484,0.01065781,-0.1842248,0.304137,0.6488911
0.534092,-0.3073593,-0.0116888,-0.4368939,-0.0001011679,0.007544548,-0.1514268,0.2273717,0.5579085
0.4306889,-0.243888,-0.03233864,-0.5403366,0.06372608,-0.01282009,-0.1171705,0.2578884,0.4810377
0.4433048,-0.2302783,-0.01238583,-0.52783,0.07766263,0.007424761,-0.1763273,0.2347486,0.3228149
0.4758212,-0.1996616,0.0275714,-0.4954604,0.1085751,0.0476793,-0.2502803,0.2168915,0.2265703
0.4324615,-0.1784158,0.01184717,-0.5389745,0.1300818,0.03225529,-0.3875263,0.2021901,0.1477503
0.4508108,-0.1876308,0.04158488,-0.5207597,0.1210892,0.06229308,-0.4775402,0.09995908,0.1153495
0.5100935,-0.1932145,0.08730685,-0.4615656,0.1156849,0.1083114,-0.4916429,0.05787232,0.1973514
0.578661,-0.2195782,0.1232153,-0.3930191,0.08945436,0.1445073,-0.5218676,0.09018743,0.2198702
0.7891064,-0.2907815,0.2084764,-0.1825108,0.01833619,0.2300403,-0.3530361,0.2056501,0.1719204
0.9502219,-0.3287124,0.2810801,-0.02124065,-0.01955713,0.3028907,-0.1466332,0.326886,0.09024472
0.9005913,-0.2610341,0.2899694,-0.07062478,0.04811364,0.3119893,-0.172134,0.2537451,-0.03902454
0.9461854,-0.1942629,0.3072598,-0.02469675,0.1148342,0.3294384,-0.2568775,0.008864226,-0.2145556
1.123351,-0.2550235,0.2966112,0.1528844,0.05397959,0.3188846,-0.2580698,-0.2717785,-0.4174266
1.244032,-0.4502814,0.1038487,0.274051,-0.1414149,0.126142,-0.1748133,-0.3674341,-0.4731404
1.49611,-0.7306785,-0.07659136,0.5266662,-0.4219839,-0.05435796,0.1091353,-0.283382,-0.4169611
1.743884,-0.8389078,-0.03027016,0.7750038,-0.5304035,-0.008173973,0.5630272,-0.2794697,-0.4193564
1.482504,-0.6286093,-0.0478301,0.5141795,-0.3202905,-0.02594187,0.7099833,-0.3165908,-0.3593597
1.073746,-0.4770639,-0.2415149,0.1059397,-0.1689053,-0.2198972,0.4977162,-0.3459419,-0.2690454
1.106302,-0.5375296,-0.319133,0.1389582,-0.2294928,-0.2978365,0.3922976,-0.3634858,-0.3051329
1.18188,-0.5408142,-0.2848746,0.2149387,-0.2328522,-0.2639334,0.4116088,-0.1748801,-0.3363575
1.10107,-0.5148008,-0.2619927,0.1344638,-0.2068582,-0.2414236,0.5600213,-0.03254095,-0.364868
1.108922,-0.5260126,-0.1528829,0.1425805,-0.2180268,-0.132688,0.9602621,-0.2454196,-0.4981525
0.9810239,-0.4643121,-0.07160048,0.01487301,-0.1562142,-0.05177134,1.228372,-0.4310732,-0.6628514
0.7802428,-0.3430784,-0.1295693,-0.1857885,-0.03479627,-0.1100913,1.166611,-0.4269416,-0.7429184
0.7302491,-0.2152182,-0.1561369,-0.2357251,0.09331923,-0.1369906,1.14522,-0.585734,-0.5269247
0.6674492,-0.1470875,-0.1440653,-0.298516,0.1617693,-0.1252259,1.189233,-0.8047526,-0.2043061
0.6073966,-0.1522007,-0.1655625,-0.3585907,0.1570281,-0.1469993,1.06655,-0.6870666,-0.239778
0.6019184,-0.1867313,-0.1708545,-0.3641029,0.1229099,-0.1525314,0.9515558,-0.4738545,-0.4255356
0.5904809,-0.2301368,-0.1164617,-0.375567,0.07994603,-0.098337,0.9376467,-0.4490644,-0.5096002
0.5672022,-0.2063828,-0.04309764,-0.3988463,0.1041621,-0.02512641,0.9415438,-0.4283017,-0.5424166
0.5818082,-0.1500499,-0.0366312,-0.3841969,0.1609692,-0.01876772,0.9973246,-0.5201638,-0.3949487
0.6709776,-0.1071176,-0.03966049,-0.2949241,0.2043788,-0.02186048,1.014383,-0.6413713,-0.1889694
0.8048822,-0.02225883,-0.01150162,-0.1608436,0.2897069,0.006277062,0.9822107,-0.5396971,-0.1109321
1.016217,0.01007134,-0.00990872,0.05074461,0.3224848,0.007888149,0.8789875,-0.4306946,-0.1133003
1.167572,-0.006003457,0.02148681,0.2024267,0.3068215,0.03933807,0.626225,-0.3162736,-0.1353468
1.171563,0.04741517,0.1057739,0.2068071,0.3606005,0.1237113,0.4072248,-0.2655105,-0.05686425
1.205325,0.07081723,0.1450469,0.241006,0.384297,0.1630952,0.2362849,-0.31328,0.05099928
1.269885,-0.0004368466,0.1301518,0.3060334,0.313257,0.1483271,0.1389672,-0.156413,0.1466314
1.343768,-0.1536397,0.08246558,0.3803962,0.1601764,0.1007748,0.2215804,0.04259868,0.3147368
1.438568,-0.4008032,-0.08677602,0.4756688,-0.08696165,-0.06833205,0.1531348,0.1442614,0.3346785
1.493552,-0.5768762,-0.2621901,0.5310948,-0.2631006,-0.2436111,-0.2251291,0.1961354,0.06349086
1.453132,-0.5664443,-0.2081841,0.4910622,-0.252812,-0.1894636,-0.4656424,0.1193644,-0.1239944
1.295787,-0.5667193,-0.1332887,0.3340281,-0.2532894,-0.1144116,-0.04166246,0.1111878,0.2468706
1.203173,-0.6575368,-0.2069414,0.2416327,-0.3443498,-0.1878852,0.5578953,0.3445076,0.6551334
1.222976,-0.6118101,-0.1769851,0.2615517,-0.2988878,-0.1577216,0.413556,0.6297652,0.4259005
1.221477,-0.4272547,-0.06280963,0.2600593,-0.1146018,-0.04330539,0.06193462,0.6199635,0.3013197
1.1977,-0.2653875,0.004429085,0.2361752,0.04700228,0.02420932,-0.01734579,0.3362492,0.5570142
1.101875,-0.1989712,0.05642879,0.1401243,0.1131647,0.07651787,-0.131604,0.0953097,0.5857352
0.8784084,-0.3097054,0.01319718,-0.08368464,0.002183292,0.03362281,0.02825838,0.01839263,0.5896622
0.5977447,-0.3855485,-0.01746342,-0.3647989,-0.07390211,0.003321237,0.2558951,0.1525437,0.5799401
0.4415861,-0.3274452,0.005090084,-0.5214958,-0.01603518,0.02625226,0.3028379,0.2715781,0.4152082
0.4722646,-0.3270311,-0.01089428,-0.4914147,-0.01584938,0.01066066,0.4819815,0.211068,0.3329249
0.5241016,-0.2720636,0.03518613,-0.4402035,0.03889865,0.05714579,0.4942251,0.202753,0.1438035
0.552163,-0.175319,0.03694979,-0.4127682,0.1354313,0.0593223,0.35007,0.1764678,-0.02226369
0.5642403,-0.1357636,0.02436682,-0.4012936,0.1747782,0.04715595,0.2311431,0.05322194,0.05907307
0.5561154,-0.09729346,0.09353181,-0.4099764,0.2130357,0.1167367,0.0882264,-0.02708984,0.09703995
0.574763,-0.1727685,0.09469929,-0.391823,0.1373356,0.1183138,0.007362629,-0.08604725,0.09796377
0.6175233,-0.2857151,0.1755562,-0.3494758,0.02414496,0.1995672,-0.06662932,-0.1357347,0.06372738
0.7578842,-0.2984127,0.3046496,-0.2094334,0.01118181,0.329035,0.09866167,-0.2058079,-0.04655004
0.9519101,-0.2586217,0.2971548,-0.01562409,0.05068607,0.3218798,0.2657709,-0.2630618,-0.07396024
1.018194,-0.2019704,0.3020556,0.05054472,0.1070299,0.3270712,0.1213788,-0.2582884,-0.1191973
1.018051,-0.1983457,0.3293638,0.05038181,0.1103247,0.3546067,0.06538759,-0.3206756,-0.2166172
1.103305,-0.259844,0.287416,0.1357001,0.04847203,0.3128095,0.02520557,-0.4903753,-0.2682216
1.205203,-0.3979322,0.1353429,0.2377367,-0.08999579,0.1607996,0.02425652,-0.7121407,-0.3162349
1.199265,-0.5314692,-0.0184943,0.231996,-0.2239329,0.006932636,0.2622012,-0.8775498,-0.3409259
1.235422,-0.5263802,-0.006361555,0.2683919,-0.219255,0.01894427,0.6462549,-0.7993616,-0.3260771
1.359471,-0.5276384,-0.04008328,0.3927048,-0.2209228,-0.01498445,0.9925189,-0.5201933,-0.2940565
1.275415,-0.5730998,-0.1912684,0.3089177,-0.2667793,-0.1664547,0.9161818,-0.4025885,-0.2543046
1.006542,-0.576853,-0.2025899,0.04030371,-0.2709008,-0.1781284,0.8424613,-0.6124597,-0.3045086
0.883593,-0.6543805,-0.1934137,-0.08240611,-0.3487565,-0.1693579,1.128916,-0.7672447,-0.4205047
1.107908,-0.7183212,-0.2507036,0.1421277,-0.4129709,-0.2270926,1.424823,-0.5062277,-0.4750416
1.383133,-0.6400017,-0.1793806,0.4175469,-0.3348552,-0.1562398,1.881923,-0.1703135,-0.5388576
1.156707,-0.5679543,-0.1351234,0.1912803,-0.2629279,-0.1124657,2.203116,-0.1967912,-0.6336023
0.8541166,-0.465336,-0.15717,-0.1111945,-0.1603364,-0.1349984,2.146373,-0.3291014,-0.6546268
0.9048731,-0.2780619,-0.1454012,-0.06036775,0.02700775,-0.1237108,2.158091,-0.3956763,-0.5678078
0.8638743,-0.1704601,-0.2185389,-0.1013357,0.1347726,-0.1973167,2.040421,-0.4905184,-0.4300535
0.8359958,-0.1637447,-0.2104397,-0.1292153,0.1417338,-0.189664,1.886604,-0.4758043,-0.4264479
0.8543223,-0.211145,-0.1385785,-0.110914,0.09464917,-0.118219,2.008506,-0.4342263,-0.5322728
0.7017269,-0.247362,-0.1308962,-0.2635498,0.0588061,-0.1109157,2.176025,-0.3816614,-0.5979975
0.6309337,-0.2246599,-0.07379778,-0.3343873,0.08193064,-0.0541546,2.338277,-0.2823692,-0.6347681
0.556148,-0.2061923,-0.09142083,-0.4092057,0.1008605,-0.07207116,2.219679,-0.2894245,-0.553774
0.5772001,-0.1506431,-0.1035301,-0.388157,0.1569027,-0.0844287,2.000323,-0.2332669,-0.4026654
0.72381,-0.03880745,-0.05989386,-0.241504,0.2692513,-0.04099451,2.074405,-0.1525311,-0.3318324
0.6594379,0.03629686,-0.09491161,-0.3057734,0.3448745,-0.07616747,1.846047,-0.239126,-0.3175337
0.6904689,0.04743404,-0.05894914,-0.2745697,0.3565194,-0.04031328,1.390076,-0.3257679,-0.3348461
0.844727,0.03022059,0.01985858,-0.1200608,0.3397846,0.03843225,1.223433,-0.3574358,-0.2808341
0.9260234,0.01373522,0.1148639,-0.03843224,0.3237316,0.1334179,1.119551,-0.3803862,-0.1475451
1.054409,-0.02278578,0.2211194,0.09036497,0.287582,0.2396888,1.092876,-0.3942478,-0.02033258
1.117412,-0.05523313,0.2135981,0.1538491,0.2554328,0.2322062,1.09147,-0.3856739,0.07920852
1.196971,-0.05510763,0.2166693,0.2339483,0.2557734,0.2353262,0.8974969,-0.3450727,0.09605059
1.314507,-0.09382779,0.2435763,0.3520675,0.2171777,0.2622788,0.8089643,-0.3225834,0.1726121
1.388858,-0.202388,0.2111906,0.4270231,0.1086459,0.2299232,0.8725084,-0.2948432,0.3744896
1.520969,-0.344187,0.1045653,0.5597387,-0.03322152,0.1233016,0.7901103,-0.276845,0.4952597
1.573217,-0.4553545,-0.07058604,0.6125631,-0.1445489,-0.05187877,0.5350522,-0.3480704,0.4530215
1.514217,-0.496232,-0.1419656,0.5540827,-0.1856669,-0.1233196,0.1330195,-0.394967,0.3948225
1.391834,-0.5390741,-0.1355352,0.432137,-0.2288154,-0.1169769,-0.08133565,-0.2502233,0.5080595
1.243962,-0.5720556,-0.1732989,0.2845995,-0.2621529,-0.1548467,0.1737011,-0.04232588,0.6763844
1.218955,-0.528324,-0.1745225,0.2598121,-0.2188103,-0.1561859,0.3181186,0.05298757,0.7324741
1.218123,-0.4841657,-0.1509308,0.2590758,-0.1750586,-0.1327108,0.1346355,0.133805,0.6302989
1.171888,-0.4075176,-0.1096819,0.2128106,-0.09882233,-0.09157189,0.0452522,0.1825967,0.4670096
1.135903,-0.3331164,-0.0318812,0.1766649,-0.02482979,-0.01386927,0.04207758,0.1025764,0.5721896
1.058939,-0.4347522,-0.03432478,0.09941049,-0.1268659,-0.01639668,0.1802356,0.1038484,0.7278555
0.8829296,-0.5274689,-0.06268523,-0.07701531,-0.2199691,-0.04482602,0.5475266,0.2827013,0.6914986
0.7089283,-0.4702531,-0.02263227,-0.2515484,-0.163118,-0.004826605,0.8455033,0.4098131,0.6781861
0.6449541,-0.3636355,-0.004968342,-0.3161522,-0.05683514,0.01279914,0.9865762,0.3090536,0.5506989
0.5458717,-0.2288318,0.01645587,-0.4159392,0.07766745,0.03419943,1.015682,0.1237627,0.3701589
0.5207637,-0.1575132,0.03260557,-0.4418006,0.1487169,0.05033732,0.9122118,0.09269307,0.2733482
0.6199055,-0.09686908,0.004333124,-0.3434346,0.2091167,0.02206243,0.7073402,0.07669073,0.2063377
0.5429987,-0.03423912,0.03455483,-0.4211153,0.2715169,0.05228845,0.3735272,-0.007687607,0.2582085
0.491809,-0.1006555,0.06222002,-0.4730543,0.2048733,0.07996193,0.08360055,-0.01938081,0.220881
0.5421101,-0.1421483,0.07617782,-0.4234553,0.1631447,0.09392835,-0.04928399,-0.06363729,0.1542293
0.5151029,-0.1870425,0.1290314,-0.451096,0.1179977,0.1467862,-0.1845802,-0.1211218,0.137557
0.6288317,-0.2926323,0.1568392,-0.3379132,0.01213313,0.174588,-0.1932693,-0.08861197,-0.02508787
0.8153182,-0.2864618,0.2301512,-0.1518711,0.01800567,0.2478759,-0.106967,0.0004536854,-0.08749103
0.9348023,-0.2932705,0.3122507,-0.03272313,0.01087686,0.3299235,-0.1532461,0.1339543,-0.06385404
1.009436,-0.3042938,0.3404227,0.04168107,-0.0004868523,0.3580032,-0.2021496,0.1201339,-0.08772264
1.036186,-0.2548914,0.3842246,0.06830076,0.04855653,0.4016581,-0.3503961,-0.05932287,-0.09712636
1.199358,-0.3213267,0.3603886,0.2314335,-0.01825484,0.3776056,-0.5759802,-0.2217416,-0.1677418
1.393085,-0.4685817,0.221897,0.4251941,-0.1659002,0.2388146,-0.5356696,-0.3122346,-0.1923045
1.485621,-0.6466758,0.08060887,0.5178166,-0.3443915,0.09713602,-0.3148831,-0.2624184,-0.2269731
1.504292,-0.6886776,0.08363009,0.5365994,-0.3867831,0.09967367,0.006940571,-0.2246258,-0.3003268
1.332944,-0.526354,0.1213734,0.3653607,-0.2248248,0.1368423,0.2537241,-0.3178227,-0.2660443
1.105625,-0.4737327,0.0168246,0.1381275,-0.1725299,0.03163022,0.1139174,-0.4669676,-0.253089
0.9604648,-0.4919986,-0.08620028,-0.006984143,-0.1910737,-0.07214147,-0.07508055,-0.6410157,-0.2781542
1.001155,-0.4850832,-0.2113258,0.03371607,-0.1843809,-0.1980882,-0.08527071,-0.5222613,-0.2660162
1.236279,-0.506938,-0.298511,0.2688124,-0.2063967,-0.2861542,-0.05909811,-0.1210014,-0.2278847
1.31827,-0.4710112,-0.1884043,0.3507309,-0.1705634,-0.1769706,0.1204106,0.07514746,-0.2269212
1.137192,-0.4514346,-0.146514,0.1695256,-0.151008,-0.1360286,0.3301962,0.01917736,-0.4206117
0.8512586,-0.4278895,-0.1495553,-0.116595,-0.1274086,-0.1400305,0.4493349,-0.1224204,-0.7071511
0.711573,-0.3417921,-0.1040627,-0.2565255,-0.04118033,-0.09549989,0.638565,-0.2196064,-0.7575615
0.7103745,-0.2641208,-0.1388624,-0.2580138,0.0366966,-0.1312541,0.7659244,-0.2967011,-0.5696083
0.64017,-0.1951668,-0.123838,-0.3285361,0.1059251,-0.1171685,0.87008,-0.4098874,-0.43828
0.661755,-0.1914813,-0.1015194,-0.3072788,0.1099452,-0.09576566,1.022587,-0.4080277,-0.4127106
0.6529799,-0.2158589,-0.1098173,-0.3163742,0.08595185,-0.1049497,0.9687574,-0.4067493,-0.4283588
0.5495218,-0.2085645,-0.0664336,-0.4201279,0.09367055,-0.06241727,0.8641367,-0.3846023,-0.4688493
0.5944596,-0.1831343,-0.05975395,-0.3754432,0.119556,-0.05654995,0.8424441,-0.2581998,-0.4182832
0.6327392,-0.1303845,-0.0585792,-0.3373569,0.1727827,-0.05614587,0.7743073,-0.2239619,-0.316602
0.7099666,-0.09845398,-0.04892088,-0.2602488,0.2052013,-0.04721458,0.7528326,-0.2297847,-0.24333
0.8746366,-0.02893739,-0.03407694,-0.0956145,0.2752052,-0.03305264,0.6966012,-0.2652518,-0.1802006
1.026138,0.04527477,-0.001972974,0.05593748,0.3498899,-0.001585103,0.4749865,-0.2695823,-0.1172841
1.221448,0.01999007,0.01904156,0.2513792,0.3250473,0.01883785,0.2108425,-0.1602211,-0.03929839
1.277404,0.01099073,0.06938516,0.3075338,0.3164437,0.06863251,0.06798389,-0.0684485,0.06217368
1.291991,0.004755859,0.06801966,0.3223682,0.3105437,0.06675701,0.01367164,-0.01025593,0.2573497
1.468969,-0.06325827,0.0479212,0.4996203,0.2427915,0.04618301,-0.1171594,-0.02117091,0.4319348
1.576517,-0.1013711,0.08885252,0.6074458,0.204858,0.08666889,-0.1865518,0.04158232,0.5054642
1.536435,-0.1119851,0.0507144,0.5676156,0.1943342,0.04811112,-0.1849387,0.1780298,0.6280467
1.522544,-0.134527,-0.05836984,0.5539227,0.1717895,-0.0613702,-0.3520125,0.1920936,0.6624893
1.564179,-0.1641433,-0.1416646,0.5956753,0.1420747,-0.1450394,-0.6762176,0.2142737,0.5407181
1.512575,-0.2724204,-0.1307116,0.5440859,0.03360309,-0.1344343,-0.9668056,0.2722411,0.4648041
1.356831,-0.4659539,-0.06302084,0.3882317,-0.160217,-0.0670595,-0.8625411,0.3788108,0.4647558
1.148742,-0.534551,-0.08494241,0.179895,-0.2291822,-0.08926127,-0.60569,0.5112162,0.4769881
1.004781,-0.4832855,-0.1087476,0.03554344,-0.1783509,-0.113308,-0.6498101,0.6918776,0.4246281
1.057202,-0.5264805,-0.106626,0.08743599,-0.2220299,-0.1113865,-0.6959868,0.952044,0.2886169
1.07976,-0.5200373,-0.1159315,0.1093343,-0.216105,-0.1208473,-0.9044615,0.8471222,0.1984656
1.072839,-0.3892942,-0.04393912,0.1016303,-0.08590023,-0.04896283,-1.218137,0.5187125,0.3046243
1.125018,-0.3432506,0.00366069,0.1529068,-0.04040469,-0.001422503,-1.077621,0.4127707,0.476887
1.001349,-0.3923917,-0.006561775,0.02822255,-0.09009681,-0.01165763,-0.8894683,0.4050532,0.4648364
0.7890626,-0.4711446,-0.004160025,-0.1851849,-0.1693979,-0.009224461,-0.7255894,0.4700252,0.3775369
0.6143334,-0.4867539,-0.01347864,-0.3611253,-0.1855447,-0.01847032,-0.4163957,0.4699469,0.2741312
0.5234389,-0.4194069,0.004512653,-0.453298,-0.1187157,-0.0003675217,-0.3061986,0.419123,0.1001002
0.5616657,-0.3719152,0.01445596,-0.4163884,-0.07171497,0.009723281,-0.1873902,0.4630527,0.0129799
0.5372345,-0.2981839,0.0184892,-0.4421475,0.001556632,0.01393682,-0.09716031,0.413435,-0.006264054
0.4957976,-0.200159,0.03691532,-0.4848957,0.09915352,0.03257254,-0.2973867,0.3502016,0.01543627
0.5120904,-0.1332804,0.03815222,-0.4698719,0.1656322,0.03404442,-0.5210181,0.2247718,0.1043552
0.5296971,-0.1332437,0.09259562,-0.4534667,0.1652898,0.08874376,-0.6775344,0.04489634,0.12475
0.6110874,-0.2059028,0.1571057,-0.3731891,0.09226449,0.1535249,-0.7095368,0.07099596,0.1298419
0.6687008,-0.2305243,0.1778892,-0.3165817,0.06728299,0.1745868,-0.5953489,0.03304495,0.1106405
0.6875306,-0.2192794,0.1932682,-0.298638,0.07817031,0.190242,-0.5331372,-0.09788032,-0.00304314
0.8005395,-0.214601,0.2249675,-0.1863861,0.08249013,0.2222053,-0.5186785,-0.1303848,-0.04098507
0.9600858,-0.209645,0.2851324,-0.02746344,0.08708357,0.2826111,-0.5252856,-0.221709,-0.01581481
1.046118,-0.2275056,0.311976,0.05807608,0.06885355,0.3096607,-0.5822818,-0.2928418,-0.03972533
1.133495,-0.2364364,0.3221663,0.1450832,0.05954398,0.320009,-0.6467992,-0.2999218,-0.1225389
1.31156,-0.2921252,0.3041905,0.3228881,0.003465798,0.3021302,-0.6727253,-0.3884113,-0.2206175
1.405518,-0.4468904,0.1516928,0.4166738,-0.1516984,0.1496579,-0.5615891,-0.4624965,-0.2140304
1.440755,-0.7013857,-0.01067473,0.4518056,-0.4065953,-0.01276173,-0.1826927,-0.4091427,-0.1888051
1.538422,-0.8580539,-0.008910022,0.549405,-0.563652,-0.01112512,0.3312894,-0.3290047,-0.2212011
1.441878,-0.6877124,0.005040951,0.4528039,-0.3936635,0.002627008,0.4557956,-0.3131694,-0.2174087
1.101162,-0.5173721,-0.1194022,0.1120186,-0.2236198,-0.122079,0.2622547,-0.4050148,-0.2333595
0.8736711,-0.5492423,-0.208936,-0.1155669,-0.2557161,-0.2119306,0.3351971,-0.4867444,-0.2747414
1.031169,-0.5721069,-0.2232962,0.04180978,-0.2787273,-0.2266507,0.4534416,-0.2158634,-0.2983384
1.280885,-0.5890509,-0.2072958,0.2913792,-0.29573,-0.2110377,0.5932249,0.12808,-0.4010176
1.174052,-0.5655407,-0.1096255,0.1843693,-0.2721824,-0.1137686,1.040642,0.05018741,-0.5765941
0.9756866,-0.4492684,-0.07656366,-0.01420885,-0.1557697,-0.08111136,1.202241,-0.08133071,-0.7319979
0.8378947,-0.3061518,-0.1012185,-0.1522517,-0.01240753,-0.1061671,1.003974,-0.1026081,-0.7664799
0.6717767,-0.1355438,-0.107801,-0.3186508,0.1585471,-0.1131409,0.9324954,-0.3123438,-0.5797059
0.7149088,-0.05645107,-0.1314827,-0.275816,0.2380757,-0.1371982,0.873749,-0.5071097,-0.3627262
0.7550588,-0.09237951,-0.1093115,-0.2359634,0.2026559,-0.1153808,0.7918767,-0.4670581,-0.3775417
0.7013021,-0.124657,-0.09633118,-0.2900031,0.1709425,-0.1027267,0.7871618,-0.3329922,-0.4681582
0.6751865,-0.190972,-0.08158565,-0.3163735,0.1052319,-0.08827543,0.7524413,-0.2578631,-0.4772361
0.5379601,-0.2390387,-0.05823846,-0.4538118,0.05779838,-0.06518705,0.6719964,-0.2351522,-0.5049782
0.572016,-0.1921219,-0.0793332,-0.4199077,0.1053684,-0.08650285,0.7490413,-0.1435606,-0.4907459
0.6685744,-0.1457855,-0.07842342,-0.323424,0.15237,-0.08577448,0.8665317,-0.03620317,-0.4164025
0.6223413,-0.09339865,-0.09713934,-0.3696405,0.2054247,-0.1046301,0.7081018,-0.050445,-0.3875923
0.7284123,0.01321673,-0.06720911,-0.2634504,0.3126988,-0.07479578,0.5063801,-0.1580071,-0.3069678
0.8530809,0.06768527,0.01904267,-0.1385527,0.3678024,0.01140491,0.3564907,-0.2760528,-0.1601619
0.9639263,0.03018815,0.02827737,-0.02736645,0.3309002,0.02063199,0.1881381,-0.3136544,-0.05497344
1.0793,0.00350478,0.04793001,0.08845524,0.3047553,0.04031697,0.1548847,-0.2408045,0.03045161
1.180829,-0.00433864,0.09826319,0.1905287,0.2973798,0.09071759,0.09908365,-0.1914162,0.1482256
1.379951,-0.01196956,0.1311185,0.3902744,0.2901346,0.1236693,-0.0208777,-0.2008611,0.2406474
1.425222,-0.00137935,0.130173,0.4362283,0.301018,0.1228415,-0.1113661,-0.1359602,0.2937051
1.449158,-0.06391397,0.1212283,0.4608792,0.2386748,0.1140279,-0.1693162,-0.02846641,0.5501332
1.547641,-0.2363997,0.106351,0.5600802,0.06627313,0.09928767,-0.1824837,0.01084942,0.8141362
1.571237,-0.43884,-0.09103272,0.5843701,-0.1361901,-0.097958,-0.4046012,-0.002833311,0.5859048
1.644375,-0.5433932,-0.2794482,0.6581483,-0.2408638,-0.2862339,-0.6552761,-0.009387426,0.2887624
1.425392,-0.5266485,-0.1303097,0.4397229,-0.2243216,-0.136947,-0.4613783,0.0413194,0.360552
1.081126,-0.5707015,0.01418718,0.09591058,-0.268641,0.007714712,-0.1047237,0.2046829,0.4347241
1.141907,-0.5949937,-0.1367522,0.1570327,-0.2932449,-0.1430397,-0.01911929,0.561329,0.3742491
1.197199,-0.4499678,-0.2010667,0.2125509,-0.1485588,-0.2071463,-0.2262015,0.8479237,0.1672986
1.119409,-0.2953135,-0.04583802,0.1348713,0.005740742,-0.0516819,-0.5518505,0.6838476,-0.07114462
1.127645,-0.1961882,0.04566819,0.1431024,0.1045026,0.04009084,-0.63208,0.3151323,0.2046357
1.074549,-0.2514184,0.0689234,0.08988496,0.04890029,0.06364158,-0.3718892,0.1151998,0.6396395
0.9095182,-0.4313808,0.02876807,-0.07537775,-0.1314433,0.02380603,-0.08059439,0.2076007,0.5759174
0.6829784,-0.4524032,-0.0348699,-0.3022515,-0.1528526,-0.03949224,0.1428274,0.3735381,0.4725039
0.5280842,-0.3871452,0.01546991,-0.4575635,-0.08797968,0.01120463,0.3399403,0.1421887,0.4797993
0.5428088,-0.3060006,0.02209626,-0.4433154,-0.007212145,0.01820344,0.4803648,-0.1601255,0.3637953
0.5991989,-0.1808047,-0.01640698,-0.3874328,0.1176175,-0.01991426,0.5110158,-0.1986637,0.3150179
0.6073507,-0.1314503,-0.01169912,-0.3797945,0.1666139,-0.01480974,0.3415561,-0.2481481,0.2376404
0.5881991,-0.1080592,-0.02946184,-0.3994436,0.1896488,-0.0321658,0.08294184,-0.2107128,0.133804
0.566078,-0.1208804,-0.01115047,-0.4220255,0.1764656,-0.01343849,-0.1167393,-0.1798568,0.1174305
0.5773505,-0.1694856,0.02164588,-0.4111575,0.1274846,0.01978212,-0.2009103,-0.1866848,0.06560566
0.6158998,-0.1852771,0.072155,-0.3729384,0.1112981,0.07072169,-0.1467605,-0.03863034,0.02139897
0.670598,-0.1935804,0.1676879,-0.3184806,0.1025765,0.1666868,-0.1131327,-0.02824908,-0.02669228
0.772234,-0.1453096,0.2166221,-0.2169836,0.1504026,0.2160477,-0.1226012,-0.07777323,-0.02863191
0.8468926,-0.1334924,0.2441323,-0.1423558,0.1617451,0.2439687,-0.08235406,-0.06556273,0.01791735
0.8964318,-0.188844,0.2947132,-0.09273751,0.105885,0.2949327,-0.08834273,-0.08897831,-0.04561912
1.021134,-0.2150901,0.3671777,0.03215153,0.07909383,0.3677395,-0.1742931,-0.08549761,-0.1285713
1.129104,-0.2665643,0.3564679,0.1404082,0.02703719,0.3573163,-0.2344245,-0.2542842,-0.2148533
1.195987,-0.4109493,0.1485006,0.2076666,-0.1179652,0.1495665,-0.190563,-0.5032468,-0.2573516
1.341282,-0.6624319,-0.06001522,0.3534075,-0.3700924,-0.05880858,0.0248492,-0.6130694,-0.2106129
1.588633,-0.7522975,-0.08100146,0.6012553,-0.4606136,-0.07972899,0.4316713,-0.5535397,-0.2180509
1.708407,-0.6256655,-0.06070423,0.7215454,-0.3346267,-0.05943354,0.7117132,-0.3090239,-0.1390002
1.314224,-0.620898,-0.1400015,0.3278659,-0.330473,-0.1387914,0.5659035,-0.2178219,-0.04934985
0.8706573,-0.6729717,-0.2432174,-0.1152344,-0.3831113,-0.2421161,0.4268559,-0.3307789,-0.2019818
1.121002,-0.6631136,-0.3268598,0.1355318,-0.3737523,-0.3259021,0.5473099,-0.2896748,-0.3130054
1.411625,-0.6252928,-0.335922,0.426529,-0.3363497,-0.3351257,0.5456068,-0.02248803,-0.1933919
1.267687,-0.5370953,-0.2283643,0.282907,-0.2484761,-0.2277295,0.6281024,0.1725769,-0.1261674
1.142271,-0.4915447,-0.1740712,0.157737,-0.2031463,-0.1735836,0.9012835,-0.001454931,-0.308756
0.9210738,-0.4487868,-0.1758523,-0.06329084,-0.160501,-0.175487,0.9284303,-0.2339637,-0.5548828
0.7930151,-0.3539538,-0.1615298,-0.1912535,-0.06567072,-0.1612543,0.9440616,-0.2124531,-0.6221021
0.8820931,-0.2788778,-0.17465,-0.1021436,0.009510006,-0.174425,1.086048,-0.2889571,-0.50312
0.7198258,-0.243712,-0.1586769,-0.2644307,0.04488165,-0.1584572,1.137696,-0.4588554,-0.3943136
0.658593,-0.2535361,-0.1560464,-0.3257208,0.03535586,-0.1557817,1.163327,-0.4206937,-0.4862251
0.7109123,-0.2460079,-0.1454682,-0.2734795,0.04326535,-0.1451037,1.181031,-0.4086974,-0.588387
0.6181001,-0.1853714,-0.08541182,-0.3663731,0.1043566,-0.08488955,1.322479,-0.4023872,-0.5700047
0.6623455,-0.1192386,-0.0913129,-0.3221953,0.1710069,-0.09057356,1.389194,-0.2704739,-0.5572937
0.6181903,-0.09617521,-0.1300674,-0.3663878,0.1946375,-0.1290514,1.13268,-0.2254265,-0.4932283
0.5700618,-0.1200322,-0.1584433,-0.414507,0.1713836,-0.1570904,0.9075735,-0.2047956,-0.4381021
0.6837378,-0.1078412,-0.1280936,-0.3007594,0.1841998,-0.1263418,0.844271,-0.1907132,-0.4112025
0.7301812,-0.07489041,-0.04465422,-0.254169,0.2177852,-0.04244058,0.8472147,-0.1137041,-0.3529894
0.8044814,-0.06283615,-0.01766669,-0.1796377,0.2304706,-0.01492973,0.7914772,0.04223341,-0.3401179
0.854758,-0.005121159,0.02183487,-0.1290414,0.2888,0.02515249,0.6540553,0.0101922,-0.2261809
0.9897163,0.06348428,0.07947951,0.006325527,0.357989,0.08342894,0.480229,-0.003542012,-0.05290998
1.2135,0.06437092,0.09357265,0.2306008,0.3594126,0.09819693,0.1555071,0.07370403,0.05771043
1.276954,0.006706003,0.0969079,0.2946177,0.3022222,0.1022408,-0.02058985,0.09985074,0.2062639
1.353792,-0.06947176,0.1106499,0.3720681,0.2264433,0.1167155,-0.0008558402,0.166948,0.3369558
1.426054,-0.1239688,0.1480178,0.4449716,0.1722601,0.1548307,-0.03727423,0.1516008,0.5208007
1.474853,-0.1566034,0.1361573,0.4944159,0.1398491,0.1437222,-0.05315874,0.1200123,0.6781012
1.564111,-0.2571679,-0.0007234282,0.5842966,0.03941619,0.007589023,-0.3419823,0.1486524,0.573936
1.566407,-0.4510485,-0.1481631,0.5871642,-0.1544221,-0.1391123,-0.8890687,0.0678993,0.3870468
1.472205,-0.5650928,-0.1152938,0.4934568,-0.268504,-0.1055127,-1.030869,-0.04586105,0.2908117
1.23893,-0.5849362,-0.05312897,0.260578,-0.2884492,-0.04262227,-0.5256662,-0.05366588,0.4087583
1.077735,-0.5755563,-0.1292376,0.09966579,-0.2792168,-0.1180071,-0.02654775,0.1829487,0.6175437
1.129913,-0.4808919,-0.1201539,0.1520104,-0.1847279,-0.1081986,-0.2058884,0.6065694,0.5352387
1.12747,-0.4271676,-0.07798466,0.1496195,-0.131193,-0.0653008,-0.5058779,0.7773547,0.377474
1.083228,-0.3495037,-0.07496617,0.1053145,-0.0537225,-0.06154756,-0.6815211,0.5794269,0.3726141
1.102413,-0.2171152,0.0223316,0.1243235,0.0784736,0.03649157,-1.02425,0.3998728,0.4349937
1.047309,-0.3160234,0.02698285,0.06893342,-0.02062499,0.0418889,-0.9305315,0.4223515,0.5916074
0.8349151,-0.4386674,-0.01295589,-0.1438506,-0.1434568,0.002697449,-0.5696532,0.5313621,0.5883373
0.5913844,-0.4119459,0.02385517,-0.3878644,-0.1169169,0.04025351,-0.3816118,0.6456549,0.4699118
0.4863585,-0.3732953,0.007024891,-0.4934453,-0.07843585,0.02416281,-0.1267793,0.6413749,0.4493804
0.5227071,-0.2536879,0.01313439,-0.4576957,0.04101801,0.03100338,-0.1497125,0.5757268,0.2825787
0.5393848,-0.1809253,0.0211682,-0.4416324,0.1136431,0.03975677,-0.2506131,0.5901051,0.1407452
0.4885465,-0.1734125,0.002389382,-0.4930741,0.1210304,0.02168326,-0.2850954,0.5100737,0.1546737
0.504306,-0.1343144,0.03174147,-0.4778818,0.1600085,0.05172375,-0.6575021,0.3403629,0.1337446
0.5342523,-0.1702315,0.04933372,-0.4484432,0.12397,0.06998472,-0.7703986,0.1974832,0.1328988
0.5445583,-0.1984274,0.0968573,-0.4385644,0.09564487,0.1181537,-0.6400817,0.07314755,0.08052764
0.6010184,-0.2309601,0.1988359,-0.3824328,0.06297018,0.2207488,-0.6915952,-0.07632577,0.03831383
0.6785212,-0.2850309,0.2797589,-0.3051455,0.008742175,0.302251,-0.643033,-0.3875728,0.01547304
0.869178,-0.2398546,0.2662411,-0.1145818,0.05374522,0.2892633,-0.7204916,-0.430421,-0.08275318
1.064098,-0.2246077,0.2283325,0.08036847,0.06880235,0.2518236,-0.9187755,-0.03596798,-0.06180962
1.113701,-0.2783719,0.3351916,0.1301191,0.01483098,0.3590785,-0.9760878,0.1104164,-0.008362346
1.211569,-0.3143763,0.4195529,0.2282372,-0.02139785,0.4437503,-0.9894985,-0.05979375,0.01329362
1.390394,-0.3640123,0.3328994,0.4073966,-0.07127362,0.357308,-0.9685694,-0.2220707,0.05073282
1.498938,-0.4941803,0.1441234,0.5163366,-0.2016918,0.1686314,-0.9275938,-0.1909034,-0.02972493
1.617485,-0.6924974,-0.05225907,0.6353113,-0.4002603,-0.02776833,-0.672045,0.03437056,-0.136636
1.741578,-0.702482,-0.01422383,0.7598312,-0.4104818,0.01013635,-0.3541816,0.1848734,-0.1991113
1.457884,-0.4783515,0.0648801,0.4765273,-0.186556,0.08900369,-0.3580023,0.1613052,-0.2156329
0.9180984,-0.3477892,-0.1055981,-0.06292894,-0.05615331,-0.08180999,-0.464886,-0.2341569,-0.1660216
0.8163271,-0.4001958,-0.2478836,-0.1644413,-0.1086695,-0.2245206,-0.5928128,-0.5645677,-0.12857
1.076051,-0.4963751,-0.3068886,0.09547625,-0.2049058,-0.2840252,-0.7025172,-0.1553501,-0.1139928
1.234848,-0.5495708,-0.3076776,0.2544073,-0.2581015,-0.2853696,-0.4769537,0.2838794,-0.1753874
1.11306,-0.5400356,-0.1967864,0.1326889,-0.2485021,-0.1750704,0.01692474,0.1974257,-0.3439558
0.8898282,-0.4723471,-0.1876734,-0.09053911,-0.1806778,-0.1665697,0.3521203,0.08469646,-0.5684025
0.7610363,-0.3360621,-0.2000385,-0.2193898,-0.04418086,-0.1795549,0.3155732,0.08900823,-0.7485608
0.6099126,-0.1932799,-0.1686317,-0.3706228,0.0988888,-0.1487647,0.2254482,-0.1075482,-0.6960758
0.5948724,-0.1250228,-0.1822227,-0.3858041,0.1675016,-0.162959,0.286834,-0.3934427,-0.4718525
0.6829561,-0.143324,-0.1603292,-0.2978727,0.1496126,-0.1416467,0.2708264,-0.4324611,-0.3050853
0.6577653,-0.1901302,-0.165543,-0.323208,0.1032623,-0.1474119,0.2486864,-0.2440284,-0.2943155
0.6619299,-0.2133877,-0.1282564,-0.3191639,0.08049356,-0.1106401,0.3467981,-0.01571063,-0.4003364
0.6024002,-0.2242337,-0.04474256,-0.3787745,0.07016051,-0.02759953,0.3722901,0.0169357,-0.4264752
0.557945,-0.1848845,-0.05670469,-0.4232554,0.1100395,-0.03999137,0.3313641,-0.08823522,-0.3545493
0.6604004,-0.1092588,-0.05135518,-0.320755,0.1862037,-0.03502772,0.2688813,-0.1670682,-0.2821975
0.765311,-0.048515,-0.04658262,-0.2157153,0.2474849,-0.03059746,0.1520951,-0.2742987,-0.1408257
0.9413369,-0.01028101,-0.04829663,-0.0394696,0.286243,-0.0326107,0.05964853,-0.2997935,-0.02479271
1.122357,-0.02581679,-0.01255978,0.1418603,0.2712041,0.002869122,-0.05742619,-0.2857449,-0.02955539
1.251787,-0.02417935,0.005427362,0.2716795,0.2732978,0.02063971,-0.1961164,-0.2230165,-0.03219075
1.335777,0.01360888,0.05906963,0.3561226,0.3114889,0.07410282,-0.2926522,-0.02781079,0.04561379
1.346366,0.03857819,0.09382897,0.3672051,0.3367952,0.1087156,-0.4088102,0.02640966,0.1764224
1.380693,0.04845516,0.07461204,0.402046,0.3469307,0.08937859,-0.5655899,-0.000540395,0.3026387
1.397045,-0.04468978,0.05144617,0.4189078,0.2539538,0.06611268,-0.6874513,0.1313136,0.5197474
1.440272,-0.1874217,0.007043172,0.462619,0.1112911,0.02162469,-0.7018475,0.3797117,0.7401025
1.44318,-0.3407746,-0.08955187,0.4659622,-0.04209347,-0.07504294,-0.8624078,0.6029164,0.5529176
1.330319,-0.5675946,-0.2050427,0.3534688,-0.2690399,-0.1905928,-1.263996,0.6177923,0.08734165
1.300577,-0.628316,-0.1800493,0.3240077,-0.3299677,-0.1656397,-1.404875,0.5924613,-0.06961259
1.272386,-0.5343236,-0.1108629,0.2960001,-0.236242,-0.09646806,-1.074071,0.8222858,0.2207191
1.221996,-0.5886439,-0.1229889,0.2456853,-0.2908697,-0.1085781,-0.6837836,1.137375,0.5257889
1.209164,-0.5839473,-0.0785523,0.2328151,-0.286503,-0.06409164,-0.6993804,1.237904,0.4697619
1.145475,-0.3908102,-0.05815651,0.1689697,-0.09370269,-0.04361045,-1.074769,1.147924,0.3863432
1.096953,-0.258609,-0.07526865,0.1201726,0.03816535,-0.06060127,-1.456439,1.027287,0.5372866
1.04094,-0.2250028,-0.02788395,0.06376662,0.07144517,-0.01305978,-1.60632,0.8327362,0.5899286
0.8746893,-0.2787083,-0.02708946,-0.1029877,0.0174187,-0.01207423,-1.392347,0.5894148,0.6323247
0.6150081,-0.329047,-0.02915726,-0.3632726,-0.03323662,-0.01391877,-1.113769,0.4882348,0.7139131
0.4759891,-0.3320096,-0.01114051,-0.5029741,-0.036511,0.00435107,-0.9296003,0.4500128,0.5893026
0.4657102,-0.3743935,-0.04526415,-0.5139863,-0.07919967,-0.02949205,-0.7021641,0.4352066,0.4336807
0.3897886,-0.3309748,-0.04432734,-0.5906603,-0.03607547,-0.02824932,-0.6516254,0.5132359,0.2478305
0.4213916,-0.2729877,-0.03716115,-0.559797,0.02162955,-0.02075323,-0.7098272,0.495412,0.1099267
0.4669809,-0.2319218,-0.03016344,-0.5149048,0.06242621,-0.01340309,-0.8070345,0.3328597,0.1202796
0.4367675,-0.1205449,0.04309386,-0.5457459,0.1735439,0.06022703,-0.9988235,0.125869,0.07167715
0.5237995,-0.1311737,0.1108531,-0.4592481,0.1626602,0.1283754,-1.014873,-0.01577589,0.1611853
0.5797343,-0.2102417,0.1567148,-0.4037342,0.08333458,0.1746355,-0.9820784,0.002998862,0.2593314
0.7415405,-0.2929768,0.2127952,-0.2422208,0.000334071,0.2311143,-0.8614779,0.123548,0.1320098
0.9871317,-0.3635892,0.2801196,0.003212615,-0.07055245,0.2988251,-0.6147885,0.2847768,0.05446104
1.021071,-0.3057068,0.3264179,0.03712662,-0.01295057,0.3454842,-0.7369369,0.2460108,-0.01537635
1.090639,-0.2914738,0.3686157,0.1067929,0.0009984002,0.3880016,-0.9113388,0.0044774,-0.1172174
1.230878,-0.3384642,0.3757854,0.2472399,-0.04627752,0.395433,-0.7664594,-0.3045891,-0.1785856
1.333934,-0.4356931,0.1635047,0.3505947,-0.1437907,0.1833411,-0.606958,-0.7071992,-0.2035605
1.524988,-0.6578403,-0.07560132,0.5420164,-0.3662142,-0.05565754,-0.3244886,-0.6753326,-0.1479495
1.700212,-0.7481178,-0.05461935,0.7176476,-0.4567467,-0.03464885,-0.01591103,-0.4209313,-0.1051677
1.559962,-0.6219463,-0.03406513,0.5778092,-0.3307909,-0.01414213,-0.06121717,-0.517801,-0.09415967
1.182329,-0.4992287,-0.1890763,0.2005613,-0.2082328,-0.1692671,-0.2518499,-0.4376469,-0.1446899
1.079224,-0.4754657,-0.3004732,0.09779489,-0.1845623,-0.2808333,-0.4011568,-0.2790141,-0.2302702
1.198997,-0.4832292,-0.2891349,0.2178513,-0.192345,-0.2697049,-0.4696589,-0.1321735,-0.2380037
1.204357,-0.4823979,-0.2306446,0.2234354,-0.1914548,-0.2114485,-0.2928691,0.1591234,-0.2862836
1.075736,-0.475099,-0.1388355,0.09497227,-0.1840151,-0.1198828,0.04576593,0.00376753,-0.4132874
0.8481309,-0.4191534,-0.1036979,-0.1325443,-0.1278437,-0.08498831,0.3487623,-0.1682164,-0.5586507
0.7307332,-0.3079503,-0.1358882,-0.249916,-0.01632917,-0.1174145,0.4562865,-0.07939154,-0.6498647
0.6720301,-0.1695966,-0.1248081,-0.3086429,0.1224176,-0.1065576,0.4018219,-0.2203475,-0.5546021
0.5902557,-0.1054781,-0.1240715,-0.3904729,0.1870013,-0.1060263,0.380388,-0.2739713,-0.3879684
0.6114045,-0.1402355,-0.1338815,-0.3693916,0.152768,-0.1160187,0.3455036,-0.247509,-0.3479813
0.5831967,-0.1657235,-0.1071842,-0.3976582,0.1278491,-0.08947668,0.3850221,-0.1974295,-0.4015587
0.5303764,-0.2009909,-0.09772671,-0.4505092,0.09318366,-0.08014367,0.4717179,-0.00497209,-0.4516268
0.5189616,-0.2155319,-0.09429914,-0.4619067,0.07926769,-0.07680709,0.2692949,-0.009706054,-0.4873678
0.5468382,-0.1531794,-0.07960207,-0.433945,0.1422598,-0.06216569,0.0879741,-0.05678791,-0.5014287
0.6795704,-0.09313198,-0.0528997,-0.3010432,0.2029525,-0.03548268,0.1819582,-0.0297003,-0.4464947
0.7867842,-0.05774319,-0.04354129,-0.1935633,0.2389812,-0.02610734,0.1867962,-0.1000096,-0.3148437
0.9257058,-0.04744211,-0.04151414,-0.05427413,0.2499044,-0.0240279,0.09306018,-0.1566533,-0.1712366
1.141902,-0.04757824,0.005191499,0.1623884,0.2503598,0.02276374,0.03083876,-0.1678892,-0.04647748
1.320725,-0.04528734,0.05037922,0.3417649,0.2531995,0.06806823,-0.03926837,-0.0531313,0.0758718
1.429843,-0.05918006,0.1020341,0.4515037,0.2398014,0.1198657,-0.07717557,0.1720196,0.1767677
1.414117,-0.04490102,0.1487272,0.4364399,0.2545108,0.1667202,-0.1742122,0.3278161,0.2692343
1.385449,-0.009697064,0.1436669,0.408448,0.2900711,0.161831,-0.3762576,0.3953771,0.4006246
1.415174,-0.01880558,0.08720483,0.4388393,0.2812355,0.1055411,-0.5352417,0.3631126,0.6045461
1.50058,-0.1570765,-0.0937879,0.5248772,0.1431458,-0.07528497,-0.8685508,0.3160614,0.7081095
1.608991,-0.4138969,-0.24786,0.6338617,-0.1135883,-0.229196,-1.477396,0.324636,0.4564796
1.483468,-0.5515349,-0.1763468,0.5088263,-0.2512291,-0.1575212,-1.642254,0.3167047,0.1921065
1.204288,-0.5271522,-0.1138193,0.2300284,-0.2269241,-0.09482341,-1.186544,0.3588757,0.2787627
1.088597,-0.5325976,-0.175976,0.1145998,-0.2325051,-0.156795,-0.7721412,0.5723009,0.3646111
1.142787,-0.5719444,-0.1678218,0.1689297,-0.2720285,-0.1484353,-0.6446212,0.956306,0.298795
1.19233,-0.5741691,-0.1310999,0.2184905,-0.2744543,-0.1114826,-0.7566402,1.186735,0.237121
1.120199,-0.4768832,-0.09441996,0.1462543,-0.1773784,-0.07454238,-1.004034,0.9604823,0.1507453
1.082682,-0.3093774,0.0203007,0.1085099,-0.0100798,0.04046945,-1.270431,0.6523836,0.2315932
1.096819,-0.2774042,0.03310847,0.1223001,0.02169469,0.05359728,-1.375649,0.5465209,0.4506882
0.9681451,-0.3505519,-0.02906616,-0.006836246,-0.05164216,-0.008232659,-1.205449,0.4933756,0.4602794
0.7764865,-0.3534433,0.0006052143,-0.199065,-0.05471225,0.02180403,-1.108248,0.5305512,0.3929792
0.6063063,-0.3297927,0.00754936,-0.369908,-0.03122805,0.02913081,-1.063263,0.5366108,0.3611525
0.5384624,-0.3147791,0.01898252,-0.4384849,-0.01636692,0.04096042,-0.9113334,0.4678403,0.2863757
0.5797395,-0.2919564,0.04258824,-0.3979843,0.006317898,0.06497241,-0.9050741,0.4812283,0.234274
0.539064,-0.2696991,-0.007587935,-0.4394533,0.02845153,0.01520816,-0.9266144,0.4284712,0.1370595
0.5141166,-0.2154621,-0.02145549,-0.4651856,0.08257717,0.001754807,-0.939785,0.3828368,0.0624608
0.5665247,-0.1703184,0.005813343,-0.4135296,0.1276183,0.02943791,-1.062862,0.3773645,0.09015461
0.5743983,-0.1905209,0.04948721,-0.4063531,0.1073165,0.07352377,-1.13685,0.2490343,0.1460463
0.5848855,-0.2385368,0.1253736,-0.3964887,0.05919939,0.149816,-1.097584,0.1441021,0.2589141
0.629138,-0.2762901,0.1855445,-0.3527679,0.02133912,0.2103799,-0.9092664,0.07377443,0.295699
0.7593918,-0.2749668,0.2281798,-0.2229413,0.02254805,0.2533863,-0.7222987,0.07405906,0.1736551
0.9384843,-0.2349565,0.2599388,-0.04416392,0.06243567,0.2854833,-0.6960308,0.1721381,0.03886415
1.009562,-0.2150281,0.3182479,0.02671075,0.08223177,0.3440846,-0.7289029,0.1849915,-0.05169431
1.024207,-0.2263853,0.3656565,0.04125823,0.07073045,0.3917259,-0.7349002,0.1012491,-0.1852234
1.085793,-0.2713444,0.3171975,0.1028449,0.02561293,0.3434255,-0.6659934,-0.1572726,-0.3416484
1.202575,-0.4485471,0.1262352,0.219712,-0.1517624,0.1525351,-0.5346805,-0.4228542,-0.3303898
1.416928,-0.734177,-0.1011385,0.43422,-0.4375727,-0.07485876,-0.237214,-0.3856484,-0.2541748
1.617167,-0.8211299,-0.0562367,0.6346605,-0.5246982,-0.03006608,0.04283014,-0.2446856,-0.2529409
1.406242,-0.5762087,0.03124356,0.423955,-0.2799205,0.0572235,-0.03905788,-0.2311397,-0.2460417
0.9292175,-0.3959143,-0.1438379,-0.05285611,-0.09972315,-0.118123,-0.1514711,-0.3963659,-0.2739332
0.8642522,-0.5112993,-0.2342024,-0.1176259,-0.2151496,-0.208818,-0.1476545,-0.5150572,-0.285614
1.163461,-0.5671089,-0.2315974,0.1817614,-0.2709395,-0.2065961,-0.1911249,-0.2222645,-0.2763269
1.348599,-0.4627118,-0.2162427,0.3670573,-0.1664549,-0.1916621,-0.06264182,0.1423335,-0.3680688
1.212179,-0.4302886,-0.0894902,0.2307654,-0.1338708,-0.06535464,0.2343091,0.06025779,-0.55346
0.9102115,-0.3748356,-0.0948175,-0.07111425,-0.07818117,-0.0711415,0.4418367,-0.1792529,-0.7559857
0.786685,-0.252337,-0.1233858,-0.1945953,0.04462844,-0.1001771,0.4616052,-0.2599035,-0.7814312
0.7376001,-0.2043249,-0.07513682,-0.2436687,0.09302066,-0.05239711,0.4204314,-0.2933103,-0.6923396
0.7139898,-0.1797997,-0.09899474,-0.2672884,0.1179861,-0.07672053,0.540605,-0.2632628,-0.6711319
0.7392249,-0.1660795,-0.06739649,-0.2420691,0.1321959,-0.04557979,0.7161927,-0.2331573,-0.6289965
0.6583293,-0.1701486,-0.06601983,-0.3229733,0.1286545,-0.04464897,0.7742489,-0.1905959,-0.6829312
0.6404746,-0.1488463,-0.1001342,-0.3408147,0.1505116,-0.07919445,0.7717139,-0.0797493,-0.7904099
0.6090925,-0.154749,-0.07444152,-0.3721466,0.1451801,-0.05391485,0.7049496,-0.1039909,-0.6793207
0.5761455,-0.1549627,-0.1013237,-0.4049907,0.1455439,-0.08118903,0.6151566,-0.1116275,-0.5429731
0.7176458,-0.1299758,-0.1046327,-0.26332,0.1711047,-0.08486565,0.5730778,-0.04381736,-0.4965514
0.7848105,-0.1143951,-0.1080847,-0.1959062,0.1872461,-0.08865749,0.5130445,-0.03147465,-0.4008049
0.8019424,-0.08265861,-0.1345447,-0.1784403,0.2195204,-0.1154262,0.391126,0.04876061,-0.2698276
0.8310965,-0.0781554,-0.1073751,-0.1488644,0.2245281,-0.08853021,0.2514934,0.04546711,-0.1337049
0.8740768,-0.09826095,-0.09322755,-0.1053737,0.2048838,-0.07461825,0.2311555,-0.03970232,-0.08752511
0.9507823,-0.1055763,-0.05126645,-0.02807083,0.1979772,-0.03285259,0.2855066,-0.06044386,-0.07340635
1.094266,-0.5012337,-0.1575531,0.06998672,-0.2130636,-0.1929068,1.173397,-0.2105289,-0.3838917
0.9355986,-0.4342993,-0.1650212,-0.0881362,-0.1456245,-0.2000068,1.260263,-0.3387938,-0.6068932
0.7486686,-0.3659448,-0.1955439,-0.2745349,-0.07667627,-0.2301241,1.297438,-0.3301232,-0.816053
0.672547,-0.2553535,-0.1525201,-0.3501305,0.03459508,-0.1866508,1.420589,-0.3462657,-0.8161272
0.6447533,-0.1442638,-0.1907389,-0.3773894,0.1464438,-0.2243694,1.400788,-0.5080873,-0.6091352
0.6033509,-0.08662883,-0.1755088,-0.4182317,0.2049045,-0.208583,1.364176,-0.5893847,-0.4571865
0.6138447,-0.1653544,-0.1513818,-0.4071357,0.1270566,-0.183838,1.292035,-0.6159987,-0.5170744
0.638576,-0.2616337,-0.138889,-0.381744,0.03169314,-0.170662,1.13535,-0.4511696,-0.6137607
0.649851,-0.2526206,-0.03372021,-0.3697358,0.04165023,-0.06474232,1.056242,-0.1972311,-0.6056811
0.7000878,-0.2249465,-0.01210594,-0.3186813,0.07028917,-0.04231073,1.21885,-0.1895693,-0.4910385
0.7271387,-0.1250498,-0.03801612,-0.2907189,0.171164,-0.06734053,1.404994,-0.3806303,-0.2956818
0.8057178,0.02461764,-0.04297977,-0.2111282,0.3218121,-0.07136473,1.257093,-0.6668415,-0.1787211
0.989997,0.06475868,-0.03984754,-0.02573542,0.3629211,-0.06723746,0.9976292,-0.728594,-0.1790201
1.108132,0.07935852,0.0005708124,0.09361044,0.3784578,-0.02577194,0.7308245,-0.5482336,-0.1254682
1.231533,0.1510976,0.0105156,0.2183084,0.451083,-0.01473215,0.4834923,-0.4583125,-0.05939716
1.332287,0.1208323,0.02811023,0.3204265,0.421633,0.00400001,0.4990825,-0.3808524,0.01327143
1.332916,0.01180757,0.04274755,0.3224667,0.3133346,0.01981145,0.4335729,-0.2762207,0.2406256
1.467198,-0.07132497,0.00736199,0.4581812,0.230825,-0.01436954,0.1491272,-0.1392298,0.4761842
1.655087,-0.3355222,-0.141682,0.6474985,-0.03285968,-0.1621831,-0.01469668,0.1205434,0.4653654
1.763267,-0.6267471,-0.3111862,0.7570697,-0.3236797,-0.3304308,-0.06544534,0.3354721,0.1947108
1.656581,-0.6466951,-0.1849007,0.651703,-0.3433162,-0.2028573,-0.01467421,0.269221,0.05365486
1.296818,-0.6661102,-0.04364679,0.2931549,-0.3624917,-0.06027775,0.1948117,0.1926161,0.3554231
1.192885,-0.6877507,-0.1702777,0.1903136,-0.3839417,-0.1855434,0.4793515,0.5151207,0.6558395
1.242338,-0.5654023,-0.1980148,0.2407245,-0.2614306,-0.2118748,0.4823729,0.8215678,0.561594
1.15154,-0.4645883,-0.1074712,0.1507474,-0.1604642,-0.119883,0.05809283,0.7989429,0.4374232
1.102126,-0.2510074,-0.07624191,0.1020151,0.05326944,-0.08716179,-0.3788902,0.6254344,0.498763
0.9398639,-0.04520551,-0.01323849,-0.05970235,0.2592261,-0.02262458,-0.631895,0.3355682,0.536163
0.7141854,-0.2117004,0.006960445,-0.2849645,0.09288169,-0.0008542943,-0.4690999,0.1345557,0.624067
0.4810372,-0.39813,-0.04816674,-0.5178071,-0.09340821,-0.05437821,-0.06915335,0.05050991,0.692234
0.26991,-0.3572674,-0.0670645,-0.7287118,-0.05241785,-0.07164582,0.05554676,0.08653464,0.5468852
0.324115,-0.3321646,-0.0797805,-0.6743316,-0.02719603,-0.08270824,0.2301278,0.2793149,0.4282462
0.3696786,-0.29051,-0.08769383,-0.6286025,0.01457104,-0.08894685,0.2609863,0.3347891,0.276526
0.3757503,-0.2323912,-0.0768706,-0.6223409,0.07279605,-0.07642962,0.002096212,0.248014,0.05266205
0.4702144,-0.2264362,-0.05689712,-0.5276329,0.07884918,-0.05474481,-0.06674658,0.1166484,0.0134114
0.5116242,-0.1618609,0.02303795,-0.4859002,0.1435108,0.02691592,-0.1682857,0.01075894,0.07167409
0.6262404,-0.1218836,0.1024142,-0.3708627,0.1835575,0.1080267,-0.2500072,-0.09374613,0.1709741
0.7790074,-0.1707148,0.1168145,-0.217563,0.1347718,0.1241621,-0.3113044,-0.2014515,0.2239534
0.9147003,-0.2236945,0.1481736,-0.08122042,0.0818079,0.1572461,-0.3857343,0.04315248,0.1859333
0.9922526,-0.2566511,0.2359627,-0.002903572,0.04883387,0.2467384,-0.270496,0.2728341,0.1743354
0.9601247,-0.2439064,0.2849681,-0.03415929,0.06152639,0.2974117,-0.3434409,0.07381572,0.1036482
1.040502,-0.2418754,0.2640602,0.04718894,0.06347022,0.2781209,-0.338355,-0.1667986,-0.04406233
1.143918,-0.3498004,0.2255735,0.1516624,-0.04457676,0.2411856,-0.1425947,-0.3965629,-0.2117668
1.271231,-0.6518736,0.09197441,0.2801065,-0.3468023,0.10906,0.02178777,-0.5197886,-0.2759369
1.617005,-0.9351198,-0.09543279,0.6270623,-0.6302174,-0.07695805,0.54991,-0.3348667,-0.2506902
1.731324,-0.7681944,-0.1417713,0.7425855,-0.4634536,-0.1219909,0.9295307,-0.1274837,-0.2955867
1.280831,-0.504922,-0.1512278,0.2932829,-0.2003108,-0.1302185,0.6001686,-0.09095078,-0.2921523
0.897992,-0.5904611,-0.2601472,-0.08840608,-0.2859309,-0.237977,0.198697,-0.2240583,-0.2668671
1.114006,-0.6227881,-0.282361,0.1287091,-0.3182789,-0.2590863,0.3326213,-0.3602842,-0.2892142
1.315255,-0.5768632,-0.1840296,0.3310052,-0.2723048,-0.1596943,0.602968,-0.2455394,-0.2894447
1.122331,-0.6270157,-0.1354488,0.1390669,-0.3223277,-0.1100862,0.7929107,-0.1529333,-0.3826972
0.9753071,-0.533531,-0.1090338,-0.00704122,-0.228624,-0.08267015,1.244384,-0.3600554,-0.5799964
0.7629732,-0.409436,-0.1248534,-0.21853,-0.1042149,-0.09751045,1.36446,-0.5105668,-0.707037
0.5679391,-0.2817957,-0.1878343,-0.4127807,0.02383549,-0.1595295,1.293366,-0.5364402,-0.6316701
0.668082,-0.1354862,-0.1788224,-0.3118995,0.1706448,-0.1495683,1.505498,-0.6675837,-0.4522013
0.6234492,-0.1787905,-0.1859292,-0.35582,0.1279182,-0.1557323,1.358454,-0.7045704,-0.3718408
0.5438425,-0.2245879,-0.1790621,-0.4347222,0.08276268,-0.1479231,1.229707,-0.5754015,-0.4634194
0.5657128,-0.2271338,-0.109104,-0.4121366,0.08091079,-0.07701881,1.299717,-0.4858304,-0.6378967
0.4919154,-0.2312711,-0.1059667,-0.4851887,0.07750944,-0.07292841,1.192437,-0.4839547,-0.6392983
0.5771441,-0.1443596,-0.0874692,-0.3991662,0.165189,-0.05346966,1.220485,-0.50086,-0.5101104
0.6524433,-0.07976731,-0.05019801,-0.3230086,0.2305704,-0.0152293,1.182087,-0.5360187,-0.3794597
0.6924151,0.02959724,-0.05853903,-0.2821019,0.3407311,-0.02259453,0.9597634,-0.6558652,-0.1676987
0.8735696,0.1281852,-0.04592887,-0.09992916,0.4401045,-0.009003954,0.7519023,-0.7293163,-0.09696937
1.015404,0.08069534,-0.02055556,0.04300688,0.3933689,0.01735196,0.5900672,-0.5692601,-0.166578
1.255297,0.06179088,0.04796888,0.2840778,0.375167,0.08685778,0.3981062,-0.3505451,-0.1166319
1.400202,0.07283254,0.1313798,0.4302191,0.3868411,0.1712432,0.1675662,-0.2709143,0.02129982
1.409751,0.009279297,0.1177366,0.4410376,0.3238342,0.1585593,0.1634692,-0.07341342,0.308404
1.620709,-0.1774565,-0.06011448,0.6532714,0.1375463,-0.01835604,0.004566155,0.302652,0.536709
1.69257,-0.4815822,-0.2776434,0.7263793,-0.1662343,-0.2349759,-0.4758497,0.5368396,0.3664152
1.57155,-0.7591566,-0.2430559,0.606545,-0.4435587,-0.1995014,-0.696044,0.6062165,0.1869694
1.412801,-0.9249255,-0.1290681,0.4488877,-0.6091515,-0.08464045,-0.35426,0.5006353,0.3068952
1.184632,-0.9262293,-0.1683965,0.2216936,-0.6103229,-0.1231031,0.344263,0.3799023,0.4527391
1.220983,-0.7572137,-0.1530118,0.2588901,-0.4411864,-0.1068559,0.5748495,0.5756539,0.5727887
1.320679,-0.5393041,-0.1178017,0.3592944,-0.2231413,-0.07078319,0.3617309,0.7526417,0.6591622
1.184844,-0.3379557,-0.1077362,0.2240239,-0.02162717,-0.05985278,0.1636492,0.6882353,0.6118236
1.103147,-0.2498219,-0.03367073,0.1427436,0.06670704,0.01508053,-0.2735522,0.5922441,0.631161
0.9087606,-0.3346835,-0.0139731,-0.05137531,-0.01792192,0.03564745,-0.4323264,0.4200686,0.6434028
0.559506,-0.3642719,0.00349527,-0.4005007,-0.04724881,0.0539831,-0.1043042,0.2219097,0.5590379
0.414452,-0.3079775,0.01506191,-0.5455431,0.009333928,0.06641052,0.1680731,0.0824562,0.5362214
0.3544762,-0.2874548,-0.03369068,-0.6055938,0.03016968,0.01850767,0.3561688,0.01546381,0.4160599
0.3460582,-0.2015417,-0.0212597,-0.6141381,0.1164166,0.0317736,0.345881,0.1220399,0.2557414
0.3834084,-0.1432799,-0.02331095,-0.5769305,0.1750266,0.0305397,0.1445952,0.2207716,0.1102988
0.3461485,-0.1399392,-0.006856296,-0.6143169,0.1787209,0.04779154,-0.07119466,0.1568718,-0.07716314
0.4002957,-0.08394937,0.07766054,-0.5602502,0.2350593,0.1330821,-0.2344049,0.0889502,-0.0846073
0.4798265,-0.09387083,0.09762004,-0.4807276,0.2254701,0.1537867,-0.3326601,-0.02049186,-0.04625534
0.5761719,-0.1648106,0.1312581,-0.3842965,0.1548356,0.1881342,-0.4483273,-0.1590869,-0.06439677
0.780712,-0.2578939,0.2037943,-0.1795625,0.06202236,0.2613358,-0.4190456,-0.02917666,-0.0903036
0.9169392,-0.3169226,0.2707002,-0.04302738,0.003224623,0.3288525,-0.3198408,0.1484572,-0.1679114
1.023676,-0.2568897,0.3223581,0.06412867,0.06344897,0.3810538,-0.3464233,0.05044898,-0.1737901
1.137904,-0.2287731,0.3187058,0.1788781,0.09171757,0.3778631,-0.4597145,-0.02066878,-0.2292332
1.233952,-0.2435365,0.3494254,0.2755335,0.07706566,0.4089476,-0.6496156,-0.09543876,-0.3393538
1.300295,-0.279664,0.3334002,0.3425517,0.04100782,0.3931766,-0.6686512,-0.3392378,-0.3250396
1.317791,-0.5223287,0.1129632,0.3607686,-0.2016279,0.1728712,-0.4883429,-0.3896109,-0.3044439
1.571739,-0.8647936,-0.09551943,0.6154569,-0.5440952,-0.03560723,-0.1410861,-0.2362967,-0.316158
1.794397,-0.9116997,-0.06545707,0.838846,-0.5910151,-0.00566392,0.5240447,-0.1008749,-0.3093912
1.342858,-0.6295117,-0.04110531,0.3879947,-0.308826,0.01845433,0.844207,-0.03923756,-0.3287226
0.8208476,-0.4413998,-0.1934435,-0.1333974,-0.1206777,-0.134222,0.535591,-0.2081356,-0.449202
0.9966889,-0.488125,-0.2596839,0.04298553,-0.1673204,-0.2008931,0.4325425,-0.3836678,-0.5689277
1.2507,-0.5493883,-0.2859202,0.2974626,-0.2284498,-0.2276369,0.6290535,-0.2581146,-0.5131308
1.189465,-0.5643416,-0.3270781,0.2366159,-0.2432118,-0.2693612,0.9278711,-0.1217135,-0.4758955
1.113608,-0.5429652,-0.1991728,0.1610622,-0.2215798,-0.1420637,1.594836,-0.142801,-0.6305635
0.8829393,-0.4769783,-0.1418492,-0.06939329,-0.1552668,-0.08537449,2.143753,-0.1601251,-0.7634915
0.7420957,-0.3919287,-0.187697,-0.2101084,-0.06981744,-0.1318726,2.165953,-0.2946566,-0.7185129
0.798961,-0.2801852,-0.1683905,-0.1531886,0.04239859,-0.1132237,2.086071,-0.5826989,-0.5690814
0.6411242,-0.136262,-0.1801071,-0.3110302,0.1868609,-0.1255966,2.000676,-0.7271175,-0.4197573
0.6330233,-0.08077201,-0.1703061,-0.3191785,0.2429446,-0.1164427,1.852146,-0.655944,-0.4028819
0.7211307,-0.1774112,-0.1540742,-0.2311431,0.1469387,-0.1008416,1.749588,-0.5768923,-0.5104102
0.6124589,-0.2047887,-0.130703,-0.3398948,0.1202199,-0.07807874,1.713393,-0.4947627,-0.5576126
0.6615059,-0.1542288,-0.08429108,-0.2909196,0.1714524,-0.03224831,1.722568,-0.2882116,-0.5388852
0.6802667,-0.1464094,-0.0995479,-0.2722077,0.1799478,-0.04805702,1.63676,-0.2266168,-0.4665276
0.6606555,-0.05549825,-0.06795573,-0.2918313,0.2715267,-0.01698561,1.546721,-0.3622036,-0.3112319
0.7997185,0.03336711,-0.03298933,-0.152733,0.3610384,0.01749169,1.414375,-0.3765388,-0.1999281
0.8829216,0.0414497,-0.02273162,-0.06943982,0.3697297,0.0272911,1.129452,-0.4519161,-0.139117
0.9689839,0.05840273,0.06734828,0.01676932,0.3872367,0.116941,1.086751,-0.564542,-0.04492774
1.046068,0.05808568,0.1436972,0.0940538,0.3874016,0.1928832,1.114005,-0.4992229,0.05312567
1.137894,0.06674514,0.173696,0.1861271,0.3964552,0.2224905,0.8735853,-0.4548699,0.0809498
1.295432,0.04503295,0.1939135,0.3439457,0.3750344,0.2423212,0.6798122,-0.3442805,0.0853917
1.341048,-0.07064137,0.1984156,0.3898606,0.2595364,0.24643,0.633551,-0.2122852,0.2358495
1.387169,-0.2704353,0.1072671,0.4362783,0.05979617,0.1548716,0.6055341,-0.211209,0.382334
1.462906,-0.4918446,-0.08153623,0.5122869,-0.1616806,-0.03436526,0.3498661,-0.2028747,0.2622876
1.450798,-0.5940459,-0.1548113,0.5004031,-0.2640597,-0.1080976,0.01823784,-0.2809119,0.1445505
1.412482,-0.6474072,-0.1104541,0.462241,-0.3176907,-0.06421645,0.1286499,-0.3344661,0.2674637
1.323856,-0.6438621,-0.1259092,0.3736796,-0.3144856,-0.08015953,0.3595637,-0.1343379,0.3227073
1.218787,-0.5097954,-0.1714143,0.2685697,-0.1808078,-0.1261581,0.3426813,0.2006464,0.2223712
1.249983,-0.4147431,-0.1415938,0.299611,-0.08617658,-0.09682973,0.1614315,0.4144376,0.1998195
1.320763,-0.2773952,-0.08820696,0.3701139,0.05072831,-0.04392724,-0.222779,0.3560495,0.2347761
1.259586,-0.1442593,-0.05945295,0.3085321,0.1834028,-0.01564551,-0.4094462,0.2740375,0.341904
1.140014,-0.2754063,-0.02270458,0.1884209,0.05177445,0.02064474,-0.1919134,0.3112055,0.5013425
0.9174873,-0.4285577,-0.01692086,-0.03478015,-0.10188,0.02598476,0.02962268,0.3834736,0.5040367
0.6306957,-0.4427714,-0.01825713,-0.3223722,-0.1166147,0.0242184,0.301102,0.4725816,0.4638164
0.5525226,-0.3949312,-0.008405352,-0.4014523,-0.06930656,0.03365259,0.5516179,0.3722499,0.4801221
0.5419693,-0.2746373,-0.02476161,-0.4129919,0.05045052,0.01689006,0.511213,0.1993272,0.3721368
0.4893345,-0.2072736,-0.01751767,-0.4666631,0.1172748,0.02373806,0.4707801,0.2424133,0.1801886
0.4960481,-0.1659822,-0.01328733,-0.4610071,0.158022,0.02758194,0.3970949,0.2962863,0.07876331
0.4797789,-0.1206876,-0.009003757,-0.4783265,0.2027626,0.0314876,0.1401526,0.2770034,0.07323581
0.4867611,-0.1649298,0.03662379,-0.472361,0.1579498,0.07674441,0.04365411,0.2424885,0.06902468
0.5082264,-0.1948058,0.07762636,-0.4518539,0.1274809,0.1173809,0.06746265,0.1203205,0.02745504
0.5312526,-0.2110085,0.1468053,-0.4297055,0.1106584,0.1861938,0.02953075,-0.02768277,0.009235964
0.6474158,-0.2332498,0.2490536,-0.3143209,0.087768,0.2880691,0.06197509,-0.2412263,0.04918535
0.8030744,-0.1876745,0.3096834,-0.1593285,0.1326633,0.348308,0.1086072,-0.3999848,0.09083608
0.9878452,-0.1567569,0.3166757,0.024894,0.1628679,0.3548783,0.08033669,-0.3187548,0.1077336
1.101004,-0.1697778,0.3634555,0.137619,0.1490984,0.4011903,0.05964622,-0.305682,0.1332366
1.144759,-0.1945333,0.4465152,0.181044,0.1235554,0.4837208,0.005226461,-0.3650693,0.1417764
1.27903,-0.2517035,0.3905329,0.3150755,0.06555713,0.427132,-0.1345329,-0.3361049,0.1070103
1.367414,-0.4173712,0.1986864,0.4032886,-0.100978,0.2345869,-0.1642269,-0.4888852,0.06698748
1.398361,-0.7584624,-0.007080803,0.4341135,-0.4429681,0.02802175,0.1436234,-0.6988266,0.01358201
1.487183,-0.9661622,-0.09736985,0.5228362,-0.651579,-0.06316279,0.6929273,-0.6711744,-0.08994718
1.522324,-0.7464423,-0.08871177,0.5578737,-0.4327545,-0.05548865,0.9948415,-0.4799713,-0.2029597
1.425011,-0.5471056,-0.1994287,0.4604291,-0.2342708,-0.1672657,0.8276198,-0.3197697,-0.2629244
1.126648,-0.6792356,-0.2901333,0.1618832,-0.3671928,-0.2590916,0.7216393,-0.3558031,-0.3133102
0.8473964,-0.6936393,-0.2866104,-0.1176132,-0.3823127,-0.2567336,0.8803878,-0.3244238,-0.3732057
1.041324,-0.5565929,-0.3207175,0.07600904,-0.2458927,-0.2920298,0.9921689,-0.05240833,-0.3396013
1.268312,-0.5165134,-0.2324668,0.3026339,-0.2063388,-0.2049737,1.217088,0.04423018,-0.3125404
0.9537505,-0.4201413,-0.1585607,-0.01235002,-0.1103853,-0.1322521,1.457894,-0.1972249,-0.4512798
0.7290938,-0.3824061,-0.195747,-0.2374872,-0.07296028,-0.1706007,1.485529,-0.5441016,-0.5588773
0.811253,-0.3952195,-0.1831612,-0.1558572,-0.085977,-0.1591451,1.60794,-0.760041,-0.5061746
0.6986664,-0.2695109,-0.2179566,-0.2690074,0.03963157,-0.1950295,1.681341,-0.7513107,-0.4487009
0.6560137,-0.2392415,-0.2143533,-0.3122422,0.06989776,-0.1924646,1.707663,-0.6897408,-0.4516168
0.7090392,-0.2669216,-0.1766411,-0.2598004,0.04230254,-0.1557317,1.92885,-0.6487902,-0.5053753
0.5970605,-0.2177183,-0.1922941,-0.3723477,0.09166912,-0.1722974,1.96853,-0.5089761,-0.6028636
0.5998181,-0.1987746,-0.1350224,-0.3701262,0.1108445,-0.1158657,1.863518,-0.2331202,-0.6785234
0.6077378,-0.177107,-0.1108689,-0.3626928,0.1328018,-0.09247539,1.79552,0.04395939,-0.6966304
0.5241314,-0.1697179,-0.1253239,-0.4467184,0.1405271,-0.1076143,1.616864,0.06801322,-0.6423435
0.5842235,-0.1565356,-0.1019454,-0.3869617,0.154081,-0.08483925,1.408955,-0.04198247,-0.5141915
0.6815798,-0.06937111,-0.03858644,-0.2898418,0.2416406,-0.02200297,1.277545,-0.03507475,-0.4196654
0.7969128,0.03315637,0.07520672,-0.1746355,0.3445733,0.09134602,1.239318,-0.07973426,-0.3608838
0.9524412,0.05381421,0.08731557,-0.0191202,0.3656299,0.1030833,1.106939,-0.1254023,-0.2114365
1.092721,0.005136288,0.07594534,0.1212562,0.3173262,0.09140551,0.9572323,-0.07445753,-0.02225336
1.292542,0.018696,0.1298194,0.3212741,0.3312189,0.145027,0.9121121,-0.08394498,0.1103372
1.422258,0.0220388,0.1486042,0.4512654,0.3348383,0.1636047,0.7153092,-0.03770898,0.183559
1.436465,-0.011522,0.1719653,0.4658037,0.3014843,0.1867936,0.5145133,7.274744e-05,0.2780199
1.478466,-0.03236126,0.1735369,0.5081617,0.2807703,0.1882169,0.3577818,-0.05278881,0.4228245
1.532442,-0.157069,0.1360264,0.5624934,0.1560973,0.1505713,0.1734912,-0.04192008,0.451456
1.600966,-0.2617368,0.07476141,0.6313435,0.05136961,0.08917568,-0.07075258,-0.02991576,0.3368855
1.623125,-0.3305289,-0.0005146437,0.6537679,-0.01757587,0.01376741,-0.4903986,0.01684604,0.2383491
1.517136,-0.5412058,0.008705356,0.5479565,-0.2284924,0.022851,-0.4821284,0.07400396,0.2956704
1.382321,-0.6617534,0.02127674,0.4132076,-0.3493525,0.03528096,-0.01321627,0.1049564,0.5038456
1.231198,-0.5616069,-0.05693824,0.2620219,-0.2495722,-0.04308066,0.197538,0.2075072,0.6254694
1.055834,-0.4907351,-0.1251855,0.0864583,-0.1791011,-0.1114782,-0.01076487,0.306514,0.485818
0.9953699,-0.4271139,-0.1240789,0.02565987,-0.1159004,-0.1105216,-0.4994397,0.3516567,0.258704
1.031056,-0.2504613,-0.06863038,0.06088201,0.06032166,-0.05521712,-0.8147712,0.1783737,0.2889091
1.058315,-0.211955,-0.01050709,0.08755629,0.09839067,0.002771708,-0.8574048,-0.0306843,0.5281438
1.122378,-0.3204611,-0.001054308,0.1509199,-0.01055983,0.012101,-0.6849998,0.1369994,0.744578
1.006068,-0.3558611,-0.0146619,0.03380115,-0.04641159,-0.001619503,-0.2577968,0.3160242,0.8464762
0.6434568,-0.4040409,-0.01393507,-0.3297211,-0.09504762,-0.0009956657,-0.05123559,0.2559461,0.7015518
0.4595833,-0.3708398,-0.0051053,-0.5145889,-0.06230234,0.007740512,0.05475339,0.1533423,0.5390674
0.4370374,-0.2508454,-0.001655831,-0.5381844,0.05724074,0.01110517,0.1923919,0.02653301,0.4411786
0.4491492,-0.2555617,0.001112165,-0.5271445,0.05207905,0.01379628,0.1440818,0.02339332,0.2585253
0.5050964,-0.2196504,0.01390562,-0.4722602,0.08754919,0.02651971,0.05512989,0.1108214,0.2630054
0.4758777,-0.1598869,0.05286461,-0.5025043,0.1468728,0.06541395,-0.2421142,0.05355648,0.3392546
0.5205965,-0.1989349,0.1179984,-0.4587482,0.1073817,0.1304853,-0.5354343,-0.06660611,0.3510774
0.6209684,-0.2310721,0.1675313,-0.3592542,0.07479358,0.1799531,-0.5309167,-0.1557832,0.4426755
0.7467487,-0.3211761,0.2054315,-0.23425,-0.01577155,0.2177779,-0.3826523,-0.08556263,0.3782782
0.9081356,-0.3851157,0.2627414,-0.07352804,-0.08018205,0.2749929,-0.1390913,0.1210772,0.1850927
0.873715,-0.3192428,0.3169169,-0.1084996,-0.01478613,0.3290427,-0.09807904,0.1151511,0.03703963
0.8804388,-0.27044,0.3662311,-0.1022137,0.03353695,0.3781876,-0.1642278,-0.07212105,-0.02818752
1.007981,-0.2681832,0.3840506,0.0250008,0.03531279,0.3957796,-0.1918011,-0.414848,-0.02177118
1.097059,-0.358636,0.3041051,0.1138563,-0.05562174,0.3155344,-0.388814,-0.8316393,-0.1321806
1.285293,-0.5868335,0.136227,0.3019601,-0.2842982,0.147273,-0.4261805,-0.8104429,-0.2610841
1.557375,-0.746419,-0.0009279903,0.5739885,-0.4443498,0.009646855,-0.0706848,-0.5424059,-0.3731229
1.75531,-0.6611972,0.003682288,0.7719175,-0.3595639,0.01370058,0.3552896,-0.3844767,-0.4652391
1.479936,-0.4612472,-0.02758982,0.4965491,-0.1600023,-0.01820705,0.3863654,-0.2692866,-0.3077092
0.9349833,-0.3581802,-0.2106493,-0.04841364,-0.05726527,-0.2019722,0.1294565,-0.3419833,-0.1604123
0.9011826,-0.4104732,-0.2775403,-0.08225247,-0.1098259,-0.2696261,-0.03743643,-0.3878364,-0.1849491
1.178513,-0.5326939,-0.239563,0.1950116,-0.23225,-0.2324519,-0.1875031,-0.2079104,-0.1801421
1.305453,-0.5574992,-0.2395842,0.3218559,-0.2571898,-0.2332988,-0.0001474776,-0.02933241,-0.2191656
1.209641,-0.5333929,-0.1636723,0.2259107,-0.233142,-0.1582195,0.5270551,0.06937652,-0.3657721
1.004956,-0.5263616,-0.1219939,0.02104504,-0.2260863,-0.117368,0.8423297,-0.06438006,-0.5745746
0.8563785,-0.3656534,-0.1617066,-0.1277624,-0.06526581,-0.1578923,1.016717,-0.2801587,-0.6436731
0.6079766,-0.1445165,-0.146533,-0.376436,0.1560707,-0.1435063,0.9861545,-0.2805192,-0.5229974
0.5724602,-0.06483543,-0.1374253,-0.41225,0.23603,-0.1351546,0.8945997,-0.3298752,-0.4551731
0.7277564,-0.09310566,-0.1357676,-0.2572567,0.2081016,-0.1342142,0.9780514,-0.4248821,-0.3971119
0.5314531,-0.1547947,-0.1214859,-0.4538487,0.1468019,-0.120605,0.7422548,-0.324727,-0.4458783
0.478055,-0.1943186,-0.1013844,-0.5075019,0.1077014,-0.1011261,0.4859985,-0.2076503,-0.606571
0.5954988,-0.1919026,-0.05309883,-0.3902587,0.1105639,-0.0534097,0.5980094,-0.1611626,-0.547403
0.5585284,-0.1424229,-0.04303233,-0.4273553,0.1605044,-0.04385723,0.6110189,-0.1312488,-0.4661987
0.6887872,-0.104352,-0.03454509,-0.2971323,0.1990408,-0.03582868,0.5582521,-0.1963651,-0.401373
0.7256278,-0.07624154,-0.01172732,-0.2602256,0.2276106,-0.01341507,0.5652012,-0.3368917,-0.1603108
0.7810629,-0.02380626,-0.01634086,-0.2046151,0.2804873,-0.01837971,0.4744608,-0.3744524,-0.01499552
1.085221,0.01436466,0.01675322,0.09982932,0.3190685,0.01441417,0.3136791,-0.2741482,0.01167299
1.22347,0.08418429,0.05352031,0.2384698,0.3892529,0.05092893,0.1327688,-0.1885035,0.039485
1.278258,0.1198771,0.07064449,0.2937372,0.425249,0.06784426,-0.1090416,-0.1745883,0.07371833
1.310979,0.1254426,0.1044087,0.3270058,0.4310393,0.1014375,-0.4238811,-0.1925148,0.1590343
1.338562,0.1368169,0.1073831,0.355182,0.4425432,0.1042722,-0.5506222,-0.1838921,0.2253729
1.460366,-0.04040527,0.06751391,0.4776025,0.2653404,0.06428796,-0.4889331,-0.09556891,0.352072
1.497649,-0.3776945,-0.07264753,0.5154981,-0.07204767,-0.07596889,-0.5860639,0.1136655,0.4249928
1.500677,-0.6299011,-0.2412137,0.5191108,-0.3244669,-0.2446108,-0.8460783,0.317715,0.2105856
1.46315,-0.5999956,-0.1917092,0.4821138,-0.2948711,-0.1951566,-1.034266,0.2752568,0.06448009
1.354095,-0.5176695,-0.09594314,0.3735121,-0.2129302,-0.0994074,-0.8360492,0.2779356,0.2781011
1.30233,-0.62175,-0.1391225,0.322105,-0.3174507,-0.1425644,-0.4145047,0.6000328,0.5048937
1.294653,-0.574266,-0.09844559,0.3146791,-0.2704426,-0.1018222,-0.3701881,0.859172,0.4630162
1.293637,-0.4049705,-0.03103546,0.3137975,-0.1016414,-0.03430162,-0.6228012,0.8935133,0.4281174
1.256465,-0.2655682,-0.03021608,0.2766339,0.03725982,-0.03332635,-0.9285603,0.7293889,0.5515959
1.135241,-0.1647996,0.00584097,0.1552881,0.1375246,0.002930206,-1.148332,0.4172084,0.6720897
0.8609978,-0.3098234,-0.01384157,-0.1192065,-0.008007025,-0.01651201,-0.8957444,0.3091728,0.8077092
0.5565773,-0.3788279,-0.02840197,-0.4239986,-0.07752386,-0.03079419,-0.482835,0.404959,0.818164
0.4470566,-0.2810578,-0.002500094,-0.533988,0.01973185,-0.004578816,-0.3212935,0.4579344,0.6226763
0.4332701,-0.2687368,-0.02045129,-0.5483091,0.0315389,-0.0221837,-0.2536184,0.4612649,0.394339
0.4237813,-0.1811908,0.008940149,-0.5583649,0.1185715,0.007584185,-0.3129259,0.4858186,0.1732906
0.4206229,-0.1238757,0.01726686,-0.5620903,0.1753709,0.01631447,-0.3970754,0.5082381,0.1049537
0.4177346,-0.1336073,0.005739351,-0.5655151,0.165116,0.005214249,-0.4458132,0.3797925,0.1239219
0.4730969,-0.1102472,0.05214341,-0.510631,0.1879386,0.0520656,-0.5477874,0.2479125,0.05614329
0.519186,-0.1557718,0.08358494,-0.4649371,0.1418558,0.08397,-0.5411008,0.2891736,0.01326029
0.5458687,-0.1877467,0.1613643,-0.4385463,0.1092971,0.1622217,-0.5568066,0.2508045,-0.03303327
0.6826746,-0.2004671,0.2517962,-0.301913,0.09596391,0.2531267,-0.5924689,0.02784082,-0.009187226
0.9330673,-0.2032195,0.2837968,-0.05156393,0.09256805,0.2855893,-0.4800688,-0.237671,0.06501166
1.110774,-0.1875001,0.2974872,0.1262271,0.1076122,0.2997169,-0.462712,-0.4481988,-0.03309935
1.138533,-0.2100606,0.2902794,0.1541901,0.0843439,0.2929071,-0.6024801,-0.5080106,-0.1631711
1.206476,-0.2296408,0.2880957,0.2224384,0.06402291,0.2910688,-0.7324704,-0.4973532,-0.2736034
1.305572,-0.3679475,0.2110121,0.3219252,-0.07505624,0.2142664,-0.6717527,-0.6241524,-0.3439448
1.380737,-0.672196,0.02217504,0.3975427,-0.3801024,0.02563818,-0.4035268,-0.8443949,-0.2798774
1.607273,-0.864741,-0.1344948,0.6245701,-0.573454,-0.1308961,-0.08425319,-0.8620381,-0.2541654
1.705053,-0.7289142,-0.189488,0.7228481,-0.4384184,-0.1858201,0.2356964,-0.2969008,-0.2409465
1.202659,-0.5195616,-0.2116718,0.2209267,-0.2298166,-0.2079893,0.3077626,0.3568254,-0.2344817
0.6756377,-0.5557737,-0.2230956,-0.3056655,-0.266722,-0.2194392,0.2292544,-0.04950691,-0.3509044
0.9591173,-0.6713585,-0.1671785,-0.02180268,-0.3829298,-0.1635753,0.4129838,-0.6819001,-0.4248754
1.386728,-0.7661531,-0.1566502,0.4061505,-0.4782634,-0.1531155,0.7976109,-0.4318538,-0.4289442
1.277073,-0.7647639,-0.1856815,0.296791,-0.4773123,-0.1822206,1.42502,-0.1510645,-0.4821861
1.074374,-0.5791261,-0.1585521,0.09433109,-0.291995,-0.1551612,2.117636,0.04173236,-0.5973175
0.8280692,-0.4350935,-0.1950719,-0.1517993,-0.1481541,-0.1917384,2.282882,0.1012503,-0.6651869
0.7550667,-0.2895317,-0.2139417,-0.2246856,-0.002652389,-0.2106446,2.044485,-0.2340296,-0.5656768
0.9287692,-0.1693046,-0.1865856,-0.05091466,0.117641,-0.1832954,1.902071,-0.3041719,-0.501327
0.8106589,-0.19231,-0.2074896,-0.1689936,0.09481684,-0.2041686,1.802471,-0.4774506,-0.6031815
0.8172309,-0.1594764,-0.1928361,-0.1624178,0.1279331,-0.1894395,1.682596,-0.5846124,-0.6728669
0.8586501,-0.1876907,-0.1934582,-0.121013,0.1000888,-0.1899345,1.888287,-0.2838388,-0.6513668
0.6235609,-0.2853301,-0.1954842,-0.3561246,0.00289443,-0.1917761,2.166701,-0.3425851,-0.6385817
0.6471438,-0.2464473,-0.1641374,-0.3325589,0.04228758,-0.1601827,2.13409,-0.230399,-0.6140606
0.6406458,-0.1462615,-0.1634829,-0.3390529,0.1430404,-0.1592155,2.130901,0.02237103,-0.5178097
0.6233644,-0.009085793,-0.142208,-0.3562932,0.2808287,-0.1375591,2.037156,0.04585666,-0.4589182
0.7412072,0.07943006,-0.1226569,-0.2383578,0.3699869,-0.1175564,1.686711,0.347153,-0.4548843
0.652387,0.07870827,-0.06482564,-0.3270221,0.3699175,-0.05920312,1.335724,0.4099573,-0.3938266
0.6563744,0.1297964,0.07146219,-0.3228053,0.4216465,0.07767422,0.9706282,0.2417417,-0.3295321
0.6809496,0.1985669,0.1712798,-0.2979168,0.4910246,0.1781416,0.7535929,0.0815969,-0.2411112
0.74658,0.1909012,0.2133606,-0.2318808,0.4839109,0.2209203,0.5197385,-0.1805215,-0.06527937
1.023182,0.1067355,0.2450254,0.04522368,0.4002198,0.2533159,0.2407261,-0.04870584,0.1326467
1.159146,0.005180088,0.3080015,0.1817824,0.2990439,0.3170388,0.3931916,0.1638465,0.3242607
1.248314,-0.02778688,0.3625762,0.2716247,0.2663487,0.3723585,0.4547797,0.1126491,0.464117
1.360668,-0.008790997,0.37294,0.3847134,0.2855004,0.3834458,0.2821213,0.04179156,0.5678862
1.465355,-0.03825265,0.362194,0.490172,0.2560723,0.3733825,0.3263383,-0.1303603,0.6916557
1.597096,-0.1484034,0.2620582,0.6226936,0.1458284,0.2738709,0.2183361,-0.2890799,0.7698794
1.668816,-0.3333504,0.05385997,0.6951732,-0.03933822,0.06622529,-0.05869962,-0.2558919,0.7563231
1.709677,-0.4828436,-0.1176869,0.7367375,-0.1891702,-0.104845,-0.59007,-0.2427061,0.6368375
1.52249,-0.4991577,-0.1022126,0.5501649,-0.2059281,-0.08896639,-1.134485,-0.3371368,0.5242289
1.242633,-0.5280671,-0.06422114,0.2708072,-0.2353677,-0.0506352,-0.6853127,-0.3122738,0.6439858
1.235117,-0.5393362,-0.1840943,0.2636588,-0.2472346,-0.1702249,-0.1565609,-0.1278692,0.791527
1.282578,-0.4589732,-0.2329092,0.3113511,-0.1675186,-0.2188031,-0.5096446,0.1846361,0.6706304
1.202422,-0.410425,-0.1398058,0.2312822,-0.1196509,-0.1254982,-0.6945914,0.4128174,0.5425331
1.099423,-0.3424474,-0.04535817,0.1282243,-0.05237556,-0.0308745,-0.6546089,0.2707756,0.5530267
1.02445,-0.3391915,0.006771644,0.05304817,-0.04983545,0.02141174,-0.7334851,0.1261315,0.6444921
0.9194727,-0.4430892,-0.02546697,-0.05226997,-0.1544558,-0.01068807,-0.4194732,0.1438496,0.8164016
0.7929601,-0.4575095,-0.04252529,-0.1792506,-0.1695976,-0.02762412,-0.09205886,0.2108398,0.7797918
0.7271382,-0.4347056,-0.02111368,-0.2456511,-0.1475048,-0.006105281,0.05949638,0.3634979,0.6153826
0.6175946,-0.3454235,-0.003490765,-0.3558634,-0.05891461,0.01161128,0.2837904,0.2651352,0.5409732
0.4609884,-0.219065,0.04760938,-0.5132039,0.06677629,0.06279187,0.2530234,0.06078217,0.367524
0.4796494,-0.2304576,0.03422444,-0.4953146,0.05474099,0.04947321,0.1511824,0.05822293,0.2265605
0.5591849,-0.1846331,0.00487188,-0.4165587,0.09994487,0.02017121,0.0122895,0.004020102,0.1523189
0.4956223,-0.07708202,0.03100523,-0.480882,0.2068929,0.04633838,-0.3069586,0.007644052,0.08976072
0.4990452,-0.09676842,0.02056876,-0.4781767,0.1866139,0.03591825,-0.5151333,0.03850822,0.1686525
0.5625657,-0.1483482,0.03922406,-0.4153078,0.1344436,0.05457157,-0.7511193,-0.1150256,0.1984904
0.598902,-0.2105928,0.1069807,-0.3795373,0.0716041,0.1223065,-0.8644985,-0.1759941,0.2040041
0.785334,-0.2905497,0.1658988,-0.1935703,-0.008955306,0.1811796,-0.7409306,-0.0648202,0.2001226
0.9386019,-0.3117136,0.2356281,-0.04065855,-0.03072907,0.2508347,-0.7275388,0.09835745,0.08517511
1.005499,-0.3032807,0.284419,0.02599143,-0.02291057,0.2995135,-0.7190819,0.1939952,0.05004671
1.093521,-0.2938972,0.2962913,0.1138676,-0.01414291,0.311225,-0.7621903,0.1606382,-0.03917529
1.105407,-0.2747755,0.3054343,0.1257008,0.004364151,0.3201469,-0.8859412,0.03294133,-0.2044286
1.195948,-0.3290894,0.28691,0.2162678,-0.05056081,0.3013303,-0.8474,-0.3014875,-0.2719468
1.318288,-0.6000657,0.1125153,0.3386983,-0.3221402,0.126563,-0.7335512,-0.5071977,-0.3278085
1.531084,-0.9626731,-0.0982224,0.5516279,-0.68533,-0.0846306,-0.4252269,-0.2258323,-0.2988458
1.795557,-0.9806734,-0.05161093,0.8162514,-0.7038676,-0.03855336,0.03508394,0.1080926,-0.2407269
1.348347,-0.6165034,-0.022751,0.3691752,-0.3401604,-0.01029728,-0.006595356,0.1004706,-0.2706876
0.6862155,-0.3896628,-0.2074496,-0.292862,-0.1136869,-0.1956599,-0.3763173,-0.1682385,-0.340118
0.8530477,-0.489021,-0.2508395,-0.1259789,-0.2133078,-0.2397619,-0.4919902,-0.3206263,-0.4199867
1.232853,-0.5653794,-0.2276028,0.253841,-0.2898208,-0.2172703,-0.507683,-0.009968655,-0.340306
1.313876,-0.5003387,-0.240337,0.3348424,-0.2248223,-0.2307664,-0.1858746,0.283021,-0.2445817
1.179696,-0.5134559,-0.1375287,0.2005948,-0.2378643,-0.1287223,0.401491,-0.07854543,-0.4148983
0.7954869,-0.5154606,-0.1150255,-0.183734,-0.2396729,-0.1069746,0.5225796,-0.4508374,-0.6423314
0.6211035,-0.3486325,-0.1546088,-0.3582863,-0.07252582,-0.1472961,0.5457329,-0.3477669,-0.6856224
0.6125093,-0.1905327,-0.143362,-0.3670828,0.08601297,-0.1367627,0.7809151,-0.4738134,-0.4679384
0.4933575,-0.1199877,-0.171437,-0.4864488,0.1571073,-0.165519,0.7672808,-0.6932626,-0.2385745
0.5402324,-0.1625403,-0.1497546,-0.4397768,0.1152,-0.1444786,0.5309341,-0.4853777,-0.3886032
0.5398244,-0.2274627,-0.1151614,-0.4403537,0.0510038,-0.1104816,0.3791575,-0.2654255,-0.5830993
0.4834778,-0.1682296,-0.1020576,-0.4968138,0.1110314,-0.09792311,0.4115172,-0.1329622,-0.5727673
0.5393388,-0.169058,-0.05539587,-0.4409909,0.1110539,-0.0517528,0.4480256,0.01887652,-0.6292427
0.4918004,-0.1465463,-0.03376962,-0.4884729,0.134461,-0.03056283,0.431184,-0.0878251,-0.5322317
0.569173,-0.01345255,-0.01073435,-0.4109329,0.2684818,-0.007909218,0.4304394,-0.2968831,-0.2838233
0.7931425,0.02701925,-0.02013059,-0.1866718,0.3098969,-0.01763424,0.2456025,-0.2529209,-0.2371927
1.017729,0.0452978,-0.0356028,0.03833519,0.3291172,-0.03338439,-0.1131641,-0.1229168,-0.1796625
1.261707,0.02636139,0.01645395,0.2828552,0.3111023,0.01844326,-0.308082,-0.0426697,-0.02613216
1.369612,-0.03973484,0.05407456,0.3914064,0.2458903,0.05588073,-0.2772511,0.02756071,0.09692715
1.490174,-0.06630042,0.09079135,0.5126927,0.2201576,0.09245569,-0.332456,0.04377753,0.2129005
1.603616,-0.09763356,0.1218944,0.6269063,0.1895954,0.1234518,-0.4507245,0.18306,0.3439839
1.605402,-0.128247,0.0822707,0.629476,0.1596825,0.08374877,-0.4433445,0.3201508,0.5840337
1.70632,-0.2520417,-0.07958454,0.7311567,0.03651292,-0.07816412,-0.5936854,0.2861344,0.6730696
1.791706,-0.3904541,-0.2674814,0.817246,-0.1013505,-0.2660975,-1.018851,0.3336657,0.3811643
1.649415,-0.4588006,-0.2173518,0.6755634,-0.1692187,-0.2159773,-1.314564,0.3397001,0.16944
1.361109,-0.5988287,-0.1257143,0.38774,-0.3088284,-0.1243133,-0.9776967,0.3578554,0.3435216
1.209741,-0.6546032,-0.1937178,0.2367101,-0.3642289,-0.1922476,-0.4087141,0.6828123,0.5201831
1.231172,-0.5731454,-0.1586915,0.2583254,-0.2824236,-0.1571041,-0.5113253,1.032955,0.466469
1.162494,-0.4903418,-0.0891167,0.189675,-0.1992819,-0.08735984,-0.8280908,1.052343,0.4600863
1.052419,-0.3383214,-0.067384,0.07947187,-0.04692125,-0.06540322,-0.9782881,0.7892558,0.5119505
1.013219,-0.2227404,0.01278739,0.03999311,0.06900721,0.01504582,-1.235819,0.575491,0.5462831
0.8993274,-0.2649746,0.004382952,-0.07432003,0.0271269,0.006969601,-1.120382,0.487802,0.6718017
0.6423077,-0.3098863,-0.03570463,-0.3318901,-0.01742724,-0.03274356,-0.889339,0.4921167,0.6834097
0.4041663,-0.3130757,-0.04694469,-0.5706885,-0.02025734,-0.04356669,-0.857524,0.5667837,0.5967167
0.3109735,-0.3054888,-0.08908078,-0.6646131,-0.01230986,-0.08524559,-0.6733781,0.5262545,0.5416194
0.3202601,-0.2536572,-0.06210954,-0.6560953,0.03988322,-0.05777799,-0.6722015,0.5662672,0.3644143
0.3789403,-0.23412,-0.05100641,-0.5981832,0.05978064,-0.0461402,-0.69411,0.6356347,0.1907682
0.4309999,-0.2046559,-0.03819179,-0.5468567,0.08960068,-0.03275409,-0.6602654,0.5238024,0.1113131
0.4863993,-0.1309091,0.0407422,-0.4921264,0.163694,0.04678558,-0.8483395,0.4871211,0.08909781
0.5535281,-0.1296953,0.08230512,-0.4255788,0.1652385,0.0889837,-0.8847946,0.4369305,0.1542169
0.6204168,-0.125219,0.1534289,-0.3591647,0.1700217,0.1607649,-0.9226738,0.3292477,0.1808209
0.7415036,-0.162093,0.2157805,-0.2384323,0.1334235,0.223786,-0.9849171,0.2966721,0.1666351
0.918156,-0.276195,0.2969963,-0.0620071,0.01956046,0.3056708,-0.9008101,0.2763426,0.1237399
1.073018,-0.2626977,0.4358994,0.09275417,0.03325771,0.4452264,-0.9103055,0.2225823,0.001915769
1.076215,-0.2311661,0.4038825,0.09596677,0.06495017,0.4138263,-0.9068254,-0.005189749,-0.1225326
1.130663,-0.3038557,0.3074403,0.1505355,-0.00761717,0.3179454,-0.9315574,-0.226487,-0.2312662
1.343241,-0.4333993,0.1780012,0.363324,-0.1370752,0.1889965,-0.9060909,-0.3222334,-0.254566
1.375703,-0.6352885,-0.05452387,0.3960649,-0.3389084,-0.04311809,-0.6255362,-0.3898551,-0.1810391
1.513684,-0.79982,-0.01497854,0.5343691,-0.503399,-0.003242045,-0.1665151,-0.2088214,-0.1403082
1.794763,-0.8874718,0.09070724,0.8157848,-0.5910029,0.1026985,0.2170178,0.1011904,-0.1264827
1.543067,-0.7530463,-0.08488086,0.5644061,-0.4564971,-0.07270699,0.02171032,0.1820693,-0.1553964
1.073245,-0.4100388,-0.1577681,0.09485131,-0.113355,-0.1454788,-0.3385475,-0.01926115,-0.2044098
0.960819,-0.3921561,-0.1790042,-0.01737308,-0.0952723,-0.1666574,-0.3929523,-0.1846003,-0.1749062
1.099718,-0.5350288,-0.2669398,0.1216604,-0.2378765,-0.2545812,-0.4667393,-0.01221122,-0.1634254
