accx,accy,accz,body_accx,body_accy,body_accz,body_gyrox,body_gyroy,body_gyroz
0.5523182,-0.1257202,0.2305961,-0.4580911,0.1387407,0.1802946,0.3985669,-0.3951176,0.2323602
0.7838001,-0.227117,0.2441071,-0.2269629,0.0370684,0.1954385,0.4794663,-0.1260382,0.3072883
0.855047,-0.3300477,0.3065896,-0.1559723,-0.0661551,0.2595899,0.5552936,-0.06662729,0.1495676
0.9058479,-0.3244286,0.3640359,-0.1053256,-0.06084404,0.3187217,0.7487189,-0.1825579,0.09559645
0.9723128,-0.3037059,0.4000363,-0.03891314,-0.04044008,0.3564039,0.6778642,-0.2753606,0.05449003
0.9873697,-0.2398822,0.4113474,-0.02381011,0.02305803,0.3693713,0.487756,-0.5475006,0.06894719
1.141536,-0.2237318,0.4007357,0.1304946,0.03887794,0.3603696,0.5185992,-0.7871048,0.09737945
1.173357,-0.3184992,0.3616273,0.1625364,-0.05622427,0.3228051,0.5164824,-0.925817,0.09348544
1.049721,-0.4477047,0.2225921,0.03919084,-0.1857663,0.1852317,0.5758662,-1.302097,0.288781
1.068987,-0.7237931,0.03738329,0.05880724,-0.4621844,0.001392233,0.9078573,-1.511545,0.3724681
1.127984,-0.9225207,-0.08849057,0.1182038,-0.6612174,-0.1232066,1.359192,-1.308289,-0.06490448
1.150076,-0.7368747,-0.1224217,0.140736,-0.4758273,-0.1559516,1.581061,-1.118019,-0.7114169
0.9748897,-0.5034538,-0.1467701,-0.03397823,-0.2425892,-0.1791929,1.215551,-1.123288,-0.8672338
0.7556955,-0.5366304,-0.2201976,-0.2526738,-0.2758603,-0.2515808,0.8884349,-1.006729,-0.6587288
0.935727,-0.575969,-0.1895097,-0.07211539,-0.3151962,-0.2199079,1.137235,-0.5299106,-0.664269
1.161366,-0.5270448,-0.1201455,0.1540813,-0.2661645,-0.1496008,1.428178,-0.02482718,-0.6425896
1.125018,-0.5541607,-0.08843287,0.1183167,-0.2930608,-0.1169775,1.67452,0.1470338,-0.6374009
0.9718509,-0.4308822,0.0118395,-0.03424935,-0.1694457,-0.01581993,1.770769,-0.2698918,-0.8799664
0.695722,-0.1676176,0.006812984,-0.3097625,0.09427333,-0.01998379,1.432997,-1.003507,-0.9488015
0.526192,-0.03459143,-0.09397048,-0.4786563,0.2278637,-0.1199256,1.03044,-1.400093,-0.7977862
0.5733535,0.01139809,-0.1603313,-0.4308229,0.2745109,-0.1854625,0.6002356,-1.485145,-0.6065252
0.6702849,-0.04601996,-0.2228238,-0.3331667,0.2178236,-0.2471423,0.2924974,-1.30349,-0.4599263
0.8500446,-0.1436707,-0.2022503,-0.1526163,0.1209576,-0.2257579,0.3913928,-0.8227751,-0.3939962
0.974772,-0.2427159,-0.1937883,-0.02702667,0.02273659,-0.2164773,0.580136,-0.1578015,-0.3207765
0.9249671,-0.3459356,-0.1662434,-0.07589944,-0.07962827,-0.1880975,0.9269694,0.2995991,-0.3624899
0.8553004,-0.2827723,-0.05113601,-0.1445678,-0.01558358,-0.07213264,1.215935,-0.05104638,-0.3871311
0.8018098,-0.1253674,-0.06190784,-0.1969957,0.1427256,-0.08202141,1.048641,-0.448379,-0.2651728
0.8531149,0.06057769,-0.1317475,-0.144563,0.3295898,-0.1509515,0.7647399,-0.3289209,-0.129696
1.016354,0.1467971,-0.1501237,0.01986864,0.4167276,-0.1683901,0.3433392,-0.3248476,0.04630239
1.143026,0.00344531,-0.1048359,0.1477918,0.2742741,-0.1221337,0.04364704,-0.3025241,0.1335616
1.279054,-0.07991568,-0.01611485,0.2851186,0.1917735,-0.03241109,0.1909012,-0.3629703,0.2198149
1.360139,-0.08050751,-0.03310977,0.3675315,0.1919916,-0.0483723,0.2506106,-0.6369818,0.3976563
1.369301,-0.1374522,-0.05937062,0.3780295,0.1357977,-0.07356963,0.2935976,-0.5873115,0.4396455
1.420886,-0.2034341,-0.08283665,0.4309342,0.07050168,-0.0959442,0.4732092,-0.4083549,0.5537496
1.387817,-0.2915647,-0.2209144,0.3991469,-0.01701023,-0.2329025,0.4750824,-0.1692453,0.7373965
1.335866,-0.3041443,-0.3020783,0.3484177,-0.02903676,-0.3129151,0.2680746,0.1028416,0.6747075
1.374372,-0.3555002,-0.2660574,0.3880657,-0.07990127,-0.2757037,-0.1224066,0.1513113,0.4725468
1.346915,-0.5652955,-0.2598476,0.3616569,-0.2892594,-0.2682555,-0.2464655,0.580008,0.2961269
1.248505,-0.6463075,-0.2956938,0.2641837,-0.369876,-0.3028081,0.1073115,1.45803,0.2773928
1.104291,-0.6048657,-0.2517102,0.1207877,-0.3280634,-0.2574683,0.3885268,1.816519,0.2263674
1.002832,-0.5668868,-0.1029788,0.0200228,-0.2897202,-0.1073135,0.3699783,1.339149,-0.1256477
1.072239,-0.3784501,0.01523339,0.09000317,-0.1009111,0.01238974,0.1067625,0.7849098,-0.3315969
1.111013,-0.1908134,-0.01546883,0.1292326,0.08711337,-0.01675932,-0.218965,0.6515922,-0.1167784
1.024501,-0.2826327,-0.08746174,0.04306039,-0.004302618,-0.08714435,-0.3266462,0.6440313,0.1896147
0.8883217,-0.4350911,-0.03528608,-0.09288929,-0.1563444,-0.03331232,-0.2087911,0.6034251,0.4121889
0.6595074,-0.4009522,-0.01082551,-0.3215756,-0.1217744,-0.007152456,0.05603264,0.4506701,0.5413546
0.5434811,-0.3538888,-0.03550509,-0.4375576,-0.07426173,-0.03009605,0.3414044,0.3533922,0.5303069
0.6500296,-0.317785,0.02023486,-0.3310253,-0.03768792,0.02740991,0.4109732,0.5325957,0.3862785
0.7195338,-0.2339864,0.01988821,-0.2615745,0.04660119,0.02885221,0.2393156,0.8114115,0.2030014
0.7298884,-0.2069299,0.05509042,-0.2512919,0.07416579,0.06585841,0.1498578,1.107713,0.06622872
0.658638,-0.1450607,0.1744622,-0.322617,0.136555,0.18704,0.1006399,0.7639031,0.1044595
0.4829118,-0.1208827,0.1971568,-0.4984044,0.1612571,0.2115384,-0.1149535,-0.1039003,0.2463187
0.4915168,-0.1946664,0.1702525,-0.4898272,0.08799316,0.1864179,-0.1633392,-0.3133277,0.2548133
0.5820086,-0.2171035,0.1399231,-0.3993084,0.06606427,0.1578391,-0.05383582,-0.1666627,0.266641
0.6507184,-0.3362125,0.186504,-0.330498,-0.05255235,0.2061257,0.1303561,-0.04001567,0.278175
0.8832001,-0.4541329,0.262533,-0.09783026,-0.1699962,0.283804,0.5043177,0.1168255,0.1765973
0.9755753,-0.3333894,0.2493984,-0.005179059,-0.04878787,0.2722495,0.586344,-0.06875476,0.166764
0.8946523,-0.2144745,0.2566483,-0.0857388,0.0705839,0.2809971,0.3755184,-0.3081676,0.2237364
0.969376,-0.2454983,0.2515577,-0.01056952,0.04000869,0.2773095,0.3139436,-0.4443353,0.2548279
1.0924,-0.2545632,0.2431382,0.1129763,0.0313814,0.2701869,0.2620532,-0.5471802,0.201145
1.210634,-0.2646005,0.2626972,0.2317986,0.02176842,0.2909266,0.2106999,-0.6271356,0.09828055
1.274577,-0.4712694,0.2161337,0.2963815,-0.1844898,0.2454186,0.336929,-0.7804333,0.1213125
1.25303,-0.7026985,0.09959005,0.2755079,-0.4155163,0.1297984,0.5824796,-0.7124361,0.108545
1.292747,-0.7653212,-0.03790907,0.3159124,-0.4777305,-0.006911199,0.7920714,-0.6341473,-0.02419981
1.214603,-0.7345727,-0.02865166,0.2384531,-0.4465477,0.003005274,0.8503852,-0.834298,-0.2710912
0.998973,-0.6378269,0.003041833,0.02348907,-0.3493222,0.03523407,0.8897945,-0.9228279,-0.6389764
0.9092234,-0.5772258,-0.1020673,-0.06561899,-0.2881801,-0.06945623,0.9516623,-0.7501419,-0.8273207
0.9716823,-0.5669405,-0.1136664,-0.002544158,-0.2772815,-0.08074454,0.9808282,-0.4438178,-0.8060209
1.101488,-0.5596119,-0.08663277,0.1278527,-0.2692593,-0.05349806,1.184803,-0.09123291,-0.7989303
1.143241,-0.5105101,-0.0755824,0.1701682,-0.2193773,-0.04232299,1.332354,0.1006681,-0.8015478
1.054939,-0.3394381,-0.01814844,0.08239579,-0.04743578,0.01515588,1.131377,-0.2111142,-0.7611424
0.8566703,-0.1841628,-0.03008875,-0.1153817,0.1087961,0.0031872,0.8822928,-0.8088111,-0.732248
0.6224217,-0.09635174,-0.02734809,-0.3491734,0.1976406,0.005831493,0.5494004,-1.082493,-0.7142182
0.6196849,-0.1281581,-0.04810893,-0.3514759,0.1669295,-0.01508869,0.2534431,-1.071771,-0.6621035
0.7323163,-0.2293277,-0.1438267,-0.2384164,0.0669013,-0.1110229,0.326094,-0.9426468,-0.6609445
0.7985219,-0.20964,-0.1595037,-0.1717749,0.08776363,-0.1269654,0.3880701,-0.7382773,-0.6542443
0.9409432,-0.2600011,-0.1622884,-0.02890129,0.03860055,-0.130055,0.4127085,-0.4934769,-0.5978778
0.9981569,-0.3103085,-0.1504025,0.02878397,-0.01049326,-0.118503,0.6041558,0.01102581,-0.6099471
0.9473608,-0.2319362,-0.07656501,-0.02152268,0.06910211,-0.04501973,0.6913367,0.4480818,-0.5816097
0.9192037,-0.1910673,-0.04302162,-0.04917491,0.1111975,-0.01184418,0.6673836,0.3778964,-0.4750522
0.8445964,-0.05858363,-0.05241153,-0.1232623,0.2449024,-0.02161161,0.5721998,0.07313417,-0.3991808
0.8611503,0.06706102,-0.09425023,-0.1061718,0.3717504,-0.06383442,0.3282512,-0.2350892,-0.3540331
0.9950967,0.06241553,-0.122424,0.02832966,0.3682733,-0.09239507,0.05677397,-0.4428647,-0.2264345
1.109193,0.05065594,-0.08208638,0.1429983,0.3576283,-0.0524422,-0.1076526,-0.5236717,0.07581763
1.268142,-0.05315055,-0.03161447,0.3025293,0.2548654,-0.002348941,-0.05395236,-0.6183931,0.2791066
1.366006,-0.1400748,-0.01157771,0.4009712,0.1689007,0.01731748,0.1445381,-0.6325809,0.3027318
1.36278,-0.1312413,-0.02288448,0.3983005,0.1786014,0.005649093,0.2454345,-0.5641883,0.3836563
1.379186,-0.1374882,-0.08009185,0.4152188,0.1731243,-0.05191091,0.1818591,-0.5067272,0.4403534
1.358076,-0.1562414,-0.1634181,0.3945608,0.1550396,-0.1355788,0.01090186,-0.3671767,0.472798
1.359287,-0.2648699,-0.1924134,0.3961441,0.04697595,-0.1649,-0.1786743,-0.1693136,0.5252888
1.360821,-0.4387056,-0.2234067,0.3979545,-0.1263968,-0.1961964,-0.2762877,0.2727078,0.5229108
1.277137,-0.5903064,-0.3154941,0.3144395,-0.2776279,-0.2885549,-0.2508445,1.064153,0.5242873
1.181741,-0.6901822,-0.2897083,0.2190922,-0.3772118,-0.2629979,-0.1597183,1.605641,0.4302691
1.031579,-0.6699766,-0.1246566,0.06885586,-0.3567714,-0.09812254,-0.06544484,1.546492,0.2372674
0.9396172,-0.5597774,0.02106652,-0.02330267,-0.2463732,0.04748201,0.01704819,1.108316,0.1093871
1.004125,-0.426671,0.05219778,0.0408925,-0.1130869,0.07855071,0.03803432,0.6178135,0.1084436
1.039263,-0.3834249,-0.04340646,0.07561149,-0.06966942,-0.01706563,0.1008506,0.4510494,0.2934084
0.9651199,-0.4297184,-0.09640878,0.0009481166,-0.1157939,-0.07003431,0.3119921,0.5385622,0.4954334
0.8141649,-0.4086098,-0.07914934,-0.1506196,-0.09451409,-0.05269736,0.4750133,0.4996709,0.5567186
0.6519723,-0.3408047,-0.07039617,-0.3135046,-0.02653158,-0.04382345,0.6894982,0.3683889,0.564309
0.6079017,-0.2803182,-0.0371624,-0.3583285,0.0341406,-0.01042678,0.9403796,0.410386,0.5281759
0.7537158,-0.2443669,-0.06939837,-0.2133067,0.07028467,-0.04245956,0.7708774,0.7045242,0.3664677
0.8559677,-0.2477276,-0.07421669,-0.1118671,0.06712051,-0.04703624,0.5661853,0.9749801,0.1428189
0.7248442,-0.2102868,0.1156295,-0.2438093,0.1047572,0.1430875,0.7929329,0.6849922,0.1172876
0.5842466,-0.1507028,0.279943,-0.3852183,0.1645313,0.3077073,0.8499128,0.02386957,0.196924
0.5694135,-0.1405369,0.2489152,-0.4008386,0.1748745,0.2770018,0.5093553,-0.3695863,0.1661437
0.7132375,-0.180909,0.2090007,-0.2577585,0.1346591,0.2374095,0.2785648,-0.5628,0.2616989
0.9482497,-0.2790177,0.283174,-0.02343274,0.03668052,0.3118901,0.3293349,-0.440205,0.4587315
1.028575,-0.3561774,0.3088166,0.0562687,-0.04037839,0.3378107,0.4745848,-0.1285991,0.4829133
1.015611,-0.3099778,0.31953,0.042742,0.00589371,0.348758,0.5070227,-0.2212725,0.3750263
1.036844,-0.2393502,0.3952834,0.06346785,0.07656729,0.4246856,0.4508849,-0.3757244,0.2742072
1.059998,-0.2568771,0.3837485,0.08616425,0.05906005,0.4132492,0.4234636,-0.6267218,0.2710798
1.10177,-0.2933711,0.3536147,0.1275229,0.02255835,0.3831226,0.3987937,-1.031441,0.2792778
1.129503,-0.4178903,0.2339825,0.1548792,-0.1019954,0.263393,0.4099706,-1.034215,0.2371043
1.154378,-0.7244723,-0.03201406,0.1794039,-0.4086328,-0.002812889,0.5187398,-1.016215,0.2512734
1.213829,-0.9058641,-0.117384,0.2385223,-0.5900857,-0.08850229,0.8233673,-1.142535,0.1997447
1.230429,-0.791716,-0.0879265,0.2547966,-0.4759808,-0.05946509,1.166605,-1.157906,-0.1538838
1.156171,-0.7014816,-0.1498295,0.1802066,-0.3857471,-0.1218771,1.261694,-0.9870667,-0.748881
1.068688,-0.7266948,-0.188284,0.09237879,-0.4108984,-0.1609162,1.242568,-0.6859781,-1.141532
1.074393,-0.6363558,-0.1531969,0.0977179,-0.3204192,-0.1264759,1.243674,-0.7021391,-1.081253
1.094719,-0.5053538,-0.1324294,0.1176554,-0.1891867,-0.1064037,1.436381,-0.6507999,-0.9056633
1.05785,-0.4761239,-0.1378636,0.08037261,-0.1596298,-0.1125701,1.691734,-0.3825071,-0.7909066
1.045564,-0.3758495,-0.1183351,0.06764467,-0.05893051,-0.0938004,1.580298,-0.4765008,-0.7141936
0.9327446,-0.1761766,-0.1300075,-0.04564403,0.1412613,-0.1062489,1.309476,-0.7247941,-0.7299849
0.7693175,-0.1028851,-0.1433148,-0.2095643,0.2151557,-0.1203408,0.9485474,-0.9953239,-0.6563756
0.8144793,-0.1952023,-0.1624287,-0.164911,0.1235102,-0.140239,0.5943766,-1.019466,-0.5945477
0.8494803,-0.256502,-0.2353176,-0.1304229,0.06293642,-0.2139028,0.5846079,-0.5532572,-0.7086344
0.7889726,-0.2505413,-0.224924,-0.1914377,0.06966576,-0.2042643,0.607067,-0.08862486,-0.7954315
0.8248211,-0.306637,-0.1753223,-0.1560816,0.0143729,-0.1553873,0.7068256,0.2250666,-0.94743
0.8201619,-0.3720468,-0.119587,-0.1612093,-0.05020646,-0.1003374,1.102965,0.2428203,-1.173751
0.7526545,-0.3710767,-0.01472547,-0.229153,-0.04838186,0.003883197,1.410688,0.05165803,-1.184119
0.7050753,-0.2255573,0.003320035,-0.2771271,0.09801316,0.02133348,1.439146,0.03624925,-0.8802694
0.6617161,0.05093308,-0.0500864,-0.3208289,0.3753932,-0.03262375,1.126166,-0.0121766,-0.4308752
0.7021128,0.1822211,-0.110566,-0.2807102,0.5075695,-0.09361063,0.5879414,-0.06624832,-0.2091392
0.7666,0.1449954,-0.1444011,-0.2164259,0.4712073,-0.1279083,0.3359618,-0.08732789,-0.1551796
0.8611402,0.04313825,-0.08697056,-0.1220056,0.370165,-0.07089229,0.5089249,-0.2519697,-0.02184274
1.062959,-0.08784163,-0.01702063,0.07977807,0.2399311,-0.001307042,0.671422,-0.4528251,0.09703158
1.169382,-0.08992981,0.006476286,0.186246,0.2385069,0.02187459,0.6875595,-0.6418416,0.2081331
1.206793,-0.0511085,0.01679917,0.2237709,0.2779007,0.03192872,0.8194598,-0.7691379,0.2734553
1.339691,-0.1003461,-0.003528537,0.3568344,0.2291362,0.01137503,0.9456973,-0.9803006,0.3220251
1.432752,-0.1520604,-0.06747942,0.4500933,0.177789,-0.05276217,0.9890452,-1.138911,0.4251758
1.486347,-0.1969681,-0.09515789,0.5038955,0.1331387,-0.08058858,1.063243,-0.9837234,0.4493389
1.520094,-0.1999804,-0.09433606,0.5378339,0.1302729,-0.07987563,0.9466335,-0.8150031,0.5163887
1.484782,-0.196111,-0.1420409,0.5026715,0.1341785,-0.1276486,0.6720741,-0.5019383,0.5819387
1.497641,-0.3516241,-0.1721264,0.5156142,-0.02140671,-0.1577587,0.4595638,0.1680644,0.4793854
1.455788,-0.5317148,-0.1424434,0.473757,-0.2016715,-0.1280529,0.3949546,1.177884,0.3259237
1.215467,-0.5221161,-0.08304885,0.233327,-0.1923361,-0.068585,0.3825033,1.932066,0.1313241
0.9391379,-0.4532312,-0.0156371,-0.0432244,-0.1237881,-0.001048302,0.1006817,1.484949,0.05044082
0.8880642,-0.4340649,0.01226823,-0.0946319,-0.105018,0.02703146,-0.1532917,0.7987489,0.09906409
1.077935,-0.3994705,-0.02491121,0.09480294,-0.07086734,-0.009928126,-0.1311295,0.5054766,0.1807971
1.157752,-0.3865377,-0.08497159,0.1740912,-0.0584169,-0.06972702,-0.05084607,0.1811361,0.4472856
1.066951,-0.4546344,-0.09863973,0.08267022,-0.1270262,-0.08309385,0.2479402,0.4283056,0.5785895
0.9239917,-0.5209214,-0.09772307,-0.06099689,-0.1938472,-0.08183624,0.588857,0.5692736,0.4681865
0.7030439,-0.4981241,-0.09042702,-0.2827313,-0.1715946,-0.0741593,0.7986892,0.293602,0.425411
0.6468106,-0.4081757,-0.06650852,-0.3398142,-0.08219101,-0.04982001,1.108179,0.4337894,0.3458872
0.6970866,-0.2731864,-0.109831,-0.2904294,0.05226082,-0.09268238,1.29979,0.4250625,0.3169797
0.6640334,-0.1491092,-0.1321223,-0.3243939,0.1758093,-0.1144743,1.123853,0.7075142,0.3115657
0.7003721,-0.1227697,-0.01559004,-0.2889665,0.2016246,0.002596637,0.8752139,1.342573,0.1773331
0.6370295,-0.1339078,0.1579452,-0.3532021,0.189959,0.1767072,0.9784708,1.07383,0.2304108
0.4564906,-0.1250256,0.2511822,-0.5345965,0.1983019,0.2705473,1.073066,0.2131335,0.3257513
0.4170037,-0.1433124,0.2202929,-0.5748791,0.1794565,0.2402752,0.9339649,-0.5572323,0.250606
0.4624303,-0.1801007,0.2081153,-0.5301634,0.1420839,0.2287136,0.9487824,-0.5174461,0.2395742
0.5774123,-0.2519218,0.2528212,-0.4157841,0.06964817,0.2740201,0.8783079,-0.08013403,0.2411019
0.7164139,-0.3622591,0.2730753,-0.2772594,-0.04133521,0.2948456,0.8540338,-0.3070616,0.2447462
0.7632678,-0.3743859,0.3052237,-0.2307462,-0.05413654,0.3275224,0.9911712,-0.3049967,0.2752681
0.8235229,-0.3034947,0.3394436,-0.1706908,0.01605683,0.3622129,0.8714558,-0.2436009,0.2580712
0.9586588,-0.2799974,0.3686539,-0.0356136,0.0388375,0.3918214,0.822348,-0.7029118,0.3017119
1.054605,-0.2609398,0.3952664,0.06041008,0.0571617,0.4187443,0.8049121,-0.960545,0.3566695
1.140901,-0.2392632,0.388733,0.1469085,0.07808909,0.4124184,0.6890262,-1.174822,0.3347251
1.322139,-0.2633615,0.3752393,0.3284593,0.05322561,0.3990151,0.6097886,-1.2178,0.2675315
1.40337,-0.3622053,0.2696636,0.4100926,-0.04639865,0.2934005,0.3709739,-1.134099,0.2290655
1.414697,-0.5944428,0.1090153,0.4218848,-0.2794274,0.1325766,0.4693598,-1.220693,0.2558484
1.476275,-0.7558279,0.08244136,0.4839648,-0.4416029,0.1056893,0.9446691,-1.052964,0.1369592
1.191305,-0.6841415,0.05209912,0.1995065,-0.3706872,0.07489991,1.170829,-1.097844,-0.1516462
0.7712155,-0.6590284,-0.06032454,-0.2200766,-0.3463047,-0.03809799,1.103918,-1.360628,-0.372354
0.8089294,-0.7459695,-0.08544705,-0.181865,-0.4339177,-0.06391198,1.001283,-1.428191,-0.3919388
1.023321,-0.7520624,-0.1079828,0.03302194,-0.4406059,-0.087244,1.352548,-1.322981,-0.3565217
1.123417,-0.7293709,-0.1738911,0.1336118,-0.4184152,-0.1540393,1.855859,-0.7802327,-0.5902298
1.157564,-0.6097051,-0.1367299,0.168248,-0.2991396,-0.1178411,1.935732,-0.3997067,-0.8977602
1.006369,-0.3204614,-0.07247959,0.01752921,-0.01016598,-0.05461538,1.824754,-0.4463739,-0.9291907
0.7782038,-0.1424159,-0.06915646,-0.2101746,0.1677294,-0.05236652,1.473276,-0.7237667,-0.8123229
0.699692,-0.07701559,-0.08355299,-0.2882367,0.2330884,-0.06787718,0.9228534,-1.189294,-0.6952445
0.6798138,0.0513981,-0.1306328,-0.3076654,0.361552,-0.1161016,0.4461853,-1.136964,-0.6578405
0.6614752,0.01614828,-0.166383,-0.325541,0.3264217,-0.1530166,0.09535526,-0.825465,-0.7360243
0.6959023,-0.1537129,-0.1496784,-0.2906236,0.1567286,-0.1374859,-0.08268167,-0.645049,-0.8279021
0.7471121,-0.1592685,-0.1214197,-0.2388842,0.1513729,-0.1103993,-0.1521371,-0.4616864,-0.8053906
0.833347,-0.1843758,-0.1007141,-0.1520712,0.1264855,-0.09085423,0.02195148,-0.4690636,-0.6937386
0.9132944,-0.2589942,-0.1326097,-0.07149259,0.05209827,-0.1238912,0.3515919,-0.273848,-0.591332
0.9352115,-0.1817979,-0.1855181,-0.04889039,0.1295304,-0.177914,0.5862868,0.1209399,-0.4143475
0.9439341,-0.1322251,-0.1815545,-0.03943119,0.1793371,-0.175029,0.6118403,0.3234961,-0.1866724
0.9371688,-0.06469639,-0.1688579,-0.04541149,0.2470894,-0.1633664,0.2402669,0.2352607,0.007543523
0.9591903,0.02280271,-0.1629515,-0.02256021,0.3347906,-0.1584409,-0.1614512,-0.07352634,0.1327917
1.065847,-0.06779761,-0.1262225,0.08496613,0.2443581,-0.1226328,-0.3023342,-0.1732032,0.1555918
1.272659,-0.0936954,-0.06942862,0.2926805,0.2185814,-0.06669475,-0.3501331,-0.2753812,0.2790487
1.436287,-0.05918621,-0.02242993,0.4572277,0.2531555,-0.02048436,-0.3809434,-0.4192972,0.4399055
1.400285,-0.1034338,-0.03368722,0.4221409,0.2089083,-0.03246248,-0.4070564,-0.2493107,0.4467018
1.395753,-0.1595772,-0.06808174,0.4184955,0.1526942,-0.06751139,-0.3325094,-0.1042249,0.5252292
1.448442,-0.3380706,-0.07289416,0.4720207,-0.02594409,-0.07291226,-0.2350322,-0.04188351,0.6735777
1.372412,-0.4682924,-0.1185799,0.3967543,-0.156382,-0.1191199,-0.161822,0.1006093,0.6728336
1.345856,-0.4367765,-0.197426,0.3708721,-0.1251443,-0.1984195,-0.2331858,0.2751485,0.602122
1.359074,-0.4845182,-0.2398024,0.3846571,-0.1732143,-0.2411765,-0.451154,0.5346776,0.5096973
1.316365,-0.5811382,-0.2743909,0.3423959,-0.2701995,-0.2760658,-0.3973384,1.22128,0.3810524
1.252996,-0.5891941,-0.2707703,0.2793437,-0.2786429,-0.2726582,-0.2958479,2.197785,0.314865
1.036369,-0.5630757,-0.1539813,0.06289728,-0.2529182,-0.155987,-0.2950052,2.241901,0.1927509
0.8819068,-0.5158768,-0.007985841,-0.09151963,-0.206104,-0.01001056,-0.2543556,1.484455,0.04248778
0.984109,-0.3731273,-0.00119753,0.01060046,-0.06371907,-0.003144623,-0.4436088,1.011766,0.1177302
1.02972,-0.273673,-0.07597843,0.05601269,0.03539713,-0.07775673,-0.634057,0.7777964,0.2361326
0.9569484,-0.3303569,-0.07511604,-0.01706652,-0.02159739,-0.07663933,-0.6584533,0.8435273,0.3382359
0.8542122,-0.4039975,-0.06319849,-0.1202097,-0.09552152,-0.0643841,-0.6047109,0.8437135,0.4884817
0.6671483,-0.4411766,-0.04936629,-0.3077679,-0.1329555,-0.05013493,-0.3368777,0.5269721,0.4753125
0.5883848,-0.4004253,-0.01371074,-0.387094,-0.09242637,-0.01398719,-0.08103696,0.6237852,0.4110973
0.7028651,-0.2907755,-0.03558427,-0.2732225,0.01703682,-0.03529825,-0.04806972,0.8478574,0.3387678
0.722866,-0.2194834,-0.01875188,-0.253855,0.08817767,-0.01783836,-0.1418605,1.186674,0.2115928
0.6051298,-0.1639404,0.07102462,-0.3722305,0.1436002,0.07262487,-0.2271036,1.615315,0.225789
0.5228009,-0.1354849,0.182651,-0.4551858,0.1719585,0.1849891,-0.2867808,0.8445577,0.2515808
0.5134829,-0.1553205,0.2657781,-0.4650957,0.1520398,0.2688926,-0.3142744,-0.3366671,0.2201299
0.6275292,-0.2159355,0.1993522,-0.3515853,0.09134718,0.2032663,-0.3296443,-0.3716076,0.271374
0.7501053,-0.3521747,0.1598538,-0.2294713,-0.04496971,0.1645755,-0.4034692,0.07044347,0.3175216
0.7944813,-0.4316854,0.2773965,-0.1854725,-0.1245592,0.2829203,-0.2265488,0.2764709,0.2818931
0.914454,-0.3833173,0.3510858,-0.06578638,-0.0762675,0.357392,0.06999609,0.2481025,0.1528184
0.996405,-0.2997196,0.3457158,0.01596902,0.007260446,0.3527684,0.04456651,0.03143876,0.0104724
0.9674688,-0.1748765,0.3335727,-0.01307549,0.1320414,0.3413184,-0.06493476,-0.2713448,-0.007006058
1.05774,-0.1442652,0.3218746,0.07716879,0.1625946,0.3302443,-0.1427025,-0.7077839,0.06522232
1.197589,-0.2778819,0.27962,0.2170627,0.02891752,0.2885307,-0.1998969,-0.9676613,0.1012071
1.216865,-0.3942763,0.1926087,0.2364444,-0.08754289,0.2019664,-0.2081323,-0.8290647,0.1109458
1.293371,-0.5882727,0.09682309,0.3130994,-0.2816087,0.1065272,-0.1735818,-0.7084952,0.2140699
1.423753,-0.8152048,0.00561483,0.4436557,-0.5086027,0.01556319,0.174783,-0.616703,0.2493786
1.29308,-0.7059995,0.04615482,0.3131631,-0.3994338,0.05624791,0.6302133,-0.4990871,-0.09744019
0.9375191,-0.4612145,0.1271885,-0.04223055,-0.1546411,0.1373307,0.6393903,-0.8872571,-0.5784304
0.7141025,-0.4464557,-0.03273136,-0.2654978,-0.1398189,-0.02263255,0.2395925,-1.300665,-0.6221599
0.839033,-0.4792737,-0.191463,-0.1404305,-0.1725125,-0.1814947,-7.452186e-05,-0.7903183,-0.4176449
1.079938,-0.4958717,-0.1404585,0.1006069,-0.1889217,-0.1306971,0.2109287,-0.1211818,-0.4547188
1.085052,-0.5501788,-0.06096748,0.1058507,-0.2429712,-0.05147698,0.528859,0.01904007,-0.5679836
1.006214,-0.42843,0.0357119,0.02713611,-0.1208915,0.04487749,0.7077324,0.08391395,-0.7196036
0.901968,-0.1881485,0.08047392,-0.07699481,0.1197954,0.08926575,0.678588,-0.2279245,-0.9014191
0.7071958,-0.01973818,0.02209756,-0.2716585,0.2886788,0.03046887,0.3500335,-0.8466091,-0.8186485
0.6803038,0.01963039,-0.01141922,-0.2984397,0.3285728,-0.003513203,-0.08601147,-0.8917093,-0.7030181
0.7144195,-0.07608188,-0.0637015,-0.2641981,0.2334187,-0.05630177,-0.3764357,-0.675776,-0.6926332
0.6908988,-0.1401559,-0.1286757,-0.2875649,0.169918,-0.1218172,-0.4867257,-0.5967548,-0.6927905
0.7611337,-0.1882117,-0.1402922,-0.2171363,0.1224372,-0.1340014,-0.5003682,-0.4196281,-0.7610203
0.8322182,-0.2322125,-0.1467263,-0.1458095,0.07900367,-0.14102,-0.4637976,-0.2972962,-0.7005987
0.9264374,-0.2162037,-0.1461103,-0.05129434,0.09556551,-0.1409955,-0.3804712,-0.1293599,-0.5823856
1.032676,-0.2548044,-0.1463971,0.0552945,0.05749852,-0.1418714,-0.2523893,0.2164878,-0.5091291
1.023565,-0.2226247,-0.1460006,0.04658246,0.09018848,-0.142053,-0.1850244,0.4239265,-0.3056785
0.9974879,-0.1282779,-0.1223697,0.02094762,0.1850178,-0.118981,-0.2693466,0.47586,-0.09455199
1.007622,-0.07928487,-0.1075739,0.03156103,0.234459,-0.1047183,-0.3999878,0.3855896,0.04512338
1.039591,0.02503209,-0.09999533,0.06404062,0.3391803,-0.09764156,-0.6444561,0.0392838,0.1187058
1.137482,0.0470927,-0.08247082,0.1624661,0.3615887,-0.08058322,-0.940775,-0.3709071,0.2076365
1.31269,-0.02336738,-0.05958296,0.3382234,0.2914062,-0.0581227,-0.958032,-0.5674106,0.422683
1.431803,-0.06454665,-0.04372638,0.4578841,0.2504221,-0.04265273,-0.8690847,-0.4986054,0.5223066
1.417829,-0.1286624,-0.02579689,0.4444361,0.1864105,-0.02506836,-0.8186029,-0.4229022,0.5387575
1.370692,-0.21639,-0.0139312,0.3977818,0.09869147,-0.01350661,-0.636736,-0.3641531,0.6556493
1.333166,-0.3416628,-0.07556465,0.3606743,-0.02666839,-0.07540345,-0.5333259,-0.09897441,0.7150382
1.375012,-0.4518934,-0.1718355,0.4028582,-0.1370762,-0.1718964,-0.6081138,0.1664839,0.6964727
1.437409,-0.5111404,-0.2255985,0.4654972,-0.1965798,-0.2258363,-0.6298826,0.4760798,0.6826261
1.391825,-0.5637209,-0.2874167,0.420045,-0.2494815,-0.2877788,-0.6506996,1.318942,0.6923347
1.318447,-0.5934488,-0.3360206,0.3466715,-0.2795783,-0.3364448,-0.8474454,2.292217,0.6318868
1.14412,-0.594262,-0.201825,0.1722146,-0.2807904,-0.2022386,-1.098428,2.182794,0.3616264
0.9173399,-0.5189339,0.05211186,-0.05483292,-0.2058742,0.05178826,-1.177977,1.143626,0.08110043
0.9186844,-0.4186571,0.09135352,-0.05388731,-0.1060081,0.09119776,-1.075579,0.514465,0.112097
1.003744,-0.3705191,-0.05796371,0.03065384,-0.05827044,-0.05788098,-0.9047445,0.4629439,0.392305
0.9616986,-0.3761725,-0.1409822,-0.01201873,-0.06430853,-0.1405961,-0.7446287,0.8438725,0.6210542
0.8472129,-0.4633187,-0.1590112,-0.1272299,-0.15182,-0.1582583,-0.6336405,1.318548,0.6935761
0.6443471,-0.5018775,-0.0961921,-0.3309057,-0.190719,-0.09500776,-0.4455445,1.122719,0.5590253
0.4836509,-0.4457222,0.0003452664,-0.4924758,-0.134872,0.002025728,-0.0272062,0.9001221,0.3600366
0.5265794,-0.3726865,0.01931901,-0.4504587,-0.0621064,0.02155683,0.3073836,0.8937153,0.3455914
0.6200466,-0.2904957,0.02790702,-0.3579123,0.01985537,0.03075741,0.3168574,0.8836771,0.2307734
0.6538836,-0.2323167,0.05945923,-0.3249813,0.0778453,0.06297029,0.2962459,1.045393,0.04386312
0.577699,-0.1540059,0.1413163,-0.4020371,0.1560019,0.1455279,0.2582389,0.5469636,0.105479
0.4664476,-0.108762,0.2141744,-0.5141054,0.2011186,0.2191161,0.1720178,-0.3047177,0.1558698
0.5660733,-0.1553238,0.1634312,-0.4152214,0.1544466,0.1691197,0.1025907,-0.5621083,0.1737802
0.6881813,-0.2452095,0.1295982,-0.2937609,0.06445828,0.1360376,-0.05465855,-0.3834796,0.2683068
0.6757298,-0.3943813,0.2238573,-0.3067516,-0.08481359,0.2310407,0.03565562,-0.151391,0.2497271
0.7548828,-0.4392854,0.3146339,-0.2280203,-0.1298151,0.3225423,0.2737003,-0.2712321,0.1693132
0.872241,-0.3260749,0.3091269,-0.1109606,-0.01669527,0.3177274,0.2414898,-0.3223374,0.1693757
0.941321,-0.2326939,0.3046574,-0.04205539,0.07660428,0.3139014,0.2080335,-0.3435075,0.2002754
1.019518,-0.1905989,0.3329834,0.03608687,0.1186257,0.3428078,0.1402272,-0.6427654,0.1994064
1.108934,-0.2173532,0.3250799,0.1255588,0.09180094,0.3354074,0.02413197,-0.7182499,0.2198308
1.187138,-0.2692119,0.3190043,0.2039169,0.03987013,0.3297448,0.02628667,-0.9385904,0.1960323
1.171093,-0.2941978,0.2871429,0.1881098,0.01480726,0.2981945,-0.09373896,-1.212862,0.1125055
1.208299,-0.4403766,0.1952347,0.2256202,-0.1314534,0.2064866,-0.1782774,-1.106343,0.1077507
1.460317,-0.7725192,0.1289489,0.4779909,-0.4636775,0.1402848,0.01361231,-0.9653172,0.06497932
1.598308,-1.003547,0.08740242,0.6163594,-0.6947701,0.09870512,0.4051472,-0.8412822,-0.118107
1.215214,-0.7970135,0.04993288,0.2336423,-0.4882594,0.06108732,0.7209529,-1.026226,-0.381937
0.7497329,-0.5591253,0.03108862,-0.2314829,-0.2503274,0.04198427,0.6372095,-1.294307,-0.5578367
0.8590114,-0.7914807,-0.05011083,-0.121872,-0.4825555,-0.03957814,0.5879644,-1.178954,-0.538512
0.980415,-0.9548589,-0.1773403,-0.0001532364,-0.6457079,-0.1672655,0.9740569,-1.135013,-0.6604152
0.9287762,-0.8269205,-0.1753809,-0.05148957,-0.5174261,-0.1658461,1.647978,-1.008506,-0.9553593
1.178909,-0.7696702,-0.1269008,0.1989335,-0.4596957,-0.1179731,2.442567,-0.4111939,-1.071271
1.061492,-0.5404751,-0.1527512,0.08179176,-0.2298705,-0.1444836,2.641989,-0.0406793,-1.044415
0.7532177,-0.2400799,-0.1378417,-0.2262264,0.07130854,-0.1302747,2.280573,-0.6605169,-0.8885593
0.9010995,-0.109681,-0.1730543,-0.07810429,0.2026363,-0.1662163,2.156627,-1.537753,-0.6152373
0.8651568,0.03961406,-0.2708947,-0.113816,0.352986,-0.2648016,1.610503,-1.515722,-0.5432574
0.8021139,-0.04991465,-0.2715892,-0.176631,0.2646129,-0.266243,0.742775,-0.9564751,-0.7342491
0.8796423,-0.3277375,-0.2381961,-0.09887137,-0.01197713,-0.2335836,0.6333444,-0.475645,-0.9756529
0.7772759,-0.4413384,-0.1808976,-0.2009967,-0.1242832,-0.1769921,0.8268108,-0.2570855,-1.172783
0.8610958,-0.4658146,-0.1470358,-0.1169196,-0.1474089,-0.1438,1.33055,-0.402151,-1.286985
0.9557033,-0.3765862,-0.1778477,-0.02203377,-0.0567763,-0.1752362,2.13494,-0.389607,-1.25209
0.9427073,-0.2510836,-0.193605,-0.03472818,0.07018084,-0.1915655,2.204366,-0.1517225,-1.065885
0.9870022,-0.1638017,-0.2386262,0.009890602,0.1589594,-0.2370993,1.716719,0.147268,-0.8563164
0.9181533,-0.05929181,-0.2260716,-0.05861356,0.2649955,-0.2249896,1.336621,0.6520066,-0.8062293
0.8826345,-0.08211355,-0.1368155,-0.09376739,0.2437126,-0.1361036,1.251771,0.7607584,-0.8594417
0.8502914,-0.0934113,-0.08975765,-0.125724,0.2339491,-0.08933612,1.285718,0.4371665,-0.7226207
0.8144367,0.04241962,-0.04481065,-0.1611678,0.3712922,-0.04459885,1.097542,0.2548624,-0.380532
0.8619051,0.1150198,-0.01562046,-0.1132601,0.4453641,-0.01553939,0.8122102,0.1502107,-0.04971977
0.8988468,0.08265936,0.00157764,-0.07584732,0.4144135,0.001603321,0.6160367,0.2468801,0.1407595
1.047444,0.04812669,0.04050076,0.07325352,0.3812082,0.04054137,0.5468591,0.3436443,0.1726884
1.167032,0.06677863,0.1130801,0.1933736,0.4010863,0.1131994,0.4995672,0.04920896,0.2042714
1.249816,0.05974471,0.1690598,0.2767076,0.3951612,0.1693126,0.4688509,-0.297701,0.2657462
1.43619,0.0001719136,0.1171423,0.4636346,0.3365652,0.1175725,0.4425622,-0.486509,0.3216377
1.507638,-0.04228273,0.09050431,0.535617,0.2949436,0.09114532,0.2697551,-0.5054654,0.4356517
1.514036,-0.1701899,0.07351186,0.5425083,0.1677179,0.07438852,0.1325557,-0.4579949,0.5459002
1.474832,-0.2846953,-0.02441995,0.5037282,0.05374037,-0.02328908,0.009430911,-0.4806925,0.6657631
1.388197,-0.2671279,-0.05278282,0.4174271,0.07168474,-0.05138249,-0.2154966,-0.368784,0.6690135
1.426619,-0.3074606,-0.03060162,0.4560737,0.03158464,-0.02891726,-0.4024131,-0.04193404,0.4434611
1.423474,-0.4098235,-0.04902827,0.4530278,-0.0706823,-0.04704516,-0.4364472,0.6171215,0.2702505
1.334505,-0.5043303,-0.119179,0.3640196,-0.1652187,-0.1168817,-0.2401049,1.595025,0.2699384
1.203197,-0.5672246,-0.1792832,0.2325228,-0.228253,-0.1766539,-0.06669046,2.040845,0.3736065
0.9723975,-0.5163892,-0.09648075,0.001383237,-0.1776506,-0.09349699,-0.07460683,1.394711,0.4527177
0.9195028,-0.3893233,0.03934089,-0.05199845,-0.05089386,0.04270446,-0.1172749,0.6038704,0.4782862
1.079175,-0.2393894,0.06813588,0.1070504,0.0986662,0.07190346,-0.2318001,0.5398889,0.5853596
1.113646,-0.1481483,-0.006361722,0.1407725,0.1894736,-0.00217041,-0.4132627,0.613035,0.7334405
0.9842244,-0.1756934,-0.07920383,0.01048235,0.1614341,-0.0745728,-0.4478533,0.5049352,0.8780395
0.7903923,-0.2098476,-0.07090757,-0.1843294,0.1267225,-0.06582173,-0.3709793,0.5516898,0.8942481
0.6087396,-0.210187,-0.03780536,-0.3670571,0.125761,-0.03224905,-0.3683784,0.6087139,0.7829233
0.5770337,-0.2177916,-0.02138015,-0.3999104,0.1174693,-0.01533764,-0.2664775,0.8187609,0.6485237
0.6673861,-0.202159,0.008339404,-0.3107513,0.1323502,0.01488261,-0.1778105,1.38785,0.4176443
0.6975416,-0.1917119,0.07492115,-0.2818104,0.1419811,0.08197681,-0.2595105,1.594391,0.3796374
0.5771363,-0.2059258,0.2034778,-0.4034302,0.1268865,0.2110523,-0.2061054,0.7335559,0.4652253
0.4787645,-0.2098418,0.3031963,-0.5029944,0.1220254,0.3112864,-0.2125922,-0.320493,0.3523989
0.5976843,-0.2546115,0.2407493,-0.3852216,0.07624765,0.2493381,-0.4035631,-0.2467471,0.3683208
0.762096,-0.3375005,0.1824914,-0.2218902,-0.007710037,0.1915488,-0.4904326,0.2116283,0.4534105
0.8471939,-0.4218892,0.3025209,-0.1377921,-0.09322202,0.3120049,-0.413535,0.1759065,0.4276913
0.9748796,-0.4812435,0.3923439,-0.0110192,-0.1537447,0.4022004,-0.2984482,0.1763289,0.425819
1.064935,-0.4374742,0.3726553,0.07821006,-0.111177,0.3828158,-0.4682718,0.1569645,0.3493455
1.079474,-0.358217,0.3915676,0.09200574,-0.03314291,0.4019477,-0.7190696,-0.001880349,0.3204681
1.131562,-0.3266211,0.4073263,0.1434231,-0.002782837,0.4178267,-0.7472699,-0.2881278,0.3452256
1.133799,-0.3621249,0.3609688,0.1450546,-0.03952933,0.3714765,-0.7178156,-0.8988901,0.3030371
1.076816,-0.495837,0.2448187,0.08752089,-0.1744848,0.2552092,-0.5480955,-1.237858,0.3273104
1.045702,-0.6483399,0.04526667,0.05590215,-0.3282221,0.05540973,-0.4001033,-1.197173,0.2994281
0.9979479,-0.7812466,-0.09421459,0.007683588,-0.4623385,-0.08444696,-0.3485054,-1.207299,0.101784
0.9893621,-0.8303179,-0.0680313,-0.001329226,-0.5125736,-0.05875747,0.00137804,-1.168488,-0.3353209
0.9880126,-0.7362718,-0.05036248,-0.003070746,-0.4196219,-0.04168819,0.4171489,-1.095088,-0.848794
0.9395428,-0.6332094,-0.1339075,-0.05189839,-0.3175633,-0.1259259,0.383709,-0.8630496,-0.9112309
1.007733,-0.5539933,-0.1873931,0.01596732,-0.2392452,-0.1801838,0.2730981,-0.2563289,-0.7135759
1.084648,-0.5035157,-0.2242309,0.09259012,-0.1895503,-0.2178581,0.5103625,0.393383,-0.675928
1.025311,-0.4462145,-0.1834538,0.03298944,-0.1329114,-0.1779651,0.5118405,0.3606208,-0.6385901
0.945101,-0.2430044,-0.01587204,-0.04745944,0.06975691,-0.01130018,0.2573779,-0.3395929,-0.5775558
0.7844617,-0.06561541,0.03791723,-0.2083126,0.2467183,0.04154914,0.04108873,-0.8657105,-0.5519188
0.6060258,-0.04553724,0.00675124,-0.3869315,0.2664692,0.009424864,-0.4600325,-1.081949,-0.5028093
0.6111971,-0.06231404,-0.03297815,-0.3818999,0.2494468,-0.03127792,-0.6779889,-0.8611809,-0.5021877
0.6898103,-0.1060393,-0.1368525,-0.3033674,0.2055395,-0.136136,-0.5689413,-0.3412917,-0.5129373
0.7524407,-0.1563065,-0.1726313,-0.2407456,0.1551383,-0.1729011,-0.6853592,-0.1978643,-0.4506426
0.8339213,-0.2217749,-0.170971,-0.1591928,0.08957155,-0.1722194,-0.5835159,0.02121056,-0.3988887
0.8607897,-0.3090879,-0.1651809,-0.1321668,0.002187367,-0.1673895,-0.3861695,0.2087429,-0.3674072
0.8410624,-0.3269549,-0.1202794,-0.1516496,-0.01572783,-0.1234202,-0.2569742,0.1028853,-0.317021
0.8513544,-0.2782539,-0.1050864,-0.1410256,0.03294563,-0.1091232,-0.1378384,0.1842357,-0.2650855
0.8678248,-0.1723121,-0.1097339,-0.1241359,0.1388779,-0.1146244,-0.3383085,-0.003065403,-0.2206529
0.9425158,-0.04942017,-0.1370939,-0.04893916,0.2617724,-0.1427906,-0.5587775,-0.2389296,-0.2069995
1.133926,0.0174138,-0.1392421,0.1430586,0.3286097,-0.145692,-0.7159067,-0.2106511,-0.1215347
1.323102,0.02329825,-0.1171697,0.3328935,0.3344839,-0.1243145,-0.8748528,-0.2692903,0.05955368
1.424529,-0.04633668,-0.1056397,0.4350327,0.2648099,-0.1134166,-0.8398708,-0.2066152,0.1541474
1.454051,-0.1353193,-0.05192415,0.465294,0.1757466,-0.06026711,-0.7391407,-0.2153383,0.2160237
1.444939,-0.1969391,-0.0556219,0.4569237,0.1139965,-0.06446369,-0.5912911,-0.1597916,0.3992964
1.424859,-0.2685277,-0.1464457,0.4375606,0.04222434,-0.1557184,-0.5314599,0.1032608,0.6034504
1.39883,-0.3460429,-0.221353,0.4122019,-0.03552729,-0.2309863,-0.7050575,0.2486288,0.6383857
1.397415,-0.4205794,-0.2307277,0.4113886,-0.1103488,-0.2406459,-0.9286253,0.5655121,0.5091067
1.390534,-0.5263116,-0.2424705,0.4050237,-0.2164063,-0.2525911,-1.058892,1.245884,0.4049754
1.281397,-0.6437413,-0.316805,0.296301,-0.334189,-0.3270375,-1.006159,2.158962,0.3529428
1.076022,-0.6655104,-0.2466022,0.09122899,-0.3563222,-0.256848,-0.9158275,2.438998,0.236238
0.9098034,-0.5983944,-0.05049745,-0.07480102,-0.289563,-0.06065182,-0.8946511,1.648742,0.1025398
0.8941129,-0.4883948,0.03407617,-0.09041142,-0.1798966,0.02411822,-0.8399472,0.9424302,0.1109064
0.9491506,-0.3522091,0.01432473,-0.03539127,-0.04400963,0.004662388,-0.8244171,0.8690122,0.3026752
0.9665389,-0.316673,-0.06314748,-0.01810802,-0.008733266,-0.07242276,-0.8247986,1.005581,0.5208992
0.9269396,-0.3401041,-0.08926623,-0.05789133,-0.03238479,-0.09806889,-0.7309313,0.9686728,0.5925258
0.743253,-0.3180095,-0.05850639,-0.2418313,-0.01047241,-0.06675469,-0.6078556,0.8721348,0.5704975
0.5378571,-0.3144862,-0.06221408,-0.4475355,-0.007094423,-0.06982962,-0.5398649,0.9823996,0.5513411
0.5861209,-0.2904212,-0.03126142,-0.3996138,0.01686021,-0.03816971,-0.5731254,1.186581,0.4422672
0.6653845,-0.2226345,0.0380356,-0.3207025,0.08456869,0.03190404,-0.6834257,1.428449,0.2743577
0.5830311,-0.2013392,0.1540832,-0.4033975,0.1058132,0.1487903,-0.7735138,1.178005,0.2182698
0.6048691,-0.2166246,0.2310605,-0.381871,0.09049808,0.2266566,-0.723405,0.3265781,0.2472005
0.6521323,-0.2081834,0.1766399,-0.3348712,0.09892442,0.1731607,-0.6557322,-0.2505217,0.2651684
0.6454952,-0.1918066,0.1445891,-0.3417077,0.1152948,0.1420557,-0.8128382,-0.2586629,0.2797825
0.7688334,-0.2208444,0.1548775,-0.218492,0.08625341,0.1532981,-0.8971184,0.05320284,0.3746119
0.8610831,-0.2972521,0.2213285,-0.1262793,0.009839998,0.2207,-0.6543348,0.2323346,0.4478603
0.890948,-0.3452461,0.3322314,-0.09636254,-0.03816398,0.3325379,-0.472547,0.2409692,0.3011232
0.8653388,-0.2574247,0.3153152,-0.1218312,0.04964314,0.3165258,-0.5606318,0.1510406,0.1041039
0.7515417,-0.137273,0.2875415,-0.2353991,0.1697753,0.2896091,-0.6677938,-0.2988882,0.02130358
0.8345077,-0.1902012,0.3235681,-0.1521141,0.116818,0.3264306,-0.6806036,-0.5721941,-0.05034847
0.9663057,-0.3469381,0.2356525,-0.01990604,-0.03996247,0.2392349,-0.6820622,-0.5287355,-0.09607727
1.055922,-0.5974903,0.06386635,0.07020816,-0.2905722,0.06808362,-0.3716428,-0.4613186,-0.009278135
1.313883,-0.9292215,-0.02193791,0.3287446,-0.6223642,-0.01717419,0.3764089,-0.2757346,0.02996671
1.408212,-0.9876939,-0.001883341,0.4237089,-0.6808777,0.003340758,0.8563854,-0.3058631,-0.3200614
1.199388,-0.7608244,-0.01425949,0.2155581,-0.4540011,-0.008656205,0.6893246,-0.4954809,-0.7634491
0.9690165,-0.5591088,-0.1424225,-0.01412095,-0.252206,-0.1365153,0.1888837,-0.5857506,-0.7543164
0.9231673,-0.4420741,-0.2212299,-0.05926876,-0.135006,-0.2150852,-0.2286965,-0.386528,-0.5376195
1.038765,-0.4202342,-0.2005732,0.05703698,-0.1129104,-0.1942451,-0.2169814,0.05965433,-0.4899647
1.074079,-0.4490349,-0.135613,0.09306128,-0.1413652,-0.1291427,0.03259482,0.0754632,-0.5309666
1.042842,-0.4304682,0.004419284,0.06253448,-0.122363,0.01100098,0.07900597,-0.1895084,-0.6490194
0.9379669,-0.3145318,0.05764672,-0.04163809,-0.005903535,0.06431392,-0.03255834,-0.4764826,-0.7866355
0.7248659,-0.1263688,0.01467625,-0.2540437,0.1828646,0.021404,-0.2035334,-0.784222,-0.7390399
0.6111912,-0.06477075,-0.005248624,-0.3670241,0.245138,0.001514605,-0.5174853,-0.7587022,-0.6257389
0.5946059,-0.1252418,-0.08426782,-0.3829033,0.1853961,-0.0774928,-0.7006777,-0.6972163,-0.6021579
0.6202517,-0.150379,-0.1244117,-0.3565239,0.1610255,-0.1176448,-0.6578754,-0.6930771,-0.6081689
0.721475,-0.1881512,-0.121492,-0.2545251,0.1240434,-0.1147472,-0.6994909,-0.5077988,-0.6271168
0.8791052,-0.2416869,-0.1771691,-0.09606794,0.07131006,-0.1704531,-0.7246071,-0.274532,-0.5769086
0.9951693,-0.2751592,-0.1716787,0.02087769,0.03864448,-0.1649904,-0.5458439,-0.01810831,-0.4645406
0.9596823,-0.2912407,-0.1472494,-0.01367643,0.02336837,-0.1405795,-0.303364,0.1048257,-0.376655
0.9141094,-0.2068393,-0.1579098,-0.0582706,0.1085694,-0.1512417,-0.2391626,0.02065301,-0.2478835
0.9342224,-0.07233672,-0.1556795,-0.03713749,0.2438595,-0.1489901,-0.4000547,-0.1352485,-0.1061194
0.9929831,-0.02239627,-0.1802911,0.02268075,0.2945655,-0.173551,-0.5870413,-0.3050303,0.01656421
1.170939,0.001295377,-0.2031388,0.2017257,0.3189869,-0.1963127,-0.7787118,-0.3542583,0.1398076
1.325107,0.01547627,-0.1990045,0.3570017,0.3338467,-0.1920505,-0.9579304,-0.2670531,0.2650021
1.362884,-0.05469503,-0.1779135,0.3958885,0.2642892,-0.1707831,-1.047312,-0.1566185,0.4204272
1.428446,-0.1658303,-0.130951,0.4625392,0.1536909,-0.1235909,-1.018919,-0.05160868,0.5031641
1.464977,-0.2850131,-0.1056133,0.500115,0.03496197,-0.09796696,-0.7862411,-0.001329204,0.5352303
1.392359,-0.3715345,-0.147372,0.4284746,-0.05118901,-0.1393815,-0.5235705,-0.008256553,0.6258017
1.350489,-0.4067135,-0.1991592,0.3874931,-0.08607597,-0.1907652,-0.4825758,0.04817392,0.6532101
1.381594,-0.4642164,-0.2011296,0.4193795,-0.143357,-0.19227,-0.6564927,0.1587997,0.5829691
1.403308,-0.5243611,-0.2310714,0.4417529,-0.2033394,-0.2216799,-0.7697883,0.519553,0.5133507
1.390514,-0.5497598,-0.2774523,0.4294812,-0.228623,-0.267458,-0.6154794,1.411703,0.4707335
1.252392,-0.5282119,-0.235784,0.2917309,-0.2069931,-0.2251107,-0.5240711,2.235498,0.3753473
1.004581,-0.4731342,-0.1615304,0.04413552,-0.1518539,-0.1500973,-0.6816432,2.181634,0.1534683
0.9156128,-0.4345138,-0.09513756,-0.04477369,-0.1131818,-0.08286244,-0.8367218,1.472098,-0.01526966
0.9809168,-0.3662063,-0.04155414,0.02044343,-0.04482515,-0.02835671,-0.9646419,0.9237003,0.03595656
0.9617481,-0.2722027,-0.02016579,0.001052554,0.0492287,-0.005971042,-1.095743,0.8298885,0.2390093
0.9272481,-0.2465267,-0.01146886,-0.03379439,0.07495619,0.003791226,-1.091556,0.9422384,0.4695184
0.8933442,-0.3365965,-0.04787239,-0.06815898,-0.01506326,-0.03148638,-0.9722018,0.9780265,0.5452824
0.6723358,-0.4441016,-0.06586673,-0.2897285,-0.1225199,-0.0483008,-0.7776556,0.8905204,0.4736212
0.4778345,-0.4304599,-0.03997034,-0.4848722,-0.1088287,-0.021176,-0.4729618,0.9313627,0.4315438
0.5578514,-0.3734678,-0.04777788,-0.4055534,-0.0517813,-0.02771179,-0.3608925,1.066243,0.3209772
0.6455072,-0.3190017,-0.02905043,-0.3186242,0.002749185,-0.007674577,-0.5213588,1.409034,0.1326008
0.6040552,-0.2462172,-0.006083715,-0.3608077,0.0756074,0.01663429,-0.5723228,1.695579,0.06168296
0.580715,-0.215895,0.03515949,-0.3848639,0.1060099,0.05924563,-0.5762098,0.8267162,0.07515153
0.5479707,-0.2121495,0.1660804,-0.4182884,0.1098374,0.1915523,-0.6127774,-0.1851918,0.1176686
0.5767042,-0.2338241,0.2290386,-0.3901799,0.08824099,0.2559024,-0.6155355,0.05379602,0.1553426
0.7326311,-0.286139,0.2058103,-0.2348053,0.03599564,0.2340571,-0.6726604,0.1905443,0.1779166
0.8360553,-0.3778745,0.2374734,-0.1318488,-0.05568126,0.2670789,-0.5467214,-0.1212853,0.2138984
0.8959044,-0.448363,0.3109954,-0.07237774,-0.1261207,0.3419196,-0.3278028,0.03011035,0.1794104
0.9496055,-0.3716899,0.3432417,-0.01896476,-0.04940414,0.3754283,-0.3316776,-0.0458727,0.1458921
0.9868301,-0.2732732,0.3460323,0.0180584,0.04905439,0.3794076,-0.3772923,-0.3341594,0.1267686
1.08151,-0.2259204,0.3711072,0.1126169,0.09644739,0.40558,-0.4088386,-0.2419204,0.07327049
1.137431,-0.2077671,0.3504694,0.168489,0.1146362,0.3859322,-0.4780436,-0.4361765,0.05776021
1.209451,-0.3327189,0.2627896,0.2405192,-0.01028903,0.2991203,-0.5466407,-0.7129991,0.009202951
1.370011,-0.5473668,0.1452273,0.4011338,-0.2249198,0.1822931,-0.5267359,-0.6289733,0.04908885
1.406509,-0.6721843,0.05782464,0.4377097,-0.349723,0.09548796,-0.199219,-0.5866915,0.0903948
1.22812,-0.5888356,0.06844671,0.2594017,-0.2663496,0.1065704,0.1425757,-0.5593398,-0.2320109
0.891332,-0.4599146,0.01665561,-0.07731809,-0.1373802,0.05510579,0.003456918,-0.7059577,-0.5479913
1.228004,-0.3138728,0.3429084,0.2140435,-0.04882889,0.2783902,0.1848941,-1.055812,0.2720566
1.19238,-0.4432184,0.2337209,0.1787642,-0.177941,0.1706912,0.2596305,-1.367817,0.2434561
1.182312,-0.7964264,0.07232716,0.1690925,-0.5309168,0.0107349,0.4779508,-1.232008,0.2631548
1.252938,-1.089039,-0.0222999,0.2401517,-0.8232795,-0.082511,0.8845344,-1.092266,0.1028748
1.24478,-0.9315384,-0.02032174,0.2324481,-0.6654814,-0.0792068,1.254969,-1.08595,-0.3227486
0.9744785,-0.6676192,-0.06220063,-0.03738945,-0.4011869,-0.1198106,1.349522,-1.033312,-0.9148477
0.6633741,-0.6261776,-0.1279179,-0.3480258,-0.3592705,-0.1842978,1.377034,-1.112827,-1.238104
0.7372113,-0.5047909,-0.1091982,-0.2737103,-0.2372975,-0.1643859,1.417791,-1.070422,-1.147096
0.9988489,-0.2745763,-0.10199,-0.0115737,-0.006380557,-0.1560152,1.511046,-0.9450109,-0.9136838
1.028349,-0.1748794,-0.1421807,0.01845086,0.09413078,-0.1950655,1.480126,-0.7472325,-0.5873688
0.9155219,-0.1248292,-0.1108398,-0.0938276,0.145096,-0.1625989,1.114497,-0.5032098,-0.3412355
0.7243168,-0.1573857,-0.07332418,-0.2844595,0.1135401,-0.1239657,0.6968583,-0.8469298,-0.3765911
0.6066873,-0.2330286,-0.07589614,-0.4014851,0.03896839,-0.1254229,0.4000046,-1.247501,-0.4606953
0.6571389,-0.2712038,-0.1094937,-0.3503863,0.001923144,-0.1579046,0.348041,-0.9955422,-0.517221
0.6648403,-0.3327366,-0.1837123,-0.3419809,-0.05842955,-0.2310015,0.4484816,-0.7802438,-0.5793802
0.8163688,-0.3201575,-0.1799907,-0.1896803,-0.04462587,-0.2261461,0.5931116,-0.7183048,-0.5543615
1.015476,-0.3627227,-0.1773065,0.01027228,-0.08592612,-0.2223087,1.075101,-0.3638803,-0.5472675
0.956792,-0.3983826,-0.2112156,-0.04749454,-0.1202833,-0.2550379,1.43012,-0.1428764,-0.5023752
0.9145074,-0.2061325,-0.1391515,-0.08879535,0.07330466,-0.1817605,1.258394,-0.2653498,-0.2942447
0.9446124,0.04465114,-0.09222037,-0.05764469,0.3254546,-0.1335776,0.8279173,-0.4190512,-0.08242487
0.9580657,0.2279068,-0.1142106,-0.0430876,0.5100888,-0.1542753,0.215947,-0.5509369,-0.01199397
1.092326,0.1371761,-0.09892595,0.09232895,0.4207249,-0.137656,-0.1493401,-0.5176826,-0.05752156
1.326378,-0.07806323,-0.05777695,0.327581,0.2068163,-0.09512996,-0.09764179,-0.4428232,0.007554597
1.433524,-0.1024921,-0.00723304,0.435952,0.1836645,-0.0431676,0.04859953,-0.5618946,0.2118653
1.38404,-0.135453,-0.00542272,0.3876969,0.151916,-0.03990052,0.2897298,-0.5973487,0.3596846
1.416356,-0.184846,-0.03557999,0.4212191,0.1036639,-0.06856682,0.5412874,-0.52724,0.4813797
1.429419,-0.3034349,-0.1304365,0.435445,-0.01385988,-0.1619013,0.599188,-0.3646422,0.58449
1.362693,-0.4264479,-0.3423295,0.3698146,-0.1358826,-0.3722405,0.2900516,0.1292286,0.5915439
1.407181,-0.3555532,-0.4402473,0.4153144,-0.06406725,-0.4685655,-0.3103308,0.8485392,0.4470421
1.394629,-0.4489817,-0.3878926,0.4036715,-0.156637,-0.4145662,-0.5878342,1.540014,0.2644811
1.212679,-0.651662,-0.3348395,0.222513,-0.3585111,-0.3598032,-0.3778447,1.85443,0.2090301
1.000304,-0.7071388,-0.1814635,0.01080424,-0.4132195,-0.2046419,-0.1996698,1.543701,0.07289516
0.9173611,-0.6689314,-0.03237238,-0.07159759,-0.3742623,-0.05368673,-0.1363882,0.9714976,-0.0363723
0.9905947,-0.417822,-0.09099448,0.002059665,-0.1224044,-0.1103687,-0.1230651,0.6544951,0.2193734
0.9552077,-0.1949409,-0.1443524,-0.03301254,0.1012338,-0.1617157,-0.2928575,0.6661236,0.5304146
0.7680487,-0.2745503,-0.09603855,-0.219956,0.02239003,-0.1113245,-0.3609107,0.6483193,0.6087
0.5878004,-0.3696588,-0.09843962,-0.4000738,-0.07194812,-0.1115856,-0.138805,0.3718897,0.6048527
0.5238955,-0.3015907,-0.08640414,-0.4639125,-0.003107212,-0.09735192,0.1555319,0.4197023,0.5801789
0.6951601,-0.2962254,-0.07165318,-0.2926211,0.003032506,-0.08034947,0.3199231,1.222338,0.4254439
0.7929283,-0.3380625,-0.08216148,-0.1948446,-0.03803016,-0.08855832,0.2962202,1.855271,0.194242
0.5720173,-0.2691269,0.06272191,-0.4157493,0.03167818,0.05866622,0.2610427,1.400743,0.06932311
0.3697052,-0.2755657,0.2359756,-0.6180391,0.0260085,0.2342929,0.2370804,0.4365318,0.01231212
0.3978326,-0.2712525,0.2351714,-0.5898496,0.03108426,0.2358782,0.135897,-0.08254577,0.003055242
0.5939136,-0.2213203,0.2059817,-0.3936413,0.08176901,0.2090757,0.06452714,-0.1693055,0.109313
0.7989336,-0.3233172,0.2565922,-0.1884096,-0.01948893,0.2620531,0.1009908,-0.03472826,0.2241467
0.8838883,-0.3642026,0.3181104,-0.1031496,-0.05965107,0.3259002,0.3135773,0.07923038,0.2855296
0.9579195,-0.3260748,0.3349987,-0.02871902,-0.02081539,0.3450607,0.5005571,-0.1385005,0.2348599
1.066821,-0.2810974,0.3533553,0.08067196,0.02485531,0.3656136,0.378158,-0.259222,0.1282485
1.09847,-0.2198819,0.3986432,0.1128906,0.08674834,0.4130031,0.2457993,-0.3930531,0.1478666
1.098746,-0.2908814,0.4055352,0.1138045,0.01640778,0.421883,0.3209235,-0.8213887,0.07482035
1.199429,-0.4331771,0.30032,0.2151815,-0.1252494,0.3185242,0.3895182,-0.9289962,-0.08016422
1.367152,-0.6280447,0.1097025,0.3836393,-0.3194955,0.1296182,0.6169721,-0.6545738,-0.05067631
1.443596,-0.7420975,0.01727417,0.4608383,-0.432933,0.03875077,1.026444,-0.4850158,-0.1404721
1.172583,-0.5960509,0.03168421,0.1905777,-0.2862613,0.05457203,1.033717,-0.9510714,-0.4588037
0.7300135,-0.4889762,-0.02421047,-0.251257,-0.1785371,-5.670845e-05,0.7984574,-1.457266,-0.7038493
0.7122192,-0.5847522,-0.1380251,-0.2683351,-0.2736291,-0.1127442,0.8498227,-1.078526,-0.6958559
0.9401526,-0.6539622,-0.1721571,-0.03969573,-0.3421121,-0.1458781,1.092026,-0.7295026,-0.5793423
1.057815,-0.6210703,-0.1040634,0.07866857,-0.3084404,-0.07690314,1.517981,-0.6696125,-0.6865048
1.12891,-0.536718,-0.04962629,0.1504594,-0.2232457,-0.02169039,1.773306,-0.5013501,-0.7998622
0.9432554,-0.2749498,-0.02614749,-0.03451018,0.03943314,0.002466778,1.520036,-0.7562423,-0.7900894
0.6692841,0.03099424,-0.002553531,-0.3078098,0.3463517,0.02664776,1.178282,-1.187041,-0.7127497
0.6263104,0.04749496,-0.036891,-0.3501178,0.3638751,-0.007189389,0.7644489,-1.352053,-0.4162545
0.6383312,-0.09305451,-0.09832822,-0.3374236,0.224375,-0.06820801,0.4328361,-1.314144,-0.3568606
0.6686954,-0.1781758,-0.1612607,-0.3063634,0.1403102,-0.1307967,0.4699546,-1.101202,-0.5688602
0.7483532,-0.2061214,-0.2138216,-0.2259745,0.1134147,-0.183079,0.4029523,-0.8874815,-0.6703102
0.8503295,-0.2100326,-0.2069306,-0.1232231,0.1105377,-0.1759631,0.3240488,-0.7157395,-0.7852888
0.9370834,-0.2483364,-0.2001321,-0.0356465,0.07324489,-0.1689811,0.5273955,-0.5098736,-0.7390213
0.9472105,-0.2525508,-0.2065014,-0.02465011,0.07001245,-0.1751968,0.712791,-0.2516558,-0.6201279
0.964361,-0.1450152,-0.1642215,-0.006587572,0.1784957,-0.1327829,0.7767565,-0.1104378,-0.515658
1.008637,0.0006811481,-0.1226358,0.03863849,0.325098,-0.09107412,0.5978083,-0.2121129,-0.1966914
1.070534,0.08023902,-0.1397983,0.1015164,0.4055077,-0.1081176,0.2019641,-0.2892889,-0.0105611
1.199489,0.09916353,-0.1534972,0.2314747,0.4252136,-0.1216964,-0.1672211,-0.3193515,0.05105101
1.360531,0.06951374,-0.1297277,0.3935283,0.396257,-0.09780027,-0.3651861,-0.3927537,0.2465847
1.461886,-0.05121463,-0.1197194,0.4958852,0.2761178,-0.08765416,-0.2388039,-0.3382842,0.4345416
1.508555,-0.2152773,-0.09954785,0.54352,0.1125297,-0.06732999,-0.08971347,-0.205136,0.5249159
1.534969,-0.3718422,-0.07657949,0.5708395,-0.04367794,-0.04419179,-0.05729369,-0.1019686,0.5079876
1.425163,-0.4287212,-0.1401295,0.4618506,-0.100312,-0.107553,0.02437105,-0.1898472,0.5151425
1.308421,-0.3907783,-0.2126009,0.3458181,-0.06222639,-0.1798141,-0.04667674,-0.3222102,0.5050108
1.35117,-0.4365938,-0.2177974,0.3891514,-0.1079904,-0.1847738,-0.1031486,0.1392782,0.4036201
1.330275,-0.475422,-0.2944122,0.3687041,-0.1468468,-0.2611185,-0.1032415,1.144839,0.323914
1.244636,-0.4449599,-0.3999971,0.283366,-0.1164809,-0.3663909,-0.3069571,2.07751,0.2203161
1.156933,-0.4473778,-0.3076812,0.1958101,-0.119051,-0.273709,-0.4626932,2.218167,0.08892508
0.988582,-0.3849788,-0.11517,0.02745222,-0.05684988,-0.08076878,-0.5875303,1.436878,0.0196649
0.9285646,-0.2756116,-0.01782196,-0.03272137,0.05228139,0.01707501,-0.7787931,0.762265,0.1550034
0.9703062,-0.2384374,-0.008970005,0.008724973,0.08918529,0.02648588,-0.8010837,0.5938992,0.3862824
0.90545,-0.2935671,-0.05001129,-0.0565541,0.0337516,-0.01393965,-0.6380966,0.6253577,0.4681251
0.7616946,-0.3927511,-0.05891807,-0.200847,-0.06576907,-0.02217986,-0.3505975,0.6951268,0.4883021
0.5975514,-0.416194,-0.06177652,-0.3656254,-0.08957747,-0.02432576,-0.0533426,0.6558305,0.4357369
0.5352948,-0.3614897,-0.0920922,-0.4285918,-0.03526138,-0.05388684,0.08541912,0.855538,0.3496901
0.6494914,-0.2874306,-0.06966439,-0.3151537,0.03839213,-0.03066566,0.04784503,1.372742,0.234802
0.699406,-0.2572119,-0.05667203,-0.2660222,0.06819036,-0.01684424,0.01187792,1.778047,0.01718769
0.5983182,-0.254097,0.02997792,-0.3678972,0.07086976,0.07066641,0.02157756,1.471757,-0.0009425223
0.5446861,-0.2111395,0.2247808,-0.4223012,0.1133753,0.2663544,-0.07488349,0.422504,0.07352851
0.5844292,-0.2085986,0.2752145,-0.3832944,0.1154457,0.3176849,-0.1558519,-0.2563497,0.09160526
0.679747,-0.2398785,0.2138949,-0.2886579,0.08367372,0.2572572,-0.1882699,-0.3161807,0.2368287
0.8153048,-0.3100631,0.2096806,-0.1537117,0.01297376,0.2539134,-0.1747025,-0.1567341,0.2519452
0.9316161,-0.4087133,0.284684,-0.03793454,-0.08621394,0.3297506,0.07159488,-0.06596868,0.184021
1.016653,-0.3707008,0.3638123,0.04664674,-0.04875684,0.4096612,0.3286056,-0.3353443,0.2211791
1.071717,-0.2471611,0.3608294,0.1013295,0.07421433,0.407392,0.3156782,-0.4493974,0.1630699
1.063276,-0.1473987,0.3484662,0.0925743,0.1733966,0.3956563,0.1798249,-0.5860403,0.1716817
1.034364,-0.1499584,0.3436116,0.063406,0.1702421,0.391327,0.1441573,-1.040241,0.2449434
1.034901,-0.3064329,0.2897455,0.06373689,0.01315336,0.3378699,0.1735521,-1.339627,0.1939034
0.9948394,-0.5307795,0.1781779,0.02351451,-0.2118269,0.2265841,0.3174132,-1.364198,0.2208958
0.9551114,-0.8079536,0.05303547,-0.01633511,-0.489645,0.1015907,0.8041055,-0.9566957,0.1940129
0.9750976,-0.9136699,-0.01802932,0.00356588,-0.5959959,0.03054267,1.422346,-0.72335,-0.1730568
0.9228316,-0.669579,-0.07368681,-0.04875076,-0.3525045,-0.02522462,1.688912,-1.13072,-0.7177571
0.7930717,-0.4495759,-0.1205583,-0.1785271,-0.1330443,-0.07232323,1.360111,-1.417501,-0.9520797
0.7090136,-0.450809,-0.1612121,-0.2625639,-0.1347522,-0.1133101,1.025294,-1.24669,-0.6731985
0.7670729,-0.4518047,-0.2149131,-0.204438,-0.1361499,-0.1674364,1.306665,-0.9931735,-0.4962729
0.952602,-0.4395128,-0.199492,-0.0187902,-0.1241846,-0.1525182,1.611385,-0.8817015,-0.6139142
1.096817,-0.4861632,-0.1461732,0.1255962,-0.1710836,-0.09976534,1.713801,-0.5615577,-0.6547749
1.075895,-0.4090402,-0.1264743,0.1048943,-0.09412907,-0.08068291,1.747191,-0.480934,-0.7258642
0.8600246,-0.2006494,-0.07549086,-0.1107176,0.1141733,-0.03035624,1.47144,-1.070149,-0.6990399
0.6497413,-0.07721582,-0.03029944,-0.3207044,0.237592,0.01414541,1.228644,-1.364096,-0.5440941
0.6465996,-0.07523558,-0.1177093,-0.3235058,0.2396179,-0.0739816,0.9691079,-1.112316,-0.5849719
0.7315251,-0.1653601,-0.2384938,-0.2381857,0.1495842,-0.195504,0.7313329,-0.6402795,-0.6842666
0.7904532,-0.2577077,-0.2399082,-0.1787996,0.05735948,-0.1976672,0.9249717,-0.2181767,-0.8260454
0.8273855,-0.3171411,-0.1928003,-0.1413407,-0.001927058,-0.1513071,1.122959,-0.03415902,-0.980044
0.87613,-0.3551125,-0.1553202,-0.09199906,-0.03973167,-0.114563,1.399948,0.08131592,-0.9439666
0.8902156,-0.2607129,-0.1204308,-0.0772463,0.05485292,-0.0803898,1.677635,0.06208997,-0.7885664
0.8622058,-0.1466151,-0.1353579,-0.1045211,0.1691508,-0.0960073,1.375715,0.08719327,-0.4895334
0.8985988,-0.04469435,-0.1709035,-0.0673276,0.271279,-0.1322125,0.9944631,0.0914489,-0.2545859
0.9175784,0.09809733,-0.1682011,-0.04748474,0.414273,-0.1301337,0.7668124,0.03887262,-0.2478337
0.9088663,0.03668252,-0.1337852,-0.05527466,0.3530385,-0.09629981,0.5871794,0.0682908,-0.1741965
0.9695743,-0.09944992,-0.0726588,0.00641021,0.2170476,-0.03570983,0.6590378,-0.2225753,-0.05732823
1.085123,-0.04893403,-0.01396464,0.1229842,0.2676531,0.02249487,0.7126596,-0.5448585,0.04131893
1.237985,-0.01130179,0.01889812,0.2769096,0.305313,0.05491361,0.6882302,-0.6867517,0.2003505
1.336182,-0.03333677,0.02719879,0.3761922,0.2832337,0.06281192,0.7193831,-0.8703178,0.2807139
1.426965,-0.0611782,-0.004989895,0.468062,0.2552668,0.03025801,0.7175532,-0.9182605,0.302612
1.558775,-0.1927063,-0.02962713,0.6009352,0.1235249,0.005288789,0.8031307,-0.8040084,0.346811
1.57401,-0.2679952,-0.03383475,0.6171813,0.04793157,0.0007798261,0.858974,-0.5833356,0.3762826
1.526061,-0.2353057,-0.05544742,0.570161,0.08022776,-0.02110512,0.620799,-0.4104354,0.4350838
1.501604,-0.293845,-0.07989055,0.5465261,0.0212105,-0.04579218,0.3793094,0.005902474,0.4881769
1.446741,-0.3764406,-0.1357658,0.4923526,-0.06194212,-0.1018824,0.3454488,0.9123593,0.3820568
1.346067,-0.4027423,-0.1837799,0.3922174,-0.08887178,-0.1500802,0.08513896,1.676863,0.1117167
1.115164,-0.3886789,-0.1731988,0.1616912,-0.0754972,-0.1396471,-0.4933761,1.705176,-0.1809233
0.898115,-0.3572769,-0.1444752,-0.05514592,-0.04483464,-0.111031,-0.778709,0.975554,-0.2795281
0.9979085,-0.40266,-0.08061422,0.04470059,-0.09099869,-0.04723366,-0.664588,0.3151358,0.003519202
1.154059,-0.4811939,-0.0472339,0.2007545,-0.1703456,-0.01387197,-0.4519562,0.2080362,0.4345137
1.097694,-0.5721131,-0.09271953,0.1441494,-0.2620983,-0.05933219,0.02333568,0.3334104,0.6563251
1.024748,-0.6580639,-0.1159368,0.07082284,-0.3488882,-0.082481,0.6132679,0.5272012,0.6560652
0.8801617,-0.6403445,-0.1044427,-0.07427703,-0.3319956,-0.07087547,0.9419189,0.6149785,0.4640295
0.749619,-0.5197428,-0.103015,-0.2054559,-0.2121909,-0.06929297,1.253246,0.6624035,0.2586378
0.8357134,-0.2983882,-0.1126963,-0.1201035,0.00840937,-0.07877579,1.454999,0.807605,0.2786128
0.8237579,-0.08810096,-0.1131146,-0.1328894,0.2179885,-0.07895201,1.190828,1.20695,0.3685383
0.6927153,0.0254829,-0.07559442,-0.2648343,0.3309039,-0.04114618,0.8771485,1.402408,0.4038982
0.5579367,0.07221882,0.05630776,-0.4005683,0.3769969,0.0910836,0.7514881,0.4410211,0.4391699
0.3882405,-0.0300383,0.2387024,-0.5712491,0.2741055,0.2738416,0.7001151,-0.6135126,0.4148654
0.4220334,-0.1862674,0.2634839,-0.5384413,0.1172362,0.2990099,0.871549,-0.4794492,0.3614968
0.5213961,-0.2804035,0.1875906,-0.4400344,0.0224461,0.2235109,1.030264,-0.09767028,0.3504164
0.5549515,-0.3562787,0.2078619,-0.4073798,-0.05409818,0.244169,1.045758,-0.1765817,0.3011309
0.6925628,-0.3538689,0.2340675,-0.2705943,-0.05236957,0.2707406,1.090196,-0.1892761,0.2014743
0.7959133,-0.3117517,0.2561912,-0.1679806,-0.01094076,0.2931967,1.064543,-0.1373437,0.1285836
0.897486,-0.2753961,0.3289688,-0.06704874,0.02472304,0.3662599,1.070974,-0.3071073,0.1188673
1.083154,-0.2458935,0.3641016,0.1180746,0.05353213,0.4016168,1.094689,-0.373121,0.1710691
1.24179,-0.2979652,0.4004586,0.2762554,0.0007660177,0.4381209,1.071301,-0.44004,0.2194644
1.381167,-0.3299875,0.4120914,0.4152517,-0.03195087,0.4498073,1.059488,-0.6482674,0.2450581
1.402111,-0.2926073,0.3149964,0.435867,0.004736937,0.3526572,0.8055513,-0.8597115,0.2545868
1.320522,-0.3024975,0.2118064,0.3539782,-0.005841281,0.2492912,0.4201483,-1.14501,0.2440223
1.30179,-0.413255,0.1532413,0.3349552,-0.1172799,0.1904229,0.3691284,-1.20622,0.2348794
1.267067,-0.5638481,0.1294791,0.2999305,-0.2685418,0.1662283,0.8835388,-1.127089,0.1023743
1.06275,-0.5900851,0.06250286,0.09528894,-0.2954248,0.09869209,1.362417,-1.150953,-0.1775714
0.7478853,-0.556143,-0.07799839,-0.2199302,-0.2620925,-0.04249211,1.083199,-1.305769,-0.3816661
0.6776768,-0.627767,-0.1254456,-0.290517,-0.3342763,-0.09073601,0.8814344,-1.515943,-0.4292177
0.910396,-0.6860428,-0.1285781,-0.05818777,-0.3930482,-0.09476591,1.313002,-1.238582,-0.4875215
1.113016,-0.6584789,-0.1623622,0.1440397,-0.3659016,-0.1295336,1.684258,-0.7947928,-0.6485383
1.20721,-0.6083018,-0.1399305,0.2378388,-0.3160488,-0.1081573,1.850449,-0.5920369,-0.7218864
1.077499,-0.4260081,-0.1112254,0.1077241,-0.1339759,-0.08056533,1.759191,-0.4948165,-0.6884195
0.8000982,-0.09934927,-0.07428714,-0.1700938,0.192569,-0.04478607,1.378331,-0.7867132,-0.6339706
0.7481678,0.04835955,-0.0561029,-0.2224522,0.3402617,-0.02779684,0.9588095,-1.087307,-0.4760759
0.7646275,-0.02642264,-0.1067613,-0.2064206,0.265543,-0.07967793,0.4040652,-0.9460701,-0.440464
0.7297862,-0.06436168,-0.121038,-0.2416783,0.2277268,-0.09519676,0.1120946,-0.6455441,-0.5955119
0.7294226,-0.1260787,-0.09699789,-0.2424343,0.1661745,-0.07240918,0.2714659,-0.4164723,-0.7069502
0.6771331,-0.1890182,-0.05800433,-0.2950805,0.103428,-0.03467053,0.3058479,-0.4269133,-0.8173665
0.7223804,-0.1363949,-0.02883271,-0.2501422,0.1562623,-0.00674983,0.39547,-0.5489,-0.8514031
0.8401946,-0.1254427,-0.0821779,-0.1325789,0.1674345,-0.06133713,0.6139126,-0.481215,-0.7353182
0.9003923,-0.08303409,-0.1656631,-0.07256779,0.2100626,-0.1460504,0.5888142,-0.1906144,-0.5601838
0.9543139,0.03301966,-0.1998622,-0.01876692,0.3263243,-0.181456,0.4670477,0.207675,-0.3447197
0.9336379,0.05882626,-0.1656975,-0.03949931,0.3523138,-0.1484667,0.239603,0.3631407,-0.2229544
0.9426293,0.06950828,-0.1311641,-0.03050278,0.3631382,-0.1150687,-0.07021989,0.09285218,-0.1846676
1.029633,0.07060843,-0.1383306,0.05656459,0.3643245,-0.1233232,-0.2614527,-0.0846426,-0.1004581
1.106194,0.02685362,-0.1165774,0.1332416,0.3205849,-0.1026048,-0.422594,-0.03414748,0.01828714
1.205406,-0.01856731,-0.06671999,0.2326128,0.2750961,-0.05372475,-0.5609141,-0.1634318,0.1313779
1.300217,-0.09785937,-0.03165643,0.3276143,0.1956442,-0.01957853,-0.5380176,-0.3432987,0.2081623
1.468806,-0.1798286,-0.03596856,0.4964055,0.1134182,-0.0247476,-0.3081273,-0.4464549,0.3622724
1.635438,-0.2799008,-0.09056251,0.6632304,0.0129924,-0.08013842,-0.009992835,-0.3886537,0.5906912
1.620482,-0.3835699,-0.1535663,0.6484279,-0.09112242,-0.1438781,0.09936286,-0.1252663,0.6721721
1.558631,-0.4271063,-0.1903816,0.5866615,-0.1351871,-0.1813651,-0.1275593,-0.04626628,0.5956398
1.488701,-0.4601126,-0.1975891,0.5167198,-0.1687913,-0.1891747,-0.3591218,-0.1321352,0.464872
1.392697,-0.4707879,-0.2444945,0.4205877,-0.1801198,-0.2366067,-0.2837434,-0.01872472,0.3788111
1.295928,-0.4645579,-0.3463381,0.3235592,-0.1745837,-0.3388937,-0.1998134,0.7946059,0.5029611
1.140461,-0.4658027,-0.3686247,0.1676913,-0.1765494,-0.3615305,-0.225234,2.13955,0.6448881
1.02399,-0.4242288,-0.2934671,0.05067665,-0.1357104,-0.2866189,-0.4169316,2.514384,0.408977
1.002706,-0.3556756,-0.2059887,0.02871338,-0.06789557,-0.1992732,-0.8605723,1.673751,0.07430421
0.9801576,-0.2339827,-0.08974435,0.005358765,0.05306259,-0.0830438,-1.129682,0.8937431,0.1223651
0.9299773,-0.110424,0.01724038,-0.04574494,0.1758919,0.02404237,-1.152185,0.5180253,0.5160795
0.8800257,-0.2007309,-0.06002527,-0.09672439,0.08485803,-0.0530114,-1.135999,0.4487839,0.8958645
0.7881711,-0.3503533,-0.2082249,-0.189697,-0.06549199,-0.2008949,-0.9808029,0.6697835,0.8177648
0.6257969,-0.3009877,-0.1492799,-0.3532616,-0.01685423,-0.1415323,-0.6407181,0.8293431,0.6578112
0.5786974,-0.2861635,-0.09369115,-0.4016016,-0.002754766,-0.08542558,-0.2500002,1.036352,0.7705328
0.7052483,-0.3546241,-0.1101195,-0.2763167,-0.07193413,-0.1012378,-0.1453744,1.538549,0.5029944
0.769442,-0.3116431,0.02967532,-0.2133923,-0.02966263,0.03926672,-0.1341318,1.871958,0.1668244
0.6774448,-0.2527084,0.1219319,-0.3066445,0.02857498,0.1323187,0.09558056,1.400281,0.2354514
0.5747224,-0.1491299,0.1592244,-0.4105907,0.1314694,0.1704802,-0.02843884,0.4094869,0.1563264
0.579552,-0.04825117,0.2193187,-0.4069347,0.2316735,0.2315017,-0.4346128,0.06772684,0.132599
0.6069435,-0.1269297,0.1742496,-0.3806466,0.1523228,0.1874014,-0.579609,0.3260299,0.3360764
0.6576013,-0.2685585,0.2343744,-0.3310043,0.01001779,0.2485202,-0.5959555,0.2859302,0.3891004
0.8303038,-0.4293137,0.3591994,-0.1592154,-0.1514195,0.3743474,-0.3079536,0.1669623,0.3469839
0.9926804,-0.4588388,0.3813942,0.002356399,-0.181627,0.3975334,0.02306111,0.1157729,0.2503493
1.059892,-0.2654571,0.3754735,0.06887137,0.01108001,0.392572,-0.1471987,-0.0599945,0.2039345
1.087589,-0.1630781,0.338107,0.09597204,0.1127968,0.3561125,-0.3105352,-0.2698951,0.2819073
1.16062,-0.1906118,0.3578492,0.1684981,0.0846126,0.3766913,-0.3566421,-0.4755032,0.3206593
1.259409,-0.3058342,0.3386631,0.2668614,-0.0312514,0.3582552,-0.5432251,-0.5298628,0.2779672
1.243219,-0.5765502,0.1985375,0.2503078,-0.3025987,0.2187793,-0.5565432,-0.5000743,0.2229365
1.287669,-0.8145053,0.1182929,0.2944416,-0.5411645,0.1390751,-0.2598157,-0.3893817,0.1989206
1.324732,-0.8123671,0.1026255,0.3312175,-0.5395962,0.1238352,0.2806912,-0.3267785,-0.09605648
0.9279005,-0.5720162,0.03389677,-0.06588518,-0.2997509,0.05542122,0.603292,-0.8217179,-0.7205199
0.5303123,-0.3940004,-0.1250979,-0.4637342,-0.1221594,-0.1033678,0.3288078,-1.318839,-1.002186
0.7355572,-0.4462618,-0.1391004,-0.2587297,-0.1747556,-0.1172655,0.1603328,-1.016475,-0.6890686
1.061541,-0.5216877,-0.05223841,0.06704698,-0.250423,-0.03038841,0.499053,-0.6393978,-0.3927839
1.092965,-0.5150178,-0.1040182,0.0983019,-0.2438969,-0.08223234,0.8619614,-0.6336482,-0.447768
1.089019,-0.4150274,-0.05075786,0.09422002,-0.1439478,-0.02910616,1.032444,-0.3281796,-0.5383346
0.955562,-0.211624,-0.000674775,-0.03934498,0.05951838,0.02078024,0.8410628,-0.1888701,-0.5699008
0.7134729,-0.04042604,-0.06966396,-0.2815166,0.2308771,-0.04846199,0.3769502,-0.5952002,-0.5356588
0.6895287,-0.04144146,-0.03505072,-0.3055116,0.2301068,-0.01415257,0.08891816,-0.7134638,-0.4357582
0.6914918,-0.09731212,-0.07904823,-0.3035562,0.1745482,-0.0584987,-0.2236305,-0.7216382,-0.5652776
0.6866357,-0.08904138,-0.1406668,-0.3083642,0.1831818,-0.120504,-0.5180084,-0.7854902,-0.7002505
0.7766938,-0.1390262,-0.1284812,-0.2181915,0.1335968,-0.1087351,-0.4750507,-0.6098781,-0.6614184
0.8305922,-0.2372451,-0.1801345,-0.1641037,0.0358032,-0.160826,-0.4486813,-0.4081171,-0.698117
0.8935606,-0.3056605,-0.1598491,-0.1008669,-0.03216844,-0.1409893,-0.3009017,-0.09059494,-0.6287783
0.9262371,-0.3145278,-0.1279855,-0.06784284,-0.04057694,-0.1095765,0.1421998,0.1369729,-0.4197932
0.9476743,-0.2000303,-0.1446079,-0.0459808,0.07439276,-0.1266434,0.2818542,0.1963879,-0.2174288
0.9592694,-0.05612812,-0.1311641,-0.03388733,0.2187765,-0.1136311,0.008237575,0.2237349,-0.06708716
0.9406284,0.01447048,-0.132772,-0.05196071,0.2898568,-0.115651,-0.306286,-0.05155363,-0.07935776
1.057778,0.02769485,-0.1076597,0.06582082,0.3035492,-0.09092565,-0.5216437,-0.3520634,-0.05332965
1.189434,0.03873261,-0.07533436,0.1981647,0.3150263,-0.05895785,-0.6815195,-0.5606533,0.1170315
1.262681,0.02937658,-0.07178552,0.2721433,0.3060658,-0.05573435,-0.8113963,-0.7056123,0.2855463
1.315193,-0.05298337,-0.05083101,0.325415,0.2240444,-0.03507138,-0.8234012,-0.6949116,0.3810344
1.326299,-0.1702339,-0.04035073,0.3372878,0.1070655,-0.02484818,-0.5755671,-0.7392774,0.4343773
1.36735,-0.3343532,-0.09794163,0.3790947,-0.05685274,-0.08266145,-0.1801824,-0.6252278,0.6255037
1.35133,-0.4380863,-0.2025074,0.3637981,-0.1604524,-0.1874132,-0.08899566,-0.4108061,0.8156607
1.349557,-0.4075196,-0.2610232,0.3627002,-0.1298109,-0.246074,-0.372675,-0.2163129,0.756405
1.44414,-0.4295159,-0.2765065,0.45789,-0.15178,-0.261653,-0.6908885,0.3749026,0.5888509
1.47737,-0.4949171,-0.2956432,0.4916404,-0.2171904,-0.2808267,-0.8404493,1.289791,0.4272408
1.370827,-0.5599767,-0.2982648,0.3855152,-0.2822829,-0.2834168,-0.7983863,2.028576,0.3485201
1.120384,-0.6267977,-0.2399026,0.1353707,-0.3491461,-0.2249456,-0.7673365,2.081154,0.332206
0.9382263,-0.5118372,-0.1126181,-0.04661244,-0.234221,-0.09746838,-0.8088211,1.523507,0.2498766
0.9364846,-0.3297705,-0.03721889,-0.04829832,-0.05216995,-0.02179095,-0.7826668,0.9646347,0.2942601
0.964972,-0.3342899,-0.06848052,-0.01986455,-0.0566784,-0.05269181,-0.7347641,0.7359961,0.4565049
0.9512295,-0.4284522,-0.08363113,-0.03376024,-0.1508004,-0.06740357,-0.6176819,0.8359561,0.4916412
0.8247047,-0.4957909,-0.05580387,-0.1605277,-0.2180663,-0.03906354,-0.3430249,0.9215957,0.4385715
0.6383575,-0.5009313,-0.05772024,-0.3471937,-0.2230946,-0.04039731,-0.02926704,0.9424194,0.3231491
0.5728747,-0.4103651,-0.05667088,-0.4130524,-0.1323701,-0.03869998,0.2303936,1.055954,0.2589819
0.6850002,-0.29314,-0.02698062,-0.3013371,-0.01493563,-0.008301067,0.3337287,1.128427,0.2870073
0.7614802,-0.1921764,0.01831911,-0.2252804,0.0862876,0.03776259,0.3050523,1.124074,0.2603704
0.6377362,-0.1437449,0.1233011,-0.3494435,0.1350234,0.1435564,0.3197274,0.7227177,0.2853723
0.5652963,-0.1516656,0.1991152,-0.4222817,0.1274424,0.2202197,0.3288181,0.04807518,0.3244727
0.618428,-0.127274,0.1650199,-0.3695092,0.1521992,0.1869974,0.2604826,-0.1993069,0.2815228
0.634079,-0.1179754,0.1484453,-0.3541603,0.1618782,0.1713056,0.02709588,-0.2388241,0.2726858
0.6475728,-0.2125404,0.1807669,-0.3408958,0.06769936,0.204507,-0.2423774,-0.1353689,0.281594
0.6723121,-0.3616657,0.2235238,-0.3162999,-0.08104041,0.2481283,-0.04671285,0.2050413,0.2682741
0.7185013,-0.4274608,0.3071151,-0.2701572,-0.1464516,0.3325554,0.3179666,0.09947678,0.1925047
0.8243043,-0.3478209,0.3521809,-0.1642961,-0.06642563,0.3784134,0.3241681,-0.2015936,0.1127229
0.921727,-0.2277708,0.3152398,-0.06670762,0.05401547,0.342204,0.2155461,-0.2914896,0.1597973
0.9757214,-0.1113417,0.3137751,-0.01244174,0.1708393,0.3413949,0.04661463,-0.5474397,0.2457391
1.056894,-0.08159309,0.3335882,0.06910157,0.2009798,0.361773,-0.1485109,-0.7823029,0.311744
1.165142,-0.2212733,0.3051883,0.17781,0.0616798,0.3338345,-0.2058635,-0.9899637,0.3640393
1.228735,-0.3954902,0.2737459,0.2419387,-0.1121742,0.3027388,-0.2295132,-1.189531,0.3516856
1.298077,-0.6029178,0.2132068,0.3118745,-0.3192542,0.2424228,-0.1861832,-1.116069,0.3051636
1.375496,-0.8117467,0.1558005,0.3899249,-0.5277394,0.1851103,-0.009096324,-0.9323355,0.202668
1.303534,-0.8476238,0.1551631,0.3186096,-0.5632565,0.1844353,0.3599522,-0.6746565,-0.03546606
0.9497763,-0.8120578,0.1297759,-0.03450306,-0.5272898,0.1588788,0.6506505,-0.7467334,-0.2858233
0.5481691,-0.8266496,0.08396252,-0.4354748,-0.5414162,0.1127661,0.6215774,-1.088885,-0.4651071
0.5842112,-0.847711,0.01485055,-0.3987978,-0.5619256,0.04322813,0.8461489,-1.280524,-0.6703596
0.8738453,-0.8263836,-0.080887,-0.1085142,-0.5399392,-0.05305531,1.386392,-1.813273,-0.9271518
1.014722,-0.7301099,-0.1431166,0.03303594,-0.4428813,-0.1159403,1.903961,-1.919532,-1.193752
1.120392,-0.5463508,-0.2070819,0.1394038,-0.2581997,-0.1806566,2.417239,-1.012215,-1.2444
1.051979,-0.2935296,-0.229288,0.07170562,-0.004313305,-0.2036929,2.439729,-0.3391731,-1.054766
0.8627758,-0.1186434,-0.167019,-0.1167729,0.1717745,-0.1423163,2.085479,-0.4547962,-0.8472557
0.8851735,-0.08667073,-0.1343813,-0.0936421,0.2050688,-0.1106174,1.878633,-1.048204,-0.5303048
0.868708,-0.1002509,-0.1873594,-0.1093646,0.1929097,-0.1645677,1.382255,-1.319053,-0.4032715
0.8470946,-0.1581535,-0.2382913,-0.1302225,0.1365068,-0.2164924,0.8982064,-0.923211,-0.6900503
0.9275052,-0.2847041,-0.1996674,-0.0490411,0.01151683,-0.1788684,0.9763963,-0.4532574,-0.9115872
0.8852796,-0.3897477,-0.161368,-0.09047923,-0.09191734,-0.1415633,1.144265,-0.2388278,-1.052197
0.8935667,-0.3685922,-0.1500945,-0.08138709,-0.06911059,-0.1312675,1.468095,-0.3391403,-1.110623
0.906196,-0.3232002,-0.1083215,-0.06793478,-0.02202973,-0.09044725,1.844213,-0.3935777,-0.9809986
0.8647862,-0.2822994,-0.1664175,-0.1085029,0.02059235,-0.149464,1.767405,-0.3211467,-0.9318004
0.9288584,-0.1537826,-0.252615,-0.04356972,0.1508554,-0.2365432,1.632744,-0.1496572,-0.8426649
0.9594391,-0.1393219,-0.2007563,-0.01210915,0.1670762,-0.1855181,1.613966,0.2868142,-0.7197453
0.9870355,-0.1532719,-0.1667314,0.01638391,0.1548873,-0.15227,1.544913,0.3739145,-0.6643093
0.9863397,0.02017862,-0.1763024,0.01659811,0.3300855,-0.1625537,1.345363,0.1593163,-0.4741286
0.9291456,0.1044437,-0.1356076,-0.03967657,0.416068,-0.1225022,0.8696263,0.1173029,-0.3214345
0.9393614,0.07848163,-0.10985,-0.02853458,0.3917727,-0.09731482,0.5249492,0.01810151,-0.2285762
0.9481158,0.05749128,-0.05919953,-0.01884889,0.3723772,-0.04715932,0.5510846,-0.173039,-0.06949916
1.041108,-0.0136902,0.02378327,0.07507803,0.3027002,0.03540283,0.6215453,-0.343119,0.004751354
1.169504,-0.02107719,0.03660543,0.2044053,0.2967122,0.04787499,0.6485164,-0.3567497,0.1014422
1.18987,-0.01787054,0.03529141,0.2256929,0.3012003,0.04627584,0.7038489,-0.3971476,0.2966456
1.240462,-0.04984507,0.04617538,0.2771818,0.2703794,0.05693321,0.7327557,-0.5744303,0.4366142
1.342365,-0.05024036,0.01488827,0.3799442,0.2710013,0.02547192,0.7016799,-0.5456739,0.5245918
1.423194,-0.100205,-0.02798867,0.4615776,0.2219107,-0.01753188,0.6127419,-0.4314453,0.572913
1.435177,-0.1596793,-0.05675367,0.474292,0.1631629,-0.04637974,0.2838939,-0.2731971,0.5025329
1.404165,-0.211452,-0.04112769,0.4439169,0.1119681,-0.03079431,-0.2579764,-0.06242345,0.3171136
1.39185,-0.3447315,-0.01591223,0.4321261,-0.02087955,-0.005578421,-0.372853,-0.03097606,0.1693998
1.36444,-0.5224164,-0.0682225,0.405113,-0.1982709,-0.05784886,0.2167533,0.4026674,0.2344318
1.285362,-0.5957233,-0.1801642,0.3262892,-0.2714079,-0.1697118,0.6389194,1.530608,0.3519283
1.128449,-0.4563745,-0.2584483,0.1694812,-0.1319943,-0.2478752,0.2358374,2.130738,0.2709808
0.9877126,-0.2785312,-0.1428866,0.02869828,0.04582484,-0.1321449,-0.3129587,1.560023,0.1763758
0.961512,-0.2288689,0.02766436,0.002304792,0.09538344,0.03862672,-0.5288566,0.7804562,0.1750898
1.010749,-0.1955879,-0.03410656,0.05121141,0.1284846,-0.0228722,-0.7054603,0.3792793,0.2787601
1.038951,-0.1636529,-0.09602296,0.07895517,0.160164,-0.08446868,-0.6927153,0.3626198,0.5607117
0.9450085,-0.2123688,-0.06301159,-0.01556565,0.1111159,-0.05109167,-0.5338194,0.7479253,0.6802859
0.7942326,-0.2591787,-0.1083334,-0.1670302,0.06389721,-0.09600299,-0.5470158,1.05334,0.622516
0.6771382,-0.2516006,-0.05808212,-0.2849085,0.07099176,-0.04529721,-0.4996844,1.16551,0.5226242
0.6507287,-0.2462496,0.02963437,-0.3121775,0.07578751,0.04291626,-0.449091,1.234169,0.2068473
0.7496568,-0.2320573,0.03436328,-0.2141624,0.08935551,0.0481805,-0.4140998,1.315576,0.09632045
0.7859401,-0.2093543,0.1071144,-0.1788263,0.1113676,0.1214988,-0.1921279,1.550675,0.3425241
0.6540699,-0.2245534,0.1841085,-0.3116611,0.09541281,0.1990833,-0.1032046,1.197844,0.4785035
0.5443512,-0.2464577,0.2490045,-0.4223442,0.07268974,0.2645812,-0.1597453,0.4235966,0.4146053
0.6101114,-0.2482719,0.2708456,-0.357528,0.06999598,0.2870217,-0.2749348,0.25774,0.2405376
0.6847997,-0.2566651,0.1942758,-0.2837432,0.06066561,0.2110341,-0.5191535,0.2538504,0.1354907
0.648509,-0.2741244,0.2039687,-0.3208802,0.04221489,0.2212788,-0.6128026,0.2415869,0.1888527
0.7051844,-0.2980951,0.2666978,-0.26498,0.01720278,0.284518,-0.4988659,0.2986575,0.2482932
0.838667,-0.3245909,0.3163398,-0.1321905,-0.01037953,0.3346166,-0.376919,0.1911129,0.2266956
0.9273099,-0.3073828,0.3643605,-0.04415275,0.005702744,0.3830273,-0.4319482,0.1978677,0.2221752
0.9982163,-0.2603945,0.337525,0.02623686,0.05153159,0.3565008,-0.56453,0.06405921,0.3361883
1.009462,-0.2562492,0.3502583,0.03705039,0.05448791,0.3694484,-0.6247847,-0.2470695,0.3865115
1.060136,-0.2910224,0.3703394,0.08736947,0.01849958,0.3896363,-0.7152801,-0.5000865,0.3255594
1.185577,-0.387666,0.2889898,0.2125249,-0.07938152,0.3082746,-0.7134706,-0.7204539,0.283843
1.339043,-0.5828856,0.167818,0.3657618,-0.2758533,0.1869632,-0.5509608,-0.6409439,0.2912213
1.478254,-0.7469519,0.05242921,0.5047816,-0.4411723,0.07130456,-0.2275389,-0.457387,0.2389485
1.334196,-0.7148743,0.06461884,0.3605483,-0.4103274,0.08309668,-0.01750515,-0.4565624,-0.1399002
0.948229,-0.5245213,0.04774925,-0.02559929,-0.2211656,0.0657077,-0.2289303,-0.8187046,-0.5505735
0.6357114,-0.41629,-0.103167,-0.3383081,-0.1140678,-0.08584234,-0.3141187,-1.266034,-0.4925023
0.6442986,-0.5477489,-0.09449235,-0.3299148,-0.2465931,-0.07790553,-0.08269718,-1.002434,-0.2423984
0.9351453,-0.736981,-0.06215938,-0.03925104,-0.436815,-0.04640178,0.2985982,-0.691265,-0.247863
1.070014,-0.7239039,-0.1140685,0.09545481,-0.4246373,-0.09921902,0.9421875,-0.8310884,-0.5136412
1.075898,-0.5340791,-0.06551512,0.101194,-0.2356058,-0.05164074,1.24922,-0.6148402,-0.8250367
1.010644,-0.2569826,-0.0641628,0.03581015,0.04081314,-0.05131947,0.7942098,-0.4387403,-0.8565595
0.8384996,-0.04890684,-0.08648413,-0.1364531,0.2483256,-0.07471778,0.1946985,-0.7760182,-0.4938413
0.9008774,-0.1287079,-0.05967983,-0.07418164,0.1680636,-0.049027,-0.1360497,-0.9724232,-0.1809528
0.8788098,-0.2007823,-0.09146353,-0.09633928,0.09561541,-0.08195185,-0.3925436,-0.895734,-0.1527906
0.7259951,-0.1197382,-0.1085285,-0.2492229,0.1763598,-0.1001767,-0.5150783,-0.6591068,-0.2676266
0.8384474,-0.1835705,-0.1409063,-0.1368116,0.1122902,-0.133724,-0.4897954,-0.2860153,-0.4805258
0.8577951,-0.1894166,-0.1756291,-0.1174701,0.1062584,-0.1696159,-0.6282822,-0.1132431,-0.6179282
0.8112426,-0.1270814,-0.1438948,-0.1639889,0.1684499,-0.1390395,-0.725434,-0.1739559,-0.6098674
0.8611916,-0.2190197,-0.131631,-0.1139623,0.07640059,-0.1279126,-0.5960858,-0.2408501,-0.4923689
0.8563536,-0.2296927,-0.1170374,-0.1186752,0.06564139,-0.1144262,-0.4360967,-0.2129384,-0.3416762
0.9266637,-0.1961467,-0.1282029,-0.04819044,0.0991201,-0.1266619,-0.2749769,-0.02523209,-0.223596
1.001559,-0.155602,-0.179007,0.02692882,0.1396104,-0.1784924,-0.2736078,0.237406,-0.07617881
1.012824,-0.008064969,-0.1843419,0.03846328,0.2870985,-0.1848023,-0.573925,0.2358124,0.01214681
1.038674,0.0530778,-0.1683712,0.06462453,0.3481862,-0.1697474,-0.9414099,-0.09427659,0.1423485
1.138167,0.02880646,-0.1229703,0.164461,0.3238391,-0.1251962,-1.04985,-0.3954532,0.2758623
1.341132,0.01158563,-0.0720566,0.3677931,0.3065065,-0.07506102,-0.9719501,-0.5310815,0.3354218
1.489701,-0.02372497,-0.08052092,0.5167358,0.2710351,-0.08423025,-0.9391739,-0.4478578,0.5735896
1.524097,-0.137908,-0.1283082,0.5514885,0.1566318,-0.1326475,-0.831441,-0.1898055,0.7784271
1.502918,-0.3234254,-0.2135639,0.5306226,-0.02917051,-0.2184559,-0.7620778,0.008523223,0.8305149
1.502887,-0.4634844,-0.2909177,0.5308361,-0.1695766,-0.2962798,-0.9103259,0.08027718,0.7789332
1.496467,-0.5832078,-0.2888359,0.5245692,-0.2896991,-0.2945777,-0.9747437,0.04653892,0.4993675
1.396744,-0.6334164,-0.3054605,0.4248882,-0.3403429,-0.3114821,-0.8333518,0.3696884,0.2869574
1.296761,-0.6022172,-0.425943,0.3248176,-0.3095955,-0.4321347,-0.6834383,1.527675,0.3371092
1.195921,-0.5843412,-0.4676266,0.2237538,-0.2921694,-0.4738669,-0.6881037,2.859395,0.3901381
1.006992,-0.4742954,-0.2958486,0.03445934,-0.1825556,-0.302003,-0.8833827,2.926425,0.2109737
0.8115364,-0.3031866,-0.06354284,-0.1614971,-0.01184941,-0.06946868,-1.206815,1.797783,0.07897075
0.7911907,-0.2150806,0.008237927,-0.1824656,0.07588728,0.00268254,-1.502388,1.00886,0.2191849
0.8537199,-0.2499699,-0.08885541,-0.1206637,0.04066036,-0.09390592,-1.511363,0.6709851,0.4072876
0.7715916,-0.3719659,-0.1505912,-0.2036058,-0.08164475,-0.1550103,-1.339756,0.7723115,0.6619818
0.6594477,-0.4569047,-0.1568849,-0.3166321,-0.166864,-0.1605512,-1.173527,1.251713,0.7608011
0.6032245,-0.4462292,-0.1513903,-0.3737855,-0.1564358,-0.1541856,-0.7757683,1.207941,0.5888108
0.67498,-0.365553,-0.06961864,-0.3029855,-0.07596844,-0.07142798,-0.3065963,1.524156,0.4737316
0.8093644,-0.2680999,0.04837752,-0.1695611,0.02131755,0.04766296,-0.1543436,1.936938,0.3410016
0.6888029,-0.1426644,0.250867,-0.2910707,0.1466262,0.2513451,-0.02457192,1.278967,0.3011179
0.5921457,-0.08632824,0.4068381,-0.3886492,0.2028693,0.4085883,0.136095,0.3125386,0.2881284
0.6933184,-0.1497101,0.3031634,-0.2883541,0.1394179,0.3062408,-0.2446868,-0.5878028,0.09946258
0.7429519,-0.1512022,0.2226527,-0.2395388,0.13787,0.227088,-0.9233188,-0.4512429,0.2166646
0.9140267,-0.2613628,0.2729245,-0.06921169,0.02765952,0.2787276,-1.153476,0.3969201,0.4351688
1.109356,-0.4741443,0.2948786,0.1254445,-0.1851691,0.3020412,-1.007732,0.5700482,0.3327429
1.062265,-0.4532868,0.3478753,0.07775142,-0.1643527,0.3563711,-0.8896581,0.8231246,0.2169377
0.9388163,-0.382354,0.3689744,-0.04623603,-0.09344833,0.3787582,-0.9156056,0.6887898,0.0883196
0.8407863,-0.3916968,0.357323,-0.1447438,-0.1028007,0.3683309,-0.9311194,0.1753783,0.03739238
0.8092705,-0.3964778,0.3896684,-0.1766756,-0.1075684,0.4018184,-0.911291,-0.01465646,0.08270712
0.8456441,-0.4358052,0.3097911,-0.1406522,-0.1468554,0.3229846,-0.875481,-0.7561441,-0.0991515
0.8602072,-0.4972259,0.1352868,-0.1263694,-0.208204,0.1494122,-0.516392,-1.297659,-0.1842796
0.8948799,-0.6335948,-0.04409424,-0.09190453,-0.3444618,-0.02915455,-0.08342934,-0.9893708,-0.05650547
1.013585,-0.7391718,-0.2227212,0.02666514,-0.4498772,-0.2070816,0.1605875,-0.2735389,-0.1108983
1.109991,-0.6623795,-0.2490351,0.1230055,-0.3728578,-0.2327986,0.4031407,0.1542004,-0.4448875
0.9921269,-0.5453512,-0.1706315,0.005137372,-0.2555225,-0.1538855,0.1724052,-0.5108537,-0.8605799
0.8594827,-0.4512819,-0.1470785,-0.1274551,-0.1610568,-0.1298957,-0.2992514,-0.8682767,-0.8555187
1.035344,-0.3611413,-0.1363265,0.04851044,-0.07042709,-0.1187678,-0.09023932,-0.2628998,-0.5992171
1.205212,-0.3663779,-0.08508162,0.2185315,-0.07508328,-0.06719837,0.2244241,0.1857229,-0.6146352
1.118896,-0.3372184,0.009408954,0.1324079,-0.04525631,0.0275726,0.1644584,0.2008097,-0.6394248
0.9699408,-0.1338585,0.0484813,-0.01632558,0.158852,0.06688471,0.1258082,-0.2539766,-0.6317722
0.7577023,0.007673,5.863048e-05,-0.2283181,0.301201,0.01866194,-0.274903,-0.7354432,-0.6460568
0.6101241,-0.008512352,-0.04728218,-0.3756224,0.2858847,-0.02851813,-0.8406003,-0.7849865,-0.5223123
0.6375271,-0.0870123,-0.1071923,-0.3479061,0.2082854,-0.08830396,-0.8926699,-0.5377053,-0.4380943
0.6414856,-0.2012925,-0.1442752,-0.3435809,0.09492065,-0.1252937,-0.8519823,-0.3097603,-0.4146785
0.7129147,-0.2479252,-0.1305167,-0.2717192,0.0492066,-0.1114662,-0.8437177,-0.2904977,-0.4812479
0.8721251,-0.2587691,-0.1189894,-0.1120013,0.03927732,-0.09988674,-0.7288616,-0.1943235,-0.5968913
0.9291841,-0.2705314,-0.09418279,-0.05435663,0.02842091,-0.07503821,-0.5918832,-0.1025024,-0.5583174
0.9412382,-0.2065491,-0.08254133,-0.04164089,0.09329628,-0.06336,-0.339067,-0.09663638,-0.4665392
0.9631383,-0.09278761,-0.1069004,-0.01900772,0.2079327,-0.08768338,-0.2437271,-0.1585231,-0.2576011
1.004637,0.02691926,-0.1443371,0.02329003,0.328487,-0.1250811,-0.4548766,-0.3835141,0.0008720295
1.076942,0.05370236,-0.1880037,0.09645172,0.3560764,-0.1687003,-0.7783136,-0.4445887,0.07378642
1.213574,-0.02677535,-0.1806271,0.2339888,0.2763484,-0.1612613,-1.008664,-0.396999,0.1591567
1.422935,-0.1082388,-0.1473707,0.4442866,0.1955644,-0.1279207,-1.022763,-0.372153,0.3143018
1.534027,-0.1744467,-0.1340606,0.5563264,0.1299568,-0.114499,-0.8614962,-0.2631696,0.4130297
1.545347,-0.2318749,-0.06646159,0.5685769,0.07304503,-0.04675737,-0.5094436,-0.1454363,0.4762135
1.541327,-0.2809806,-0.02995025,0.5654397,0.02437147,-0.01007086,-0.2323746,-0.08147507,0.5156316
1.459593,-0.3159483,-0.1381349,0.4845132,-0.01024618,-0.1180481,-0.331355,-0.1038173,0.5318665
1.370117,-0.3549935,-0.2264326,0.3957472,-0.04901886,-0.2061049,-0.584907,0.0665604,0.5322393
1.358985,-0.3688469,-0.2008645,0.3852091,-0.06267102,-0.1802581,-0.7805696,0.4020651,0.4914908
1.33348,-0.3601177,-0.2207294,0.3601686,-0.05380457,-0.1998003,-0.9329524,0.775715,0.4167349
1.227111,-0.4706353,-0.3300149,0.2541224,-0.1642411,-0.3087128,-0.8628777,1.640256,0.4171623
1.096068,-0.5659726,-0.3313831,0.123257,-0.2595433,-0.3096491,-0.723781,2.442303,0.3611039
0.950003,-0.464106,-0.157721,-0.0227761,-0.1576748,-0.1354876,-0.9128935,2.101769,0.1296565
0.8585228,-0.3637914,-0.01279856,-0.1143625,-0.05737948,0.01000596,-1.126826,1.21718,0.04108063
0.9195818,-0.343818,-0.02453479,-0.05353492,-0.037439,-0.001089718,-1.241033,0.7162814,0.195992
0.9699466,-0.28419,-0.05015562,-0.003513885,0.02214626,-0.02600651,-1.257043,0.5183246,0.4424348
0.9320531,-0.2828482,-0.00751988,-0.04185228,0.02343681,0.01739058,-1.043722,0.6739961,0.6669545
0.7951324,-0.3942782,-0.04465217,-0.1793079,-0.08805214,-0.01892902,-0.8562885,0.8736369,0.6751963
0.5547223,-0.4348326,-0.08602987,-0.420328,-0.1286706,-0.05944804,-0.4315451,0.8753654,0.5334609
0.5307396,-0.3992565,-0.04200518,-0.4449739,-0.09315846,-0.01452289,-0.04799644,1.171709,0.4212853
0.6619351,-0.3461183,-0.05231241,-0.3144692,-0.04007898,-0.02389167,-0.1531483,1.574912,0.3313196
0.6256463,-0.2091683,0.0113791,-0.3514529,0.09682031,0.04077184,-0.1267142,1.856217,0.3149102
0.5471536,-0.1017766,0.1731786,-0.4306238,0.204167,0.2035702,-0.1696852,1.318815,0.3414139
0.5174196,-0.1220286,0.2334962,-0.4609984,0.1838686,0.2649026,-0.379436,0.01984424,0.3136847
0.6328964,-0.2138542,0.2083078,-0.346104,0.09198673,0.24073,-0.4097505,-0.2252135,0.3447172
0.8278177,-0.3263425,0.1783219,-0.15169,-0.02057344,0.2117459,-0.5262451,-0.04257931,0.4622119
0.7948005,-0.383977,0.2132913,-0.1851299,-0.07829604,0.2476889,-0.4117168,-0.2125727,0.532553
0.8309381,-0.3624109,0.258158,-0.1493253,-0.05683114,0.2934883,-0.09575106,-0.03400212,0.459926
1.067324,-0.3416083,0.3259147,0.08681775,-0.03613866,0.3621229,-0.05464059,-0.09005052,0.2808954
1.100339,-0.3600525,0.4229049,0.1196778,-0.0546984,0.4599207,-0.09309118,-0.1731088,0.1900121
1.023722,-0.3194331,0.3931143,0.04298143,-0.01419695,0.4308495,-0.1329375,-0.2701085,0.1153791
1.005933,-0.2810914,0.3716286,0.02518285,0.02402632,0.4099773,-0.2302075,-0.7214245,-0.02902852
0.9609497,-0.4063902,0.3210583,-0.01975007,-0.1013902,0.3598992,-0.3105121,-0.7529513,-0.0513013
0.9540615,-0.6306975,0.1414359,-0.02653113,-0.3258106,0.180636,-0.1891876,-0.407193,-0.0445716
1.092078,-0.7674723,0.0762296,0.1116446,-0.4626828,0.115651,0.2033523,-0.1994056,-0.2027798
1.200223,-0.6077727,0.03563856,0.2199937,-0.3030479,0.07514406,0.4172044,-0.7499725,-0.5617545
0.891848,-0.3808833,-0.046402,-0.08814215,-0.07617525,-0.006944617,0.09489527,-1.423098,-0.8396405
0.5680446,-0.4302493,-0.07280259,-0.4116747,-0.1255025,-0.03351765,-0.2409462,-1.053319,-0.6678735
0.8534413,-0.5124534,-0.1296841,-0.1259696,-0.207609,-0.09068556,0.09990676,-0.6832237,-0.5270283
1.177355,-0.5551847,-0.1257309,0.1982961,-0.2501801,-0.0871206,0.6180186,-0.5568295,-0.7961012
1.119894,-0.5943429,-0.07134814,0.1412271,-0.2891088,-0.03321572,0.8012294,-0.1850715,-1.027032
1.004278,-0.4110284,-0.04715101,0.02603346,-0.1054887,-0.009575204,0.8978652,-0.2299579,-1.076996
0.8113075,-0.1402427,0.01790357,-0.1664919,0.1656804,0.05485229,0.6851012,-0.4647787,-0.9577329
0.6649482,0.00968939,0.02308476,-0.3123819,0.3160657,0.0593417,0.2911506,-0.6188886,-0.6546302
0.7146531,0.01354577,-0.03866994,-0.2621757,0.3204281,-0.003165018,0.02433162,-0.7513269,-0.4936724
0.7097789,-0.06792363,-0.08848043,-0.2665065,0.2394974,-0.05378241,-0.2940731,-0.5499614,-0.5140259
0.7048561,-0.1101986,-0.1313846,-0.2708343,0.1977757,-0.09754083,-0.4220254,-0.4245223,-0.5827799
1.414759,-0.7358276,0.1875977,0.400544,-0.4655222,0.1593034,0.6319558,-0.6939449,0.05424007
1.521912,-0.8789626,0.1554116,0.5081209,-0.6082587,0.1269164,1.135855,-0.4982093,-0.2214735
1.174628,-0.6368175,0.1089703,0.1612672,-0.3656807,0.08019289,1.298106,-1.255153,-0.6710715
0.7179742,-0.413108,-0.03450853,-0.2949638,-0.1414847,-0.06364752,1.032233,-1.917768,-0.9313456
0.8081472,-0.5142489,-0.1226817,-0.2043764,-0.2420755,-0.152255,0.8935303,-1.271807,-0.745811
1.015658,-0.5286216,-0.179434,0.003548636,-0.2558292,-0.2095029,1.199569,-0.4784193,-0.6214456
1.003782,-0.4514388,-0.1505251,-0.007908076,-0.1779534,-0.1811365,1.620462,-0.4680211,-0.7019405
1.150338,-0.4722302,-0.02116735,0.1390708,-0.197974,-0.0523543,1.741513,-0.3684157,-0.7022959
1.041587,-0.3391216,0.008041418,0.03074251,-0.06401512,-0.0237442,1.554547,-0.4898828,-0.7284266
0.6840461,-0.1255682,0.0127948,-0.3263792,0.1504651,-0.01960651,1.198123,-1.120296,-0.6698815
0.6188801,-0.05636501,0.01248319,-0.3911219,0.2206619,-0.02054659,0.9440707,-1.23232,-0.5265283
0.5988543,-0.108317,-0.06507896,-0.410706,0.1697548,-0.09874578,0.8159046,-1.048444,-0.5912863
0.6091934,-0.1901634,-0.1390691,-0.3998887,0.08898881,-0.1733756,0.7173164,-0.9794081,-0.6770038
0.6960844,-0.1788986,-0.1828152,-0.3124673,0.101357,-0.2177553,0.694059,-0.8391544,-0.6891865
0.7683204,-0.1852993,-0.1872295,-0.2396355,0.09607255,-0.2227861,0.691973,-0.69148,-0.7285719
0.8829864,-0.2522564,-0.2086026,-0.1243008,0.03023601,-0.2447471,0.8865264,-0.4030023,-0.6479289
0.8635713,-0.2460425,-0.2066269,-0.1429713,0.03756802,-0.243319,1.200062,-0.3154742,-0.5220625
0.8739103,-0.2056583,-0.1354227,-0.1318121,0.07906256,-0.1726115,1.206028,-0.483045,-0.37097
0.9441338,-0.07720059,-0.131895,-0.06069369,0.2086165,-0.1695214,0.8109499,-0.4831656,-0.158496
0.9919203,0.07960341,-0.1188396,-0.0119408,0.3664926,-0.1568382,0.3599527,-0.5531515,-0.08239655
1.157733,0.07532848,-0.07352138,0.1549032,0.3632504,-0.1118224,0.3490746,-0.8084569,-0.02264869
1.223325,0.003855526,-0.09358542,0.22158,0.2927535,-0.1321162,0.4852332,-1.146644,0.1867038
1.378407,-0.04376609,-0.09685843,0.3777832,0.246036,-0.1355444,0.4261212,-1.202252,0.4669205
1.65148,-0.09003648,-0.1345094,0.6519924,0.2005866,-0.1732738,0.5411838,-0.6428771,0.684678
1.644937,-0.1985757,-0.206865,0.6465706,0.09277779,-0.2456283,0.6540419,-0.02679036,0.708125
1.594337,-0.3127587,-0.2171486,0.5970432,-0.02076797,-0.2558261,0.4280131,0.1409094,0.6429109
1.553692,-0.2850576,-0.2366834,0.5573906,0.007479597,-0.2751844,0.03906825,0.1617402,0.5441199
1.432068,-0.2742575,-0.2660236,0.4366526,0.01873997,-0.3042504,-0.2650478,0.656499,0.3840566
1.339633,-0.3788007,-0.2757709,0.3449776,-0.08542401,-0.3136191,-0.2439858,1.430393,0.2903826
1.190376,-0.4581651,-0.2846424,0.1963418,-0.164483,-0.3220001,-0.1408093,1.756826,0.1626822
1.027431,-0.4875795,-0.2173817,0.03387261,-0.1936554,-0.2541308,-0.2524774,1.651082,-0.07188848
0.9114914,-0.4357206,-0.09422396,-0.08173105,-0.1416056,-0.1302425,-0.3358744,1.307558,-0.09875001
0.8781963,-0.3229533,-0.06640431,-0.1148221,-0.02868731,-0.1015709,-0.4444597,0.8655377,0.130482
0.8793949,-0.2824572,-0.07793295,-0.1135375,0.01192649,-0.1121306,-0.5966583,0.6251709,0.3420207
0.7924667,-0.322888,-0.04865689,-0.2004834,-0.02841623,-0.08177431,-0.5269553,0.5443468,0.4469882
0.7036476,-0.3849827,-0.07263535,-0.2894075,-0.09044959,-0.1045671,-0.3973948,0.4453833,0.4163165
0.5866514,-0.4021571,-0.09482837,-0.4065766,-0.1075845,-0.1254748,-0.1672936,0.3926094,0.3342122
0.5282873,-0.3532396,-0.09289639,-0.4651583,-0.05864362,-0.1221629,0.08605995,0.4889384,0.2545306
0.641634,-0.2993189,-0.1368298,-0.3520489,-0.004710613,-0.1646259,-0.02064587,0.8482229,0.07479099
0.6717335,-0.2477929,-0.1502821,-0.322184,0.04681888,-0.1765202,-0.1167601,1.603787,-0.03410017
0.5974239,-0.2032101,-0.07737815,-0.3967063,0.09139603,-0.1019735,-0.09533971,1.998491,-0.01015934
0.5005341,-0.1710639,0.1137647,-0.4937687,0.1235246,0.09089218,-0.1894222,1.157584,0.01271577
0.4081311,-0.1493654,0.2781314,-0.5862835,0.1451891,0.2570509,-0.1466435,0.04649688,0.101822
0.5245234,-0.1701744,0.2433475,-0.4699196,0.1243245,0.2241109,-0.0933076,-0.2172358,0.2550003
0.7827377,-0.244203,0.2254227,-0.2116315,0.05021397,0.2080616,-0.1003548,-0.07900458,0.3439052
0.9902661,-0.3628564,0.2994923,-0.003917725,-0.06854952,0.2840193,0.03452234,-0.01164208,0.3001515
1.0815,-0.3794771,0.3227266,0.08761121,-0.08530586,0.309135,0.1731636,0.02831256,0.27406
1.080444,-0.2346274,0.372503,0.08695033,0.0593871,0.3607663,0.2391891,-0.09200478,0.3208572
1.152095,-0.1406951,0.4106019,0.1590841,0.1531435,0.4006731,0.1641176,-0.3740684,0.314511
1.231707,-0.1753384,0.3611512,0.239251,0.1183027,0.3529629,0.04793707,-0.6048528,0.337573
1.223911,-0.2939235,0.310393,0.2320668,-0.0005051901,0.303859,0.04719474,-0.8288377,0.3430975
1.287017,-0.557425,0.1935679,0.2958231,-0.2642538,0.188587,0.09847936,-0.934191,0.3042617
1.453835,-0.9471404,0.03979529,0.4633093,-0.6542295,0.03625757,0.5634001,-0.6098098,0.2649652
1.535918,-1.0959,-0.02822548,0.5460579,-0.8032379,-0.03043211,1.23083,-0.4243327,-0.0982707
1.224393,-0.7761165,-0.04206423,0.2351696,-0.4836592,-0.0430484,1.235095,-1.138056,-0.7290945
0.7012959,-0.5016717,-0.04738033,-0.2873348,-0.2093469,-0.04724463,1.020312,-1.75859,-0.9729496
0.6206329,-0.5745614,-0.1201733,-0.3674481,-0.2822815,-0.1190132,1.214896,-1.118934,-0.6761261
0.8613255,-0.614617,-0.1289015,-0.126235,-0.322286,-0.1268042,1.467099,-0.4808056,-0.4436005
0.9863584,-0.5532428,-0.05503482,-0.0006987513,-0.2607569,-0.05207808,1.783123,-0.7434448,-0.4945828
1.053455,-0.5235145,-0.08945762,0.06688839,-0.2307634,-0.0857113,1.931942,-0.757281,-0.5586743
0.9760691,-0.3521211,-0.05647966,-0.01002083,-0.05899103,-0.05200686,1.42927,-0.7887629,-0.6410788
0.7561714,-0.094775,-0.01516179,-0.2294554,0.1988442,-0.01001993,0.9139436,-1.411299,-0.5913291
0.6010334,-0.04806751,-0.06833673,-0.3841374,0.246139,-0.06257874,0.763924,-1.535121,-0.4674718
0.5435542,-0.1315661,-0.06983794,-0.4411538,0.1633079,-0.06351245,0.6297342,-1.272571,-0.5843549
0.6337223,-0.147681,-0.1656359,-0.3504982,0.1479229,-0.158786,0.4928303,-1.112871,-0.6782424
0.7517134,-0.1616644,-0.2396238,-0.2319785,0.1347166,-0.2322848,0.4277615,-0.6382429,-0.7320348
0.8112553,-0.2135854,-0.2112373,-0.1718562,0.0836074,-0.2034338,0.6615674,-0.2136923,-0.8330118
0.8700127,-0.2353791,-0.2141484,-0.1124614,0.06264996,-0.2058939,1.023631,-0.1534493,-0.7717884
0.8420896,-0.1526236,-0.1382278,-0.1396876,0.1462573,-0.1295256,1.043237,-0.2996214,-0.5918461
0.8422603,0.03303848,-0.1091391,-0.1387603,0.3327767,-0.09998522,0.7568177,-0.4508085,-0.2443641
0.9344193,0.1812587,-0.1756756,-0.04578469,0.4818443,-0.1660606,0.1806363,-0.4052578,0.02762539
1.062979,0.1772805,-0.1997323,0.08364865,0.4786818,-0.1896415,-0.4210837,-0.3938703,0.03003775
1.313325,0.01573171,-0.1678607,0.3349174,0.3178947,-0.1572734,-0.5829355,-0.4095862,0.175086
1.534854,-0.2012028,-0.0829298,0.5574004,0.1016503,-0.07181974,-0.2977534,-0.3696215,0.436766
1.642616,-0.3045874,-0.06153125,0.6661195,-0.001123582,-0.04986959,0.1024282,-0.3574746,0.6144666
1.673623,-0.3023085,-0.09154048,0.6980559,0.001686666,-0.07929809,0.3556205,-0.2757668,0.7281953
1.578771,-0.3725927,-0.1483111,0.604069,-0.06814146,-0.1354587,0.4847365,-0.1734311,0.7572793
1.512305,-0.4700664,-0.2467433,0.5383749,-0.1652277,-0.2332495,0.242753,0.09270947,0.7210249
1.476449,-0.447168,-0.2696664,0.5031711,-0.1420013,-0.2554945,-0.2398042,0.6040099,0.5115807
1.329957,-0.449966,-0.273086,0.3571928,-0.1445198,-0.2581918,-0.3712203,1.149632,0.2719612
1.123091,-0.5382901,-0.2650347,0.150689,-0.2326021,-0.2493661,-0.2693105,1.704172,0.20988
0.9434145,-0.5510615,-0.1345817,-0.02877961,-0.2451576,-0.1180803,-0.1022556,1.959882,0.1260507
0.8740543,-0.5185159,0.02935249,-0.0980791,-0.2124091,0.04674688,0.08946168,1.622183,0.03528376
0.8737721,-0.4572705,0.05111253,-0.09843543,-0.1509621,0.06945605,0.1625972,1.145284,0.1349886
0.8614663,-0.3159077,-0.03346722,-0.1109355,-0.009390668,-0.01412658,0.1040354,0.9383648,0.2833557
0.8133032,-0.2369275,-0.05129472,-0.159398,0.06980792,-0.03091636,-0.08687829,0.8010542,0.3608401
0.7041219,-0.2809866,-0.05565274,-0.2689678,0.02597544,-0.03420119,-0.2060414,0.611286,0.4177744
0.6006559,-0.3051157,-0.07095431,-0.3728924,0.0020781,-0.04839797,-0.1944936,0.4446438,0.3801894
0.5572433,-0.2715098,-0.05130901,-0.4168114,0.03591875,-0.02761963,-0.1021483,0.450134,0.3170886
0.6169637,-0.2657285,-0.08739482,-0.3576207,0.04193568,-0.06254718,-0.01548419,0.9472221,0.2293731
0.6724345,-0.2419812,-0.08724758,-0.3026807,0.06591681,-0.06121903,-0.06402345,1.632262,0.03440179
0.5157692,-0.1834138,0.04674341,-0.4598578,0.1247127,0.07397274,-0.03095808,1.647424,0.01776655
0.3463102,-0.2000007,0.2371808,-0.6297886,0.108344,0.2656245,0.02718997,0.6909642,0.08314734
0.3654094,-0.213228,0.3331515,-0.6110955,0.09531925,0.3628103,-0.01000648,-0.3687507,0.02515244
0.4373987,-0.1893446,0.2688151,-0.5394201,0.1193846,0.2996719,-0.01456305,-0.3878359,0.07938188
0.6020741,-0.2320349,0.2634667,-0.3749434,0.07685128,0.2954857,-0.0126271,0.02115479,0.1976406
0.8606564,-0.2775752,0.3194545,-0.1164298,0.03143969,0.3525834,0.05604314,-0.09820912,0.2957056
0.9348166,-0.2893054,0.3026453,-0.04220472,0.01980877,0.3368157,0.1228663,-0.2476187,0.3548565
0.9530523,-0.2851696,0.334563,-0.02377443,0.02401457,0.3696912,0.1017296,-0.3001615,0.3065001
1.142737,-0.2692569,0.3851932,0.1662258,0.03996861,0.4211801,0.09887482,-0.395923,0.2796687
1.166029,-0.2768261,0.3929448,0.18994,0.03241253,0.4296759,0.1424474,-0.4842396,0.2857303
1.107101,-0.3240907,0.3673884,0.1315246,-0.01486671,0.4047342,0.1792644,-0.8726624,0.2732374
1.243624,-0.4962882,0.2657702,0.2686348,-0.1871038,0.303588,0.1780945,-1.190648,0.2456926
1.216593,-0.6759558,0.1842592,0.2422463,-0.3668281,0.2223974,0.3832043,-1.193946,0.1838054
1.112397,-0.6094581,0.1460055,0.1387324,-0.30039,0.1843087,0.9249783,-1.023598,-0.01254594
1.03354,-0.4766494,0.09793054,0.06058166,-0.1676281,0.1362434,1.386037,-0.7056291,-0.5169851
0.809211,-0.4630241,0.07907525,-0.1630246,-0.1540255,0.1172453,1.33945,-0.8654458,-1.040324
0.8473639,-0.4219781,0.02782554,-0.1241338,-0.1129706,0.06570536,1.117715,-1.092752,-1.100238
0.9800616,-0.3891723,-0.1071003,0.009318985,-0.08011988,-0.06965071,1.199932,-0.8093607,-0.9297184
0.9692762,-0.4311647,-0.1555944,-0.0006941745,-0.1220287,-0.1187035,1.396748,-0.6314587,-0.8799357
1.179564,-0.4571606,-0.06610593,0.210379,-0.1478997,-0.02988812,1.750531,-0.295298,-0.8002272
1.211184,-0.4486201,-0.0307312,0.2427882,-0.1391897,0.00471277,2.046929,-0.1087192,-0.790997
0.8973051,-0.3403693,-0.03209546,-0.07030751,-0.03072197,0.002484528,1.763735,-0.8554742,-0.8726181
0.6914749,-0.1890424,-0.02812638,-0.2753658,0.1208687,0.005508413,1.434375,-1.567946,-0.7133493
0.6527119,-0.1745298,-0.1247566,-0.3133621,0.135686,-0.09213933,1.236388,-1.522378,-0.5778038
0.8099033,-0.2477915,-0.2390796,-0.1553982,0.06276113,-0.2075412,0.9689165,-0.9687572,-0.6439676
0.9805533,-0.3159346,-0.2830438,0.01603838,-0.005020973,-0.2526306,0.9873922,-0.1979622,-0.6984324
0.9871979,-0.3509155,-0.2410165,0.02348508,-0.03962118,-0.2117578,1.112118,0.5004539,-0.8885127
0.8724418,-0.3026416,-0.1423974,-0.09045609,0.009050998,-0.1143059,1.249285,0.6802935,-1.138419
0.6168374,-0.1697455,-0.06982389,-0.3452322,0.1423604,-0.04290017,1.449528,0.1524005,-1.138345
0.5425681,-0.02794506,-0.05972654,-0.4186523,0.2845824,-0.03396316,1.414439,-0.4340326,-0.8269802
0.6864909,0.04590242,-0.1409319,-0.2738461,0.3588473,-0.1163158,1.290905,-0.6988889,-0.3940173
0.7628887,0.05696911,-0.1692478,-0.1965185,0.3703106,-0.1457598,1.168878,-0.5384833,-0.1314245
0.8718067,0.06521982,-0.0845007,-0.0866181,0.3789192,-0.062114,0.9884807,-0.1745283,0.02596671
1.003787,0.1134262,-0.004036572,0.04639793,0.427427,0.01728126,0.8394201,-0.2214962,0.1736323
1.01202,0.1371137,0.04649699,0.05571399,0.4513419,0.06678034,0.6116083,-0.3668844,0.2018716
0.9750588,0.09995364,0.009923699,0.01987703,0.4143176,0.02920588,0.3555676,-0.5003003,0.2175591
1.06456,0.04212978,-0.01477202,0.1105333,0.3565226,0.003540629,0.2715407,-0.6477188,0.3337216
1.174886,-0.04385759,0.01941198,0.2220375,0.2704452,0.0367858,0.4183145,-0.5615448,0.460853
1.243542,-0.1334969,-0.002149295,0.291879,0.1805899,0.01431567,0.642843,-0.649527,0.5842281
1.417363,-0.2418166,0.001106822,0.4668769,0.0719263,0.0166921,0.7191581,-0.7341012,0.7422995
1.432623,-0.3117406,0.0095169,0.483283,0.001534322,0.02425095,0.7348003,-0.715047,0.8200129
1.36386,-0.2789149,-0.003697046,0.4156117,0.03377535,0.01021356,0.74413,-0.7676506,0.7785268
1.460215,-0.2871846,0.01694385,0.5129818,0.02481315,0.03005805,0.6572757,-0.6501381,0.7135946
1.398253,-0.2393905,0.002830431,0.4519351,0.07181493,0.01517447,0.4512037,-0.5835872,0.6202298
1.338079,-0.1335486,-0.06244466,0.3925591,0.1767708,-0.05084498,0.16406,-0.002522145,0.535344
1.47016,-0.2978025,-0.1731994,0.5253038,0.01154159,-0.1623166,0.06708122,1.406893,0.5189706
1.442302,-0.5454589,-0.2174142,0.4979588,-0.237173,-0.2072153,0.0123248,2.229912,0.3938489
1.116946,-0.6153025,-0.1038394,0.1729525,-0.3081435,-0.09428403,-0.2416654,1.799138,0.05461053
0.7452501,-0.6335024,0.01611666,-0.1985632,-0.3275184,0.02507444,-0.1926614,0.8954248,-0.1330754
0.7933874,-0.5841635,0.05210506,-0.1504039,-0.2793801,0.06051183,0.1250327,0.3160786,0.0973296
1.024952,-0.5059699,0.01446987,0.08104055,-0.2023927,0.02236914,0.3328825,0.2946549,0.424655
0.992365,-0.4965634,-0.0524683,0.0482051,-0.1941815,-0.04503629,0.5790992,0.5981756,0.582788
0.9839919,-0.5050748,-0.08684164,0.03946257,-0.2038639,-0.07983771,0.7692577,0.604441,0.6286438
0.912384,-0.5111053,-0.08348431,-0.03262779,-0.2110295,-0.0768682,0.9207502,0.3775582,0.558945
0.6878741,-0.466623,-0.05456503,-0.2577222,-0.1676355,-0.0482947,1.095454,0.3508515,0.4771253
0.635291,-0.3573732,-0.05519598,-0.3109757,-0.05941855,-0.04922823,1.127048,0.2432839,0.4988243
0.6414181,-0.235006,-0.07961055,-0.3055835,0.06197546,-0.07390164,1.03389,0.5108615,0.4281261
0.6885479,-0.1788114,-0.06542499,-0.2592311,0.1172551,-0.05993057,0.8798976,1.131956,0.3233541
0.738441,-0.2211024,0.04761018,-0.2101385,0.07410206,0.0529344,1.068436,1.091991,0.3792171
0.6183476,-0.2312014,0.2880387,-0.3310384,0.06318795,0.293233,1.454581,0.2701469,0.3815355
0.5446661,-0.2142493,0.4038372,-0.405515,0.07936677,0.4089303,1.406837,-0.6464529,0.2848091
0.5854476,-0.2432805,0.2515241,-0.3654978,0.0495997,0.2565273,1.101026,-0.438611,0.251504
0.6229247,-0.2794119,0.1654811,-0.3287353,0.012766,0.1703894,0.7795602,0.01083755,0.2919192
0.6255103,-0.3667101,0.2957525,-0.326798,-0.07520252,0.3005485,0.7733456,-0.3732949,0.3366317
0.6777443,-0.4233968,0.3977447,-0.2751322,-0.1325263,0.4023993,0.9746617,-0.2983701,0.2644541
0.8149625,-0.3194432,0.3966181,-0.1383918,-0.02917323,0.4010874,0.8561671,-0.3261269,0.1727265
0.9033797,-0.1940407,0.4188426,-0.05035673,0.09566738,0.4230661,0.7901913,-0.6712345,0.1830083
1.013831,-0.1687605,0.4604215,0.05980734,0.1204219,0.4643223,0.6872103,-0.5539519,0.2153236
1.154897,-0.1811531,0.4903226,0.2006741,0.1075338,0.4938074,0.4149649,-0.8882945,0.2322303
1.25112,-0.1965324,0.5115256,0.2967733,0.09168291,0.5144842,0.3165729,-1.145054,0.1723495
1.344271,-0.2970576,0.4341722,0.3898589,-0.0092952,0.4364787,0.1753798,-1.015003,0.09701009
1.471185,-0.5128131,0.3026562,0.516743,-0.2254856,0.304172,0.1716403,-0.9334093,0.1214078
1.583514,-0.6594205,0.246632,0.6290527,-0.372504,0.2472115,0.1735233,-0.6591021,0.1020279
1.268978,-0.6117459,0.1787345,0.314479,-0.3252031,0.1782307,-0.1641692,-1.150166,0.0163493
0.6795386,-0.6085425,0.04729206,-0.2750333,-0.3223208,0.04556083,-0.3229907,-1.917346,-0.02341863
0.507666,-0.7574306,-0.02646653,-0.447014,-0.4714625,-0.029561,0.05772982,-1.751729,-0.1210969
0.66805,-0.7925073,-0.05117786,-0.2867565,-0.5067086,-0.05575894,0.975011,-1.391478,-0.3533299
0.9842627,-0.7272671,-0.1138692,0.02932874,-0.4415356,-0.1200451,1.827415,-1.170088,-0.696653
1.276815,-0.6236288,-0.1670669,0.3217588,-0.3378457,-0.1749289,2.028328,-0.8287064,-1.094441
1.063511,-0.2865845,-0.1437227,0.1083327,-0.0006215521,-0.1533438,1.78652,-0.5702267,-1.229551
0.7028471,0.075482,-0.09644413,-0.2524612,0.3617503,-0.1078793,1.392792,-0.8148486,-0.9581775
0.6945211,0.1461754,-0.1148907,-0.2609204,0.4328571,-0.1281789,0.9735695,-1.147757,-0.7018328
0.6924534,0.07588745,-0.1506816,-0.2631133,0.3630637,-0.1658475,0.4107974,-1.042411,-0.7040649
0.6364204,0.04688339,-0.1530622,-0.3192501,0.3346084,-0.1701158,-0.05956941,-0.9305525,-0.8230466
0.7282944,-0.04459362,-0.1499821,-0.2274453,0.2437109,-0.1689193,-0.2189358,-0.6522964,-0.9860266
0.773904,-0.2261036,-0.09452329,-0.1818591,0.06279358,-0.1153266,-0.2194832,-0.3444756,-1.076152
0.8285482,-0.3042297,-0.04973215,-0.127185,-0.01473749,-0.07237316,0.1373654,-0.3258159,-1.047661
0.8920435,-0.2834123,-0.08643435,-0.0636026,0.006673201,-0.1108763,0.5995242,-0.157519,-1.006876
0.8406062,-0.2321591,-0.1237863,-0.1148944,0.05851565,-0.149985,0.8266362,-0.05822677,-0.901474
0.8918858,-0.1072245,-0.1541529,-0.06341069,0.1840318,-0.1820557,0.7981735,0.05576989,-0.6662809
0.9374331,0.01527776,-0.1587969,-0.01760172,0.3071002,-0.1883421,0.4765792,0.1964867,-0.3941029
0.9483408,0.07421709,-0.1400202,-0.006377289,0.3665776,-0.1711367,0.1162959,0.02928584,-0.230409
1.109412,0.04672108,-0.131916,0.155061,0.3395757,-0.1645244,-0.1779523,-0.04365843,-0.152398
1.267329,-0.01803883,-0.1017075,0.313385,0.2752504,-0.1357217,-0.2407476,-0.1612183,0.02431154
1.397715,-0.05590231,-0.09211919,0.4442031,0.2377493,-0.1274474,-0.1556751,-0.3702859,0.2765574
1.525629,-0.1416514,-0.09593742,0.5725521,0.1522816,-0.1324842,-0.08455825,-0.3515569,0.5163158
1.673761,-0.2553173,-0.06313799,0.7210936,0.03881154,-0.1008048,0.2007196,-0.2565714,0.7470623
1.718616,-0.3044057,-0.04991911,0.7663006,-0.01016606,-0.08860565,0.357361,-0.1476843,0.8773039
1.538755,-0.2713905,-0.09061772,0.5867004,0.02287916,-0.1302228,0.2740462,-0.1202966,0.8983704
1.424228,-0.2526067,-0.1415616,0.4723163,0.04161719,-0.1819827,0.1286994,0.01052805,0.8797789
1.343086,-0.2973152,-0.1488452,0.3911785,-0.003208449,-0.1899774,-0.1662991,0.5314383,0.7964721
1.275036,-0.3606397,-0.1380386,0.3229819,-0.06671644,-0.1797733,-0.3735267,1.304853,0.6024535
1.199044,-0.4986768,-0.1458848,0.2466859,-0.2049955,-0.18811,-0.4374822,1.759987,0.3249941
0.9316405,-0.5629921,-0.1273902,-0.0211816,-0.2695994,-0.1699914,-0.4045539,1.369783,0.1433173
0.9039526,-0.474844,-0.04746562,-0.04948542,-0.1817715,-0.09032694,-0.3088542,0.875727,0.1982119
0.9604525,-0.4300593,0.03053685,0.006258598,-0.1373247,-0.01246999,-0.2922359,0.8666579,0.3967919
0.8304753,-0.3607783,0.003675998,-0.1246002,-0.06838848,-0.03936639,-0.3619658,0.9271545,0.6002554
0.8946413,-0.3022389,-0.07041585,-0.06142733,-0.01019425,-0.1133894,-0.4867889,1.020418,0.6979635
0.7862602,-0.3338055,-0.0815224,-0.1708973,-0.04210268,-0.1243266,-0.4491367,1.00098,0.6105871
0.598371,-0.2909629,-0.07055807,-0.3599536,0.0004035964,-0.1130946,-0.2672896,0.9408287,0.5208436
0.7255091,-0.2437464,-0.06109578,-0.23404,0.04729037,-0.1032683,-0.1439077,1.257373,0.5297138
0.696823,-0.2175079,-0.04843612,-0.263986,0.07320501,-0.09015057,-0.120162,1.688692,0.459193
0.5618314,-0.1601365,0.01529109,-0.4002523,0.1302556,-0.02587475,-0.240067,1.88128,0.4375985
0.4974199,-0.1931472,0.217956,-0.4659313,0.0969231,0.1774231,-0.2875451,1.357336,0.461662
0.4797281,-0.2376521,0.3545396,-0.4848591,0.05209115,0.3147115,-0.2464948,0.2383541,0.312883
0.598651,-0.211037,0.2485695,-0.3671161,0.07837085,0.2095004,-0.3134609,-0.2939298,0.2620305
0.6786552,-0.2353307,0.1759715,-0.2882152,0.05373155,0.1376974,-0.4394343,-0.07660509,0.3704959
0.8099062,-0.3342934,0.2949968,-0.1579766,-0.04558799,0.2575384,-0.5453633,0.1202404,0.4076154
0.9747614,-0.4172056,0.388563,0.005964141,-0.1288661,0.351926,-0.3990267,0.08305681,0.3536192
0.9968667,-0.4012331,0.40002,0.02725313,-0.1132633,0.3641925,-0.1690259,0.1032059,0.2006819
1.012844,-0.3125081,0.4310332,0.04250691,-0.02490542,0.3959839,-0.2257969,0.02856077,0.08516846
1.044495,-0.2546016,0.4355314,0.07352206,0.03264077,0.4012094,-0.2991815,-0.4980505,0.06065005
1.090332,-0.2842379,0.3831019,0.1188013,0.002652003,0.349438,-0.4161492,-1.089385,0.03381227
1.169335,-0.5435526,0.2195448,0.1973158,-0.2570058,0.1864549,-0.6918979,-1.426592,0.01115222
1.421765,-0.9982843,0.005281336,0.4493136,-0.7120617,-0.02732704,-0.4762543,-1.288553,-0.02892519
1.704254,-1.145582,0.02141142,0.7314065,-0.8596413,-0.01080778,0.4686215,-0.8568657,-0.1729681
1.381338,-0.8093896,0.09916216,0.4081007,-0.5236541,0.06724456,1.10822,-0.8393032,-0.5371246
0.7166571,-0.4470455,0.01254557,-0.2569859,-0.1614123,-0.01915328,0.5277682,-0.992204,-0.9123487
0.4971041,-0.3562357,-0.01286904,-0.4769622,-0.07058938,-0.04442714,-0.1634954,-0.9892035,-0.9223446
0.7957811,-0.4565872,-0.05729431,-0.1787114,-0.1708119,-0.08878301,0.1128855,-0.6430048,-0.7283874
1.211196,-0.5549095,-0.1788954,0.2362884,-0.2688906,-0.210377,0.3684673,0.008603792,-0.7172378
1.251894,-0.5411022,-0.1171695,0.276584,-0.2547235,-0.1486947,0.4864189,0.1425246,-0.7726025
1.01497,-0.4309914,0.01856891,0.03926048,-0.144134,-0.01303934,0.7849011,-0.1864573,-0.7174416
0.8452502,-0.2419981,0.09188359,-0.1308625,0.0454562,0.06016017,0.4433219,-0.625751,-0.6671161
0.693994,-0.07149627,0.1093047,-0.282521,0.2166651,0.07743616,-0.03190971,-1.056209,-0.4753649
0.650981,-0.02039179,0.005535832,-0.3259252,0.2685709,-0.02650765,-0.2193067,-0.9719453,-0.2681954
0.7310496,-0.06745391,-0.08556037,-0.246222,0.2223842,-0.1178066,-0.4809011,-0.5268596,-0.3604227
0.7995252,-0.1555473,-0.1094865,-0.1780731,0.1352209,-0.1419574,-0.3958346,-0.1750936,-0.5016274
0.8298229,-0.1994075,-0.1042034,-0.1480537,0.0923296,-0.1369126,-0.2471492,-0.0882254,-0.6535516
0.8318429,-0.2479026,-0.03836038,-0.1462577,0.04483051,-0.07131344,-0.08787478,-0.3488363,-0.7851909
0.9043842,-0.2917756,-0.008534448,-0.07388221,0.00197265,-0.04173047,0.2948971,-0.6228879,-0.6601657
0.9540564,-0.174689,-0.01793009,-0.02431593,0.1200869,-0.05136422,0.2622469,-0.5755843,-0.4285049
0.9977571,-0.0322529,-0.07340247,0.01933743,0.2635551,-0.1070666,-0.08469589,-0.3305842,-0.1527831
1.091543,0.01344885,-0.1685949,0.1131299,0.3102808,-0.2024762,-0.4781176,-0.09652898,0.06696012
1.122731,-0.01852784,-0.1585225,0.1443723,0.279304,-0.192601,-0.7356535,-0.08735183,0.07766445
1.244369,-0.09601406,-0.1091029,0.2661013,0.2027783,-0.1433503,-0.69043,-0.2911767,0.1632858
1.384116,-0.07741939,-0.08605357,0.4059607,0.2222816,-0.1204344,-0.7434003,-0.321936,0.3673146
1.437424,-0.08089761,-0.07437713,0.4593851,0.2196498,-0.1088512,-0.7660575,-0.1689583,0.4548138
1.474668,-0.1905106,-0.09360465,0.4967267,0.1108127,-0.1281282,-0.7025675,0.006086055,0.5455268
1.380085,-0.330683,-0.09707673,0.4022005,-0.02865894,-0.1316029,-0.722354,0.09794262,0.6369316
1.292614,-0.4731544,-0.1127164,0.314725,-0.1705031,-0.147195,-0.635304,-0.003431785,0.645699
1.303134,-0.4780557,-0.1373007,0.3251647,-0.1748428,-0.1716781,-0.6061764,0.1324875,0.7034669
1.324625,-0.4968192,-0.1776946,0.3464893,-0.193099,-0.2119127,-0.6572509,0.8708029,0.6710581
1.312106,-0.5704888,-0.2470241,0.3337054,-0.2663031,-0.2810194,-0.6634025,1.860317,0.5207225
1.130613,-0.5189546,-0.2182008,0.1518413,-0.2143321,-0.2519028,-0.6702068,2.073998,0.3847444
0.8887448,-0.5099121,-0.08719217,-0.09050539,-0.2048686,-0.1205239,-0.5655025,1.265443,0.2112525
0.832594,-0.4690037,0.02902663,-0.1472366,-0.1635441,-0.003855161,-0.4599929,0.6696882,0.1566262
0.9501229,-0.3191612,0.01475121,-0.03037696,-0.01328283,-0.01760404,-0.5171258,0.6209253,0.2602266
0.9902079,-0.2829723,-0.07619006,0.00896242,0.02333093,-0.1079472,-0.5891914,0.75685,0.3871637
0.9061683,-0.3277174,-0.08020548,-0.07588992,-0.02098378,-0.1112967,-0.5346017,0.9702057,0.51052
0.8070264,-0.3893199,-0.07486689,-0.1759019,-0.08215147,-0.105226,-0.3772181,0.9061818,0.5273398
0.6455708,-0.4270621,-0.07675769,-0.3382712,-0.1194533,-0.1063197,-0.1048683,0.8100284,0.4595582
0.6121888,-0.380422,-0.03223264,-0.3725923,-0.07236437,-0.06093441,0.2073893,0.8722934,0.4106315
0.7376081,-0.3116289,-0.02033163,-0.2481164,-0.003111633,-0.0481126,0.3404277,1.200541,0.4146161
0.7358632,-0.2530718,0.00108188,-0.2507905,0.05591586,-0.02572174,0.354503,1.759459,0.458516
0.6178228,-0.2067925,0.1017659,-0.3697296,0.102673,0.07599076,0.3508779,1.532527,0.485473
0.5266438,-0.2029955,0.2839613,-0.4617602,0.1069496,0.2592569,0.3583251,0.5387033,0.4818494
0.6165852,-0.2646525,0.380538,-0.3726042,0.04576792,0.3569318,0.3944884,-0.2389887,0.3984604
0.7412697,-0.3165069,0.2963284,-0.2486214,-0.005620056,0.273829,0.316372,-0.2672607,0.3134024
0.6660679,-0.3440259,0.2913715,-0.3244284,-0.03268343,0.2699681,0.2662333,0.07946039,0.3397759
0.6560606,-0.3837753,0.3574035,-0.334934,-0.07198754,0.3370679,0.3547144,-0.1236478,0.344673
0.7364522,-0.311496,0.3706309,-0.2549241,0.0007282972,0.3513184,0.37255,-0.3349311,0.2995385
0.7644763,-0.1303911,0.425765,-0.2271576,0.1822608,0.4074137,0.2500964,-0.4495084,0.3156482
0.889228,0.01074564,0.4370144,-0.1025357,0.3238106,0.4195445,0.07266099,-1.047487,0.3505226
1.035397,0.0408019,0.3903547,0.04363016,0.3542532,0.3736694,-0.05372342,-1.351617,0.35329
1.133344,-0.02234798,0.3524145,0.1416936,0.2914476,0.3364014,-0.2780465,-1.546151,0.3277174
1.239731,-0.2979743,0.2809478,0.2483029,0.01611094,0.2654829,-0.403655,-1.759239,0.1872722
1.34422,-0.9814714,0.2089417,0.3531006,-0.6671519,0.1938931,0.1465918,-1.489674,-0.08695984
1.383774,-1.387732,0.1408008,0.3930287,-1.073213,0.1260331,0.8646719,-1.121162,-0.3647967
1.097094,-0.8425071,0.08237705,0.1067658,-0.5277832,0.06775568,0.9465544,-0.6652788,-0.5630961
0.6512224,-0.3850315,0.07729956,-0.33866,-0.07006374,0.06269386,0.7624009,-0.6694315,-0.6387651
0.582758,-0.7134576,0.08267587,-0.4066491,-0.398189,0.06796086,0.8304903,-1.042453,-0.6253699
0.820177,-0.8598056,0.01531621,-0.1687134,-0.5441681,0.0003733196,1.014542,-1.17726,-0.6822981
0.9783595,-0.701484,-0.09594226,-0.009964171,-0.3853944,-0.1112234,1.344086,-1.727799,-0.8500248
1.011573,-0.7777252,-0.1570563,0.02386707,-0.4610841,-0.1727743,1.949781,-1.751205,-1.055992
1.078902,-0.6546702,-0.1796506,0.09185896,-0.3373648,-0.1958888,2.3056,-0.8479856,-1.265668
1.05426,-0.3086404,-0.1696899,0.06791908,0.009450061,-0.1865154,2.149234,-0.3622844,-1.256308
0.8439855,-0.09718769,-0.1240481,-0.1416232,0.2218055,-0.1415118,1.955569,-0.3656823,-0.8935762
0.7569611,0.02129383,-0.08107057,-0.2278861,0.3412918,-0.0992099,1.757898,-0.8334842,-0.5490275
0.7747306,-0.07252445,-0.08798139,-0.2093223,0.2485578,-0.1068225,1.322793,-1.270506,-0.4810561
0.7987571,-0.1657902,-0.147356,-0.1844624,0.156433,-0.1669153,0.977804,-1.182835,-0.5897192
0.8946841,-0.1674571,-0.1630088,-0.0876587,0.1559457,-0.1832925,0.8674383,-0.9065323,-0.7486245
0.8722429,-0.2547723,-0.1563125,-0.1091778,0.06983455,-0.1773157,0.7811741,-0.3630633,-0.9075238
0.8235992,-0.2080179,-0.1333772,-0.1568542,0.117806,-0.1550842,0.8623941,-0.167827,-1.05077
0.8251156,-0.1771195,-0.07775665,-0.1543242,0.1499249,-0.1001429,0.9912433,-0.3470769,-1.054624
0.7661255,-0.2173391,-0.09981438,-0.2122524,0.1109191,-0.1228482,0.9366229,-0.2694362,-0.9968906
0.8079029,-0.1468035,-0.1418382,-0.1693623,0.1826519,-0.1654823,0.9387852,-0.2616512,-0.8853321
0.8966683,-0.1333398,-0.1644159,-0.07943108,0.1972865,-0.1886264,0.9377383,-0.1803474,-0.6604253
0.9570624,-0.07236507,-0.177159,-0.0178187,0.2593946,-0.2018846,0.8528974,0.05078986,-0.6154693
1.002326,0.06239618,-0.14357,0.02871146,0.3952388,-0.1687522,0.7014231,0.1474594,-0.5284444
0.9732514,0.1099098,-0.1372718,0.0009440665,0.4437687,-0.1628456,0.3537518,0.07790692,-0.2256249
1.026994,0.1111399,-0.1139608,0.05602801,0.4459299,-0.1398562,0.1000611,-0.09266863,-0.08199038
1.129144,0.1053296,-0.07188507,0.1595452,0.4409464,-0.0980288,0.06843885,-0.2202447,0.01729933
1.207576,0.1135289,-0.07052909,0.2393587,0.4498505,-0.0968461,0.0660711,-0.5619668,0.2016971
1.365013,0.02607546,-0.05952389,0.3981748,0.3629646,-0.08593892,0.1317457,-0.7611398,0.3965179
1.49027,-0.1010013,-0.07741479,0.5247904,0.2363062,-0.1038529,0.3002154,-0.4323558,0.5198316
1.535257,-0.1454115,-0.1114733,0.5710881,0.1921592,-0.1378599,0.4800157,-0.2230324,0.4862868
1.542405,-0.2005044,-0.1474535,0.5794727,0.1371734,-0.173713,0.409871,-0.2076122,0.4894454
1.495857,-0.2348735,-0.197797,0.5340596,0.1027577,-0.2238516,-0.01099762,-0.00841391,0.3779715
1.407957,-0.3144371,-0.163954,0.447169,0.02299899,-0.1897223,-0.3478531,0.229804,0.1343997
1.280055,-0.5368739,-0.07530734,0.3201327,-0.1997719,-0.1007049,-0.1921411,0.3489969,0.1847266
1.205146,-0.7260138,-0.04071385,0.2459332,-0.3893688,-0.06565576,0.1709739,0.9111823,0.2645015
1.205749,-0.6759518,-0.09847496,0.2470833,-0.3398629,-0.1228786,0.2212045,1.973193,0.165927
1.127795,-0.4876941,-0.162155,0.169513,-0.1522354,-0.1859397,-0.06895052,2.181356,0.1336226
1.001324,-0.4188788,-0.09393221,0.04326168,-0.08410487,-0.1170177,-0.4568979,1.328058,0.09054702
1.003553,-0.3801554,-0.02957207,0.04555262,-0.04610769,-0.05187879,-0.5413138,0.5309042,0.2055683
1.022876,-0.3559534,-0.07611378,0.06478683,-0.02266479,-0.09756503,-0.2747539,0.2277733,0.5230477
0.9209394,-0.4294793,-0.08839463,-0.03737884,-0.09697561,-0.1089172,-0.09170185,0.3933248,0.6103346
0.8330017,-0.4357991,-0.09668901,-0.125676,-0.104099,-0.1162126,0.08935685,0.6307383,0.5543428
0.7269022,-0.3931189,-0.1276881,-0.2322506,-0.062233,-0.1461443,0.2594057,0.7623199,0.5446494
0.6015997,-0.3192291,-0.0700024,-0.3581245,0.01083877,-0.08732413,0.3106587,0.9667746,0.4949462
0.6325872,-0.2417621,-0.01574699,-0.3277818,0.08748762,-0.03186991,0.3968683,1.041564,0.4344879
0.7375288,-0.2021711,-0.02227008,-0.2235352,0.1262601,-0.03713422,0.2119502,1.41703,0.3264939
0.7873003,-0.09908888,0.03463866,-0.1744892,0.2285201,0.02108721,-0.04438786,1.823567,0.2675475
0.6701907,-0.07382467,0.1940543,-0.2923387,0.2529519,0.1818612,-0.08954119,0.8144233,0.3872361
0.5038802,-0.1140765,0.3300308,-0.4593873,0.211849,0.3192292,-0.1602912,-0.3535362,0.4876564
0.5851377,-0.1286797,0.3111205,-0.378846,0.1963679,0.3017253,-0.1452183,-0.1299535,0.4512478
0.6908487,-0.2187602,0.2800894,-0.2738089,0.1053769,0.2720956,-0.2338822,-0.1159989,0.4403432
0.7239066,-0.2854828,0.3346127,-0.2413668,0.03770859,0.3279967,-0.366118,-0.3849465,0.48078
0.8611629,-0.2962608,0.3329879,-0.1046576,0.02595055,0.3277083,-0.2658723,0.04278688,0.424431
0.9409817,-0.288845,0.3507993,-0.02531212,0.03235523,0.3467974,-0.2728567,-0.01026833,0.3690992
0.9840213,-0.2573843,0.4137792,0.01732791,0.06277674,0.4109791,-0.3832433,-0.2404813,0.3680126
1.030672,-0.2474366,0.4140746,0.06364878,0.07165969,0.4123833,-0.4915865,-0.04217399,0.3195662
1.039209,-0.2861724,0.4387508,0.07192,0.03183529,0.4380581,-0.5923883,-0.4509225,0.2760355
1.174905,-0.4159972,0.4017342,0.2074064,-0.09909886,0.4019133,-0.5327754,-0.8826055,0.190261
1.326263,-0.601765,0.1994082,0.3585986,-0.2859898,0.2003189,-0.1891139,-0.8599347,0.1380288
1.349545,-0.7487574,-0.001726703,0.3817423,-0.4341047,-0.000230776,0.3609254,-0.7504503,0.1201831
1.235392,-0.6836457,-0.06513731,0.2674596,-0.370095,-0.06319963,0.5035404,-0.6234757,-0.2451942
0.9517981,-0.4985447,-0.0705796,-0.01627034,-0.1860554,-0.06833404,0.2805859,-0.9212181,-0.7639268
0.760341,-0.503541,-0.1674572,-0.2078751,-0.1920578,-0.1650252,0.1683395,-0.958521,-0.8438178
0.8565475,-0.5660939,-0.1883824,-0.1118232,-0.2555512,-0.1858708,0.0312201,-0.6326841,-0.5884026
1.031631,-0.6180483,-0.1301766,0.06310584,-0.308371,-0.1276769,0.2604341,-0.479043,-0.5124974
1.064264,-0.6521562,-0.1575426,0.0955852,-0.3432579,-0.1551313,0.847277,-0.1176206,-0.6557691
0.9994801,-0.4511869,-0.07496066,0.03064829,-0.14297,-0.07270131,0.9219178,-0.07549398,-0.8100675
0.8525482,-0.1571933,-0.004249132,-0.1164388,0.1504447,-0.002195114,0.6385038,-0.342677,-0.9271055
0.6301936,0.03593812,-0.04159129,-0.338947,0.343094,-0.03978878,0.3332972,-0.7071591,-0.7722986
0.5856908,0.03483559,-0.05030147,-0.3835901,0.3415895,-0.04879102,-0.09614941,-1.244117,-0.4706338
0.6873093,-0.08942343,-0.1621752,-0.2820828,0.2169883,-0.1609908,-0.4158827,-1.225247,-0.4327025
0.7583753,-0.139055,-0.2245898,-0.2110843,0.1670569,-0.2237565,-0.5963246,-0.9273587,-0.4657218
0.8336559,-0.2155967,-0.2124653,-0.1358175,0.09024506,-0.211996,-0.6723774,-0.5100537,-0.4399917
0.8666571,-0.2486354,-0.2389525,-0.102771,0.05695794,-0.2388472,-0.6075374,0.05387905,-0.4208912
0.8832459,-0.2326992,-0.1658921,-0.08607588,0.07266208,-0.1661387,-0.465652,0.2140677,-0.3280347
0.9009247,-0.2775791,-0.1252103,-0.06822926,0.02756261,-0.1257865,-0.2175602,0.1466741,-0.2395959
0.9083885,-0.1693399,-0.1254443,-0.06053716,0.1355913,-0.1263206,-0.1446393,0.02565768,-0.133387
0.9513321,-0.03803895,-0.116392,-0.01730668,0.2666855,-0.1175333,-0.3483997,0.002197393,0.04481393
0.9739919,-0.03214935,-0.1488537,0.005695584,0.2723624,-0.1502204,-0.5121697,0.03553914,0.1616481
1.046393,-0.008974554,-0.1330432,0.07848947,0.2953065,-0.134591,-0.7369349,0.004265795,0.1818077
1.206932,0.003295702,-0.1392371,0.2394646,0.3073153,-0.1409174,-1.06922,0.04180203,0.2432674
1.316929,-0.03481128,-0.1101005,0.3499275,0.2689039,-0.1118607,-1.10339,-0.07214238,0.3459299
1.383937,-0.1286806,-0.02756355,0.4174138,0.174677,-0.02934873,-0.9122075,-0.1361822,0.3663808
1.444545,-0.1809884,-0.03159365,0.4784899,0.1219519,-0.03334896,-0.8611608,-0.04652292,0.4551245
1.430962,-0.19962,-0.03961869,0.4653428,0.1028406,-0.04129113,-0.7895588,-0.01517764,0.5977308
1.380539,-0.2752371,-0.09112505,0.4152998,0.02668159,-0.09266347,-0.7929179,0.01200032,0.5911403
1.364429,-0.309958,-0.1726131,0.3994953,-0.0086406,-0.1739665,-1.039917,0.007928853,0.5355176
1.367488,-0.3628127,-0.1514578,0.4027677,-0.06215064,-0.152573,-1.094537,0.1266787,0.4230981
1.375136,-0.4238976,-0.1740648,0.4105224,-0.1239373,-0.1748851,-0.9981442,0.4933571,0.3128703
1.325344,-0.4118235,-0.3464377,0.3607176,-0.1126016,-0.3469015,-0.9728894,1.375297,0.326228
1.236184,-0.419044,-0.4779464,0.2714142,-0.1205867,-0.4779836,-1.02399,2.470271,0.2486653
1.134166,-0.4157683,-0.3537904,0.1691172,-0.1180918,-0.3533176,-1.289932,2.633866,0.1095411
0.9368754,-0.398334,-0.1180897,-0.02858989,-0.1014451,-0.117012,-1.502297,1.974988,0.1003832
0.8268934,-0.3663837,-0.01699116,-0.1391168,-0.07028125,-0.01520972,-1.488244,1.302499,0.1658412
0.8931637,-0.2982072,-0.005349186,-0.07350699,-0.002883689,-0.002769622,-1.368524,0.8897964,0.2893346
0.8910265,-0.2909734,-0.06274616,-0.0764051,0.003582368,-0.05928156,-1.253574,0.8802451,0.4970719
0.8281558,-0.3390124,-0.1651667,-0.1401231,-0.04521142,-0.1607366,-1.197255,1.138182,0.6476386
0.7717778,-0.3680519,-0.1695635,-0.1974203,-0.07499012,-0.1640904,-1.048962,1.37063,0.632555
