accx,accy,accz,body_accx,body_accy,body_accz,body_gyrox,body_gyroy,body_gyroz
1.057678,-0.4020737,-0.4780524,0.08798815,-0.137768,-0.2260572,0.2120278,1.19942,0.457743
1.050964,-0.3227481,-0.4273327,0.08223826,-0.0565861,-0.1746376,0.1918809,1.198659,0.4767374
0.9793615,-0.2175198,-0.3111477,0.01151981,0.05050216,-0.0576644,0.08692547,1.024266,0.4634985
0.908991,-0.2277651,-0.2433698,-0.05804633,0.04211557,0.01098749,0.005930794,0.7260057,0.4356571
0.8546105,-0.2516679,-0.2513326,-0.1116972,0.02006397,0.003977687,-0.04507033,0.4573262,0.4842472
0.8435396,-0.2250744,-0.252758,-0.1221058,0.04849462,0.00357613,-0.03564756,0.4126361,0.5538398
0.8122343,-0.2612605,-0.2379204,-0.1528071,0.01412595,0.01950004,0.1331022,0.5477679,0.5582229
0.7334457,-0.3055406,-0.1946498,-0.2310399,-0.02836116,0.06391102,0.3283118,0.7037525,0.5086655
0.6327085,-0.3024963,-0.1438251,-0.3312574,-0.02355121,0.1159208,0.3660187,0.6900615,0.3824952
0.5511399,-0.2886875,-0.1290059,-0.4123263,-0.008006141,0.1319588,0.2962558,0.6257372,0.2825273
0.5513785,-0.2383733,-0.130749,-0.4115897,0.04401297,0.1314564,0.2447665,0.5928057,0.2589953
0.5677699,-0.1873799,-0.1275397,-0.3946823,0.09667623,0.1359166,0.1844903,0.5333662,0.2671219
0.6193369,-0.1790387,-0.1411974,-0.3425639,0.106647,0.1235088,-0.03489542,0.484858,0.2793911
0.6841081,-0.2184279,-0.1510696,-0.277191,0.06884076,0.1148759,-0.303773,0.4240396,0.2063206
0.6848618,-0.3111629,-0.1071234,-0.2757743,-0.02236268,0.1600414,-0.4375937,0.4241333,0.1301606
0.7508347,-0.3917122,-0.05905952,-0.2090692,-0.1014332,0.2092953,-0.4001487,0.4244152,0.1071234
0.8588831,-0.4104838,-0.05765894,-0.1002146,-0.1187763,0.2118462,-0.3199187,0.384798,0.08857827
0.9359928,-0.3871731,-0.08087656,-0.0222243,-0.09408257,0.1897286,-0.3639354,0.4503402,0.1010151
0.9649798,-0.3850665,-0.09369062,0.007713398,-0.09063367,0.1779545,-0.3860686,0.4904774,0.1170735
0.9436499,-0.4144948,-0.07617453,-0.01260214,-0.1187559,0.1964424,-0.3918512,0.4446061,0.1595195
1.034823,-0.4224573,-0.05807287,0.07964156,-0.125444,0.2154401,-0.3983926,0.4599607,0.1885155
1.226704,-0.4257653,-0.05814792,0.2726385,-0.1275045,0.2161778,-0.2417385,0.6195854,0.1042355
1.371345,-0.4417588,-0.1096454,0.4184245,-0.1422721,0.1654029,-0.1646499,0.7638548,-0.04339664
1.395436,-0.5352457,-0.227634,0.4436692,-0.2345491,0.04804229,-0.2773409,0.4903506,-0.09858941
1.390009,-0.7403327,-0.3035383,0.4393796,-0.4384333,-0.0273288,-0.3147084,-0.1505681,0.1056659
1.408722,-0.825188,-0.2802553,0.4591873,-0.5220784,-0.003603538,-0.07033665,-0.5600885,0.2930008
1.224308,-0.6393203,-0.2577311,0.2758041,-0.3349746,0.01927768,0.1914826,-0.4209381,0.06364472
0.9323408,-0.4075851,-0.2944535,-0.01521068,-0.1019627,-0.01716779,-0.05233973,-0.2260651,-0.2589668
0.7924586,-0.3501012,-0.2992485,-0.1542235,-0.0431559,-0.02176087,-0.5766885,-0.3242406,-0.312831
0.7715422,-0.3358149,-0.2689036,-0.174347,-0.02750217,0.008716537,-1.029714,-0.2971245,-0.3210641
0.7745466,-0.2584564,-0.2652534,-0.1706153,0.05126295,0.01243475,-1.242301,-0.2419649,-0.4220935
0.8029739,-0.2802092,-0.2256399,-0.141515,0.03094894,0.05205565,-1.037472,-0.3438703,-0.5077892
0.9609592,-0.369061,-0.1898997,0.01709819,-0.05643936,0.08774516,-0.8364935,-0.2989708,-0.5243412
1.002798,-0.3720256,-0.1890871,0.05952473,-0.05792096,0.08844994,-0.6489551,-0.2940962,-0.4984081
0.8485391,-0.3274017,-0.1570411,-0.09418577,-0.01179789,0.120331,-0.4070006,-0.2829538,-0.4933247
0.7876092,-0.2604636,-0.1677007,-0.1546033,0.05665154,0.1094486,-0.5081646,-0.1563193,-0.4442423
0.6842748,-0.1871919,-0.2008677,-0.2574542,0.1314404,0.07600012,-0.5441391,-0.1748579,-0.3158914
0.5869054,-0.1338794,-0.2029206,-0.3543573,0.1862665,0.07360739,-0.5762419,-0.157492,-0.2163352
0.6033371,-0.10959,-0.2447243,-0.3374615,0.2120544,0.03140689,-0.9979429,-0.1392708,-0.2133046
0.6258273,-0.1790245,-0.2741129,-0.3144934,0.1440905,0.001567072,-1.142861,-0.1703311,-0.3255343
0.7559693,-0.2644788,-0.2624576,-0.1838459,0.06006851,0.01272086,-0.9370195,-0.08471901,-0.4141557
0.8425406,-0.2592522,-0.2676822,-0.0967326,0.06668231,0.006948925,-0.7886106,-0.06589604,-0.3808457
0.851541,-0.2384319,-0.2871727,-0.08714976,0.08884023,-0.01313036,-0.7180471,-0.1089074,-0.3297465
0.8958168,-0.2338952,-0.3022885,-0.04225042,0.09466077,-0.02887134,-0.7456769,-0.1383148,-0.28212
0.9499466,-0.2350116,-0.2854451,0.01254222,0.0947704,-0.01268436,-0.6594588,-0.09714628,-0.2374846
1.062247,-0.241401,-0.2567125,0.1255406,0.08954516,0.01536537,-0.4497768,0.04510521,-0.2231847
1.061859,-0.2153701,-0.2495839,0.1258775,0.1166746,0.02178844,-0.3503395,0.1212258,-0.1920051
1.010586,-0.1463511,-0.2541018,0.07534783,0.1867227,0.01654527,-0.4664515,0.1106351,-0.1074727
1.037785,-0.07094107,-0.2609793,0.1032991,0.2630863,0.008925161,-0.7064717,-0.006677366,0.00408064
1.00951,-0.09204465,-0.2577969,0.075778,0.2428527,0.01135028,-0.8165362,-0.1797182,0.07237691
1.029461,-0.1812145,-0.2612949,0.0964776,0.1544608,0.007082835,-0.8628001,-0.3311173,0.02714527
1.087861,-0.243341,-0.2835947,0.1556154,0.09301502,-0.01599573,-0.8499605,-0.4053065,-0.07033666
1.14812,-0.3571985,-0.3301323,0.2165916,-0.02026018,-0.06331824,-0.585181,-0.3070933,-0.0912237
1.258206,-0.4889598,-0.4199314,0.3273651,-0.1515335,-0.1539033,-0.2330926,-0.2188087,-0.07935287
1.328429,-0.507924,-0.5260589,0.3982317,-0.1700947,-0.2608096,-0.1310496,-0.1101515,-0.06577736
1.382544,-0.4110371,-0.6013649,0.4529301,-0.07287776,-0.3368749,-0.2105505,0.1010151,0.001301042
1.348248,-0.3184071,-0.5927284,0.4191366,0.02001921,-0.328963,-0.1292876,0.1620391,0.1407784
1.164279,-0.3626995,-0.5222007,0.2355749,-0.02406323,-0.2591095,-0.001583621,0.181865,0.3277517
0.963025,-0.4082387,-0.4701069,0.03462297,-0.06944495,-0.2076263,0.1111839,0.396061,0.3859753
0.8818304,-0.3736442,-0.4266134,-0.04637671,-0.03473995,-0.1646705,0.2865972,0.6407758,0.3921975
0.9678131,-0.3619126,-0.4010747,0.03969988,-0.02293972,-0.1395907,0.3756689,0.6926528,0.531718
1.018494,-0.3227018,-0.4084312,0.09037999,0.01630247,-0.1473237,0.4644122,0.6775772,0.5828956
0.9967991,-0.3172931,-0.3948512,0.06859408,0.02170796,-0.1340353,0.3822324,0.7763014,0.4518192
0.9922052,-0.3668028,-0.3368855,0.06382178,-0.02783738,-0.07627454,0.2484106,0.7979077,0.3006532
0.9065282,-0.3517234,-0.2375981,-0.02211715,-0.01282353,0.02289355,0.4726773,0.6301041,0.2283467
0.8610538,-0.3386694,-0.1925623,-0.06793099,0.0001379994,0.06789114,0.6429691,0.4438482,0.2480035
0.8740808,-0.3163335,-0.2431425,-0.05531262,0.02235706,0.01734684,0.6509903,0.3946742,0.2850314
0.8130167,-0.2873977,-0.2510718,-0.1168453,0.05115306,0.009520048,0.6608334,0.4290414,0.3256567
0.7602679,-0.3115613,-0.1973203,-0.170112,0.02682714,0.06343438,0.6279574,0.368263,0.3418716
0.6886136,-0.2945915,-0.1388182,-0.2423211,0.04361207,0.1221524,0.6826343,0.3031124,0.283878
0.6381059,-0.2492337,-0.09756835,-0.2934055,0.08876265,0.163662,0.6615162,0.2922748,0.1895717
0.6631979,-0.1931538,-0.1282936,-0.268896,0.1446112,0.1332297,0.5123785,0.2116264,0.09333813
0.6613508,-0.1465931,-0.1693092,-0.271315,0.190913,0.09252996,0.2472566,0.1105959,0.05587283
0.6736668,-0.1884768,-0.156001,-0.2595455,0.1487374,0.1061683,-0.100977,0.0287629,0.09293147
0.688548,-0.2527854,-0.1283336,-0.2451723,0.08409909,0.1341725,-0.2177449,0.04177888,0.1240409
0.7065686,-0.3381605,-0.09361714,-0.2276095,-0.001645613,0.1692248,-0.1882397,0.1520115,0.116287
0.7724788,-0.4173448,-0.0845909,-0.1620974,-0.08123753,0.1785773,-0.1387924,0.233551,0.06245925
0.8028365,-0.4083085,-0.09937263,-0.1320714,-0.07264146,0.1641034,-0.05574034,0.3329644,-0.02430008
0.8153583,-0.3997049,-0.08047227,-0.1198109,-0.06450375,0.1832847,-0.003218179,0.3298496,-0.06508591
0.849812,-0.3898358,-0.05923248,-0.08554594,-0.05511953,0.2047706,0.06546921,0.209644,-0.06324679
0.9258654,-0.3512355,-0.04957292,-0.009608704,-0.01701742,0.2146333,0.1410957,0.1838187,-0.0563237
1.04028,-0.3421303,-0.05888955,0.1047598,-0.008419557,0.2054688,0.2337048,0.1736117,-0.01646059
1.107816,-0.3243814,-0.1122566,0.1723115,0.0088157,0.1521957,0.2098211,0.1381909,0.01080889
1.213719,-0.3351112,-0.1763015,0.2782805,-0.002432054,0.08818171,0.04572971,0.08702476,0.07478986
1.466957,-0.4870801,-0.246109,0.531619,-0.1549206,0.01834043,0.05028004,0.05293346,0.2762493
1.639648,-0.6711578,-0.2611937,0.7044201,-0.339513,0.003159073,0.3046883,0.04441525,0.3717614
1.475995,-0.6570624,-0.2161603,0.5408575,-0.3259144,0.04803626,0.5394898,-0.1274514,0.0619775
1.219711,-0.5419546,-0.2096643,0.2846143,-0.2112703,0.05432005,0.3083414,-0.3143295,-0.3486129
1.144149,-0.5326356,-0.2033874,0.2090268,-0.2023692,0.06033083,-0.05398908,-0.3616555,-0.3191837
1.053516,-0.4965973,-0.21653,0.1182922,-0.1666939,0.04687001,-0.008220964,-0.3550458,-0.1408133
0.8903789,-0.3986515,-0.271979,-0.04502419,-0.06905035,-0.00894699,-0.1579094,-0.2940649,-0.1748781
0.8382406,-0.3650478,-0.2936947,-0.09741574,-0.03568544,-0.03107671,-0.5009427,-0.3140311,-0.1277551
0.8905579,-0.3675053,-0.2807865,-0.04541732,-0.03831911,-0.01862354,-0.4756654,-0.4310317,-0.1449388
0.9188127,-0.3764895,-0.2327278,-0.01753816,-0.04741859,0.02894421,-0.389464,-0.4885824,-0.2756121
0.8933529,-0.3614744,-0.2262401,-0.04342306,-0.03246004,0.03490874,-0.3270999,-0.4216231,-0.2832474
0.8646124,-0.3501746,-0.2359159,-0.07263145,-0.02116004,0.02467996,-0.2488392,-0.3066079,-0.4331784
0.7779181,-0.3457211,-0.185091,-0.1598286,-0.01665233,0.07492409,-0.2534079,-0.299611,-0.6093434
0.7020758,-0.3108526,-0.1901977,-0.2361986,0.01832112,0.06920983,-0.1834907,-0.3101343,-0.6682551
0.6953031,-0.3161099,-0.2087261,-0.2435109,0.0132155,0.05004728,-0.07856478,-0.2337444,-0.7407671
0.6294008,-0.3027793,-0.2086007,-0.3099499,0.02674013,0.04951257,0.01333059,-0.1332842,-0.6748702
0.6048874,-0.2684107,-0.2433888,-0.3349815,0.06134013,0.01403965,0.03974007,-0.07041166,-0.5979219
0.6420714,-0.2606535,-0.2805447,-0.2982812,0.06936058,-0.02382356,-0.01018399,-0.07484286,-0.5680314
0.6840418,-0.2140455,-0.3395414,-0.2567453,0.1162571,-0.08354612,-0.01511894,-0.05062424,-0.5234379
0.7833119,-0.2015076,-0.3286256,-0.1578488,0.1291016,-0.0733688,-0.03976342,-0.03031985,-0.5395825
0.8068999,-0.1880508,-0.2604212,-0.1345663,0.1428744,-0.005909367,-0.05799574,-0.134888,-0.4702254
0.8160177,-0.1151614,-0.2476525,-0.1256817,0.2160805,0.006112413,-0.1312481,-0.2255087,-0.394561
0.9231571,-0.09593787,-0.2428472,-0.01870161,0.2356113,0.01017126,-0.3410762,-0.1729227,-0.3775247
1.006458,-0.1287566,-0.2473934,0.06451156,0.203079,0.00488106,-0.4234448,-0.1336765,-0.2748119
1.021233,-0.1658133,-0.2365933,0.07926609,0.166278,0.01494088,-0.3410062,-0.2351279,-0.1711875
0.9719242,-0.183136,-0.2275203,0.02999567,0.1491718,0.02327851,-0.3072465,-0.2989658,-0.1228541
0.9427954,-0.1890398,-0.2529631,0.0009570261,0.1434396,-0.002893896,-0.3313255,-0.2262113,-0.1272753
0.9675172,-0.2164116,-0.2369108,0.02581573,0.1161895,0.01243561,-0.2809349,-0.09904367,-0.150191
0.9719221,-0.2378507,-0.2148609,0.03039947,0.09481894,0.03377045,-0.1819927,0.03845273,-0.1541727
0.9805869,-0.2056736,-0.2029296,0.0392803,0.1270093,0.04499474,-0.1804157,0.03159772,-0.1927787
1.014735,-0.1140916,-0.2217427,0.07367608,0.2185469,0.02548213,-0.2841722,-0.09052117,-0.2018431
1.066836,-0.06588339,-0.2699988,0.1260508,0.2666482,-0.02346591,-0.4150092,-0.1194264,-0.1481711
1.110847,-0.1190944,-0.2379005,0.1703532,0.2132612,0.007948844,-0.4222018,-0.1218691,-0.1109419
1.131413,-0.220504,-0.2104018,0.1912188,0.1116003,0.03477367,-0.2641029,-0.1702195,-0.1285353
1.152814,-0.3394126,-0.2478302,0.2129174,-0.007636402,-0.003318522,-0.05197727,-0.2479683,-0.1549832
1.210416,-0.442754,-0.3482592,0.2708025,-0.1113791,-0.1044,0.1148416,-0.2759001,-0.1388378
1.395831,-0.4599902,-0.5523937,0.4564745,-0.1290808,-0.309171,0.07885125,-0.09437057,-0.1587238
1.560614,-0.352253,-0.6405585,0.6214696,-0.02186265,-0.397945,-0.04045312,0.06668136,-0.1459183
1.420027,-0.261536,-0.5606914,0.4810258,0.06829031,-0.318644,-0.03697536,-0.07307162,0.1006493
1.154609,-0.3116285,-0.5498392,0.2156612,0.01759332,-0.3082981,0.01817304,-0.1266889,0.4396648
1.016862,-0.3615835,-0.5566107,0.07786777,-0.03300319,-0.3155026,0.1123918,0.2966906,0.549096
0.9530019,-0.3367792,-0.4678087,0.01385851,-0.008873099,-0.2270487,0.2106766,0.7384054,0.4986568
0.9915209,-0.3147827,-0.3726269,0.05213029,0.01242122,-0.1321221,0.3401533,0.7142874,0.5559658
1.036119,-0.2854917,-0.3028592,0.09638888,0.04098605,-0.0625132,0.4723664,0.6125706,0.5852057
0.9662537,-0.2689259,-0.2439294,0.02609515,0.05680405,-0.003647311,0.4543734,0.7046501,0.5135106
0.935389,-0.2951492,-0.2148252,-0.005280716,0.0298126,0.0254833,0.4648191,0.6839723,0.4917258
0.8923007,-0.2846536,-0.2076415,-0.04895673,0.03952135,0.03277685,0.5026337,0.5856539,0.4157932
0.8263651,-0.240268,-0.2059762,-0.1155477,0.08310246,0.0346276,0.4878477,0.5173174,0.3972522
0.8381153,-0.1880593,-0.1972922,-0.10451,0.1344892,0.04356507,0.5364732,0.3748575,0.516762
0.8024245,-0.1424032,-0.1919828,-0.1409588,0.1793037,0.0491882,0.4999084,0.300144,0.566556
0.7520559,-0.1845209,-0.1909663,-0.1921187,0.1363211,0.05057112,0.3619646,0.2501301,0.5970942
0.7022438,-0.2523517,-0.1578027,-0.2427423,0.06759863,0.0841463,0.2714045,0.1055421,0.5472307
0.6583727,-0.2950897,-0.1248577,-0.2874302,0.02394126,0.1175398,0.3869864,0.04108413,0.3990564
0.7024565,-0.3488438,-0.1345913,-0.2441527,-0.03075764,0.108283,0.6218626,0.04715967,0.3084382
0.6903996,-0.3789793,-0.1427254,-0.2569905,-0.06185898,0.100645,0.6183371,0.05356901,0.2148375
0.6742519,-0.3798173,-0.125574,-0.27388,-0.06367752,0.1183033,0.5752584,0.05720742,0.1805248
0.7075445,-0.3242976,-0.1070224,-0.2412777,-0.009146762,0.1373648,0.5968997,0.02691044,0.1897617
0.6951821,-0.2704277,-0.09463715,-0.2542673,0.04373076,0.1502547,0.4761938,-0.01528196,0.1623771
0.744353,-0.280581,-0.1068535,-0.2056507,0.03258404,0.1385296,0.3561215,-0.09057847,0.1818076
0.8047727,-0.2823196,-0.135342,-0.1457049,0.02985225,0.1105112,0.2738975,-0.1307972,0.1989066
0.8038308,-0.3265011,-0.1215769,-0.1470354,-0.01532101,0.1247192,0.2896955,-0.1290765,0.2001743
0.7950042,-0.3950021,-0.09953198,-0.1561623,-0.08480951,0.1471739,0.3814703,-0.1423402,0.1413849
0.7822579,-0.3952065,-0.09194861,-0.1691184,-0.0859926,0.1551284,0.416453,-0.1068717,-0.006209119
0.8174706,-0.3914111,-0.05122761,-0.1340228,-0.08316104,0.1961757,0.5872931,-0.0829389,-0.1370621
0.8618712,-0.4100327,-0.03460775,-0.0896458,-0.1027256,0.2130703,0.759231,-0.06664162,-0.2577387
0.8986469,-0.4111705,-0.04654742,-0.05280088,-0.1047795,0.2013465,0.7262407,0.006600307,-0.2938692
0.9759608,-0.3648556,-0.04353656,0.02467146,-0.05934861,0.2045076,0.6889854,0.02316139,-0.2168549
1.060193,-0.2818183,-0.06736532,0.1091453,0.02284093,0.1807572,0.6087325,-0.1221577,-0.1189139
1.160312,-0.2090292,-0.1197113,0.2095773,0.09481872,0.1284132,0.3450426,-0.4547118,0.03624052
1.304712,-0.2304628,-0.1961455,0.3543488,0.07260753,0.05190255,0.1634099,-0.7533091,0.1808178
1.498984,-0.4232447,-0.2491639,0.5490293,-0.1209212,-0.001269471,0.3528353,-0.7386991,0.1807822
1.627687,-0.6686673,-0.2318994,0.6781512,-0.3670572,0.01576825,0.5963166,-0.6035584,0.01569505
1.531162,-0.7415788,-0.2208937,0.5820242,-0.4406375,0.02647932,0.5661138,-0.5184907,-0.2430431
1.280059,-0.6416106,-0.219551,0.3312683,-0.3412763,0.02746416,0.4599504,-0.4346017,-0.3566464
1.027244,-0.6142877,-0.1835394,0.07872902,-0.3144817,0.06305872,0.4148555,-0.6934365,-0.2432142
0.8833372,-0.6657951,-0.169739,-0.06497956,-0.3664254,0.07638591,0.5552447,-1.04242,-0.170293
0.8522021,-0.6292798,-0.2353519,-0.09599079,-0.3302421,0.01024609,0.7251517,-0.7351672,-0.2273848
0.8176423,-0.5708166,-0.3485809,-0.1304925,-0.271996,-0.1035596,0.4923755,-0.3797062,-0.3346707
0.8183563,-0.48407,-0.3977382,-0.1297761,-0.1853443,-0.1533359,0.1898719,-0.4680692,-0.5414678
0.8484879,-0.3700966,-0.3396622,-0.09968729,-0.07134058,-0.09591093,0.1642197,-0.4461448,-0.6947277
0.8082649,-0.3098246,-0.2683428,-0.1399887,-0.01091557,-0.02526478,0.1796253,-0.4383881,-0.6925197
0.7958811,-0.267351,-0.2386021,-0.1524774,0.03182695,0.003787241,0.2066044,-0.5648647,-0.7138955
0.7852573,-0.3014883,-0.2281315,-0.1632229,-0.001934415,0.01355764,0.2472793,-0.5809759,-0.7364691
0.7365769,-0.3510195,-0.2367421,-0.212032,-0.05099174,0.004237829,0.2805267,-0.5580747,-0.7481018
0.7347016,-0.3470032,-0.2425972,-0.2140323,-0.04641104,-0.002333234,0.3928743,-0.4312926,-0.8175591
0.7035606,-0.3607791,-0.2338253,-0.2452838,-0.05953768,0.005718336,0.5275962,-0.2916587,-0.8360937
0.6886577,-0.3220238,-0.2434924,-0.2602714,-0.02005366,-0.00467127,0.6001616,-0.2581113,-0.7887049
0.7072914,-0.2837739,-0.2562738,-0.2416857,0.01899813,-0.01817525,0.5880317,-0.2464577,-0.7114679
0.6781847,-0.2709617,-0.2728052,-0.270793,0.03267829,-0.0354265,0.5596556,-0.2903945,-0.6424053
0.679737,-0.2138789,-0.3001649,-0.269184,0.09068651,-0.06350015,0.5411201,-0.3084182,-0.6389582
0.7003916,-0.1912079,-0.3012973,-0.2484063,0.1143302,-0.06533657,0.4960033,-0.2939689,-0.6356718
0.7726222,-0.1734452,-0.2895978,-0.1759784,0.133102,-0.054327,0.4667145,-0.273853,-0.6208125
0.9028287,-0.1543526,-0.2522856,-0.0454959,0.1532282,-0.01768682,0.4308662,-0.2198142,-0.6081682
0.9482647,-0.1668269,-0.1849064,0.0002940018,0.1418001,0.04904027,0.4168497,-0.1978473,-0.5716488
0.9349695,-0.157384,-0.160588,-0.01257379,0.1522907,0.07272609,0.4112916,-0.1341018,-0.5471069
0.9476752,-0.119221,-0.1509796,0.0006267571,0.1914918,0.08171895,0.2945195,-0.008361738,-0.5766974
0.9805941,-0.03980184,-0.1329292,0.03410182,0.2719282,0.09916741,0.1522873,0.02020442,-0.620657
0.9896251,0.02385779,-0.1924316,0.0437433,0.3365706,0.03907309,-0.02250206,-0.2854074,-0.5399156
1.01345,0.01395174,-0.2623035,0.06822528,0.3275977,-0.03138284,-0.2647134,-0.6300382,-0.3069224
1.045604,-0.08309165,-0.2250255,0.1010755,0.2314227,0.005319205,-0.3125477,-0.3847356,-0.05890459
1.010719,-0.237878,-0.1742739,0.0669157,0.07742876,0.05550392,-0.1251768,-0.07493597,0.01150132
0.9919258,-0.2973659,-0.170004,0.0488705,0.01865257,0.05921542,-0.0006538958,-0.1993379,-0.09815183
1.00061,-0.2946904,-0.1703347,0.05831668,0.02195936,0.05833314,-0.0274949,-0.2630833,-0.1887908
1.092917,-0.3281233,-0.2110185,0.1513945,-0.01091965,0.01710281,0.01784706,-0.2678514,-0.3300604
1.312692,-0.3218342,-0.2829588,0.3719383,-0.004150363,-0.05537933,0.2208728,-0.2152228,-0.4305616
1.398906,-0.3070438,-0.3411559,0.4589053,0.01105073,-0.1141113,0.4527535,-0.01059812,-0.3059401
1.368319,-0.309114,-0.393436,0.4290332,0.009325447,-0.1669139,0.5627201,-0.04349948,-0.2613496
1.45294,-0.2520806,-0.5114855,0.5143099,0.06664103,-0.2854658,0.3445154,-0.1022559,-0.2745542
1.526583,-0.2003145,-0.666069,0.5885261,0.1186281,-0.440519,0.005223469,-0.07271629,-0.2066993
1.34647,-0.2478499,-0.6096747,0.4088816,0.07125213,-0.3845453,-0.04439525,-0.3113046,-0.1135883
1.017513,-0.3560809,-0.4935572,0.08027234,-0.03688077,-0.2687821,0.02795992,-0.4516735,0.1917853
0.8941046,-0.4384242,-0.5774359,-0.04291507,-0.1191838,-0.352935,0.1425097,-0.1034777,0.4295079
0.9791831,-0.4649803,-0.5749509,0.04226314,-0.1457497,-0.3506323,0.4132881,0.477695,0.3643472
1.026827,-0.4712799,-0.5136765,0.08989268,-0.1520995,-0.2894372,0.5632776,0.8108685,0.2975709
1.029177,-0.4112352,-0.5276137,0.09211964,-0.09213494,-0.3033416,0.5247777,0.7741343,0.2602482
1.03217,-0.2607218,-0.4038928,0.09488527,0.05827595,-0.1794688,0.4854093,0.6403787,0.2697227
0.9807816,-0.1921405,-0.3132733,0.04316825,0.1267352,-0.08857573,0.4332079,0.4718323,0.3546275
0.9184902,-0.2151463,-0.3202124,-0.01954762,0.1035859,-0.09512145,0.3762186,0.3873736,0.4091314
0.9291435,-0.2097313,-0.2708083,-0.009407622,0.1088322,-0.04520892,0.428244,0.4364068,0.4389078
0.9179249,-0.239418,-0.2517795,-0.02122009,0.07894852,-0.02556296,0.5702767,0.4426644,0.4352092
0.8355161,-0.2716,-0.2369418,-0.1042944,0.04653936,-0.01000671,0.6400039,0.477471,0.450313
0.750967,-0.2621955,-0.2284145,-0.1895698,0.05568577,-0.000668129,0.6095617,0.5030246,0.4810588
0.672074,-0.2615934,-0.2214991,-0.2692362,0.05599889,0.007142891,0.5652984,0.4277566,0.4672918
0.6574384,-0.2290487,-0.181794,-0.2846752,0.08822392,0.04781901,0.5270966,0.2990989,0.440041
0.6877909,-0.2159404,-0.1948323,-0.2551381,0.1009809,0.03581746,0.4313151,0.2011863,0.3558446
0.6943944,-0.2288851,-0.2034395,-0.2493451,0.08765209,0.02830358,0.2464107,0.2845898,0.2359495
0.7139005,-0.2244308,-0.1930694,-0.2306298,0.09168808,0.03981442,0.06754201,0.3681854,0.1472939
0.7092737,-0.2637344,-0.1772347,-0.2360143,0.05193107,0.05682894,-0.01218432,0.2786349,0.1147449
0.6945483,-0.3001123,-0.1404166,-0.2514526,0.0150651,0.09485727,0.04116509,0.1986054,0.177762
0.7400069,-0.3238866,-0.1572727,-0.2066509,-0.009229938,0.07923235,0.08390636,0.1774295,0.2347678
0.8151522,-0.3624572,-0.169164,-0.1320978,-0.04835034,0.06858434,0.0410443,0.2126964,0.2081421
0.8815292,-0.3737202,-0.1437871,-0.0662424,-0.06018712,0.09520807,0.0597849,0.3342401,0.1400664
0.8948829,-0.3730454,-0.1252374,-0.05333821,-0.06010433,0.1150003,0.04542518,0.4171579,0.07877718
0.9016749,-0.3689374,-0.08780567,-0.04692408,-0.05660045,0.1536614,-0.001746747,0.4281859,0.1260364
0.998303,-0.3723744,-0.05661904,0.04939571,-0.06064818,0.1860549,0.06246452,0.4189927,0.227065
1.127468,-0.3558564,-0.0560956,0.1783171,-0.04474242,0.1877526,0.1314317,0.370776,0.2350919
1.233575,-0.2895867,-0.09842347,0.2842342,0.02091758,0.1465563,0.1072516,0.2727531,0.1965007
1.339271,-0.2577237,-0.2079283,0.3897808,0.05217534,0.03813239,-0.1803779,0.08708773,0.1924034
1.439557,-0.3664097,-0.3035657,0.4899363,-0.05711071,-0.05647832,-0.4503478,-0.1753281,0.2766183
1.465352,-0.599761,-0.2852254,0.5155971,-0.2910539,-0.0371649,-0.06627558,-0.4747062,0.3560449
1.296247,-0.7349944,-0.2513366,0.3463306,-0.4268607,-0.00235365,0.4350034,-0.679617,0.2210537
1.027787,-0.6805515,-0.2797376,0.07766383,-0.3729559,-0.02988053,0.3483474,-0.6202939,0.03079259
0.8946371,-0.5669483,-0.2551685,-0.05574536,-0.2598376,-0.004483548,0.2195191,-0.4580742,-0.03599394
0.8680704,-0.4199346,-0.2241174,-0.08262144,-0.1132425,0.02735086,0.1930989,-0.3024417,-0.1639663
0.8517434,-0.2761711,-0.2599861,-0.09930084,0.03017478,-0.00777827,-0.2238576,-0.2605993,-0.3370797
0.848435,-0.2058201,-0.2648474,-0.1029957,0.10025,-0.01194292,-0.6342254,-0.4747584,-0.3909575
0.8456096,-0.2004231,-0.250642,-0.1062332,0.1054351,0.00291759,-0.5768256,-0.5831626,-0.361037
0.8666175,-0.2640792,-0.216847,-0.08565475,0.04162216,0.03732753,-0.3608938,-0.5151639,-0.3326593
0.8843937,-0.3484347,-0.1489661,-0.068318,-0.04284175,0.1057829,-0.2101676,-0.4911421,-0.3844383
0.8629799,-0.3663274,-0.1371494,-0.09017514,-0.06079794,0.1181315,-0.06736722,-0.3999732,-0.4720971
0.8240133,-0.3349896,-0.1738123,-0.1295831,-0.02947986,0.08195438,0.0167983,-0.2322583,-0.510538
0.7336642,-0.2867375,-0.2255073,-0.2203642,0.01879508,0.03069646,0.000925259,-0.07240855,-0.5057202
0.6433802,-0.1951684,-0.2795092,-0.3110612,0.1104263,-0.02291773,-0.07676123,-0.06375141,-0.4546237
0.6552105,-0.1261455,-0.3065965,-0.2996119,0.1795441,-0.04966444,-0.272928,-0.1267172,-0.4255804
0.728434,-0.1458634,-0.3206585,-0.2267241,0.1599445,-0.06342872,-0.4215951,-0.1004609,-0.3925674
0.7837897,-0.1904952,-0.317991,-0.1716478,0.1154443,-0.0605016,-0.3796116,-0.1688305,-0.2868746
0.7837599,-0.2356627,-0.2845146,-0.1718934,0.07041345,-0.0267985,-0.3009021,-0.2364462,-0.240416
0.7749399,-0.2643805,-0.2404064,-0.1808601,0.04183176,0.01750707,-0.1382717,-0.2041931,-0.2745438
0.8402973,-0.2480632,-0.2371115,-0.1155765,0.05828092,0.02097209,-0.02912938,-0.1712532,-0.2979406
0.945954,-0.2384265,-0.2582022,-0.009918731,0.0680424,2.528136e-05,-0.0317942,-0.0682166,-0.3010127
1.007999,-0.218698,-0.2519945,0.05220006,0.0878855,0.006351468,0.07914644,0.0001965392,-0.2957522
0.9929838,-0.1541923,-0.2548307,0.03732541,0.1524917,0.003609685,0.0792724,-0.03650928,-0.249611
0.9548784,-0.1029954,-0.2477528,-0.0005793825,0.2037692,0.01075907,-0.05909629,-0.09833835,-0.1378447
0.9626664,-0.09680427,-0.2257671,0.007463097,0.2100136,0.0327944,-0.1487442,-0.1834248,-0.05878179
0.987146,-0.1415748,-0.2503725,0.03224598,0.1652606,0.008217122,-0.2208625,-0.2653077,-0.003752892
1.040356,-0.2268317,-0.2627883,0.08580265,0.07997926,-0.004191267,-0.2195961,-0.2847225,0.06700336
1.13747,-0.3237223,-0.2302069,0.1832978,-0.01698093,0.02837782,-0.1332923,-0.2302304,0.05983075
1.221801,-0.3954075,-0.2274972,0.2680353,-0.08877909,0.03105613,0.05988748,-0.2014629,0.01211842
1.293727,-0.402914,-0.3011267,0.3403786,-0.09643616,-0.04262311,0.1943773,-0.2176296,-0.01387799
1.314567,-0.376856,-0.4088668,0.361628,-0.07055906,-0.1504288,0.1088088,-0.2160872,-0.01233248
1.280061,-0.3103925,-0.5047972,0.3275071,-0.004300439,-0.2464344,-0.04746462,-0.2089694,0.04585286
1.248395,-0.2271579,-0.6057706,0.2961846,0.07870944,-0.3474812,-0.2408364,-0.2046434,0.1747306
1.174882,-0.2831021,-0.5977334,0.2229601,0.02252135,-0.3395011,-0.2676131,-0.2006593,0.3661467
1.048675,-0.4624608,-0.4741925,0.09697654,-0.1570991,-0.2159857,0.02073297,-0.1159492,0.5052083
0.9421526,-0.5714322,-0.4370433,-0.009391898,-0.2663444,-0.1788183,0.3217088,0.1541415,0.5141445
0.9763553,-0.4948932,-0.4110602,0.02489755,-0.1900805,-0.1527659,0.5098023,0.4977046,0.4368848
1.068359,-0.3702294,-0.3506655,0.1169232,-0.06568184,-0.09224629,0.6559773,0.6329693,0.3445369
1.012107,-0.3616467,-0.344417,0.06063007,-0.05734725,-0.08581511,0.7170861,0.565021,0.3275573
0.9811092,-0.2949683,-0.3017275,0.02952956,0.009102908,-0.04288525,0.5651147,0.5089155,0.3455196
0.9981261,-0.2117833,-0.2866554,0.04638327,0.09207962,-0.02751657,0.3485692,0.4157272,0.3421052
0.9083182,-0.2780124,-0.2905828,-0.04364466,0.0256595,-0.03109401,0.396053,0.357351,0.3898154
0.8603195,-0.2626158,-0.2147877,-0.09191533,0.04087907,0.0451007,0.5443343,0.394281,0.4590803
0.789706,-0.2369687,-0.1974337,-0.1628447,0.06636015,0.06289872,0.6128575,0.3315785,0.4837719
0.6857862,-0.3109027,-0.2099613,-0.2671133,-0.007731241,0.05085302,0.6586302,0.3249868,0.4664165
0.6836444,-0.3208917,-0.1962817,-0.2696228,-0.01787057,0.0650453,0.6451369,0.414196,0.3888481
0.6615239,-0.3586183,-0.1978907,-0.2921143,-0.05574008,0.06397316,0.6774084,0.3920478,0.2852594
0.6619716,-0.3561489,-0.1705882,-0.292025,-0.05340447,0.09182995,0.6943688,0.3700738,0.213056
0.6903128,-0.2994614,-0.1552253,-0.264015,0.003160138,0.1077578,0.6141178,0.3583833,0.1879458
0.7001814,-0.3155913,-0.1415435,-0.2544371,-0.01308059,0.1220076,0.5583514,0.2497978,0.1889783
0.7633532,-0.2888741,-0.1154446,-0.1915044,0.01353755,0.14867,0.4545713,0.07656951,0.1702233
0.7758292,-0.3002522,-0.1295444,-0.1792075,0.002071646,0.1351211,0.3576369,-0.08884296,0.1353818
0.7873259,-0.3371858,-0.139192,-0.167824,-0.03493923,0.126004,0.3145128,-0.1591633,0.117567
0.8478818,-0.328513,-0.1290869,-0.1073112,-0.02633278,0.1366125,0.2779677,-0.1332307,0.08558622
0.8697439,-0.3939463,-0.1121285,-0.08541991,-0.09182053,0.1540408,0.3069186,-0.05660511,-0.01479533
0.8924004,-0.4186775,-0.08655418,-0.06266221,-0.1165916,0.180045,0.2845231,0.03926575,-0.09648335
0.8604077,-0.3712344,-0.07971673,-0.09448286,-0.06917024,0.1872655,0.2426073,0.1119249,-0.08628712
0.8007138,-0.3304232,-0.09311034,-0.1539351,-0.02835949,0.1742013,0.1990708,0.08298016,-0.07430052
0.8114316,-0.2977556,-0.08750804,-0.1429054,0.004330069,0.180073,0.0900636,0.03623609,-0.08177935
0.8499602,-0.298863,-0.03398837,-0.1039937,0.003266296,0.2337961,0.08718804,0.1075771,-0.09191982
0.8995269,-0.284681,0.02332324,-0.05397285,0.01751167,0.2912384,0.09168817,0.1264336,-0.09993309
0.9331259,-0.2804284,0.02167441,-0.01985088,0.02184529,0.2896392,0.02003058,0.0749727,-0.04475188
0.9847698,-0.296445,-0.02225795,0.03238038,0.005925103,0.2456669,-0.0225495,0.0750517,0.06010697
1.075617,-0.3050497,-0.05107712,0.1238723,-0.002569984,0.2167112,-0.06709745,0.05483845,0.1481319
1.158819,-0.3728882,-0.07922587,0.2077662,-0.07028656,0.1883246,-0.08097385,-0.004411851,0.2068698
1.352134,-0.5072927,-0.1216706,0.4018054,-0.2045553,0.1455384,-0.03562295,-0.1791954,0.2263065
1.664516,-0.6356347,-0.1421927,0.7149231,-0.3327418,0.1245711,0.2269076,-0.3884585,0.1135868
1.792962,-0.6334629,-0.1632914,0.8440834,-0.3303834,0.1029249,0.5093668,-0.4113219,-0.06214113
1.499693,-0.5370392,-0.1742606,0.5514726,-0.2337292,0.09130907,0.2097364,-0.3715882,-0.05277493
1.042554,-0.500977,-0.1681807,0.09490582,-0.1973823,0.09664695,-0.2597495,-0.4019605,0.0791206
0.8688458,-0.4959388,-0.1995707,-0.07833112,-0.1919978,0.06442376,-0.3395338,-0.4305382,0.1797723
0.8639374,-0.4674654,-0.2199329,-0.08286482,-0.1631121,0.04314209,-0.431977,-0.4092539,0.2199025
0.8296181,-0.4157889,-0.227234,-0.1168971,-0.1109543,0.03484117,-0.550351,-0.4211532,0.04182216
0.8723453,-0.3902333,-0.2699507,-0.07396021,-0.08484755,-0.008949084,-0.5635758,-0.5329714,-0.2618868
0.887056,-0.4272396,-0.2841912,-0.0591074,-0.1212339,-0.02432919,-0.65772,-0.5732653,-0.4398416
0.8694103,-0.4492726,-0.2583395,-0.0766703,-0.1425792,0.0003253125,-0.5044956,-0.3499339,-0.5383814
0.8709577,-0.4558453,-0.2150011,-0.0750917,-0.1483967,0.04241647,-0.1909221,-0.08524147,-0.5965092
0.8084638,-0.4424479,-0.1695555,-0.1375982,-0.1341762,0.08657073,-0.1091395,-0.1488564,-0.6132354
0.8074629,-0.3786558,-0.1909929,-0.1386467,-0.06949342,0.06380162,-0.02253677,-0.25715,-0.6415011
0.8178262,-0.3182339,-0.2508347,-0.1283568,-0.008115667,0.002591207,0.01819107,-0.1731484,-0.6574265
0.7667189,-0.2524859,-0.2846483,-0.1795538,0.05864789,-0.03262325,-0.05457265,-0.2102406,-0.6743125
0.7514605,-0.2027164,-0.3050639,-0.1949088,0.1094843,-0.05446509,-0.1233329,-0.2247209,-0.6949049
0.7227707,-0.2002396,-0.2985609,-0.2236918,0.1130689,-0.04940608,-0.297802,-0.1703886,-0.6848907
0.7142208,-0.2114349,-0.2755265,-0.2323208,0.103011,-0.02782574,-0.3540794,-0.255755,-0.6578947
0.7148333,-0.2437509,-0.2587229,-0.2317624,0.07185114,-0.01247965,-0.2424528,-0.25924,-0.6185303
0.7218592,-0.2704768,-0.2370259,-0.2247553,0.04629128,0.007761703,-0.1449698,-0.2163557,-0.5843224
0.8050978,-0.2826796,-0.2421073,-0.1414918,0.03525744,0.001230585,0.0276656,-0.1377329,-0.5627833
0.85258,-0.2820418,-0.2473445,-0.09393474,0.0370613,-0.005446841,0.1988704,-0.002907752,-0.5304776
0.8641658,-0.230696,-0.2288193,-0.0822216,0.08956508,0.01165071,0.2651154,-0.1133114,-0.485436
0.8600167,-0.1606197,-0.242802,-0.08618997,0.160785,-0.003744016,0.2400088,-0.2840129,-0.4122338
0.8411903,-0.1134461,-0.2602744,-0.1047823,0.2090792,-0.02261015,0.1802266,-0.3247844,-0.308099
0.9011419,-0.1075861,-0.2737801,-0.04454316,0.2160263,-0.03748817,0.1464097,-0.339385,-0.2147877
0.9634851,-0.1230563,-0.2962186,0.01813967,0.2015987,-0.06127367,0.04331416,-0.2836911,-0.1506205
0.9765292,-0.1316308,-0.2731116,0.03157167,0.1940119,-0.03948431,-0.04654264,-0.2492483,-0.1204182
0.973456,-0.1504802,-0.2430569,0.02892944,0.1760865,-0.01071412,-0.000601539,-0.2662045,-0.1182759
0.9762147,-0.1574599,-0.2287609,0.03215624,0.1699594,0.002333036,0.03418494,-0.2650731,-0.1053394
1.004086,-0.163364,-0.2021003,0.06052738,0.1648307,0.02778151,0.0391796,-0.2776439,-0.08737704
1.00064,-0.2031085,-0.1990387,0.05760623,0.1257791,0.02966754,0.09970117,-0.2841746,-0.0780338
1.024982,-0.2710226,-0.1946035,0.08249168,0.05847252,0.03296301,0.1953266,-0.2486183,-0.07594241
1.124421,-0.3449719,-0.1752946,0.1824862,-0.01495458,0.05116688,0.3457109,-0.1757435,-0.1169348
1.258706,-0.3353757,-0.2486885,0.317329,-0.004918384,-0.0232985,0.5216659,-0.1455545,-0.1622867
1.463355,-0.2552284,-0.4398004,0.5225228,0.07559095,-0.2154473,0.5438275,-0.1836149,-0.1622487
1.618986,-0.2306379,-0.5717672,0.6786632,0.1004683,-0.3484096,0.3090934,-0.2009395,-0.1742554
1.583699,-0.2842604,-0.5189615,0.6438209,0.04705861,-0.2965452,0.09106531,-0.1815839,-0.1784544
1.389423,-0.3673994,-0.4653932,0.4498978,-0.03594026,-0.2438499,0.1555887,-0.1719326,-0.04378996
1.102155,-0.3994846,-0.5385623,0.1628695,-0.06795324,-0.3178115,0.2428697,-0.1446467,0.240959
0.9374658,-0.386504,-0.572561,-0.001701807,-0.05496173,-0.3525108,0.263709,0.07882058,0.4826393
1.008524,-0.3917264,-0.5664727,0.06935471,-0.06022695,-0.3470194,0.3948916,0.5807161,0.4975073
1.073,-0.3392925,-0.5455199,0.1337156,-0.007883032,-0.3265477,0.3827459,1.008611,0.3709836
1.044176,-0.235864,-0.4040356,0.1046656,0.09541314,-0.1854195,0.2499203,1.007167,0.2997157
0.975694,-0.2023638,-0.2799834,0.03585087,0.12874,-0.06159372,0.1963286,0.7793126,0.2965559
0.8267489,-0.2289796,-0.2261052,-0.1135278,0.1019084,-0.007814417,-0.006999777,0.5175518,0.3417586
0.7819688,-0.2656153,-0.1888008,-0.158832,0.0650124,0.02951223,-0.08476296,0.2040409,0.4376194
0.8471362,-0.3049404,-0.2191986,-0.09426566,0.02538235,-0.0007512009,0.1701075,0.1710349,0.4826418
0.7934999,-0.3231765,-0.2342314,-0.1485662,0.006798343,-0.01554633,0.387752,0.3501392,0.4532892
0.7348909,-0.2997213,-0.2493542,-0.207889,0.02986548,-0.03033612,0.5336588,0.3524401,0.4179625
0.7043512,-0.2762115,-0.2735696,-0.2391775,0.05294976,-0.05412967,0.4939828,0.3883426,0.4115458
0.648559,-0.267761,-0.2297264,-0.2957375,0.06093917,-0.009781576,0.3875067,0.3604451,0.4283551
0.6611358,-0.2524788,-0.197427,-0.2839305,0.07572569,0.02309953,0.491409,0.1383747,0.4325592
0.6974576,-0.2738705,-0.1643813,-0.2483636,0.05380418,0.0567964,0.4987638,0.06960142,0.4074283
0.7472347,-0.3001435,-0.1194162,-0.1993123,0.02696819,0.1024732,0.5451618,0.04051785,0.3346514
0.7624953,-0.2866154,-0.1255468,-0.1847367,0.03990169,0.09710448,0.6695704,-0.01235893,0.2680886
0.7514037,-0.2788344,-0.1485546,-0.1964635,0.04705857,0.07489846,0.5315126,-0.04065358,0.2744562
0.8189248,-0.2699373,-0.1525426,-0.1295198,0.0553035,0.07174244,0.3887605,-0.1118903,0.2953461
0.8287671,-0.2692787,-0.1439346,-0.1201918,0.05528314,0.08120434,0.2981438,-0.007779573,0.2849015
0.814249,-0.283535,-0.1339485,-0.1351571,0.0403224,0.09205806,0.2303174,0.1425646,0.225844
0.8557533,-0.3004912,-0.1057968,-0.09403018,0.02263739,0.1210833,0.2393741,0.1885702,0.1089839
0.8398083,-0.3523037,-0.1006811,-0.110281,-0.02992565,0.1270702,0.1498219,0.2640983,-0.00838734
0.8365877,-0.3940175,-0.1137488,-0.1137345,-0.07240788,0.1148629,0.1482731,0.3020664,-0.07454457
0.8567784,-0.3865316,-0.07975284,-0.09370284,-0.06570262,0.1497005,0.2291807,0.3350199,-0.09539282
0.8682315,-0.3624123,-0.04489229,-0.0823348,-0.04236987,0.1853758,0.2367688,0.4102174,-0.06325568
0.9299829,-0.3282018,-0.02575967,-0.0205952,-0.008946887,0.2052875,0.2724672,0.4467375,0.0150681
0.9828117,-0.2920039,-0.03764238,0.03229212,0.02646628,0.1941389,0.1643396,0.3681957,0.07589628
1.025195,-0.2676457,-0.06207446,0.07479887,0.05004386,0.1703872,-0.08730314,0.2507369,0.1511889
1.135654,-0.2675462,-0.05259521,0.1854381,0.04936708,0.1804855,-0.2962387,0.2439245,0.2535451
1.287291,-0.3417672,-0.09531686,0.3372993,-0.02562608,0.1383155,-0.393774,0.1399874,0.3142171
1.384647,-0.5555911,-0.1571657,0.4349083,-0.2402153,0.07694637,-0.1803813,-0.2256089,0.3166532
1.481869,-0.8202,-0.1557229,0.5323867,-0.5055731,0.07879525,0.279777,-0.4780576,0.1455294
1.557735,-0.859932,-0.1499044,0.6084901,-0.5460185,0.08494573,0.5839938,-0.1188343,-0.2437129
1.282428,-0.6179478,-0.1709463,0.3333728,-0.3046891,0.06416229,0.462202,0.2543064,-0.5534634
0.8485052,-0.3998824,-0.199946,-0.1004259,-0.08720193,0.03534846,0.1627401,-0.3447253,-0.4824407
0.7586361,-0.3532827,-0.221503,-0.1902384,-0.0410966,0.01390696,-0.003846774,-0.9287695,-0.2125998
0.7675457,-0.3212787,-0.2698829,-0.1813307,-0.009503324,-0.03442419,-0.2729964,-0.6674705,-0.04764768
0.7505304,-0.3017692,-0.3274571,-0.1983929,0.009675776,-0.09201094,-0.5794831,-0.5777388,0.01607352
0.9312134,-0.3675605,-0.3178075,-0.01778981,-0.05637015,-0.08242768,-0.6165603,-0.6057921,-0.1408283
1.016448,-0.3994882,-0.2759262,0.0673394,-0.08847976,-0.04065876,-0.4826146,-0.2842268,-0.4054941
0.948972,-0.3897058,-0.2212847,-0.0002650296,-0.07880815,0.013831,-0.2891553,-0.1708214,-0.4704371
0.9090929,-0.3884531,-0.1630542,-0.04029447,-0.0775959,0.07187425,-0.2420052,-0.2154525,-0.5284848
0.7889729,-0.3310074,-0.180732,-0.1605833,-0.0201216,0.05397505,-0.3298121,-0.2081732,-0.5762509
0.7359806,-0.2671252,-0.2161746,-0.2137559,0.04385527,0.01827726,-0.3568752,-0.2743994,-0.5343751
0.7528392,-0.2387253,-0.2046194,-0.197079,0.07241051,0.02954459,-0.3892497,-0.3120258,-0.516067
0.6798297,-0.2280767,-0.2224945,-0.2702601,0.0832676,0.0113508,-0.3736618,-0.3283471,-0.4279929
0.6438227,-0.2363277,-0.2447185,-0.3064167,0.07526995,-0.01122039,-0.3642289,-0.2715818,-0.4020651
0.6516828,-0.2243688,-0.2406461,-0.2986708,0.08751905,-0.007520973,-0.3831773,-0.1377219,-0.4315204
0.7069466,-0.2220209,-0.2576386,-0.2434732,0.09018632,-0.02490865,-0.2947246,-0.1049196,-0.3827763
0.7949253,-0.2107988,-0.2571466,-0.1555024,0.1017493,-0.02483071,-0.1450653,-0.08260211,-0.3776057
0.8149507,-0.1637083,-0.241478,-0.1354204,0.1491945,-0.009591384,-0.003016931,-0.02434858,-0.3504564
0.8257455,-0.1358215,-0.2324976,-0.1245012,0.1774414,-0.001052315,-0.04617657,-0.04891779,-0.3026334
0.8444914,-0.1056174,-0.2235269,-0.1055618,0.2080009,0.007467423,-0.1480956,-0.1198474,-0.245505
0.8816961,-0.08929304,-0.2476377,-0.06809427,0.2246659,-0.01710213,-0.1883258,-0.1920869,-0.1397862
0.964121,-0.09042971,-0.274843,0.01466125,0.223844,-0.04477158,-0.407487,-0.2434731,-0.1154582
1.039014,-0.1135174,-0.2789611,0.08994783,0.2010351,-0.04935607,-0.4977029,-0.2084889,-0.1101245
1.066177,-0.1957662,-0.244597,0.1175597,0.1190204,-0.0154572,-0.3368501,-0.1488483,-0.08509589
1.056444,-0.2339034,-0.1842512,0.1083203,0.08106693,0.04442707,-0.2622893,-0.1624253,-0.1156877
1.079302,-0.224038,-0.1827898,0.131706,0.09106338,0.04543093,-0.1774835,-0.1823963,-0.1471741
1.1501,-0.2457421,-0.2093212,0.2030558,0.06943639,0.01844538,-0.07318277,-0.1555521,-0.1508585
1.247696,-0.2760133,-0.2384934,0.3012157,0.03918818,-0.0111781,0.0286195,-0.1092233,-0.1259018
1.359161,-0.2928782,-0.3340503,0.4132402,0.02229321,-0.1071821,0.1547952,-0.06254145,-0.09982849
1.476723,-0.2656366,-0.46146,0.5313379,0.04945375,-0.2350302,0.02249027,-0.05411126,-0.1050575
1.537398,-0.237752,-0.5233653,0.5925006,0.0772079,-0.2973561,-0.164098,-0.1003283,-0.05845799
1.337424,-0.2886533,-0.5041123,0.3929415,0.02612805,-0.2784929,-0.07960834,-0.227402,0.1906402
0.9879608,-0.3888543,-0.5012672,0.0438025,-0.07429743,-0.2759939,-0.02901027,-0.3088126,0.5698229
0.8947832,-0.4680452,-0.526929,-0.04914844,-0.1537534,-0.3019455,0.004571743,-0.09487934,0.6792702
1.008994,-0.4670006,-0.5125418,0.06519471,-0.1530055,-0.2877803,0.1766888,0.3527968,0.4722103
1.066451,-0.4046058,-0.4920376,0.1226967,-0.09092914,-0.2674198,0.2002659,0.8064579,0.3547637
1.081261,-0.3479819,-0.4578451,0.1374635,-0.0346367,-0.2332836,0.1459357,1.041715,0.3625336
1.014086,-0.261461,-0.3378532,0.07015967,0.05154434,-0.1132548,0.1090079,0.9252718,0.3651995
0.8651064,-0.1494932,-0.1921984,-0.07903208,0.1631649,0.03253175,-0.1242572,0.6342704,0.422336
0.8465837,-0.1591898,-0.1783261,-0.09784455,0.15311,0.04662607,-0.3644184,0.360342,0.4540285
0.9085116,-0.2509706,-0.2389168,-0.03627408,0.06095506,-0.01366027,-0.3725079,0.2678378,0.4749907
0.90606,-0.2849057,-0.2103055,-0.03914143,0.02662657,0.01532992,-0.225014,0.3416889,0.5638618
0.9077452,-0.3171556,-0.2056255,-0.03792266,-0.006036066,0.02045662,-0.06343317,0.3787913,0.6240137
0.8740172,-0.3366693,-0.2319977,-0.07216062,-0.02598006,-0.005408015,0.07147872,0.512447,0.6324971
0.7610591,-0.3276297,-0.1774503,-0.1856641,-0.01738509,0.0497015,0.228952,0.5828814,0.5816327
0.6850906,-0.3466466,-0.1671131,-0.2622024,-0.0368577,0.06064835,0.2999987,0.39711,0.5041542
0.7042825,-0.3195703,-0.17813,-0.2435906,-0.01024481,0.0502812,0.2960325,0.368546,0.4607665
0.7322637,-0.284679,-0.1533955,-0.2161851,0.02417806,0.07569779,0.3255879,0.4605576,0.4154855
0.6987941,-0.28231,-0.1522964,-0.2502126,0.02607493,0.07750381,0.2757754,0.5052965,0.3663502
0.6860794,-0.2577338,-0.1388401,-0.2634549,0.05017586,0.09168415,0.1407062,0.5300013,0.2982863
0.6848226,-0.2561998,-0.1337108,-0.2651966,0.0512309,0.09754724,-0.01313849,0.4081477,0.2493613
0.6670816,-0.249969,-0.1211993,-0.283368,0.0569781,0.1107945,-0.1485942,0.2764629,0.2485774
0.7224111,-0.2599676,-0.1081604,-0.2284032,0.04649027,0.1245635,-0.2240911,0.1539623,0.2390479
0.7948126,-0.3195946,-0.1208057,-0.1562922,-0.0136322,0.1126353,-0.2694999,0.1255997,0.2225447
0.8663546,-0.371891,-0.09130698,-0.08496084,-0.06642896,0.1428308,-0.2242536,0.2609787,0.1671193
0.9263745,-0.4321488,-0.06941193,-0.02507093,-0.1271882,0.165395,-0.1297734,0.2858634,0.1102462
0.9131467,-0.4384863,-0.06060387,-0.03835009,-0.1340222,0.174837,-0.1095636,0.2792772,0.1097966
0.9521651,-0.41754,-0.04209923,0.000691776,-0.1135601,0.1939324,-0.1048977,0.2934892,0.1182554
1.079422,-0.4242724,-0.03068832,0.1280417,-0.1207575,0.205883,-0.09705189,0.3132102,0.1210236
1.235221,-0.37031,-0.02323412,0.2839933,-0.06723552,0.2138176,-0.1036653,0.358844,0.07170986
1.345048,-0.3390288,-0.1236569,0.3940181,-0.0363659,0.1138089,-0.1562742,0.2242234,0.04617767
1.3849,-0.4139726,-0.2535497,0.4340919,-0.1116899,-0.01573992,-0.2283517,-0.04660111,0.1836895
1.421246,-0.5627379,-0.2569482,0.47066,-0.2608003,-0.01886372,-0.1467965,-0.3117653,0.3143809
1.272373,-0.6761516,-0.2322595,0.3219881,-0.3745158,0.006034709,-0.03511249,-0.4053306,0.2402532
1.020725,-0.6057897,-0.2497053,0.07050112,-0.3043996,-0.01126183,-0.07434122,-0.3799937,0.08323487
0.959093,-0.4762315,-0.2556175,0.008982962,-0.1750187,-0.01708094,-0.1776649,-0.468588,-0.03516851
0.9029127,-0.4032808,-0.2529464,-0.0471316,-0.1021688,-0.01436845,-0.3848679,-0.4795809,-0.1371546
0.848992,-0.3307512,-0.2819304,-0.1010302,-0.02966128,-0.0433582,-0.6542096,-0.4103454,-0.1502722
0.9261293,-0.3131011,-0.2934736,-0.0239083,-0.01195655,-0.05494915,-0.7778129,-0.3860902,-0.1840872
0.9384786,-0.3359425,-0.2736985,-0.01160648,-0.03467052,-0.03525858,-0.768618,-0.3646358,-0.3293895
0.9042219,-0.3360726,-0.2550786,-0.04593862,-0.03460483,-0.01675482,-0.7450068,-0.3667015,-0.3544814
0.8928885,-0.3519451,-0.1956992,-0.05737147,-0.05021684,0.04248043,-0.6767711,-0.3023742,-0.3531942
0.8348268,-0.3489761,-0.1549666,-0.1155517,-0.04692592,0.08304259,-0.4927746,-0.2571254,-0.4269502
0.7901526,-0.3091261,-0.1793084,-0.1603573,-0.006695743,0.05850374,-0.3315331,-0.1319407,-0.4464348
0.7451073,-0.2576759,-0.2040711,-0.2055386,0.04518865,0.03351649,-0.2936274,0.1588782,-0.4935317
0.6757508,-0.1736137,-0.2314763,-0.2750251,0.1297327,0.005859653,-0.3436155,0.1773596,-0.4892934
0.6695318,-0.1144202,-0.2538705,-0.2813564,0.1894463,-0.0168118,-0.5340524,0.03611271,-0.3975297
0.7145602,-0.1103769,-0.2522763,-0.2364097,0.1940361,-0.01551756,-0.7410792,0.03246154,-0.3176317
0.760008,-0.1318986,-0.2459174,-0.1910019,0.1730744,-0.009478404,-0.814593,-0.02260917,-0.2074623
0.7864723,-0.1812512,-0.2333524,-0.1645278,0.1242838,0.002750132,-0.8166514,-0.117605,-0.141244
0.8135253,-0.2241559,-0.2218315,-0.1374097,0.08193381,0.01391992,-0.7974051,-0.1723216,-0.108068
0.888181,-0.2475921,-0.2380772,-0.0626301,0.05903856,-0.002689597,-0.7733445,-0.1659483,-0.09445922
0.963466,-0.2571863,-0.2561368,0.01283776,0.04996723,-0.02112393,-0.6784305,-0.09700881,-0.1298383
0.9838451,-0.2548006,-0.2307376,0.0334556,0.05285459,0.003891788,-0.4973576,-0.04633795,-0.1086872
0.9538752,-0.2402006,-0.2104219,0.003775033,0.06793237,0.02381707,-0.3168154,-0.02288664,-0.07857196
0.9342284,-0.2055142,-0.2256158,-0.015537,0.1030698,0.008227017,-0.2636268,-0.09767489,-0.05028105
0.9994147,-0.1827945,-0.234748,0.05002499,0.1262101,-0.001306229,-0.3800439,-0.2066571,-0.006315975
1.057975,-0.163582,-0.2417259,0.1089968,0.1458079,-0.008688856,-0.4250503,-0.2433353,0.02388226
1.037638,-0.1736146,-0.2562554,0.08909846,0.1361201,-0.02362506,-0.4098253,-0.3393693,0.1087891
1.052442,-0.2261231,-0.2760004,0.104363,0.08391097,-0.04377667,-0.4595584,-0.396994,0.1495078
1.113933,-0.2366103,-0.2941979,0.1663256,0.07367459,-0.06237767,-0.4285336,-0.3225607,0.1430345
1.170244,-0.2812848,-0.2957462,0.2231103,0.02920114,-0.06432307,-0.2926637,-0.3060541,0.1990316
1.265081,-0.4053979,-0.3184439,0.3184121,-0.09475965,-0.08740728,-0.02766131,-0.2821833,0.2192036
1.321566,-0.4480835,-0.3897728,0.3753378,-0.1373369,-0.1591077,0.09701673,-0.1744611,0.1942068
1.298536,-0.3733512,-0.5147599,0.3527088,-0.06253247,-0.2844442,-0.2195025,-0.1513281,0.1543886
1.316958,-0.3184881,-0.6312999,0.3714738,-0.007626679,-0.4013004,-0.4412833,-0.1930411,0.116569
1.2561,-0.3599008,-0.546919,0.3108871,-0.04902133,-0.3171879,-0.1949935,-0.1696139,0.1936658
1.039367,-0.3929219,-0.3881298,0.09434142,-0.08204538,-0.1586049,0.06197444,-0.09615366,0.349362
0.9291934,-0.3736687,-0.4405851,-0.01573363,-0.06281161,-0.2111954,0.07143891,0.06507509,0.4596903
0.9768017,-0.3649984,-0.4945161,0.03188721,-0.05417254,-0.2651842,0.1125063,0.422388,0.5206419
1.03338,-0.3251412,-0.4577626,0.08839631,-0.01435438,-0.228405,0.2073016,0.7446738,0.5644042
1.039716,-0.2882599,-0.4570974,0.09458627,0.02248224,-0.2276242,0.1898035,0.7640017,0.553063
0.9674096,-0.2962035,-0.3413146,0.02205668,0.01448888,-0.1116316,0.1229006,0.7033355,0.4422926
0.8758188,-0.2976737,-0.231174,-0.06982906,0.01296368,-0.001186331,-0.0005939369,0.6714799,0.2883096
0.8488859,-0.3101245,-0.240485,-0.09712215,0.0004525417,-0.01010175,-0.02436282,0.537655,0.2369986
0.8598549,-0.3043754,-0.2119419,-0.08656909,0.006136112,0.01892085,0.07703487,0.4231577,0.3308766
0.8503609,-0.2899869,-0.2137956,-0.09652501,0.02045402,0.01762301,0.08017276,0.4090111,0.4176566
0.8520047,-0.3123454,-0.224783,-0.09537982,-0.001979953,0.007259992,0.1586549,0.4101634,0.4408159
0.8366651,-0.3160278,-0.1977507,-0.1112455,-0.005742598,0.03497778,0.2739705,0.388576,0.4509241
0.7625451,-0.310884,-0.2008246,-0.1859099,-0.0006831323,0.03264291,0.2649495,0.3559727,0.4281758
0.7182565,-0.3076355,-0.1979156,-0.2307507,0.002477522,0.03633698,0.2274192,0.2805771,0.4007052
0.7002591,-0.2970745,-0.1990541,-0.2492954,0.01294749,0.03602237,0.1586343,0.1781572,0.3747295
0.7299861,-0.3101031,-0.1880783,-0.2200978,-0.0001749272,0.04785386,0.1697375,0.2142463,0.3337825
0.8006854,-0.3346036,-0.1620367,-0.1498983,-0.02477182,0.07477604,0.1947264,0.3152016,0.3020163
0.7983749,-0.3652495,-0.1532366,-0.1526702,-0.05551549,0.08447401,0.1509966,0.3234442,0.2530176
0.7987209,-0.3740903,-0.1435778,-0.1527402,-0.06445296,0.09504057,0.1418924,0.3236409,0.2291153
0.797086,-0.3493168,-0.1531448,-0.1547401,-0.03977234,0.0863832,0.04360346,0.2442468,0.2558251
0.7657405,-0.3394956,-0.1627069,-0.1863942,-0.03003742,0.07772563,-0.08403044,0.08822332,0.2567029
0.8073391,-0.3474105,-0.1604086,-0.1450426,-0.03803041,0.08091678,-0.1522357,0.07280349,0.2162133
0.850266,-0.3724894,-0.1360387,-0.1022966,-0.06317755,0.106162,-0.210423,0.1709687,0.119801
0.8527642,-0.3996804,-0.08672273,-0.09991098,-0.0904248,0.1563297,-0.2067806,0.2900321,0.01522863
0.8542975,-0.3907125,-0.07802143,-0.09842109,-0.08149794,0.1658515,-0.2493906,0.3987145,0.02052866
0.8674652,-0.372292,-0.07839281,-0.08522757,-0.06310035,0.1662617,-0.3258232,0.4610046,0.07483952
0.9304742,-0.3691955,-0.05328513,-0.02212426,-0.06000602,0.1921039,-0.3187096,0.4562376,0.08419592
1.012881,-0.3603224,-0.03085756,0.06044273,-0.05111251,0.215211,-0.2988468,0.3438797,0.09570772
1.113566,-0.3390536,-0.01573536,0.1613462,-0.02979982,0.2309494,-0.303687,0.2786712,0.08403937
1.240277,-0.3244966,-0.05068334,0.2883247,-0.01517515,0.1965461,-0.4066186,0.4104593,-0.003998863
1.332491,-0.3840988,-0.1503496,0.3808395,-0.07468617,0.09734637,-0.6503819,0.5067478,-0.02084731
1.399119,-0.5893321,-0.2597124,0.4477792,-0.279803,-0.01163083,-0.702003,0.2910905,0.1790327
1.445332,-0.7717797,-0.2904853,0.4942939,-0.462101,-0.04209675,-0.1845238,-0.06329072,0.3337999
1.405535,-0.6864444,-0.2256795,0.4547648,-0.3765685,0.02294246,0.3384927,-0.1837775,0.05878122
1.247473,-0.5225055,-0.1925435,0.2969158,-0.2123695,0.05624313,0.04233159,-0.1252075,-0.2800073
0.9697307,-0.4599512,-0.2219966,0.01931529,-0.149482,0.02688908,-0.4851444,-0.1694577,-0.1825554
0.7515989,-0.3175208,-0.2463042,-0.1987473,-0.006642202,0.002617557,-0.6595206,-0.2991649,-0.05081334
0.8126947,-0.2484996,-0.2728509,-0.1376477,0.06286213,-0.02395229,-0.8496216,-0.333327,-0.08779042
0.9162348,-0.3706631,-0.2765926,-0.034158,-0.05875111,-0.02777156,-0.8705237,-0.3138836,-0.08141944
0.897315,-0.3977979,-0.2530695,-0.05317324,-0.08527432,-0.004375356,-0.757333,-0.3358013,-0.2194171
0.9173215,-0.3849283,-0.2410486,-0.03330097,-0.07173508,0.007473997,-0.7859734,-0.2848086,-0.4107351
0.8637325,-0.3780899,-0.2148556,-0.08705739,-0.06417122,0.03345447,-0.6625853,-0.1892345,-0.4700847
0.7784568,-0.3083892,-0.1870998,-0.1725269,0.006307954,0.06095919,-0.6218178,-0.09341989,-0.4978865
0.8001375,-0.3196145,-0.1903029,-0.1510579,-0.004090365,0.05746758,-0.6138392,0.03134078,-0.4646916
0.767175,-0.3111667,-0.2060125,-0.1842401,0.005227502,0.04143284,-0.4213016,0.04365943,-0.4393338
0.7397202,-0.2685046,-0.2161923,-0.2119123,0.04879695,0.03089227,-0.4603073,0.01859843,-0.4193901
0.7613582,-0.2804052,-0.2213088,-0.1904792,0.03783437,0.02538118,-0.5306475,0.03272261,-0.3969716
0.7579682,-0.2554854,-0.2281394,-0.1940516,0.06371618,0.01812404,-0.522159,-0.003040893,-0.4434452
0.7733275,-0.2556172,-0.2218745,-0.1788436,0.06456307,0.02393276,-0.5582095,-0.02692806,-0.4414626
0.7433534,-0.250278,-0.2092784,-0.2089298,0.07089071,0.03604534,-0.4993987,-0.06791867,-0.4671431
0.7121536,-0.1904,-0.2191448,-0.2401947,0.1317594,0.02566978,-0.5420543,-0.1731069,-0.4997175
0.7699437,-0.1631003,-0.2595389,-0.182415,0.1600441,-0.01525693,-0.6206226,-0.2554226,-0.4045958
0.8694951,-0.1593627,-0.2945275,-0.08281304,0.1647515,-0.05079858,-0.6378054,-0.2019994,-0.3022939
0.9495826,-0.188911,-0.2474388,-0.002612079,0.1361479,-0.004279317,-0.5753738,-0.05167139,-0.2121309
0.9390561,-0.2180361,-0.1783256,-0.01296407,0.1079345,0.06425157,-0.3791763,-0.01368205,-0.1751305
0.9229153,-0.2004011,-0.1981322,-0.02887329,0.1264412,0.04385132,-0.3638048,-0.0889049,-0.1806697
0.9853314,-0.1497373,-0.2407083,0.03382745,0.1779309,0.0006704094,-0.4418721,-0.1293045,-0.1502117
1.025515,-0.0951298,-0.2551488,0.07434364,0.2333113,-0.01438456,-0.4443887,-0.03856604,-0.1366352
1.013509,-0.1175214,-0.2489595,0.0627106,0.2116312,-0.00881712,-0.4680783,0.03925851,-0.07907683
1.012738,-0.1727294,-0.1972367,0.06234715,0.1570651,0.04227885,-0.445804,-0.136664,-0.0324784
1.039902,-0.1863617,-0.1561303,0.08994585,0.1439988,0.08275458,-0.4326366,-0.2821355,-0.0453272
1.069431,-0.1911692,-0.1613991,0.1199282,0.1396772,0.07685022,-0.3600531,-0.1710346,-0.01407989
1.111753,-0.2088853,-0.1760452,0.1627158,0.1223643,0.0615622,-0.2127293,-0.119873,0.007215575
1.193113,-0.2623135,-0.1934507,0.2445424,0.06925483,0.043507,-0.1292319,-0.2231683,0.04522994
1.239553,-0.2969398,-0.2324676,0.2914394,0.03486331,0.00383246,-0.01591701,-0.3064697,0.1455395
1.263463,-0.271169,-0.3706011,0.3157816,0.06078717,-0.1349647,0.02695656,-0.3320757,0.1986733
1.474147,-0.2695723,-0.5989508,0.5268575,0.06245805,-0.3639772,-0.1358138,-0.3034355,0.1560684
1.693496,-0.2995265,-0.6771865,0.7465368,0.03250187,-0.4428606,-0.2433158,-0.2436037,0.1212052
1.457984,-0.3652275,-0.5095765,0.5112672,-0.03327386,-0.2758643,-0.04514997,-0.2057247,0.2439571
1.05442,-0.4528767,-0.3953346,0.1078347,-0.1210644,-0.1621855,0.2253276,-0.1188598,0.4533376
0.9677555,-0.4254238,-0.4625373,0.02118208,-0.09381114,-0.22989,0.313608,0.1255184,0.5616808
0.9938749,-0.349934,-0.4743875,0.04719588,-0.01856993,-0.242173,0.4069835,0.5872226,0.5209894
1.051738,-0.3076226,-0.4290456,0.1048423,0.02345109,-0.1971873,0.4523168,1.064307,0.4787514
1.144975,-0.1910046,-0.4071873,0.1977557,0.1397404,-0.1756017,0.3531463,1.10126,0.5469631
1.014494,-0.1312345,-0.304088,0.06684541,0.1991425,-0.07268799,0.2285794,0.8541647,0.551842
0.8362237,-0.2003428,-0.2005469,-0.1119546,0.1296237,0.03075474,-0.06794303,0.656935,0.4881288
0.8167919,-0.2219644,-0.1921037,-0.1320082,0.1075449,0.03918245,-0.2634945,0.4175947,0.4896782
0.8313609,-0.2429386,-0.2134417,-0.1181394,0.08606528,0.01790487,-0.1287912,0.385866,0.5125859
0.837805,-0.2954891,-0.2280031,-0.1124602,0.03296121,0.003472765,-0.04758712,0.5339215,0.5740842
0.8008916,-0.2981879,-0.20729,-0.1501899,0.02966243,0.024378,0.06023623,0.5249768,0.5916073
0.757619,-0.3033029,-0.1866365,-0.1943173,0.02390415,0.04528023,0.1647962,0.5321547,0.5481233
0.7212848,-0.3108151,-0.194232,-0.2315307,0.01570906,0.03798371,0.03359805,0.5167865,0.5484518
0.6587844,-0.3071567,-0.1796009,-0.2949194,0.01864842,0.05295751,-0.008889731,0.394823,0.5196759
0.6619918,-0.3124406,-0.1681036,-0.292593,0.01261311,0.06483466,0.02631343,0.3329242,0.5060326
0.7178831,-0.3060194,-0.1736382,-0.2375592,0.01825404,0.05971028,-0.006640126,0.3466871,0.4759787
0.769218,-0.3054325,-0.1619236,-0.1870441,0.01803538,0.0718591,-0.01491403,0.3862042,0.3524311
0.7692398,-0.3078562,-0.1498133,-0.1877938,0.01478394,0.08442108,-0.1048732,0.2996703,0.2828341
0.7313041,-0.3082434,-0.144899,-0.2264436,0.01354974,0.08979805,-0.2234594,0.1766393,0.2694479
0.7466979,-0.3251612,-0.1439227,-0.2116983,-0.004231185,0.09124152,-0.2992152,0.1493863,0.2696098
0.7741816,-0.3569661,-0.136117,-0.1847896,-0.03691175,0.09951256,-0.3305438,0.1185583,0.2468631
0.823432,-0.4022866,-0.1139677,-0.1360343,-0.08311599,0.1221193,-0.2721412,0.1810245,0.1397077
0.8763165,-0.4209964,-0.1097394,-0.08356146,-0.1027116,0.1267905,-0.2553775,0.31644,0.03851143
0.8603185,-0.3989172,-0.1152746,-0.09988655,-0.08151327,0.1216776,-0.3088056,0.4594713,0.01639355
0.861184,-0.3786913,-0.1034169,-0.09926365,-0.06215683,0.1339306,-0.3416207,0.5301924,0.06693973
0.8849092,-0.3651573,-0.08291936,-0.07569725,-0.0494755,0.1547907,-0.3211902,0.3117879,0.119311
0.9463622,-0.3519629,-0.06543919,-0.01432066,-0.03711289,0.1725945,-0.2918998,0.1067583,0.1495831
1.065744,-0.3486831,-0.06529786,0.1050632,-0.03464113,0.1730142,-0.3201147,0.1692473,0.173191
1.127236,-0.3521849,-0.08676883,0.1666269,-0.03892451,0.1517702,-0.3646585,0.1854116,0.161639
1.224342,-0.381556,-0.1601399,0.2638632,-0.06904867,0.0785699,-0.4497325,0.1002395,0.2124927
1.428091,-0.4971829,-0.2872716,0.4677838,-0.1853964,-0.04844881,-0.4768122,0.08886023,0.3208056
1.478863,-0.6483585,-0.3387529,0.5187469,-0.3372538,-0.0998721,-0.25405,0.04348038,0.3175779
1.308112,-0.6603072,-0.2862736,0.3481809,-0.3498331,-0.04738315,-0.07055583,-0.06996914,0.1357175
1.128007,-0.5548976,-0.2523921,0.1682344,-0.2449893,-0.01353363,-0.2433219,-0.09142131,-0.1068899
0.9831186,-0.4725601,-0.2352508,0.02346665,-0.1631407,0.003538993,-0.443023,-0.1505257,-0.1484697
0.889797,-0.4025655,-0.2318947,-0.06977624,-0.09355196,0.006793015,-0.4242572,-0.3860786,-0.05736556
0.9060097,-0.3815065,-0.2830351,-0.0535235,-0.07281355,-0.04448009,-0.5367323,-0.5651909,-0.04736292
0.9152018,-0.4192952,-0.3216799,-0.0443248,-0.1108379,-0.08328423,-0.7663541,-0.514773,-0.001034759
0.9096934,-0.4390208,-0.3383988,-0.04985498,-0.1307147,-0.1001839,-0.7761628,-0.4199662,0.02733934
0.9422644,-0.4784364,-0.323401,-0.01732965,-0.1701965,-0.08538155,-0.6939653,-0.387983,-0.09616206
0.912639,-0.4574979,-0.2688995,-0.04702093,-0.1492379,-0.03108439,-0.5895924,-0.2625821,-0.2491003
0.8471034,-0.3767103,-0.2600552,-0.1126386,-0.0683425,-0.02244911,-0.4473218,-0.2086236,-0.4034457
0.7918085,-0.3801192,-0.2435569,-0.1680262,-0.07155682,-0.006161907,-0.3758808,-0.2683817,-0.5313852
0.7235252,-0.3425459,-0.2058802,-0.2364045,-0.0337053,0.03130282,-0.3002262,-0.143124,-0.5857251
0.7093542,-0.2869313,-0.2130729,-0.2506621,0.0222668,0.0238975,-0.2019206,0.02542578,-0.6359294
0.7232887,-0.3098049,-0.2137043,-0.2367943,-0.0001760189,0.02305222,-0.07729066,0.1260264,-0.6561259
0.7056079,-0.2743758,-0.2349458,-0.2545104,0.03575007,0.00159522,-0.0004064434,0.1444379,-0.6188115
0.7101611,-0.2354897,-0.2722136,-0.2499507,0.07519196,-0.03588943,-0.1084692,0.02348667,-0.5742755
0.7015695,-0.3060519,-0.2786452,-0.3005602,-0.07822704,-0.07824569,-0.9711591,0.02620099,-0.379622
0.7233022,-0.2479913,-0.3053319,-0.2782306,-0.01833337,-0.1036065,-0.9215967,0.003415376,-0.2920467
0.7266825,-0.2398233,-0.2774016,-0.2741738,-0.008271254,-0.07437108,-0.8284279,0.0008187513,-0.2482423
0.7334146,-0.1698262,-0.2908021,-0.2666791,0.06367204,-0.08648506,-0.6912921,-0.08574807,-0.143148
0.7807104,-0.1566288,-0.2925177,-0.2185291,0.07885722,-0.08693036,-0.764639,-0.1342235,-0.1361687
0.8384263,-0.1957711,-0.2853094,-0.1598641,0.0417328,-0.07846601,-0.7771592,0.04520696,-0.1354584
0.9619973,-0.2163288,-0.2491739,-0.03524959,0.02321243,-0.04108721,-0.6379458,0.2403919,-0.160181
1.001258,-0.2182835,-0.1719155,0.005144425,0.02330566,0.03740217,-0.5854953,0.2010793,-0.1947542
0.9450756,-0.1412557,-0.1641953,-0.04982187,0.1023837,0.04633853,-0.6395074,0.1109395,-0.09903712
0.9504501,-0.07046406,-0.1849426,-0.04315711,0.1752185,0.02678901,-0.771454,0.01148989,0.026708
0.9852376,-0.07611221,-0.1998383,-0.007012221,0.1715947,0.01306891,-0.9238721,-0.1996824,0.1047398
1.017367,-0.1288598,-0.2252284,0.02653467,0.1208402,-0.0111703,-1.011228,-0.226112,0.05449172
1.055604,-0.2153912,-0.2238508,0.0662395,0.03626061,-0.008668156,-0.936956,-0.1376009,-0.04601463
1.066825,-0.3152244,-0.21963,0.07896983,-0.06166828,-0.003349841,-0.7508159,-0.2907163,-0.09351549
1.08131,-0.3767972,-0.2722385,0.09499471,-0.1213855,-0.05488835,-0.6880693,-0.4260876,-0.1168672
1.188788,-0.389458,-0.4173691,0.2040308,-0.1322369,-0.1989748,-0.7675306,-0.411211,-0.05436488
1.367165,-0.4162598,-0.5851557,0.3839703,-0.1572707,-0.3657371,-0.8267426,-0.3370381,0.02985058
1.461889,-0.3761021,-0.6280937,0.4802418,-0.1153811,-0.4076578,-0.7208682,-0.2073365,0.2124633
1.387235,-0.310402,-0.5785337,0.4070966,-0.04798087,-0.3570713,-0.5434927,-0.2078597,0.5261111
1.225354,-0.3631654,-0.6017034,0.2466622,-0.09907347,-0.3791892,-0.4735522,-0.02640335,0.6510777
1.055446,-0.3938557,-0.628329,0.07812292,-0.1281203,-0.4047229,-0.39335,0.5181306,0.6416832
0.9676234,-0.3874693,-0.5526776,-0.00841437,-0.1201148,-0.3279257,-0.3291324,0.8752724,0.6087297
1.02845,-0.3940811,-0.4642169,0.05361196,-0.1251283,-0.2382544,-0.2549008,0.9645386,0.4829937
1.024582,-0.3432484,-0.3668992,0.05086051,-0.07271494,-0.1396549,-0.09766782,1.00873,0.4844655
0.9177288,-0.2907526,-0.2824583,-0.05495935,-0.01865435,-0.05385956,-0.1869744,0.9674989,0.4997039
0.876112,-0.2435405,-0.2700722,-0.09562144,0.03010583,-0.04005004,-0.381433,0.8436775,0.3822447
0.8278749,-0.212371,-0.2740653,-0.1429761,0.06280352,-0.04255666,-0.4077526,0.7291211,0.4284518
0.816935,-0.2230388,-0.2776178,-0.1530972,0.05363922,-0.04456606,-0.41856,0.6437075,0.5125036
0.8245553,-0.231112,-0.2726523,-0.1447118,0.04703991,-0.03800684,-0.3837771,0.5558933,0.4999614
0.760371,-0.2575199,-0.2710775,-0.2081752,0.02207175,-0.03479379,-0.3857405,0.5536133,0.5047637
0.7437621,-0.2933773,-0.2662574,-0.2240965,-0.01238303,-0.02829667,-0.4105132,0.5824616,0.4182228
0.6928743,-0.3213393,-0.2168932,-0.2743187,-0.03898096,0.02277722,-0.3312763,0.5508317,0.3649179
0.6360501,-0.3392329,-0.1786403,-0.3304864,-0.05554877,0.06276535,-0.2615964,0.5409395,0.3572133
0.6587781,-0.3500966,-0.1632783,-0.3070969,-0.06512336,0.07987954,-0.1101759,0.5373074,0.2830062
0.6381102,-0.3745194,-0.1541582,-0.3270842,-0.08829167,0.09075923,0.03687288,0.5942022,0.2782967
0.6557676,-0.3491554,-0.150916,-0.3087141,-0.0617048,0.09575872,0.02466896,0.6512796,0.2337445
0.6891919,-0.2839653,-0.1386029,-0.2745331,0.004678719,0.1098174,-0.0475067,0.4629935,0.1351827
0.677669,-0.258755,-0.1434312,-0.2852453,0.03105327,0.1067138,-0.2463037,0.1623231,0.1126778
0.7184907,-0.2709958,-0.155824,-0.2435508,0.01994619,0.09601602,-0.4586962,0.03921267,0.1424855
0.7857714,-0.3134526,-0.1621415,-0.1753289,-0.02140929,0.09135635,-0.503139,0.1003436,0.1949163
0.8839348,-0.379967,-0.1400767,-0.07615293,-0.08685495,0.1150348,-0.4638704,0.2434978,0.1543852
0.9533808,-0.4540232,-0.09570297,-0.005624559,-0.1598727,0.1609712,-0.4268204,0.4219021,0.05952954
0.9509624,-0.4736649,-0.09300531,-0.006895931,-0.1785006,0.1651729,-0.4032268,0.4944691,-0.01131097
0.9941036,-0.422724,-0.09121463,0.0374494,-0.1265638,0.168401,-0.3431278,0.440369,-0.02162374
1.104134,-0.3864679,-0.07618529,0.1487319,-0.08932362,0.1847934,-0.265686,0.5334226,0.04842355
1.234095,-0.3473052,-0.1070766,0.2799818,-0.04918471,0.1551835,-0.2329011,0.7825495,0.03769105
1.300919,-0.3277349,-0.177712,0.3481132,-0.02864451,0.08574212,-0.3355853,0.8736561,0.05065102
1.300037,-0.4616347,-0.2440521,0.3485374,-0.1615799,0.02050566,-0.4726954,0.5205291,0.185794
1.314183,-0.6907869,-0.2666064,0.3639666,-0.3897688,-0.001034808,-0.3827465,-0.1864989,0.27911
1.307213,-0.7819033,-0.2831786,0.3582379,-0.4799118,-0.01668007,-0.2428791,-0.5886668,0.2569194
1.199357,-0.6451286,-0.2953642,0.2515623,-0.3421365,-0.02802152,-0.2127557,-0.5324057,0.1103377
0.9701239,-0.4811631,-0.2736692,0.02343555,-0.1771288,-0.005560482,-0.2821146,-0.5174115,0.001194853
0.7777439,-0.4122119,-0.2925255,-0.1679161,-0.1070857,-0.02372443,-0.582434,-0.4573817,-0.04979448
0.7861908,-0.3512376,-0.3220072,-0.1585141,-0.04496834,-0.05258288,-0.9405724,-0.254288,-0.1792285
0.8870737,-0.3337328,-0.311617,-0.05673991,-0.02627189,-0.04163345,-1.115387,-0.2928243,-0.3473764
0.968335,-0.3675928,-0.2971693,0.02535609,-0.05889605,-0.02668531,-1.012491,-0.3688935,-0.4453562
1.002761,-0.3802691,-0.2272477,0.06056328,-0.0702964,0.04368224,-0.7304381,-0.2239968,-0.3981342
0.9357479,-0.386679,-0.1552526,-0.005721557,-0.07539365,0.1160708,-0.5479517,-0.2058918,-0.4159047
0.8107107,-0.3554997,-0.1654223,-0.1300821,-0.04286774,0.1062411,-0.4844427,-0.2326869,-0.4834443
0.7041873,-0.2854402,-0.1804808,-0.2359748,0.02856871,0.091467,-0.5102472,-0.1112334,-0.4274084
0.6419729,-0.2190014,-0.2080278,-0.2975937,0.09640904,0.06414698,-0.5264577,-0.06850683,-0.4247909
0.6253104,-0.1563808,-0.2811994,-0.3136817,0.160447,-0.008855188,-0.6230351,-0.1247991,-0.3899474
0.6306621,-0.1468305,-0.3262518,-0.3077616,0.1714191,-0.0537931,-1.008253,-0.195665,-0.3556779
0.6966532,-0.1948606,-0.3168212,-0.2411933,0.1248031,-0.04429843,-1.194726,-0.1543986,-0.4125313
0.7925576,-0.2413785,-0.2959373,-0.1446919,0.07968116,-0.02339509,-1.053144,-0.06319703,-0.3788523
0.799697,-0.2718539,-0.2813442,-0.1369283,0.05057565,-0.008822381,-0.9301826,-0.06887823,-0.3907916
0.7881351,-0.2850288,-0.2778739,-0.1478346,0.03873903,-0.005408397,-0.7558498,0.03850072,-0.3916577
0.8304501,-0.2651914,-0.2949001,-0.1048294,0.05987924,-0.02252346,-0.6553582,0.145588,-0.3163314
0.8743709,-0.2196426,-0.2997035,-0.06018218,0.1066914,-0.02744501,-0.6807768,0.1091388,-0.2732017
0.9180002,-0.1984051,-0.2946623,-0.01579054,0.129148,-0.0225475,-0.6199068,0.05231506,-0.1351709
0.923836,-0.2076003,-0.2884791,-0.009158989,0.1211216,-0.01653018,-0.5404638,-0.03587098,-0.03097949
0.9055802,-0.2094077,-0.2607234,-0.02658931,0.1204269,0.01104045,-0.5729995,-0.07028166,-0.003386231
0.9418749,-0.2092654,-0.2532919,0.01055714,0.1216206,0.01826973,-0.6338102,-0.100938,0.04250333
0.9891315,-0.2243149,-0.268505,0.05868739,0.1075567,0.002838572,-0.6370547,-0.1177327,0.0374314
1.029918,-0.2603704,-0.2760705,0.1003631,0.07241721,-0.004959581,-0.6438175,-0.05442841,0.01546426
1.085936,-0.3065064,-0.2833353,0.1572798,0.02712582,-0.01246991,-0.5643571,-0.04357209,-0.0620257
1.129031,-0.3314155,-0.3147422,0.2012713,0.002990161,-0.04413298,-0.4161063,-0.02227506,-0.1170983
1.19492,-0.3240744,-0.4167673,0.2680444,0.01103537,-0.1464213,-0.3745757,-0.03736673,-0.06223712
1.313045,-0.3075998,-0.5635337,0.3870251,0.0281474,-0.2934512,-0.423902,-0.07282254,-0.03765111
1.397458,-0.3162472,-0.6378125,0.4722502,0.0200728,-0.3679817,-0.5258181,0.04821498,-0.04461893
1.372777,-0.3715436,-0.5611451,0.448317,-0.03471297,-0.2915389,-0.5210275,0.1356231,0.0211062
1.295746,-0.4332258,-0.483037,0.3719476,-0.09594299,-0.2136135,-0.3325344,0.08956015,0.2252805
1.143187,-0.4144498,-0.5318096,0.2199504,-0.07676732,-0.2625156,-0.1011968,0.1014641,0.4221515
0.9170798,-0.3643858,-0.5381657,-0.005704511,-0.0263496,-0.2689388,0.01052025,0.3337204,0.4216755
0.9226155,-0.3506021,-0.488451,0.0001741487,-0.01225323,-0.2192201,-0.03135575,0.7174517,0.3649844
1.046678,-0.2800965,-0.4418856,0.1244751,0.05852702,-0.1725722,0.008542407,0.9392334,0.3847063
0.9726922,-0.203939,-0.3203281,0.05062804,0.1349216,-0.05085028,0.07116572,0.8913233,0.4000332
0.969103,-0.2326053,-0.2815951,0.04708054,0.1064527,-0.01187143,0.03799922,0.7643147,0.3893744
0.9751694,-0.2725501,-0.328202,0.05309557,0.06666211,-0.05815485,5.052418e-05,0.691284,0.3923186
0.8509427,-0.298841,-0.2815405,-0.07127044,0.04048079,-0.01109716,-0.086656,0.6778578,0.3685597
0.8713225,-0.3444417,-0.2607604,-0.05111069,-0.005054959,0.01014684,-0.007294609,0.730595,0.3415469
0.8525932,-0.3533092,-0.2637235,-0.070132,-0.0139,0.007709608,0.2273561,0.7730474,0.3462506
0.7387014,-0.3498988,-0.2023403,-0.1843775,-0.01050642,0.06967396,0.3685032,0.7179054,0.3204645
0.7170696,-0.3574283,-0.1848976,-0.2064128,-0.01808852,0.08774535,0.4592585,0.5650346,0.2848188
0.6989891,-0.3082295,-0.2105883,-0.2249324,0.031025,0.06272217,0.3834708,0.3558439,0.2608008
0.7043304,-0.2492452,-0.2291922,-0.2200511,0.08989336,0.0448163,0.2666104,0.2801747,0.253978
0.7117258,-0.251647,-0.2398725,-0.2131225,0.08734459,0.03485761,0.2555045,0.2770391,0.2425773
0.7437433,-0.2688921,-0.2245095,-0.1815656,0.06992005,0.05095985,0.1672196,0.2066607,0.1384722
0.7860352,-0.2916996,-0.1911542,-0.1397177,0.04689962,0.08506618,0.1067511,0.2427383,0.003743565
0.7340431,-0.3183382,-0.1425786,-0.1921281,0.02001471,0.1343979,0.04402547,0.2448124,-0.05278987
0.7247062,-0.3320663,-0.1054257,-0.2018494,0.006008088,0.172304,-0.04179324,0.1445839,-0.0170789
0.7383265,-0.3360069,-0.110166,-0.1885713,0.001759196,0.1683044,-0.008230873,0.0642169,0.04054514
0.7446826,-0.3185623,-0.1324543,-0.1825075,0.01886822,0.1467349,-0.03571575,-0.07634938,0.06612498
0.8065729,-0.3149684,-0.1404042,-0.1208531,0.02210158,0.1394734,-0.09595055,-0.01894421,0.06792674
0.8514577,-0.3351572,-0.1273546,-0.07614359,0.001529357,0.1531738,-0.1041946,0.1906446,0.01533947
0.8765115,-0.3540652,-0.1028776,-0.05120311,-0.01778277,0.1782569,-0.1259083,0.2440461,-0.02025709
0.8707082,-0.3546967,-0.07369057,-0.05705828,-0.01883618,0.2079986,-0.07390844,0.3090027,-0.02925443
0.9110791,-0.3186027,-0.05973935,-0.01667961,0.01682116,0.2224451,-0.04893879,0.3526567,-0.07082667
1.036561,-0.2776626,-0.07500095,0.1088666,0.05731188,0.2076117,-0.1316629,0.3832167,-0.06242102
1.127879,-0.2424525,-0.09710634,0.2002989,0.09206015,0.1858602,-0.2686811,0.5043588,-0.02281451
1.219225,-0.2568754,-0.1195039,0.2917961,0.07716165,0.1637365,-0.4306555,0.5183461,0.0933327
1.3604,-0.4298853,-0.179467,0.4331446,-0.09633832,0.1039636,-0.4383444,0.3755008,0.3012548
1.481493,-0.6974404,-0.261631,0.5544109,-0.3643935,0.02190509,-0.1825863,0.07872948,0.3123163
1.485442,-0.7833414,-0.2773696,0.55851,-0.4507912,0.006189758,0.22438,-0.146733,0.07453867
1.4031,-0.6165181,-0.2446565,0.4762662,-0.2844417,0.0388481,0.3707102,-0.08989246,-0.1308207
1.200709,-0.4665703,-0.245111,0.2739025,-0.1349279,0.03826555,-0.02909285,-0.1445925,-0.1205867
0.8508081,-0.3991278,-0.2545095,-0.07605703,-0.06786974,0.02866963,-0.4919888,-0.343422,0.02300237
0.7705122,-0.3447281,-0.2554813,-0.1564958,-0.01380144,0.02743488,-0.5875326,-0.3204358,0.06796247
0.9431132,-0.3826832,-0.2674632,0.01588701,-0.05203509,0.01512854,-0.5879281,-0.3628875,-0.08165486
0.9473162,-0.4297984,-0.267434,0.01980572,-0.09937689,0.01477604,-0.6298066,-0.5927467,-0.2963431
0.955434,-0.4349324,-0.2577711,0.02757871,-0.1046848,0.02400431,-0.4829074,-0.5484574,-0.3985071
0.9591949,-0.4376245,-0.2468385,0.03093854,-0.1074966,0.03445333,-0.2531364,-0.3910105,-0.4253782
0.7837554,-0.385307,-0.2178178,-0.1449536,-0.05524302,0.06294473,-0.1933249,-0.3567494,-0.4758047
0.6634556,-0.3443145,-0.2016132,-0.2657486,-0.01425874,0.07857654,-0.2088599,-0.2758472,-0.4910649
0.6439713,-0.323476,-0.2199089,-0.2857569,0.0066253,0.05966583,-0.1829458,-0.2967634,-0.5202451
0.6601496,-0.2803563,-0.2437169,-0.2701145,0.04984049,0.0352022,-0.1316537,-0.308581,-0.5973041
0.6602565,-0.2701397,-0.2691892,-0.2705386,0.06019719,0.009035988,-0.09825316,-0.1996161,-0.6098349
0.6201995,-0.2705905,-0.2958566,-0.3111065,0.05992489,-0.01836027,-0.1094933,-0.1305756,-0.603635
0.6365666,-0.2556352,-0.3084755,-0.2952154,0.07509077,-0.031738,-0.1327612,-0.01615372,-0.6251835
0.6394475,-0.2051828,-0.3037129,-0.2927613,0.125779,-0.02775903,-0.2192921,-0.02986231,-0.6385675
0.6831626,-0.143531,-0.2759249,-0.2494113,0.1876841,-0.0007741662,-0.3499382,-0.1773884,-0.6292418
0.8100231,-0.1338027,-0.2460236,-0.1228444,0.1976731,0.02830863,-0.3667621,-0.2682154,-0.5120437
0.8653082,-0.1290257,-0.2498404,-0.06777642,0.2027076,0.02366083,-0.3409469,-0.345233,-0.3251514
0.9154415,-0.1202147,-0.2754728,-0.01778322,0.211762,-0.002812831,-0.4070879,-0.2755102,-0.2318843
0.9979458,-0.1176445,-0.2887174,0.06465489,0.2145512,-0.01690643,-0.4315953,-0.1457666,-0.2310094
1.038608,-0.1127004,-0.277742,0.1053183,0.2196803,-0.006784518,-0.3829592,-0.0703611,-0.1890227
0.9915542,-0.1350899,-0.2525059,0.05832495,0.1974323,0.01759647,-0.3989338,-0.05087884,-0.1162243
0.8971613,-0.1595183,-0.235521,-0.03595633,0.1730944,0.03372696,-0.4494543,-0.1318705,-0.08670597
0.8933297,-0.1680437,-0.2420316,-0.03962995,0.1646022,0.02636364,-0.4950292,-0.1453187,-0.002017618
0.9465723,-0.1683646,-0.2587752,0.01381426,0.1642525,0.008769989,-0.49445,-0.2119443,0.1168346
1.031307,-0.182675,-0.2569198,0.09879004,0.1498472,0.00977917,-0.4227124,-0.2513786,0.1513381
1.125326,-0.2199067,-0.2268399,0.1930839,0.112452,0.03901798,-0.352268,-0.01767055,0.1125377
1.153433,-0.2273781,-0.2054481,0.2214886,0.1047468,0.05957427,-0.245766,0.08361785,0.02494615
1.17387,-0.2251658,-0.265004,0.2422332,0.1066551,-0.0008115164,-0.1869843,-0.1153721,0.0042622
1.225377,-0.2742715,-0.4056256,0.2940449,0.05717596,-0.1422562,-0.2152641,-0.3172462,0.05733701
1.367435,-0.3660515,-0.5160193,0.4363882,-0.0350446,-0.2534602,-0.1514673,-0.2494599,0.07174236
1.478601,-0.4163807,-0.5349166,0.5478027,-0.08587585,-0.2731443,-0.01857748,0.01960635,0.07189488
1.327015,-0.3699303,-0.5256866,0.3964061,-0.03998098,-0.2646644,0.1174629,0.1457079,0.08464112
1.100485,-0.3394577,-0.535184,0.1699875,-0.01010933,-0.2748621,0.1591449,0.1417948,0.1658745
1.015293,-0.3760082,-0.5246727,0.08482075,-0.04729928,-0.2649888,0.1596369,0.206634,0.2647628
1.016437,-0.3712753,-0.492327,0.08590082,-0.04323822,-0.2332082,0.3036379,0.5525271,0.2713467
1.049557,-0.3125793,-0.4638312,0.1188701,0.01475949,-0.2051956,0.3474647,0.9098203,0.2941802
1.064818,-0.2626486,-0.4098168,0.1338935,0.06396964,-0.1515757,0.3286527,0.8390977,0.3944384
1.021173,-0.2644939,-0.3546274,0.08992691,0.06138365,-0.09668861,0.3812815,0.6811114,0.4675059
0.9514889,-0.3201496,-0.3098816,0.01983688,0.004967861,-0.05215226,0.253306,0.5322787,0.4023955
0.9113965,-0.3676029,-0.2508327,-0.02073998,-0.04326269,0.006777577,0.19286,0.3915531,0.2990166
0.9084969,-0.383147,-0.2392126,-0.02419641,-0.05959717,0.01836431,0.3927261,0.5022923,0.3133939
0.8935591,-0.3696631,-0.2453971,-0.03975558,-0.04691139,0.01222566,0.6260561,0.5341782,0.3604498
0.834748,-0.3354974,-0.2247565,-0.09924419,-0.01354635,0.03298462,0.7270457,0.3739696,0.405628
0.7774581,-0.3106884,-0.2330993,-0.1572579,0.01046323,0.02482598,0.6424774,0.2172204,0.4301431
0.743619,-0.2934586,-0.2311765,-0.1918554,0.02689714,0.02699206,0.6254011,0.08113092,0.3898906
0.7138003,-0.3012482,-0.2052894,-0.2224536,0.0183165,0.05317505,0.6726691,0.03769095,0.3630597
0.7036026,-0.3099285,-0.1814405,-0.2334377,0.008850669,0.07736564,0.6983773,0.09360558,0.3092753
0.6882351,-0.2825315,-0.1482401,-0.2495842,0.03546852,0.1109458,0.7687334,0.1254944,0.2284732
0.6646834,-0.2640544,-0.153464,-0.2738934,0.05317321,0.1061313,0.586773,-0.02994301,0.1957657
0.6789692,-0.2476737,-0.164604,-0.2603296,0.06878764,0.0954217,0.2819452,-0.1958931,0.1909326
0.7172319,-0.2455711,-0.1443003,-0.2227408,0.07012878,0.1161687,0.2037844,-0.1501754,0.2456192
0.7579341,-0.2773089,-0.1544364,-0.1826537,0.03763268,0.1064814,0.1488737,-0.1171487,0.3121091
0.7749544,-0.3112585,-0.1653862,-0.1661816,0.002927364,0.09597845,0.00902512,-0.1566014,0.3257476
0.7598499,-0.3763458,-0.1533589,-0.1817615,-0.06291212,0.1084443,-0.08615935,-0.1371402,0.3352626
0.7626036,-0.4295049,-0.1425589,-0.1794053,-0.1168164,0.1196686,-0.07323661,-0.1177473,0.3201266
0.7890326,-0.4231336,-0.09427709,-0.1532914,-0.1111776,0.1683541,-0.01513794,-0.07921994,0.2633309
0.8195211,-0.4084149,-0.04359061,-0.1230322,-0.09717199,0.2194165,0.06992286,0.01747854,0.2083176
0.8766094,-0.3902225,-0.051988,-0.06608633,-0.07966757,0.2113585,0.1956081,0.06488494,0.1804503
0.9725932,-0.3509462,-0.07270552,0.02984075,-0.04104975,0.190935,0.166495,0.1198243,0.1403093
1.091102,-0.2870772,-0.08045845,0.1483731,0.02219295,0.1834227,0.01623657,0.2824678,0.08142225
1.185676,-0.2568675,-0.1231675,0.2430394,0.05180823,0.1408946,-0.09922986,0.3174127,0.1312187
1.243253,-0.3581328,-0.222123,0.3007637,-0.05002096,0.04205659,-0.2467315,-0.05604671,0.2607166
1.375291,-0.6005835,-0.2832872,0.4329855,-0.2930041,-0.01905409,-0.1900249,-0.6833025,0.3155959
1.589333,-0.8533453,-0.2056301,0.6472237,-0.5462578,0.05859547,0.2463338,-0.9650071,0.2598605
1.620975,-0.8856453,-0.1251297,0.6790459,-0.5789905,0.1390296,0.7271368,-0.713895,0.01101717
1.324307,-0.6748422,-0.1621106,0.3825122,-0.368538,0.1019241,0.8595224,-0.4941462,-0.3607199
1.012668,-0.4961294,-0.1529249,0.0709387,-0.1900755,0.1109254,0.6210408,-0.4880452,-0.5176369
0.9809294,-0.4906565,-0.1071371,0.03918897,-0.1847435,0.156468,0.531303,-0.4474056,-0.4289485
0.9281476,-0.4960136,-0.1909986,-0.01367973,-0.1901289,0.07229923,0.6320691,-0.3782536,-0.4174273
0.7023261,-0.4306918,-0.2807201,-0.2396576,-0.1247215,-0.01779144,0.4828171,-0.3074116,-0.5539659
0.7141491,-0.4162378,-0.2941013,-0.228049,-0.1100687,-0.03159977,0.2482035,-0.4008795,-0.6897761
0.8343805,-0.4242266,-0.313622,-0.1080752,-0.1177474,-0.05159958,0.0957142,-0.5879514,-0.8427208
0.7751025,-0.3912885,-0.3213749,-0.1676411,-0.08439134,-0.05987638,0.1085775,-0.4925811,-0.9324593
0.8074466,-0.4186985,-0.3100573,-0.1356045,-0.1112791,-0.04911993,0.2402588,-0.415089,-0.8792363
0.8417477,-0.4783907,-0.2833707,-0.1016211,-0.170348,-0.02302509,0.2578735,-0.4753141,-0.8999691
0.8065106,-0.50738,-0.2535821,-0.1371779,-0.1986149,0.006146859,0.4325671,-0.3695438,-1.006644
0.8761845,-0.5078264,-0.2702114,-0.06781855,-0.1982397,-0.01111985,0.6595682,-0.3214781,-1.116287
0.8311763,-0.4163325,-0.3031652,-0.1131306,-0.1058251,-0.04472789,0.7113036,-0.3327151,-1.207907
0.7459437,-0.2817816,-0.3120929,-0.1986504,0.02974301,-0.05432249,0.7497561,-0.3067711,-1.105913
0.7410433,-0.1994797,-0.305496,-0.2038141,0.1131507,-0.04839987,0.634773,-0.3488064,-0.9101098
0.6803954,-0.2081826,-0.2997374,-0.2646922,0.10563,-0.04331819,0.4805758,-0.3565883,-0.7613223
0.6758314,-0.259996,-0.2995991,-0.2694429,0.05506164,-0.04385488,0.3709002,-0.3911567,-0.6730558
0.6842471,-0.2618736,-0.2831803,-0.2611599,0.05447981,-0.02810531,0.3300468,-0.3715104,-0.7534755
0.6829341,-0.2752055,-0.2494054,-0.2625412,0.04248407,0.005009295,0.5151905,-0.2329512,-0.8214188
0.7198422,-0.2438293,-0.2385204,-0.2256284,0.07522744,0.01524458,0.6121123,-0.1954223,-0.8003634
0.7246077,-0.1233594,-0.2584836,-0.2207779,0.1970857,-0.005356847,0.5798879,-0.2772255,-0.8051672
0.8246206,-0.06133164,-0.2674179,-0.1205945,0.2605105,-0.01491715,0.4646005,-0.3685681,-0.7032249
0.9849281,-0.03059914,-0.249873,0.03996998,0.2926329,0.002015178,0.2929834,-0.2679883,-0.5598309
1.028533,-0.02299164,-0.2097819,0.08391336,0.301606,0.0415078,0.3599176,-0.1520659,-0.4721209
0.9561661,-0.02558351,-0.1779059,0.01195929,0.3003384,0.07279873,0.3595711,-0.2824289,-0.3089635
0.912605,0.008611388,-0.2140411,-0.03112448,0.3357998,0.03609015,0.09843753,-0.3588449,-0.1142264
1.001925,-0.02679564,-0.2490502,0.05873142,0.3015861,0.0005176478,-0.1999021,-0.3259431,-0.0514573
1.054127,-0.1043358,-0.1768848,0.1115201,0.2251524,0.07212888,-0.3607283,-0.2156675,-0.1454507
1.026427,-0.1933992,-0.09321749,0.08445018,0.1370987,0.1552493,-0.1773669,-0.0582617,-0.2690103
1.024114,-0.2586385,-0.09421996,0.08279964,0.07276695,0.153703,0.001416439,-0.158987,-0.3508232
1.041619,-0.2322392,-0.1286621,0.1009911,0.09997071,0.1187139,0.02209078,-0.2980898,-0.3016065
1.11769,-0.2318789,-0.2087731,0.1777646,0.1010326,0.03804824,0.2811352,-0.2441838,-0.09123767
1.23456,-0.2570984,-0.3340668,0.2953402,0.07641246,-0.08780926,0.6083369,-0.1766676,0.04561674
1.392747,-0.3097538,-0.442951,0.4542232,0.02425598,-0.1972629,0.684813,-0.0433763,0.04132117
1.60078,-0.409417,-0.5606908,0.66292,-0.07500515,-0.3155682,0.5944865,0.1064866,-0.0985154
1.650541,-0.399491,-0.599284,0.713286,-0.06476702,-0.3547091,0.5065574,0.08077379,-0.3124346
1.446577,-0.3570665,-0.5324572,0.5098366,-0.02211193,-0.2883959,0.4696374,-0.1221041,-0.2930768
1.167511,-0.3803245,-0.5589704,0.231172,-0.04521317,-0.3153731,0.4266557,-0.2969654,-0.01266138
0.9746342,-0.3787264,-0.5892715,0.03857031,-0.04352514,-0.3460748,0.4156307,0.01807014,0.3409426
1.02015,-0.4019884,-0.5431903,0.0842346,-0.06675727,-0.3003176,0.4553263,0.8031368,0.5240639
1.17634,-0.4351155,-0.554038,0.2404501,-0.09990708,-0.3114008,0.5484739,1.339358,0.4806622
1.120629,-0.3660846,-0.4703559,0.1846428,-0.03094399,-0.2278561,0.6700513,1.245927,0.4760839
1.016755,-0.2407602,-0.3109839,0.08054926,0.09427338,-0.06851712,0.6107549,0.8040769,0.4642602
0.9086243,-0.148311,-0.2697012,-0.02791903,0.1865778,-0.02716284,0.3435073,0.3820887,0.4367295
0.7721965,-0.1440085,-0.2696808,-0.1647957,0.1906942,-0.0269704,0.05765728,0.12478,0.5118907
0.841895,-0.2261522,-0.2750522,-0.09564397,0.1083181,-0.03207538,-0.009065363,0.1719048,0.5470651
0.8291612,-0.3298209,-0.2524866,-0.1090075,0.004367585,-0.009155358,0.2416876,0.2980156,0.5437183
0.7337989,-0.4218352,-0.2074386,-0.2050688,-0.08797624,0.03632865,0.5089868,0.2135654,0.4989474
0.7414603,-0.4525187,-0.2046615,-0.1981605,-0.119031,0.03961562,0.6470989,0.3084427,0.4036149
0.6529861,-0.3908889,-0.2007962,-0.2874256,-0.0578059,0.04405607,0.6916572,0.3953877,0.3441325
0.6591883,-0.2956064,-0.2065228,-0.2820346,0.03704594,0.03896157,0.603297,0.1733031,0.3062518
0.6976711,-0.2034167,-0.2074104,-0.2443658,0.1287822,0.03875508,0.5008354,0.04974878,0.3421572
0.6775657,-0.1554187,-0.2026353,-0.2652719,0.1763031,0.04425269,0.3514804,-0.0589214,0.4085647
0.7577607,-0.1858766,-0.1899002,-0.1858501,0.1453403,0.05774458,0.2049786,-0.0685622,0.4406385
0.749553,-0.2430114,-0.1339756,-0.1947917,0.08766854,0.1144527,0.1666908,0.01511258,0.4606493
0.7216461,-0.2977666,-0.1193012,-0.2233838,0.03234233,0.1299287,0.04136843,-0.0993519,0.4297942
0.734014,-0.3324438,-0.1313597,-0.2116431,-0.002939235,0.1186807,-0.07087017,-0.1198483,0.4015991
0.7433715,-0.3407868,-0.1207121,-0.2028465,-0.01191682,0.1301384,-0.05517526,-0.1414181,0.3501168
0.8187331,-0.3704349,-0.1125749,-0.1279725,-0.04222551,0.1390764,0.02607505,-0.1228323,0.2322464
0.8382618,-0.3993348,-0.1035989,-0.1088534,-0.07180671,0.1488355,0.1719363,0.06904172,0.136316
0.850107,-0.4194049,-0.1028236,-0.097338,-0.09257263,0.1503682,0.202607,0.1549334,0.07208533
0.8906456,-0.4567876,-0.08434836,-0.05704914,-0.1306584,0.1695668,0.2492093,0.3426305,0.06027794
0.9367163,-0.4516927,-0.06881601,-0.01114946,-0.1262658,0.1857809,0.4240507,0.44729,0.06281194
1.030521,-0.3785458,-0.08964286,0.08255927,-0.05381259,0.1655862,0.409376,0.2063928,0.001840888
1.125967,-0.275585,-0.1399443,0.1779764,0.04846838,0.1158607,0.1654306,-0.01285383,-0.006973487
1.311354,-0.2852743,-0.2395261,0.3633907,0.03811466,0.01679432,-0.2205834,-0.1060286,0.1669912
1.507863,-0.5457306,-0.3127418,0.5599632,-0.2229898,-0.05596682,-0.4068408,-0.1701316,0.3702718
1.5368,-0.8497398,-0.3016422,0.588975,-0.5276238,-0.04446995,0.08502799,-0.3065629,0.3074816
1.427393,-0.8868722,-0.2721672,0.4796252,-0.5653395,-0.0146501,0.6012315,-0.4311273,0.06298172
1.190135,-0.7077119,-0.2339317,0.2423821,-0.3866974,0.02388221,0.4356502,-0.4490216,-0.1454501
0.921047,-0.5470192,-0.1736253,-0.02674843,-0.2264378,0.08443947,0.2748839,-0.4423277,-0.3142345
0.7344928,-0.3957867,-0.1664476,-0.2134035,-0.07554237,0.09182233,0.2443778,-0.3790507,-0.3903453
0.6940585,-0.2391162,-0.2225581,-0.2539879,0.08088892,0.03586994,-0.2724964,-0.3567382,-0.4725372
0.8171414,-0.2307915,-0.2701195,-0.1310904,0.08906654,-0.01158007,-0.64385,-0.3754884,-0.5507504
0.9450968,-0.3097309,-0.2731062,-0.0033438,0.01006316,-0.01450005,-0.4822416,-0.3522611,-0.4621551
0.9790294,-0.3825669,-0.1980144,0.03036306,-0.06276168,0.06061665,-0.2868117,-0.370458,-0.4501727
0.8866939,-0.4148099,-0.13328,-0.0622127,-0.09492281,0.1253355,-0.07083953,-0.4027597,-0.5615449
0.7290162,-0.3524726,-0.1688932,-0.2201414,-0.03243512,0.08966528,-0.0530064,-0.4286289,-0.6409326
0.6673366,-0.2928104,-0.2165388,-0.282074,0.02744326,0.04191944,-0.2174366,-0.3849329,-0.6957267
0.6432227,-0.2266901,-0.2579917,-0.3064302,0.09384039,0.0003231691,-0.235345,-0.2537966,-0.6337563
0.6198153,-0.158657,-0.3035326,-0.3300542,0.1622026,-0.04540174,-0.4197162,-0.1794544,-0.552952
0.661554,-0.1665655,-0.3106584,-0.2884918,0.1546646,-0.0527479,-0.618083,-0.1481059,-0.4955845
0.717336,-0.1804827,-0.2991877,-0.2328328,0.1411476,-0.0415285,-0.5988226,-0.06907674,-0.4224513
0.7609477,-0.1999445,-0.2859496,-0.1892807,0.1221048,-0.02856734,-0.5585008,-0.0003819286,-0.4277525
0.7589131,-0.2079653,-0.2744753,-0.1913048,0.1145128,-0.01739119,-0.3789095,-0.109011,-0.3670731
0.7505954,-0.1869635,-0.2744344,-0.199537,0.1359446,-0.01766601,-0.2774367,-0.2760767,-0.2395861
0.823352,-0.1744396,-0.2852835,-0.1266156,0.148892,-0.02884536,-0.4081348,-0.2604642,-0.1723139
0.8906626,-0.1554985,-0.2920966,-0.05905961,0.168242,-0.03599982,-0.4510817,-0.1690133,-0.1396675
0.9273293,-0.1911741,-0.2862692,-0.02206823,0.1329529,-0.0305217,-0.3479872,-0.07584897,-0.1071387
0.9777167,-0.2330917,-0.2775818,0.02871875,0.09139239,-0.02218833,-0.2126351,-0.04200554,0.01542939
0.9843239,-0.1884436,-0.2739365,0.03579381,0.1363632,-0.01889916,-0.1789411,-0.1414167,0.09525665
0.9835536,-0.1453616,-0.2980033,0.03555212,0.1797287,-0.04332178,-0.2233843,-0.1896308,0.07137164
1.039037,-0.1455818,-0.3365379,0.09161631,0.1797468,-0.08220902,-0.3178281,-0.1583244,0.07758948
1.05625,-0.180621,-0.3348067,0.1094555,0.1448948,-0.08082342,-0.4451524,-0.1525146,0.02181449
1.038789,-0.2782688,-0.2852074,0.09265345,0.04737841,-0.0315588,-0.3457351,-0.1789723,-0.0564844
1.091026,-0.386904,-0.2521504,0.1455746,-0.06118201,0.00117746,-0.1058123,-0.2588455,-0.07825393
1.153528,-0.4188986,-0.2924643,0.2087745,-0.09315438,-0.03944205,0.1262533,-0.3649042,-0.1007184
1.222702,-0.4180025,-0.3614914,0.2786494,-0.09228182,-0.1087584,0.3565693,-0.3683428,-0.1101617
1.383598,-0.4205255,-0.443633,0.4402328,-0.09486609,-0.191169,0.3834436,-0.1572711,-0.1606496
1.533978,-0.3548981,-0.5466827,0.591266,-0.02933032,-0.2944603,0.3852343,-0.003446221,-0.1820648
1.464624,-0.3074198,-0.5413578,0.5225082,0.01803137,-0.289339,0.4649336,-0.2051768,-0.002241554
1.185189,-0.3777998,-0.4818955,0.2435883,-0.05248694,-0.2300303,0.4065877,-0.302337,0.326965
1.01427,-0.4482091,-0.5215947,0.07308893,-0.1230528,-0.2698228,0.4189052,0.2079882,0.5841392
1.06214,-0.4390989,-0.5093705,0.1212772,-0.1141114,-0.2576226,0.4725383,0.766345,0.6128884
1.097518,-0.3838198,-0.4391741,0.1568741,-0.05900683,-0.1873728,0.4463893,0.7461558,0.510776
1.027575,-0.2955917,-0.3910278,0.0870496,0.0290459,-0.1390902,0.4964459,0.654471,0.4270319
0.9668855,-0.2233832,-0.2930048,0.02638049,0.1010794,-0.04084628,0.3738071,0.712444,0.3757399
0.9245342,-0.2668943,-0.2640399,-0.01604543,0.05739159,-0.01157771,0.224457,0.4985531,0.3333202
0.8169369,-0.345306,-0.2333968,-0.123805,-0.02120105,0.01944666,0.4004829,0.3714033,0.3162604
0.8036827,-0.3351637,-0.1568413,-0.1372986,-0.01124438,0.09645399,0.6055889,0.4724492,0.3341573
0.8545358,-0.3352733,-0.2084255,-0.08675041,-0.01154304,0.04538318,0.7918302,0.4507819,0.3196661
0.7721226,-0.3506411,-0.2049009,-0.169522,-0.02710195,0.04947385,0.9598484,0.4798404,0.2836888
0.7315059,-0.3309915,-0.1677939,-0.2105386,-0.007643866,0.08719102,0.9264105,0.4808117,0.2589973
0.6942578,-0.3186555,-0.2028248,-0.2482144,0.004501443,0.05280631,0.8575538,0.3441038,0.2297425
0.6176519,-0.2703872,-0.1389352,-0.3252605,0.05258025,0.11737,0.829416,0.2511414,0.2417001
0.6540344,-0.2311878,-0.0919692,-0.2893144,0.09159014,0.1650291,0.7496945,0.1329909,0.2535765
0.6547353,-0.2319426,-0.09646548,-0.2890299,0.09064294,0.1612349,0.6054206,0.01253608,0.2448895
0.6425369,-0.2184051,-0.1003116,-0.3016095,0.1039812,0.1580891,0.3641667,-0.1757809,0.2758155
0.6699144,-0.2338116,-0.1424596,-0.2745646,0.08836503,0.1166299,0.06661094,-0.4250158,0.3217983
0.6672771,-0.2867851,-0.1285489,-0.2774736,0.035168,0.1312097,-0.05188173,-0.4758968,0.3863471
0.7277667,-0.3919213,-0.1184434,-0.2171846,-0.07020647,0.1419574,0.05813009,-0.3396991,0.4156308
0.8032762,-0.5068031,-0.1280071,-0.1417969,-0.1853384,0.1330022,0.1556631,-0.1086415,0.3241369
0.827092,-0.5269799,-0.1157587,-0.1180199,-0.2057694,0.1458193,0.2140129,0.01545289,0.1916203
0.8101616,-0.495753,-0.1364905,-0.1349049,-0.1747908,0.1256104,0.2362575,-0.02678992,0.09271979
0.7970226,-0.4584208,-0.1361124,-0.1479136,-0.1376911,0.1264606,0.1735088,-0.01189777,0.04170212
0.8568561,-0.4332934,-0.1307911,-0.08786469,-0.1127731,0.132199,0.1626217,0.06164351,0.04584289
0.9290663,-0.43994,-0.1285645,-0.0153552,-0.1196002,0.1347839,0.1899209,0.1753813,0.05228646
1.008633,-0.4287212,-0.1118023,0.06459031,-0.1085284,0.1518417,0.1576185,0.2677986,0.001153362
1.126936,-0.371408,-0.1257405,0.1833428,-0.05132529,0.1381332,0.00773748,0.341686,-0.1169241
1.292529,-0.3492178,-0.1365359,0.3494436,-0.02920681,0.1274982,-0.3024575,0.5230275,-0.1747725
1.48742,-0.487728,-0.1856116,0.5448804,-0.1677494,0.07851151,-0.4565362,0.5293463,0.01152658
1.549281,-0.6794687,-0.2694191,0.6072979,-0.3594795,-0.005278073,-0.2346072,0.08644534,0.2288368
1.440398,-0.7116816,-0.2776609,0.4989532,-0.3916292,-0.0135702,-0.04069114,-0.4729615,0.1343252
1.291245,-0.6663691,-0.2486177,0.3502927,-0.3461867,0.01535933,-0.0616409,-0.6017519,-0.03858014
1.135295,-0.6395746,-0.2469597,0.194768,-0.3191824,0.01684519,-0.04783447,-0.4641341,-0.110126
0.9056106,-0.5164182,-0.2606828,-0.03456542,-0.1957258,0.002895402,-0.157455,-0.5508496,-0.2211694
0.6727233,-0.3726787,-0.2801809,-0.267177,-0.05159048,-0.01687952,-0.4603647,-0.6837484,-0.2206572
0.6567031,-0.386664,-0.3005927,-0.2829852,-0.0650853,-0.0376135,-0.5661132,-0.7422647,-0.1982559
0.778219,-0.4595508,-0.296752,-0.1613049,-0.1373908,-0.03413497,-0.5189407,-0.7204825,-0.3730668
0.8165466,-0.4938807,-0.2586043,-0.1228467,-0.1710511,0.003616012,-0.3671655,-0.3976377,-0.5800742
0.831804,-0.4991562,-0.1982085,-0.1074821,-0.1755698,0.06358448,0.08133002,-0.07501863,-0.7625026
0.850796,-0.4214423,-0.145428,-0.08839898,-0.09701191,0.1159087,0.4724935,-0.03066558,-0.8490525
0.8275131,-0.3119619,-0.1769019,-0.1116005,0.01339735,0.08394881,0.5783674,-0.06781937,-0.8426277
0.7994541,-0.2272297,-0.2453277,-0.139582,0.09913661,0.0150064,0.5410472,-0.03750054,-0.8451584
0.7352645,-0.1115378,-0.2640305,-0.2036911,0.2159025,-0.004242537,0.3392244,0.001036867,-0.7536774
0.6678581,-0.007418401,-0.288493,-0.2710054,0.3211466,-0.02927763,-0.05688912,-0.08740758,-0.6703586
0.6683624,0.007950777,-0.2980942,-0.2703866,0.3376714,-0.03947371,-0.5883313,-0.2008456,-0.6105994
0.6813186,-0.04018183,-0.2788491,-0.257282,0.2907037,-0.02084088,-0.8577238,-0.293357,-0.4931861
0.701645,-0.1255429,-0.2792401,-0.2367627,0.2064975,-0.02185722,-0.7637359,-0.3827415,-0.4203504
0.7595062,-0.2459118,-0.2675398,-0.1786555,0.08725874,-0.01079151,-0.6292878,-0.3680825,-0.3402133
0.828358,-0.3391828,-0.2767476,-0.1094984,-0.004915873,-0.02063975,-0.3469715,-0.2610853,-0.3088704
0.8869963,-0.3493728,-0.3054917,-0.05049356,-0.01404648,-0.05002688,-0.09598037,0.01824314,-0.3390477
0.9129258,-0.2963821,-0.2946815,-0.02413711,0.03996593,-0.03985885,-0.03563535,0.220879,-0.3132885
0.9063762,-0.2121415,-0.2642284,-0.03020269,0.1251891,-0.01004323,0.04448522,0.02367083,-0.2634767
0.9025505,-0.1227699,-0.2318088,-0.03349109,0.2154999,0.0217461,-0.08178366,-0.197237,-0.138658
0.9283444,-0.05216646,-0.247181,-0.007110538,0.286991,0.005751977,-0.3126835,-0.2151742,0.02029304
0.9635062,-0.02947177,-0.2836947,0.02868284,0.3105106,-0.03137445,-0.4673166,-0.2016322,0.1412413
0.977491,-0.06377233,-0.2679607,0.04333864,0.2769598,-0.01624255,-0.6051665,-0.2118864,0.2426003
0.9745705,-0.1129646,-0.2442663,0.04112239,0.2284307,0.006862263,-0.5568423,-0.2530456,0.2485286
0.9758189,-0.1632562,-0.2065904,0.04310171,0.1787074,0.04396168,-0.4868975,-0.2952103,0.1639737
1.014966,-0.2081026,-0.1761744,0.08300026,0.1343291,0.07381368,-0.3790119,-0.2799832,0.08114008
1.085095,-0.2240741,-0.1994705,0.1538935,0.1187233,0.04996403,-0.1317288,-0.2355226,0.06441256
1.168345,-0.254837,-0.2195586,0.2379119,0.08822339,0.02933076,0.1011079,-0.2322917,0.01128963
1.263191,-0.3133668,-0.2895038,0.3335166,0.0298557,-0.04115213,0.3720802,-0.2566374,-0.1351867
1.351129,-0.3439035,-0.4475769,0.4221887,-0.000616132,-0.1997533,0.4131102,-0.2591818,-0.1979572
1.437215,-0.3485975,-0.5478847,0.5089637,-0.005336571,-0.3005724,0.280576,-0.1579274,-0.2096695
1.460012,-0.3369937,-0.5226627,0.5323829,0.006156107,-0.275833,0.2964628,-0.02981692,-0.2079025
1.358823,-0.2918817,-0.4894518,0.4317257,0.05107823,-0.2430628,0.2118264,-0.06697298,-0.04393937
1.232811,-0.2496124,-0.5153882,0.3061381,0.09308352,-0.2693862,0.09789618,0.01573438,0.2043207
1.15409,-0.2627049,-0.5196728,0.2277203,0.07965574,-0.2739932,0.001502613,0.5767942,0.3995667
1.093092,-0.2995562,-0.504712,0.1668979,0.04240002,-0.2592804,-0.2219129,1.231472,0.5064389
1.052636,-0.2944322,-0.4575727,0.126489,0.04705323,-0.212306,-0.3373204,1.268943,0.5050712
1.017412,-0.2662321,-0.3085748,0.0911856,0.07471964,-0.06338421,-0.3276847,0.8245418,0.4634672
0.9340731,-0.2502012,-0.2090167,0.007642966,0.09015666,0.03618712,-0.3064011,0.603375,0.4512076
0.8596768,-0.2750759,-0.2266341,-0.06707277,0.06463014,0.0186676,-0.3235908,0.4710563,0.4399034
0.8415681,-0.3453853,-0.2505802,-0.08560638,-0.006386644,-0.00510313,-0.3232484,0.2007407,0.4148301
0.8191593,-0.3909755,-0.277474,-0.1085333,-0.05273511,-0.03175027,-0.1441965,0.1466734,0.4401191
0.8291513,-0.4322182,-0.2886067,-0.0991395,-0.09477978,-0.04257014,0.1526071,0.2842614,0.4755151
0.8573079,-0.4745779,-0.2670789,-0.07164878,-0.1379761,-0.02066741,0.5415354,0.4397949,0.4393902
0.8021345,-0.4560826,-0.2496443,-0.1275442,-0.1203416,-0.00279987,0.8395504,0.5091949,0.3654726
0.7317431,-0.4244556,-0.2500943,-0.1987018,-0.08958928,-0.002763442,0.8700968,0.4416162,0.2471018
0.7058051,-0.3754787,-0.2495477,-0.2254368,-0.0414923,-0.001682045,0.8499857,0.3887482,0.1290695
0.7102051,-0.3068822,-0.2113502,-0.2218495,0.0262249,0.03709353,0.8634332,0.3270044,0.09756126
0.7371594,-0.2720309,-0.1658247,-0.1957092,0.06020052,0.08323457,0.9238539,0.2653789,0.1106859
0.734244,-0.2404258,-0.1386166,-0.1994268,0.09093355,0.1110882,0.9694994,0.2324654,0.1539773
0.7002474,-0.2080009,-0.1288466,-0.2342017,0.1224883,0.1215249,0.8680854,0.1233207,0.211781
0.6605405,-0.1769723,-0.1340094,-0.2746512,0.1526454,0.1170409,0.603887,-0.08407018,0.2435421
0.6551353,-0.1743706,-0.120422,-0.2807511,0.1543698,0.1313101,0.2085943,-0.3233111,0.2711197
0.7055663,-0.2474812,-0.1058174,-0.2309546,0.08037163,0.1465911,0.02782435,-0.3897538,0.2852994
0.7559013,-0.3454867,-0.107508,-0.1811836,-0.01853381,0.1455629,0.09695599,-0.2689199,0.2599027
0.8104301,-0.4123557,-0.1079853,-0.1271415,-0.08631342,0.1457258,0.09686346,-0.1279227,0.1714748
0.8515472,-0.4209905,-0.1026427,-0.08642981,-0.09586423,0.1516786,0.1437906,0.04432224,0.03052991
0.8684797,-0.4072666,-0.08638743,-0.06982063,-0.0830545,0.1685068,0.2257722,0.249453,-0.066771
0.9382272,-0.4047099,-0.05776614,-0.0003154246,-0.08140335,0.1976566,0.1838977,0.4322574,-0.08057097
1.039756,-0.3783579,-0.01835225,0.1010475,-0.05594217,0.2375466,0.1628108,0.5351724,-0.05144968
1.153072,-0.3586525,0.01072356,0.2142677,-0.03710811,0.2670375,0.2042799,0.4998684,0.03468195
1.259312,-0.3446951,0.01533164,0.3204672,-0.02399902,0.2719901,0.1985199,0.4465118,0.148982
1.293818,-0.3225273,-0.0268906,0.3549711,-0.002654506,0.2300326,0.112634,0.3900803,0.1625314
1.337112,-0.3865404,-0.1247888,0.3982823,-0.067464,0.132312,-0.02717183,-0.02422756,0.1198982
1.443641,-0.5788823,-0.1824278,0.5048266,-0.2605721,0.07476025,-0.04888869,-0.5727311,0.1284037
1.547522,-0.767815,-0.1388384,0.6086959,-0.4502316,0.1183464,0.2585551,-0.5737381,0.07130789
1.52447,-0.7372209,-0.1235849,0.5855814,-0.4203089,0.1335074,0.5192011,-0.3864518,-0.07668512
1.129985,-0.5264206,-0.2671922,0.1909576,-0.2101069,-0.01028013,0.1699235,-0.4804606,-0.1541112
0.6116423,-0.3739241,-0.4141121,-0.32761,-0.05812372,-0.1574635,-0.3787585,-0.4624386,-0.1380288
0.6341679,-0.3484646,-0.391168,-0.3053885,-0.03308924,-0.1348558,-0.5328634,-0.349347,-0.1783619
0.8829441,-0.4250637,-0.3385187,-0.05697715,-0.1100265,-0.08260354,-0.4900022,-0.3584533,-0.3516294
0.8574732,-0.480624,-0.3374326,-0.08285879,-0.1658393,-0.08196391,-0.3813962,-0.3218337,-0.5156993
0.9438937,-0.4507154,-0.3024647,0.003114362,-0.1360966,-0.04748251,-0.1904147,-0.2662238,-0.6015451
0.9824247,-0.4446876,-0.2732691,0.04116679,-0.1301465,-0.01880635,-0.09848321,-0.1343013,-0.6462474
0.8076483,-0.3816952,-0.2623334,-0.1341152,-0.06714312,-0.008417101,-0.03806398,0.00445635,-0.614856
0.8214824,-0.2610608,-0.2239335,-0.1208078,0.0535887,0.02941336,-0.02462647,-0.1282438,-0.5632916
0.8059442,-0.2381239,-0.2287983,-0.1368854,0.07670356,0.02395893,-0.1533628,-0.2468592,-0.4922445
0.7631868,-0.2262968,-0.2643066,-0.1801853,0.08878027,-0.01215711,-0.2585337,-0.2389774,-0.4054234
0.7951269,-0.1735492,-0.2586972,-0.1487813,0.1418387,-0.00717083,-0.3240119,-0.3346751,-0.4057739
0.7279592,-0.1678864,-0.2628507,-0.2164691,0.1478624,-0.01195974,-0.3406232,-0.3857339,-0.4168635
0.7703216,-0.2038946,-0.260387,-0.1746012,0.1122534,-0.01014064,-0.3232687,-0.3195109,-0.4433673
0.7767485,-0.2150685,-0.2252211,-0.1686339,0.1015069,0.02437437,-0.3405169,-0.2630603,-0.4939771
0.7264792,-0.2204119,-0.2101937,-0.21932,0.09660989,0.0387461,-0.2594708,-0.2581389,-0.4305318
0.7828479,-0.2450995,-0.2094743,-0.1633174,0.07238009,0.03880608,-0.140882,-0.2302374,-0.3613632
0.7846156,-0.2214892,-0.2201765,-0.1618582,0.09645311,0.02744073,-0.03882356,-0.1607756,-0.3498691
0.8492469,-0.1762649,-0.2334037,-0.09747284,0.1421385,0.01354732,0.04611571,-0.1611045,-0.2613586
0.8668929,-0.1354063,-0.2458068,-0.08000762,0.1834491,0.0004756986,-0.01459769,-0.282147,-0.132361
0.8147034,-0.09560453,-0.2641568,-0.1323114,0.2236849,-0.01854324,-0.08934788,-0.5071112,-0.06630514
0.8810214,-0.1092829,-0.2712725,-0.06604085,0.2104126,-0.02632606,-0.1404709,-0.5666534,-0.03918494
0.9371299,-0.1478633,-0.2845245,-0.009913014,0.1722004,-0.0402406,-0.1529714,-0.3353365,-0.01635495
1.053541,-0.2157974,-0.2411633,0.1065807,0.104589,0.002465514,0.01269001,-0.1631716,-0.05200688
1.112808,-0.2854992,-0.1376384,0.1659869,0.0351598,0.1053443,0.1686881,-0.1999875,-0.1636906
1.043742,-0.2880559,-0.1168331,0.09710536,0.03282447,0.125511,0.2021588,-0.3410397,-0.2692751
1.090088,-0.2852693,-0.1870831,0.1436715,0.03578213,0.05462606,0.1766518,-0.4368725,-0.2587579
1.170185,-0.3011098,-0.2829944,0.2240133,0.02006381,-0.0419187,0.1890621,-0.4039361,-0.1394631
1.286935,-0.3132353,-0.4134976,0.3410205,0.00801358,-0.1730523,0.3248064,-0.3617597,0.001313993
1.424114,-0.3132325,-0.566414,0.4784526,0.008046975,-0.3265887,0.4071238,-0.3039002,0.1232266
1.437206,-0.3059062,-0.608993,0.4917728,0.01536199,-0.3697638,0.3777362,-0.1762106,0.1122434
1.382769,-0.3141901,-0.5482863,0.4375161,0.007027354,-0.309613,0.3149057,-0.01534858,0.1476977
1.186498,-0.3143936,-0.5593768,0.2413589,0.006736093,-0.3212032,0.1741862,0.2459224,0.4997917
0.9459483,-0.3141845,-0.5374963,0.0008435622,0.006823061,-0.2997525,-0.01471507,0.5229467,0.7276149
0.9678951,-0.3148606,-0.4502556,0.02274383,0.005992785,-0.2128601,-0.1011125,0.5758704,0.5600751
1.095597,-0.2891905,-0.4421534,0.1503214,0.03147898,-0.2050162,-0.08763869,0.564439,0.4341071
1.075797,-0.25466,-0.4197639,0.1303209,0.06579741,-0.1827899,-0.1303568,0.7663842,0.4932389
0.9950153,-0.2300401,-0.3572272,0.04926218,0.09017711,-0.1203181,-0.1411246,0.9428789,0.4988328
0.8753903,-0.2401927,-0.2502873,-0.07071317,0.07975509,-0.01334414,-0.1562566,0.7919369,0.4603334
0.7613117,-0.2609944,-0.1647306,-0.1852087,0.05865358,0.07234123,-0.2386328,0.5422401,0.503392
0.7839684,-0.2743333,-0.2257635,-0.1630239,0.044984,0.01152404,-0.1562042,0.499414,0.5311906
0.7976644,-0.3126978,-0.2399745,-0.1498413,0.006258501,-0.002392493,-0.05409485,0.451733,0.5560166
0.7709813,-0.3276711,-0.2313617,-0.1770665,-0.0091043,0.006586121,-0.02435211,0.3650324,0.5915293
0.7914049,-0.312501,-0.2724911,-0.1572018,0.005650744,-0.03411208,0.02926534,0.5081512,0.5122338
0.7560365,-0.3117759,-0.2161498,-0.1931343,0.005938244,0.02272017,0.02838378,0.5961123,0.4313067
0.7096635,-0.3056725,-0.1804026,-0.2400653,0.01158389,0.05901226,0.05947849,0.4816001,0.3693757
0.6773256,-0.3040906,-0.1633915,-0.272943,0.01269043,0.07661485,0.04580364,0.3835065,0.3213316
0.6359016,-0.3153234,-0.1081162,-0.3148749,0.0009665269,0.1325196,-0.02605204,0.3072629,0.3353282
0.6575318,-0.3288935,-0.109416,-0.2937072,-0.01310817,0.1318776,-0.04767079,0.2962712,0.2928697
0.6909551,-0.3415161,-0.1128471,-0.2606875,-0.02624602,0.1291223,-0.1010293,0.3145789,0.2683423
0.7301015,-0.3259975,-0.1194456,-0.2218748,-0.01125056,0.1232075,-0.1349727,0.2990725,0.2418388
0.7770717,-0.295627,-0.1499298,-0.1751604,0.01859183,0.09340649,-0.2538377,0.2296972,0.1881647
0.791201,-0.2892441,-0.1650703,-0.1612034,0.02444315,0.07894101,-0.4240034,0.1158316,0.2493853
0.8205684,-0.3259468,-0.146198,-0.1319217,-0.01279335,0.09847433,-0.3859349,0.1224002,0.2835804
0.8734863,-0.3953619,-0.1002662,-0.07900141,-0.08274291,0.1450472,-0.2917266,0.2228056,0.2550596
0.942867,-0.4415349,-0.08232293,-0.009531753,-0.1294468,0.1636052,-0.2310099,0.3102259,0.2284889
1.023547,-0.4442238,-0.07004638,0.07131934,-0.1326569,0.1764625,-0.1390021,0.3803094,0.1606381
1.113134,-0.4322812,-0.05936623,0.1611518,-0.1212186,0.1876815,-0.1120906,0.5117324,0.1293501
1.229706,-0.4112402,-0.08296665,0.278031,-0.1006585,0.1645706,-0.160467,0.7165915,0.1322804
1.355503,-0.4098269,-0.1566424,0.4041802,-0.09969741,0.09132867,-0.231112,0.6602767,0.1389221
1.438602,-0.5166827,-0.2718524,0.4876548,-0.2069713,-0.02350637,-0.23988,0.1492998,0.1867943
1.414379,-0.7062309,-0.301352,0.4638054,-0.3968959,-0.05268863,-0.0279902,-0.4573303,0.2293307
1.294694,-0.7624477,-0.2668817,0.3444687,-0.4534341,-0.01795443,0.2802052,-0.5893391,0.1498686
1.11483,-0.6097872,-0.2710569,0.1649085,-0.3010233,-0.0219141,0.3019616,-0.3796626,-0.07026836
0.932827,-0.431066,-0.2534005,-0.01684522,-0.1224667,-0.004086723,0.06927998,-0.4130708,-0.2694791
0.8466526,-0.3213349,-0.2384896,-0.1028267,-0.01280967,0.01095406,-0.2163304,-0.4420092,-0.3321532
0.8514364,-0.265988,-0.2296609,-0.0979007,0.04255173,0.01987398,-0.5675129,-0.3421134,-0.3178247
0.9092353,-0.2923889,-0.1829041,-0.04000263,0.01624731,0.0666849,-0.7154157,-0.4220179,-0.3606626
0.9598372,-0.3443928,-0.1870288,0.01066156,-0.03558498,0.06257769,-0.5729428,-0.4067034,-0.4437573
0.9654343,-0.3540705,-0.1902969,0.01628754,-0.04502144,0.05928996,-0.4217035,-0.3634753,-0.5064415
0.9207677,-0.3354363,-0.1525242,-0.02838124,-0.02608067,0.09700539,-0.2606071,-0.4210194,-0.6181727
0.8134846,-0.2794171,-0.2042154,-0.1356943,0.03030642,0.04521827,-0.2242526,-0.3093851,-0.6778066
0.7726566,-0.2267982,-0.2757808,-0.1765737,0.08334868,-0.02648148,-0.3611895,-0.1228489,-0.6513002
0.7767526,-0.2152613,-0.2711867,-0.1725415,0.09535661,-0.02205789,-0.4348379,0.1770397,-0.662638
0.7260569,-0.1837251,-0.2430229,-0.2233034,0.1274022,0.005902844,-0.5730392,0.3805833,-0.6256714
0.7134453,-0.1334954,-0.2065548,-0.2359727,0.1781696,0.04213867,-0.63885,0.2208162,-0.495888
0.7220185,-0.09913897,-0.1944622,-0.2274379,0.2130805,0.05397124,-0.5240029,0.0937724,-0.3037611
0.7428331,-0.08328818,-0.1998628,-0.2066317,0.2294899,0.04828343,-0.572073,-0.07112206,-0.1401942
0.7704933,-0.09546122,-0.206851,-0.1789412,0.2178668,0.0409811,-0.6245761,-0.3655814,-0.1420064
0.7657697,-0.1038514,-0.2563713,-0.1835885,0.2100055,-0.008879387,-0.6842956,-0.4176952,-0.205988
0.8083073,-0.1014173,-0.2958298,-0.1409228,0.2129364,-0.04870209,-0.8742837,-0.3460462,-0.2396818
0.8791545,-0.1326329,-0.2881682,-0.06989216,0.1821758,-0.04142482,-0.8541386,-0.3142245,-0.2331051
0.9422925,-0.202012,-0.2669825,-0.00651433,0.1132019,-0.02063899,-0.7517942,-0.2315549,-0.2075402
0.9598348,-0.2548905,-0.2454783,0.01132153,0.06067372,0.0004533243,-0.6608455,-0.1952308,-0.2158444
0.937153,-0.2409705,-0.2390073,-0.01101702,0.07488727,0.00650327,-0.4644313,-0.2711378,-0.1388238
0.9865423,-0.1863214,-0.2365066,0.0387602,0.1297722,0.00857541,-0.3551684,-0.3601923,0.01832622
1.068895,-0.1550451,-0.2293102,0.1215396,0.1612249,0.01533696,-0.2766849,-0.4545384,0.1402792
1.182042,-0.1898057,-0.2388301,0.2351448,0.1265781,0.005377233,-0.1876464,-0.5119912,0.2105217
1.326049,-0.2660365,-0.2782409,0.379627,0.05039601,-0.03447726,-0.1172751,-0.4433153,0.1919207
1.377111,-0.3256289,-0.3620824,0.4311629,-0.009212621,-0.1187634,0.04416228,-0.3819112,0.2043897
1.372401,-0.3518275,-0.5043162,0.426906,-0.03548907,-0.261437,0.104693,-0.3218772,0.2621185
1.406274,-0.3153379,-0.6131277,0.4611885,0.0008664424,-0.3706725,-0.1381254,-0.1077038,0.1640502
1.399994,-0.2817013,-0.5547781,0.4552529,0.03431757,-0.3127162,-0.3872192,0.1409384,-0.001127334
1.166947,-0.3730501,-0.4741044,0.222468,-0.0572639,-0.2323899,-0.2870665,0.3000552,-0.02875692
0.8422424,-0.4630811,-0.5131421,-0.1020667,-0.1475694,-0.2717166,-0.1532363,0.4174855,0.1116327
0.8318986,-0.437701,-0.5044204,-0.1123319,-0.1224972,-0.2632156,-0.194148,0.5916583,0.2778255
1.050182,-0.4069872,-0.4543604,0.1059474,-0.09211511,-0.213299,-0.05110215,0.8730376,0.3003561
1.159108,-0.369252,-0.4409687,0.2147929,-0.05472763,-0.1999666,0.1551862,1.178883,0.3298823
1.129974,-0.297475,-0.372152,0.1854991,0.01669137,-0.1311202,0.2177176,1.337784,0.442383
0.9414268,-0.2785792,-0.2790846,-0.003287317,0.0352219,-0.0379329,0.2080355,1.090949,0.4624529
0.727922,-0.2751671,-0.1886806,-0.2171089,0.03826181,0.05267881,0.0964577,0.5785412,0.4918932
0.7570959,-0.2499144,-0.176,-0.1883184,0.06313527,0.06564791,0.05148283,0.3625671,0.5733939
0.8014727,-0.2497559,-0.2331842,-0.1443768,0.06290621,0.008824405,0.08597505,0.431234,0.6065435
0.7029243,-0.2224245,-0.1762523,-0.2433981,0.0898402,0.06618058,0.1293143,0.4861246,0.655755
0.704238,-0.2015129,-0.1641949,-0.2425804,0.1103423,0.07871784,0.2254914,0.5628011,0.635613
0.7217873,-0.23843,-0.2193106,-0.2255355,0.07300092,0.02412907,0.256593,0.6217179,0.5542251
0.6614141,-0.2343865,-0.1870465,-0.286407,0.07660278,0.05695972,0.2599193,0.603599,0.5028366
0.657812,-0.2307707,-0.1929385,-0.2904872,0.07975809,0.05166685,0.2290307,0.5271593,0.4042132
0.6536776,-0.2592569,-0.1347869,-0.2950648,0.05079132,0.1104433,0.160857,0.428616,0.3285198
0.6501204,-0.2621846,-0.03293803,-0.2990167,0.04736237,0.2129342,0.1513001,0.3574311,0.2606846
0.6938067,-0.2719889,-0.06326111,-0.255664,0.03703637,0.1832596,0.05749625,0.2695625,0.2024903
0.7316903,-0.2532503,-0.09046911,-0.2180424,0.05523351,0.1566949,-0.1495286,0.1366574,0.2577662
0.7932523,-0.2393859,-0.1158692,-0.1566633,0.06853697,0.1319228,-0.3269092,-0.01111406,0.2791671
0.8601118,-0.2982461,-0.1350892,-0.08990308,0.009096586,0.1133072,-0.3188276,-0.04613332,0.2601763
0.9255581,-0.3762299,-0.0731359,-0.02447202,-0.06948497,0.1758347,-0.1855064,0.02939612,0.2424091
0.982002,-0.4300161,-0.02600462,0.03203756,-0.1238821,0.2235025,-0.1509979,0.1246784,0.1636588
0.9471238,-0.4133962,-0.03245651,-0.002699534,-0.1078792,0.217541,-0.1543252,0.2677238,0.1427385
0.9236997,-0.3820981,-0.03381411,-0.02591332,-0.07719691,0.2166185,-0.1576526,0.2979302,0.1931194
0.9766316,-0.3650939,0.007612936,0.02729278,-0.06080066,0.2584167,-0.1634023,0.2102035,0.2583505
1.037976,-0.3085371,0.01069581,0.08896878,-0.004839496,0.2617981,-0.1488878,0.1781313,0.313302
1.155784,-0.2973648,-0.04456163,0.2071589,0.005751828,0.2067583,-0.1772888,0.1174016,0.2997199
1.32699,-0.3679865,-0.1328545,0.3787821,-0.0654348,0.118596,-0.182247,-0.02330957,0.3075451
1.500621,-0.5100794,-0.2486024,0.5528481,-0.2080736,0.002889285,-0.1612425,-0.1390584,0.3307148
1.565579,-0.6411844,-0.2629451,0.6182326,-0.3396981,-0.01149857,-0.07954369,-0.1043411,0.1984878
1.362654,-0.5862882,-0.2410806,0.4156967,-0.2852824,0.01024004,0.01447202,-0.08149405,-0.01620161
1.085866,-0.4772898,-0.2597279,0.1392374,-0.1767126,-0.008607571,-0.1403078,-0.2609124,-0.1031958
0.9641793,-0.4413752,-0.2303573,0.01780866,-0.1411651,0.0204942,-0.3551557,-0.3823795,-0.1031882
0.8762339,-0.3663542,-0.2352973,-0.06995092,-0.06644489,0.01522199,-0.425263,-0.3598706,-0.1547775
0.8237669,-0.342696,-0.2611326,-0.1222985,-0.04301972,-0.01100372,-0.5730062,-0.391077,-0.2501852
0.884838,-0.3957461,-0.242173,-0.06116599,-0.09623564,0.007512118,-0.6808188,-0.463271,-0.3078744
0.9260029,-0.3927867,-0.2352409,-0.01998951,-0.09337553,0.01395216,-0.5334786,-0.4787184,-0.2625834
0.9129528,-0.390893,-0.2028832,-0.03307154,-0.0915147,0.04577374,-0.315141,-0.4564365,-0.2268951
0.872835,-0.3792547,-0.1710384,-0.07325982,-0.07984284,0.07704125,-0.1052149,-0.4529568,-0.3255283
0.7881187,-0.3279301,-0.1925909,-0.1580789,-0.02841908,0.05487213,-0.0175874,-0.3966765,-0.4441264
0.7490785,-0.2885239,-0.2252273,-0.1972455,0.01114947,0.02158122,-0.157522,-0.2482826,-0.495523
0.7415349,-0.2089136,-0.2604916,-0.2049285,0.09098065,-0.01437275,-0.2383774,-0.1180919,-0.4665262
0.7004473,-0.1320698,-0.2768253,-0.2461567,0.168096,-0.03142708,-0.3029923,-0.1265253,-0.3658625
0.6981001,-0.131895,-0.2576025,-0.2486337,0.1685824,-0.01295091,-0.4235278,-0.2424951,-0.2856481
0.6984583,-0.1734372,-0.2351043,-0.2483824,0.1273803,0.008779595,-0.408023,-0.2821461,-0.2646067
0.6682181,-0.1993813,-0.2293344,-0.2786949,0.1017941,0.01376436,-0.4796424,-0.2525164,-0.284822
0.6970169,-0.184258,-0.2324843,-0.2499229,0.1172849,0.009815155,-0.5621912,-0.2225157,-0.269825
0.7876628,-0.1766178,-0.2377722,-0.1592483,0.1252942,0.003716248,-0.4838215,-0.1617364,-0.215693
0.9287052,-0.1688094,-0.2440703,-0.0181163,0.1334663,-0.00340179,-0.4773261,-0.1193251,-0.2071678
1.020295,-0.1591197,-0.2310793,0.07362387,0.1435068,0.008763251,-0.4243683,-0.1243119,-0.1875516
0.9391404,-0.1694518,-0.2268903,-0.007323948,0.1335058,0.01212261,-0.346862,-0.2520788,-0.1322382
0.872198,-0.1740385,-0.2727797,-0.07400895,0.1292237,-0.03459767,-0.4453685,-0.4073716,-0.05129526
0.9336993,-0.2051021,-0.3064626,-0.01220282,0.09843263,-0.06910944,-0.4960728,-0.3370624,0.0255191
1.00818,-0.2481393,-0.2542571,0.06262711,0.05563206,-0.0177268,-0.3431231,-0.1493346,0.001205888
1.11066,-0.2588717,-0.1794632,0.1654957,0.04509817,0.0562537,-0.1913287,-0.0231172,-0.06482768
1.161647,-0.2400559,-0.1917798,0.2168997,0.06407351,0.04313425,-0.2617627,-0.03722596,-0.1340359
1.116485,-0.2212387,-0.2726205,0.1721727,0.0830107,-0.03849909,-0.4224596,-0.2522142,-0.1559103
1.176412,-0.2651363,-0.3739697,0.2325387,0.03919281,-0.1406287,-0.4679855,-0.4902766,-0.06090063
1.298417,-0.3553066,-0.4574277,0.3549734,-0.05093803,-0.2248491,-0.2991147,-0.5836753,0.020192
1.393331,-0.4517195,-0.5081031,0.4502933,-0.1473481,-0.2762589,0.02369918,-0.5002663,0.04636402
1.480793,-0.4857827,-0.5869137,0.5381173,-0.1814377,-0.3557631,0.1475063,-0.2079701,0.03171468
1.390351,-0.3925703,-0.5929631,0.4479703,-0.08827158,-0.3624502,0.1302142,0.08610823,0.0441144
1.154107,-0.3092392,-0.5006368,0.2119349,-0.004998771,-0.2706908,0.1696247,0.1098924,0.2365944
0.9776311,-0.3148922,-0.4844731,0.03557197,-0.01071798,-0.2550104,0.1314071,0.1603038,0.464646
0.9356156,-0.2972228,-0.4853884,-0.006428561,0.006878782,-0.2563162,0.1207354,0.5006093,0.5356053
0.9962753,-0.2540004,-0.4621941,0.05415336,0.05002263,-0.2334118,0.1527827,0.7485168,0.5796175
0.9841699,-0.2330876,-0.425911,0.0418829,0.07085021,-0.1973125,0.2120103,0.9224208,0.755426
0.9320689,-0.2081354,-0.3005336,-0.01046548,0.09570806,-0.07200923,0.3160353,1.077865,0.8456076
0.8907737,-0.2490893,-0.2177234,-0.05208421,0.05464778,0.01083528,0.1800007,0.7642032,0.6589273
0.7723083,-0.3574552,-0.2027599,-0.1709408,-0.05383843,0.02593594,0.04366607,0.3448086,0.4511349
0.7702833,-0.3759018,-0.1876953,-0.1734134,-0.07241799,0.04123204,0.2280685,0.2391972,0.3804573
0.8408993,-0.3542761,-0.2139596,-0.1032881,-0.05093417,0.01528459,0.4785727,0.2129766,0.3986115
0.8013592,-0.3783486,-0.2236213,-0.1433504,-0.07515346,0.006017007,0.7371539,0.3356731,0.4148356
0.7772008,-0.3717924,-0.2297464,-0.1680517,-0.0687446,0.0003556205,0.924731,0.5860685,0.3527993
0.715573,-0.3601824,-0.207576,-0.230232,-0.05727868,0.02305283,0.8870952,0.7155771,0.3153319
0.6557138,-0.3571792,-0.1415183,-0.2906405,-0.05441277,0.08969326,0.8383374,0.5318211,0.2758148
0.69666,-0.3229365,-0.1452591,-0.2502263,-0.02029815,0.08658268,0.8370284,0.218317,0.2305293
0.6847411,-0.2623929,-0.1368192,-0.2626462,0.0401281,0.09569097,0.740013,0.145677,0.2465061
0.6731147,-0.1914444,-0.1278808,-0.2747298,0.1109685,0.1053266,0.5971743,-0.001890294,0.2311211
0.6955058,-0.1743524,-0.1988229,-0.2527404,0.1279578,0.03510181,0.3019605,-0.2599244,0.2588903
0.6824899,-0.1982061,-0.2195892,-0.2660919,0.1040011,0.01506613,-0.1731592,-0.2888327,0.3044173
0.7103179,-0.2800161,-0.1772688,-0.2385237,0.02208278,0.05812533,-0.3181342,-0.1981959,0.2235572
0.7702569,-0.4616721,-0.1157646,-0.1787612,-0.1596884,0.1203716,-0.03461352,0.05090608,0.07195021
0.8254488,-0.5444405,-0.0614696,-0.1236573,-0.2425745,0.175405,0.164594,0.300342,-0.1135092
0.8481536,-0.4692578,-0.06822386,-0.1009503,-0.1675027,0.1693764,0.132922,0.3053466,-0.1843149
0.8471415,-0.4221077,-0.09088596,-0.1018703,-0.1204474,0.1474178,0.05126764,0.2940074,-0.09633957
0.9142331,-0.4025628,-0.09873858,-0.03459844,-0.1009741,0.1402381,0.00700302,0.341923,-0.05186446
1.026926,-0.3656862,-0.07415174,0.07835837,-0.0641416,0.1654599,-0.02005102,0.4213833,-0.05292141
1.141801,-0.3398956,-0.02826161,0.1935737,-0.03836534,0.2119398,-0.06700887,0.5615213,-0.09326917
1.240626,-0.2887079,-0.04061622,0.2928005,0.01283818,0.2001219,-0.2028387,0.6123018,-0.186351
1.285972,-0.2841501,-0.1290159,0.3385938,0.01744064,0.1121986,-0.4438585,0.3743639,-0.1284847
1.349435,-0.4515779,-0.2449107,0.4025279,-0.1499154,-0.003284682,-0.5216856,-0.08237694,0.1689198
1.454248,-0.6921996,-0.2792276,0.5078128,-0.3904352,-0.03725428,-0.1852148,-0.3781987,0.3928248
1.443009,-0.7622654,-0.239532,0.497023,-0.4603583,0.002728094,0.2392849,-0.3401936,0.1363073
1.211449,-0.6053839,-0.2536551,0.2658665,-0.3032771,-0.01116434,0.190908,-0.2446471,-0.2621138
0.8911214,-0.4532566,-0.2837964,-0.05411925,-0.1508796,-0.04112714,-0.1750866,-0.2829126,-0.2132664
0.7645131,-0.4029697,-0.3087686,-0.1804501,-0.1002455,-0.06596814,-0.4751067,-0.2389989,-0.08208912
0.8831128,-0.3689533,-0.3620326,-0.06163011,-0.06580421,-0.1191423,-0.6993343,-0.1808004,-0.1325164
0.9524846,-0.3866561,-0.363222,0.007913343,-0.08300636,-0.1202758,-0.6867173,-0.2999877,-0.1349011
0.915806,-0.4156391,-0.3262503,-0.0286367,-0.1114158,-0.0832743,-0.5751977,-0.3285416,-0.2461086
0.9329282,-0.4092715,-0.2927771,-0.01142549,-0.1044035,-0.04979049,-0.5569947,-0.2612562,-0.3723924
0.9067452,-0.4053897,-0.2512178,-0.03755532,-0.09980757,-0.008234959,-0.4352443,-0.1514948,-0.4386655
0.8393115,-0.358766,-0.2444189,-0.1049675,-0.05240225,-0.001451635,-0.3656947,0.04085387,-0.5723278
0.8072172,-0.3237249,-0.2395043,-0.137066,-0.01651534,0.003437051,-0.332712,0.06875772,-0.5457442
0.7444641,-0.330462,-0.2179864,-0.1998408,-0.02234731,0.02491945,-0.2041414,0.02148615,-0.4742603
0.7132655,-0.2984409,-0.2239645,-0.2310688,0.0106324,0.01889627,-0.1168557,0.01398244,-0.4600634
0.7038644,-0.2556699,-0.2279876,-0.2404954,0.05440907,0.01481846,-0.02710232,-0.07728029,-0.4067112
0.6770163,-0.2316026,-0.2389051,-0.2673532,0.07952118,0.003836524,-0.053609,-0.2266509,-0.4217832
0.6615348,-0.2089045,-0.2554315,-0.2828166,0.1032944,-0.01276349,-0.1581897,-0.3647631,-0.3829399
0.6383866,-0.183692,-0.2339813,-0.3059068,0.1296022,0.008604849,-0.1739046,-0.3961408,-0.3339362
0.6915701,-0.1644117,-0.2245162,-0.2526137,0.1499877,0.01798053,-0.2010946,-0.38682,-0.3425811
0.8007176,-0.1550336,-0.257355,-0.1432954,0.16047,-0.01495479,-0.2173008,-0.3814864,-0.2799325
0.9037945,-0.1615876,-0.277122,-0.0399817,0.1550085,-0.03482436,-0.2556863,-0.2698842,-0.25616
0.9641277,-0.194742,-0.2446729,0.02065402,0.1229247,-0.002482548,-0.2273867,-0.1646461,-0.2570389
0.9033684,-0.2028779,-0.2168284,-0.03974105,0.1158291,0.02525137,-0.1394265,-0.1965867,-0.2383023
0.8857831,-0.1740118,-0.2585405,-0.05690502,0.145698,-0.01657418,-0.2328756,-0.236477,-0.2285306
0.9555721,-0.1558892,-0.2842345,0.0133589,0.164779,-0.04238378,-0.2730601,-0.1749262,-0.1823116
0.9776629,-0.1693453,-0.2326814,0.03597377,0.1522296,0.009052745,-0.1765977,-0.120394,-0.1609647
0.9846187,-0.1875755,-0.1925037,0.04349697,0.134848,0.04911393,-0.1496361,-0.07787651,-0.1433199
0.9968665,-0.152583,-0.2065147,0.05634877,0.1706248,0.03498568,-0.168014,-0.01516585,-0.1067113
1.020227,-0.1158203,-0.2317826,0.08034342,0.2081021,0.009598289,-0.2395804,0.002118606,-0.09146969
1.021839,-0.1258701,-0.2461969,0.08261067,0.1986908,-0.004938258,-0.3099157,0.02307661,-0.05300937
1.004967,-0.1751723,-0.2462503,0.06641,0.1499446,-0.005116454,-0.3117021,-0.05105605,-0.02241646
1.022372,-0.2967722,-0.2200954,0.08449345,0.0288146,0.02091167,-0.1920117,-0.188552,-0.04867796
1.011725,-0.4166415,-0.2139393,0.07452755,-0.0906701,0.02693893,0.08222722,-0.1916051,-0.09093541
1.035047,-0.4331642,-0.3166832,0.09852622,-0.1068876,-0.07593573,0.2942047,-0.2355985,-0.1345278
1.199557,-0.3448722,-0.4941647,0.2637004,-0.01836083,-0.2535468,0.2506266,-0.2914117,-0.2638802
1.440238,-0.2668754,-0.5717365,0.5050228,0.05980707,-0.3312387,-0.001098958,-0.1490451,-0.4958333
1.53306,-0.307081,-0.4962325,0.5984433,0.01971308,-0.2558318,-0.1716304,-0.01651213,-0.6011822
1.355619,-0.3348715,-0.4535069,0.4215335,-0.008022742,-0.2131678,-0.09195433,-0.04903717,-0.373549
1.180886,-0.300393,-0.4923363,0.2472447,0.02645662,-0.2520125,0.006672054,-0.05669498,-0.01873888
1.090431,-0.3137569,-0.4655719,0.1571315,0.01304318,-0.2252085,0.0211431,0.03894078,0.1431396
0.950337,-0.319431,-0.41255,0.01727497,0.00727223,-0.1720843,0.07775281,0.0606906,0.1846025
0.9305446,-0.3040709,-0.4114232,-0.002383182,0.02249103,-0.1707871,0.1044646,0.01571588,0.2168772
1.02605,-0.3197359,-0.4414054,0.09315843,0.006643366,-0.2005268,0.07775332,0.05837423,0.2386353
1.068021,-0.3241899,-0.4849244,0.1350726,0.001967989,-0.2437272,0.2054316,0.3154184,0.3523045
1.066295,-0.3270603,-0.4605958,0.1331972,-0.001159146,-0.2189992,0.4088593,0.7177701,0.459797
0.9907836,-0.3181103,-0.3744385,0.0574455,0.007501731,-0.1323575,0.5113259,0.7825437,0.4593907
0.8627782,-0.2859851,-0.2773867,-0.07088802,0.03930826,-0.03473512,0.5591656,0.5367232,0.4113523
0.8001416,-0.28991,-0.1996539,-0.133933,0.03503709,0.04365078,0.5594658,0.4402871,0.3487422
0.8301776,-0.2920828,-0.2172783,-0.1043744,0.03249159,0.02675481,0.5983094,0.3519497,0.3750763
0.8531621,-0.2682263,-0.2259094,-0.08192447,0.05594999,0.01891873,0.6628004,0.183046,0.4795185
0.8276376,-0.2497678,-0.2089886,-0.10803,0.07398545,0.03669278,0.6804418,0.1781925,0.5997447
0.830096,-0.2097911,-0.2551343,-0.106189,0.1135138,-0.008549188,0.7076273,0.3200871,0.6544723
0.8058131,-0.173291,-0.2188683,-0.1311158,0.1495384,0.02866394,0.6500285,0.4232618,0.5431113
0.7478582,-0.1805594,-0.1570409,-0.1897309,0.1417639,0.09147501,0.5297451,0.4546316,0.4131625
0.7512257,-0.218721,-0.1576504,-0.1870289,0.1030624,0.09187744,0.4205713,0.5415076,0.2928109
0.7418942,-0.2493377,-0.08645839,-0.1970195,0.07186969,0.1641,0.3506158,0.6404753,0.1516789
0.7055133,-0.222278,-0.02763706,-0.2340415,0.09831652,0.2239594,0.3169763,0.6358555,0.08802081
0.6860107,-0.1695241,-0.02742873,-0.2541558,0.1504201,0.2252003,0.08647963,0.5686463,0.03336705
0.6699306,-0.1456088,-0.03071028,-0.270806,0.1736457,0.2229324,-0.2448194,0.5119745,-0.01719752
0.7142703,-0.1481228,-0.05093909,-0.2269833,0.1703996,0.2036852,-0.4412419,0.5342446,-0.07274923
0.7916636,-0.1782937,-0.01130607,-0.1500439,0.1394504,0.2442564,-0.5188139,0.5745444,-0.2094946
0.8486619,-0.2226096,0.04403389,-0.09343015,0.0943079,0.3004794,-0.4643658,0.5809945,-0.3752186
0.9008407,-0.2716254,0.04757853,-0.04156414,0.04441717,0.3048399,-0.3772425,0.5969484,-0.5683334
0.9090328,-0.35416,0.04781456,-0.03361365,-0.0390382,0.3058119,-0.2162351,0.4850311,-0.6974419
0.8765437,-0.4482469,0.02262691,-0.06627508,-0.1340857,0.2812686,0.07580527,0.163996,-0.655516
0.8605012,-0.4803167,-0.03602191,-0.08242267,-0.1671463,0.2231626,0.286009,-0.2144359,-0.5451735
0.9211777,-0.4550933,-0.1320128,-0.02178506,-0.142932,0.1276063,0.3853943,-0.4840925,-0.3537366
1.151954,-0.4495171,-0.2728346,0.2090143,-0.1383712,-0.01289098,0.4876133,-0.5687451,-0.04657202
1.486067,-0.4621197,-0.3827342,0.5432022,-0.151985,-0.1225719,0.7474393,-0.3970005,0.1370048
1.550097,-0.4360506,-0.3602925,0.6073364,-0.1269129,-0.1000077,1.063364,0.3340064,0.07961283
1.13487,-0.3458633,-0.1955665,0.1922146,-0.03770009,0.06475503,1.027812,1.063864,-0.05232322
1.056135,-0.05344331,-0.31949,0.07357707,0.2010701,-0.08195956,-1.076537,0.07822982,0.01804999
1.095119,-0.07155005,-0.3389277,0.1138707,0.1844766,-0.1015772,-1.163743,0.06373449,0.02714088
1.10839,-0.2096851,-0.3518731,0.1285025,0.04783411,-0.1146985,-0.9426788,0.02592546,0.03119884
1.230536,-0.3982427,-0.3788802,0.2520476,-0.139259,-0.1418716,-0.6342244,-0.007918751,0.09488976
1.321824,-0.4520303,-0.4529945,0.344755,-0.1916106,-0.2161352,-0.3990442,0.0009706775,0.1782283
1.445233,-0.4764242,-0.5951396,0.4695834,-0.214591,-0.3584039,-0.4688302,-0.00612155,0.2017533
1.546865,-0.4534104,-0.6919177,0.5726086,-0.1901788,-0.4552663,-0.5405497,-0.0008810288,0.2317601
1.415606,-0.388012,-0.6342008,0.4426917,-0.1233897,-0.3975773,-0.3271945,0.06090243,0.316452
1.176767,-0.4677926,-0.5365681,0.2051177,-0.201782,-0.2998994,-0.1423491,0.2830284,0.381252
0.967313,-0.5094635,-0.4600067,-0.003161407,-0.2420614,-0.2232073,0.01208542,0.5819201,0.4432005
0.8814309,-0.4098845,-0.3328239,-0.08796193,-0.1410815,-0.09580154,0.1862749,0.6754892,0.5348987
0.9748106,-0.3121453,-0.2696148,0.006410221,-0.04192753,-0.03227624,0.2175712,0.6011107,0.5797832
1.024481,-0.2695079,-0.2868478,0.05698886,0.002138745,-0.04910313,0.1266097,0.5895519,0.4473037
0.9793317,-0.2648737,-0.291857,0.01266711,0.008212579,-0.05362145,-0.1002486,0.5578715,0.2436395
0.9564155,-0.2508632,-0.3301959,-0.009500753,0.02366866,-0.09138938,-0.2949595,0.5320005,0.2006539
0.8689499,-0.2615965,-0.2893799,-0.09629303,0.0143818,-0.04992632,-0.2655228,0.5946696,0.2157936
0.8038707,-0.3100025,-0.1968951,-0.1607673,-0.03258141,0.0432772,-0.1192265,0.5870329,0.1731743
0.816513,-0.3623797,-0.2054306,-0.1475791,-0.08352258,0.03552539,0.06477353,0.5935039,0.1383197
0.7601022,-0.3786756,-0.209895,-0.2034925,-0.09838986,0.03190129,0.1183891,0.5995514,0.06764723
0.7034658,-0.3167398,-0.210946,-0.2596683,-0.03503215,0.03173912,0.04904896,0.5133957,-0.04247807
0.6519307,-0.2554648,-0.2127085,-0.3107662,0.02765758,0.03090631,0.06293484,0.4544008,-0.08539983
0.5891447,-0.2457407,-0.1806195,-0.3731231,0.03878631,0.06395846,0.05771617,0.3873243,-0.04013306
0.587786,-0.2495269,-0.1700244,-0.3740441,0.03639036,0.07554264,-0.02047878,0.4552277,0.02724533
0.5790522,-0.2363785,-0.1427942,-0.3823145,0.05090975,0.1037797,-0.1486922,0.5794034,0.08474755
0.591763,-0.1939871,-0.1376211,-0.3690984,0.09464809,0.1099688,-0.3507826,0.4248846,0.13357
0.6489319,-0.1809681,-0.1454365,-0.3113675,0.1089843,0.1031698,-0.5327493,0.2620199,0.1929405
0.7252438,-0.2478188,-0.1257816,-0.2344257,0.04341491,0.1238331,-0.644585,0.2704683,0.2896724
0.8478229,-0.3547092,-0.1305446,-0.1111417,-0.06223391,0.1200623,-0.6280441,0.3857143,0.3119261
