accx,accy,accz,body_accx,body_accy,body_accz,body_gyrox,body_gyroy,body_gyroz
1.420781,0.1721888,0.1390276,0.4566168,0.3603664,-0.07347476,-0.8263155,-0.05959088,-0.4541673
1.19558,0.03426821,0.1184331,0.2318401,0.222739,-0.09492718,-1.151408,-0.1495231,-0.2832688
1.087669,-0.1569691,0.1265012,0.124213,0.03180334,-0.08767529,-0.9367033,-0.1165856,-0.07755443
1.008347,-0.1968511,0.121226,0.04503268,-0.007776941,-0.09372121,-0.7557821,-0.1747924,0.3039097
0.8750527,-0.2222783,0.0814273,-0.08825555,-0.03290492,-0.1342413,-0.4934089,-0.2370686,0.5811535
0.8053906,-0.1974751,0.02974587,-0.158037,-0.007805105,-0.1865903,-0.2680665,-0.1921023,0.58611
0.8208189,-0.1685457,0.0279757,-0.1428382,0.0214185,-0.1889682,-0.3549069,-0.1981618,0.462313
0.818072,-0.1743587,0.035574,-0.1459091,0.01589649,-0.1819111,-0.3102713,-0.1280071,0.3115158
0.8297763,-0.09733859,0.0398779,-0.1346079,0.09320255,-0.1780758,-0.2724911,0.07506709,0.1120159
0.8253104,-0.07054791,0.05533017,-0.139542,0.1202706,-0.1630143,-0.3734704,0.3812297,-0.09716043
0.7577192,-0.07185528,0.03886227,-0.2076527,0.119227,-0.1797906,-0.3734144,0.6732814,-0.1701211
0.7017249,-0.04253664,0.03224442,-0.2642035,0.1487898,-0.1866308,-0.4938615,0.7554976,-0.1713728
0.6953373,-0.06422138,0.08103275,-0.2711687,0.1273236,-0.1379754,-0.5854772,0.7044147,-0.1542847
0.8035963,-0.05795333,0.1357066,-0.1634923,0.1337789,-0.08334308,-0.5607468,0.7121173,-0.08264204
0.9055266,-0.0535755,0.1360782,-0.06213734,0.1383075,-0.0829222,-0.5943406,0.8018349,-0.02987458
0.8302579,-0.04261508,0.1243441,-0.137966,0.1493774,-0.09451821,-0.6289615,0.7939526,0.03702903
0.7247731,-0.00269698,0.1589156,-0.2439884,0.1893587,-0.05972217,-0.7870228,0.5387235,0.03171489
0.7081048,-0.01825048,0.179841,-0.2611626,0.1738168,-0.03848904,-0.9172075,0.1897758,-0.1025072
0.8217771,-0.03532315,0.1550562,-0.147954,0.1566988,-0.06288686,-0.9059151,0.1330447,-0.2203166
0.9853118,-0.04965368,0.1124986,0.01516704,0.1422617,-0.104982,-0.9090167,0.3119304,-0.2972091
0.9725246,-0.0521485,0.07853729,0.002017911,0.1395961,-0.1384077,-0.897368,0.3629032,-0.3061935
0.8853518,-0.0802117,0.07416989,-0.08546671,0.1112958,-0.1421671,-0.9516297,0.4054803,-0.3302322
0.8704762,-0.2697179,0.05585159,-0.1006047,-0.07851367,-0.1598049,-0.9963889,0.4516999,-0.3988852
0.8606466,-0.4736043,0.04963527,-0.1106458,-0.2827634,-0.1652673,-0.9340184,0.4707657,-0.4606038
0.9649997,-0.5227243,0.1825844,-0.006451644,-0.3322933,-0.03149114,-0.8249893,0.6168477,-0.6256585
1.182019,-0.5530757,0.3837092,0.2104591,-0.3630817,0.1705303,-0.6036017,0.5730003,-0.6893148
1.280581,-0.5838128,0.4414417,0.3089551,-0.3942619,0.2292182,-0.3695575,0.3379596,-0.5225982
1.348057,-0.4661304,0.4246379,0.3763919,-0.2770087,0.2134129,-0.3004653,0.1062922,-0.3843809
1.574248,-0.3627316,0.5120882,0.6025497,-0.1740083,0.3018872,-0.4249563,-0.1474964,-0.3228081
1.744095,-0.3331889,0.5571799,0.772343,-0.1448222,0.3480102,-0.5093996,-0.1021864,-0.2448637
1.662927,-0.2037639,0.4228785,0.6910702,-0.0157061,0.2147285,-0.3737606,0.06030488,-0.159628
1.568666,-0.1245617,0.296629,0.5966206,0.06323617,0.08947193,-0.302979,0.1772604,-0.1709768
1.420608,-0.09116128,0.2962115,0.4482638,0.09642216,0.09001101,-0.4667071,0.4837265,-0.1966088
0.9804986,0.04003472,0.3177947,0.007729989,0.2274421,0.1125089,-0.7679933,0.4768097,-0.0590046
0.6714053,0.1317413,0.2994521,-0.3019144,0.3189999,0.0950345,-1.074281,0.1646013,0.1323363
0.6336072,0.1130858,0.2796581,-0.3403742,0.3002082,0.07605821,-1.168333,0.03324778,0.311874
0.536266,0.03910959,0.267584,-0.4384627,0.226093,0.06474815,-1.105658,-0.08058403,0.4382189
0.4942071,-0.004192092,0.2367845,-0.4813261,0.1826366,0.03465737,-1.099489,-0.1496252,0.4452995
0.4871625,-0.03457535,0.2153692,-0.489203,0.1520736,0.01389497,-1.051571,-0.261659,0.417376
0.4597985,-0.06046488,0.2124589,-0.5173978,0.125973,0.01158266,-0.8884026,-0.4496346,0.2828539
0.5201244,-0.06204158,0.2122207,-0.4578735,0.1241492,0.01188904,-0.7136834,-0.4338069,0.005701327
0.5748626,-0.120714,0.2410186,-0.4038828,0.06519088,0.04117977,-0.4883941,-0.4738235,-0.3017273
0.6715487,-0.1650992,0.2670309,-0.3078702,0.02047992,0.06763394,-0.3086014,-0.549638,-0.5565112
0.7691179,-0.1769888,0.2576924,-0.2108859,0.00822603,0.05868625,-0.3100988,-0.5432272,-0.6522593
0.8310273,-0.1621399,0.2244785,-0.1494639,0.02267461,0.02581194,-0.3227554,-0.6065561,-0.6287183
0.9429805,-0.07963062,0.1676276,-0.03789732,0.10475,-0.03074973,-0.3460159,-0.4587441,-0.5089002
0.9563422,-0.02770188,0.1505931,-0.0248224,0.1562113,-0.04754237,-0.4271695,-0.2749167,-0.28083
0.8961073,-0.01824672,0.2113908,-0.0852481,0.165163,0.01345373,-0.3950536,-0.3022462,-0.1167248
0.8746205,-0.07918346,0.2765401,-0.106833,0.1036831,0.07876107,-0.3280249,-0.2235821,-0.06168828
0.8881232,-0.1777659,0.2818324,-0.09333785,0.004515951,0.08417139,-0.3318944,-0.07063906,-0.02432772
1.012759,-0.2719363,0.231752,0.03137882,-0.09027852,0.03416811,-0.3170283,0.141394,0.01274307
1.251759,-0.4291386,0.1123082,0.270541,-0.2481373,-0.08523885,-0.3323799,0.5935283,0.06381254
1.451921,-0.4927618,-0.02670711,0.4709335,-0.3124365,-0.2242529,-0.3495272,1.005552,0.09618319
1.451987,-0.4470064,0.007439633,0.4712731,-0.2673604,-0.1901309,-0.2258402,0.928267,0.04532754
1.407021,-0.4442837,0.1553852,0.4265984,-0.2653035,-0.04222545,0.02378233,0.4736947,-0.03051979
1.44116,-0.4094918,0.2242059,0.4610207,-0.2311493,0.02654701,0.3157594,-0.03272369,-0.1166188
1.423717,-0.2589221,0.2572539,0.4438298,-0.08117762,0.05954038,0.4143869,-0.4755908,-0.269506
1.450948,-0.06043343,0.2087063,0.4712594,0.1167584,0.01093087,0.1742765,-0.5275167,-0.3211302
1.486445,0.02415957,0.1079617,0.5068815,0.2008419,-0.08988308,-0.1816079,-0.2140819,-0.193026
1.339356,-0.001048934,0.08879809,0.3598242,0.1751586,-0.1091209,-0.4976668,0.02845139,-0.03046206
1.100978,-0.0159083,0.06542037,0.1213715,0.1598488,-0.1325726,-0.7407351,0.08020285,0.1924597
0.9195216,-0.04591779,0.07045968,-0.06026999,0.129404,-0.1276007,-0.8426654,-0.02007252,0.4452017
0.8598279,-0.08732451,0.09713185,-0.1202545,0.08757008,-0.1009833,-0.7913439,-0.07796791,0.5796813
0.7685497,-0.107747,0.07325762,-0.211916,0.06672333,-0.1248943,-0.6385103,-0.07944333,0.6084612
0.675341,-0.117612,0.08518243,-0.3055842,0.05643374,-0.1129835,-0.4571004,0.004819195,0.5752987
0.7608765,-0.1228036,0.07391263,-0.2205653,0.05081516,-0.1242403,-0.2125915,0.3043948,0.50834
0.7535237,-0.1701945,0.05877677,-0.2284731,0.002993774,-0.1393316,0.05622953,0.4249005,0.3891129
0.7017435,-0.18935,0.07591499,-0.2808301,-0.01659569,-0.1221133,0.1992536,0.4234165,0.1863328
0.7765339,-0.1005415,0.05754031,-0.2066224,0.07177631,-0.1403682,0.2083289,0.6037149,0.008383296
0.7473103,-0.02867696,0.07902113,-0.2364202,0.1432012,-0.1187245,0.100782,0.6639749,-0.05221791
0.7423498,-0.01776943,0.1041081,-0.2419335,0.1536623,-0.09342869,-0.1039343,0.5165746,-0.0114173
0.7743913,0.01937469,0.1123914,-0.2104114,0.1903475,-0.0848889,-0.3459091,0.3246249,0.04543116
0.7397526,0.07228665,0.1292506,-0.2455254,0.2427811,-0.06772508,-0.5376035,0.2244108,0.06583611
0.7782438,0.0488824,0.1108193,-0.2074553,0.2188709,-0.0858039,-0.6005883,0.1564652,0.06159858
0.7746464,-0.01811744,0.1205483,-0.2114112,0.1513298,-0.07567486,-0.6054101,0.0476221,-0.02973504
0.7741852,-0.03803868,0.1208534,-0.2121608,0.1308265,-0.0749229,-0.5933983,0.1137989,-0.1541622
0.8494589,-0.1734119,0.08603027,-0.1370991,-0.005171788,-0.1092526,-0.493843,0.2959576,-0.2062721
0.899419,-0.4610094,0.09912232,-0.08727084,-0.2934343,-0.09562062,-0.2769711,0.4880298,-0.3233779
0.9837964,-0.6350691,0.2085905,-0.00294501,-0.468186,0.01443341,-0.06322133,0.5929257,-0.6147684
1.09371,-0.6275505,0.4020541,0.1069935,-0.461365,0.2085248,0.01498752,0.2658763,-0.8251037
1.28737,-0.5247893,0.5001983,0.3007461,-0.3592823,0.3073283,0.0501651,-0.3232542,-0.6348443
1.590318,-0.4101939,0.4943777,0.6038378,-0.2453255,0.3021823,0.07172382,-0.5806981,-0.3017468
1.864251,-0.3395947,0.4870986,0.8779359,-0.1753102,0.2955752,0.06299204,-0.3492442,-0.1273093
1.944204,-0.2875576,0.4120193,0.9580386,-0.1237935,0.2211487,0.1066882,0.06897641,0.01099069
1.733606,-0.22203,0.3331215,0.7475312,-0.05871824,0.1428711,0.09579203,0.4607683,0.03273576
1.398123,-0.1085949,0.2998838,0.4120405,0.05433323,0.1102121,-0.0556946,0.648125,0.02384039
1.007258,0.0180601,0.2828421,0.02104996,0.1806691,0.09370213,-0.324033,0.4423717,0.1681681
0.6738781,0.0782335,0.2757713,-0.312576,0.2405783,0.08711246,-0.6583818,0.1967177,0.3208736
0.5443855,0.07055494,0.2112842,-0.4424206,0.2326772,0.023054,-0.8667573,0.1047147,0.4893885
0.4620624,0.04983994,0.1820172,-0.5251749,0.2117672,-0.005836825,-0.8763158,-0.08788757,0.5317447
0.4596816,0.0006484934,0.2197074,-0.5280348,0.1623957,0.03217852,-0.7876464,-0.2332412,0.4134487
0.4856333,-0.09526767,0.2229428,-0.502579,0.06630459,0.03569016,-0.7186829,-0.3365275,0.2934178
0.4535733,-0.1300131,0.2424398,-0.5351222,0.0313835,0.05541562,-0.6759579,-0.4795389,0.007431671
0.5438087,-0.1250594,0.2457778,-0.4453306,0.03615806,0.05893483,-0.5780157,-0.5238541,-0.2693316
0.6316975,-0.1641488,0.2114842,-0.3578234,-0.003114796,0.02477537,-0.4701671,-0.5822665,-0.4004126
0.699004,-0.185439,0.2064092,-0.2908187,-0.02459271,0.01978849,-0.3941309,-0.5052029,-0.5275582
0.8273553,-0.1878763,0.1927331,-0.1626781,-0.02722066,0.006156343,-0.3926801,-0.3459295,-0.5126367
0.879807,-0.1666519,0.1892382,-0.1103401,-0.006188015,0.002663645,-0.452052,-0.3229699,-0.4246831
0.9403905,-0.101712,0.2153505,-0.04977263,0.05856001,0.02873872,-0.4522096,-0.1972593,-0.3573135
0.9766634,-0.07683145,0.239074,-0.01342082,0.08324774,0.05238781,-0.4218502,-0.08252836,-0.2896777
0.9100345,-0.09837841,0.2526748,-0.0798806,0.06150452,0.06587785,-0.3328624,-0.02960819,-0.2756742
0.8547794,-0.1036736,0.2466994,-0.1348803,0.0560069,0.05975534,-0.1969287,0.07349431,-0.2584408
0.8448371,-0.1162746,0.233289,-0.1444829,0.04319507,0.04616145,-0.1941064,0.1544945,-0.293004
1.022141,-0.2144678,0.1624105,0.03324405,-0.05521788,-0.02493592,-0.3361305,0.4124776,-0.3065279
1.3768,-0.3736589,0.04728473,0.3884024,-0.2146354,-0.1403129,-0.4525744,0.7092933,-0.1742296
1.610077,-0.4455512,0.02098528,0.6222362,-0.2867527,-0.1668887,-0.3350557,0.6912653,-0.0762385
1.617247,-0.4212785,0.07675804,0.6299931,-0.2626914,-0.1114082,-0.103967,0.4532482,-0.1013737
1.569986,-0.3860534,0.119118,0.5833122,-0.2276511,-0.06934749,0.04759424,0.1097711,-0.1659596
1.594951,-0.2598183,0.1267584,0.6088195,-0.1015635,-0.06200718,0.1234603,-0.2562585,-0.2332672
1.567797,-0.05105888,0.1331056,0.5821407,0.1070908,-0.05595636,-0.1512063,-0.2538607,-0.3187801
1.442496,0.04298172,0.172344,0.4572198,0.2010658,-0.01700738,-0.6811959,-0.02153973,-0.2526423
1.306789,0.007622113,0.2070632,0.3217792,0.1656712,0.0174316,-0.9385173,-0.09564014,0.01815717
1.190388,-0.03635025,0.1478032,0.2055185,0.1216837,-0.04209886,-0.9688369,-0.1065466,0.2350824
1.097832,-0.08447505,0.0487749,0.11297,0.07355482,-0.1413863,-0.9705367,-0.04921361,0.4143722
0.947013,-0.1308409,0.03485667,-0.03797152,0.02719022,-0.155548,-0.9244525,-0.1998968,0.5093428
0.8219454,-0.1246304,0.02617152,-0.1632839,0.03340388,-0.1644544,-0.8696352,-0.1395069,0.4559533
0.8206135,-0.1130557,-0.006544176,-0.1649692,0.04498158,-0.1973617,-0.8479441,-0.09540029,0.4433069
0.820966,-0.1170003,0.009461341,-0.165062,0.04103793,-0.1815106,-0.8583953,-0.07837025,0.3539528
0.8271284,-0.07231,-0.01061063,-0.1594205,0.08572474,-0.2016924,-0.8522725,0.137527,0.2068555
0.8359907,-0.03125391,-0.04672936,-0.1511395,0.1267698,-0.2378691,-0.8942007,0.3450548,0.0770978
0.8568044,-0.05105023,-0.03452252,-0.1309536,0.1069503,-0.2256607,-1.051123,0.7441455,-0.1385663
0.9019961,-0.06481707,-0.0394939,-0.08642399,0.09314346,-0.2305638,-1.229897,0.9827345,-0.2647539
0.8368103,-0.05152636,-0.03228015,-0.1522958,0.1063733,-0.2232081,-1.368869,0.871262,-0.2784978
0.779828,-0.04808429,-0.0009225353,-0.2099775,0.10973,-0.1916291,-1.445358,0.856767,-0.2246214
0.8401835,-0.04332795,0.01309874,-0.1503234,0.1143731,-0.1773029,-1.502794,0.8579421,-0.09762311
0.8958334,-0.02744931,0.02742918,-0.09536629,0.1301069,-0.1625811,-1.530319,0.9237856,-0.0005401553
0.9054102,-0.03462767,0.02390552,-0.08646567,0.1227487,-0.1656255,-1.481549,1.001656,0.05718994
0.8139512,-0.04219098,0.02555283,-0.178578,0.1149672,-0.1634102,-1.472523,0.8037376,-0.04398268
0.662357,-0.02598205,0.1117571,-0.3307947,0.1309167,-0.07654921,-1.493479,0.4263321,-0.2347457
0.6477741,-0.03041133,0.2174684,-0.345957,0.126184,0.02990472,-1.453364,0.1335744,-0.2986505
0.8350083,-0.0532253,0.2082909,-0.1592456,0.1030203,0.02154938,-1.30966,0.1419965,-0.2782607
1.039248,-0.06440476,0.1216875,0.04453661,0.09144328,-0.06416047,-1.083832,0.2922162,-0.192247
1.034129,-0.02799844,0.06197962,0.03902734,0.1274034,-0.1229096,-1.046899,0.3150216,-0.1085019
0.879128,0.006915351,0.0473977,-0.1163017,0.161821,-0.1364706,-1.240449,0.1638986,-0.1049337
0.828217,-0.1137253,0.0725779,-0.1674793,0.0406329,-0.1102084,-1.398552,0.05390856,-0.1807394
1.005525,-0.3691021,0.1007824,0.00962514,-0.2153408,-0.08086233,-1.423959,0.3113204,-0.4390715
1.219255,-0.5891047,0.1369097,0.2232119,-0.4359794,-0.04353625,-1.261484,0.643633,-0.8885696
1.250102,-0.6543727,0.2600363,0.2539689,-0.5019024,0.08084148,-0.9850598,0.6080236,-1.291423
1.330897,-0.5898287,0.4318776,0.3347102,-0.4380067,0.2539771,-0.8990422,0.3647195,-1.40184
1.627681,-0.4618066,0.4985686,0.6314585,-0.3106021,0.3219906,-1.2045,0.02038985,-1.303494
1.839036,-0.2445505,0.4048766,0.8427691,-0.09391465,0.2296305,-1.730191,-0.2440864,-1.071908
1.866254,-0.1318754,0.2461334,0.8698967,0.01824895,0.07221163,-1.988751,0.1271594,-0.6613447
1.766233,-0.2339543,0.1114164,0.7697026,-0.08428289,-0.0611993,-1.89861,0.8037688,-0.3547852
1.45351,-0.2380809,0.08155981,0.4566893,-0.08880454,-0.08977148,-1.863245,1.043532,-0.2487946
1.044496,-0.1339275,0.1456646,0.04724702,0.01501185,-0.02440329,-1.959123,1.054452,-0.1401048
0.7503368,-0.09035291,0.1522724,-0.2474798,0.05830567,-0.01655216,-2.082814,1.029366,-0.06122472
0.6428483,-0.06474584,0.169715,-0.3556603,0.08368354,0.002112843,-2.24551,0.9098638,-0.03874034
0.622589,-0.1338852,0.2213914,-0.3767112,0.01436049,0.05498918,-2.265177,0.8171151,-0.06535782
0.6093507,-0.2384474,0.1845299,-0.3908134,-0.09034442,0.01930239,-2.056093,0.7011541,-0.1285182
0.637212,-0.2647003,0.1994752,-0.3638608,-0.1166998,0.03539396,-1.765922,0.4934565,-0.1363406
0.642844,-0.2870412,0.2311309,-0.3591575,-0.139101,0.0681646,-1.412957,0.163578,-0.1809708
0.6736662,-0.277424,0.1979299,-0.3292612,-0.1294983,0.03604421,-1.114724,-0.07928704,-0.2886208
0.7212382,-0.2501726,0.2135039,-0.2825925,-0.1022123,0.05266133,-0.983925,-0.1718647,-0.3581371
0.6835263,-0.2313653,0.1940685,-0.3211681,-0.08331903,0.03422899,-0.8657833,-0.3669821,-0.4282167
0.6883313,-0.1850713,0.1708169,-0.3171718,-0.03688702,0.0119387,-0.7706572,-0.4376572,-0.4669047
0.7165037,-0.1510215,0.1928437,-0.2897388,-0.002648362,0.03488385,-0.7038275,-0.3303628,-0.490474
0.7252949,-0.1076153,0.1821938,-0.2816051,0.04099453,0.02510879,-0.6129493,-0.3034993,-0.5306585
0.7583062,-0.07248643,0.1834173,-0.2491589,0.07640257,0.02716295,-0.5806152,-0.3606219,-0.44299
0.7596143,-0.07767382,0.1773568,-0.2483148,0.07153043,0.02188844,-0.4928243,-0.4670918,-0.3131385
0.7688898,-0.08126914,0.1725155,-0.2393953,0.06827935,0.01778833,-0.4101419,-0.501915,-0.2862911
0.7483227,-0.08290605,0.1874975,-0.2602047,0.067009,0.03346679,-0.491803,-0.5366103,-0.3047379
0.7148328,-0.05397088,0.2017533,-0.2938174,0.0963267,0.04837415,-0.5552796,-0.6038226,-0.3467142
0.7928914,-0.02319431,0.2343528,-0.215757,0.1274951,0.08157976,-0.5596856,-0.5424709,-0.3914035
0.8985902,-0.05272789,0.2255114,-0.1099284,0.09835565,0.07329722,-0.5525258,-0.3385339,-0.4165157
0.9408825,-0.1051923,0.1988589,-0.06737942,0.04628104,0.04715478,-0.5087892,-0.02567205,-0.3877278
0.9487986,-0.1892399,0.192279,-0.05908452,-0.03738531,0.04103511,-0.4749935,0.1052524,-0.3267773
1.041807,-0.3522618,0.1494481,0.03441831,-0.2000343,-0.001385226,-0.388681,0.1312884,-0.28292
1.271519,-0.5011232,0.05906254,0.2647289,-0.3485251,-0.09140781,-0.2472506,0.4169848,-0.1468679
1.469402,-0.4767706,-0.01996125,0.4632972,-0.3237921,-0.1701112,-0.1593789,0.588638,0.03131268
1.498433,-0.3728173,0.06366387,0.493076,-0.2194346,-0.08620039,-0.04888223,0.3930161,0.1185004
1.449176,-0.3495807,0.2457279,0.444598,-0.1957588,0.09612129,0.1358649,0.05727634,0.1646809
1.508811,-0.3145413,0.2902239,0.5050142,-0.1602378,0.1408482,0.234261,-0.3236298,0.08656434
1.666506,-0.236476,0.2444333,0.663466,-0.0816441,0.09525853,0.2257983,-0.4831513,-0.1142675
1.72933,-0.1626551,0.1894329,0.7269911,-0.007246831,0.04042515,0.1124343,-0.1861788,-0.1653872
1.521599,-0.08724335,0.1093474,0.5198738,0.06878653,-0.03952852,-0.2221585,0.1383228,-0.1028978
1.132777,-0.02430899,0.08326688,0.1315541,0.1323812,-0.06551031,-0.5505328,0.04572108,-0.0546252
0.9246279,0.05809433,0.09117199,-0.07621483,0.2154738,-0.05753538,-0.6894707,-0.2737643,0.1684071
0.8868855,0.04056172,0.0617534,-0.1136946,0.1986468,-0.08690793,-0.7322081,-0.5109042,0.449249
0.8076166,-0.117188,0.01499371,-0.1928065,0.04160679,-0.1336397,-0.6172079,-0.4047007,0.546708
0.7148364,-0.2023808,-0.03209126,-0.28552,-0.04287999,-0.1807078,-0.427891,-0.1089054,0.601534
0.596633,-0.2117083,-0.0315472,-0.403728,-0.05150803,-0.1801493,-0.2036826,-0.03627913,0.6206476
0.5479338,-0.2026197,0.01506673,-0.4524803,-0.04172598,-0.1335146,0.1093906,0.09074463,0.526972
0.5794545,-0.2094855,0.03050561,-0.4210365,-0.04790339,-0.1180411,0.3303153,0.3097083,0.3917006
0.5941265,-0.255663,0.03274547,-0.4064412,-0.0933965,-0.1157471,0.5141718,0.3884073,0.2104964
0.7073084,-0.2364094,0.05620497,-0.2933146,-0.07346064,-0.09220958,0.7092419,0.4977318,0.04287463
0.8449088,-0.2061719,0.07463725,-0.1557325,-0.04254083,-0.073672,0.7797856,0.4822743,0.006507196
0.8837407,-0.1567354,0.07917069,-0.1168721,0.007579014,-0.06900388,0.7343337,0.3583256,0.05605692
0.8009258,-0.00607366,0.08096893,-0.1996069,0.1589232,-0.06704029,0.5747614,0.1839359,0.06642286
0.6878228,0.1379879,0.09759108,-0.3125732,0.3036596,-0.05022138,0.3305608,-0.09549039,0.02807883
0.7412443,0.1554839,0.1065489,-0.2589503,0.3218105,-0.04103517,0.07540842,-0.16054,-0.01333937
0.8079855,0.02094553,0.1001304,-0.1919347,0.1878924,-0.04719417,-0.02170972,-0.1577947,-0.07216616
0.8680871,-0.1334409,0.116709,-0.1314803,0.03408034,-0.03032571,0.06876817,-0.1148629,-0.148288
1.044237,-0.3670262,0.1605621,0.04510186,-0.1989797,0.01384641,0.2440048,0.1184773,-0.2968294
1.166402,-0.6526268,0.3003447,0.1677732,-0.484097,0.1539738,0.5546985,0.1512666,-0.5855623
1.228207,-0.6409667,0.4822976,0.2301483,-0.4719779,0.3362892,0.7372165,-0.02539738,-0.7452268
1.332983,-0.4720302,0.4797892,0.3355406,-0.3025843,0.3341469,0.73216,-0.2314089,-0.4918971
1.547477,-0.3477594,0.4109102,0.5506763,-0.1778401,0.2656207,0.803011,-0.3540787,-0.1411737
1.762756,-0.2315059,0.4534141,0.7665959,-0.06108689,0.3084485,0.7246127,-0.2453883,-0.01065566
1.764524,-0.2082326,0.4510327,0.7689683,-0.0372838,0.3063479,0.469021,-0.0352496,0.07112594
1.622059,-0.1853742,0.4040573,0.627036,-0.01386606,0.2595972,0.2981889,0.1712307,0.1896942
1.383115,-0.1653269,0.3646433,0.3885228,0.006767643,0.2203411,0.2867522,0.2067679,0.2712587
1.117867,-0.1802839,0.2766692,0.1235828,-0.007578778,0.1324503,0.3807261,0.1270999,0.2895032
0.8870625,-0.1257742,0.2774122,-0.1070403,0.04756176,0.1331978,0.3696026,0.08978048,0.320569
0.6428568,-0.07551726,0.3151863,-0.3511837,0.09846536,0.1708957,0.3429443,-0.1820215,0.4657226
0.5413245,-0.04378612,0.2563094,-0.4527532,0.1308524,0.1118605,0.3801908,-0.5081318,0.5585603
0.5403862,-0.02734111,0.2300846,-0.4538017,0.1479543,0.08539465,0.3385948,-0.5550776,0.547189
0.5225133,-0.03506908,0.1972555,-0.4718292,0.1408754,0.05224344,0.318771,-0.4969835,0.5271705
0.5122205,-0.01257394,0.1494737,-0.4822936,0.1640032,0.004061631,0.3058004,-0.4315076,0.4218473
0.4658259,-0.02346288,0.1783278,-0.5288502,0.1537221,0.03244284,0.3148483,-0.4526687,0.2656676
0.5294514,-0.06625816,0.2039476,-0.4653518,0.1115021,0.05752191,0.381848,-0.4582219,0.04906182
0.6688594,-0.1192081,0.2411874,-0.3260136,0.0590891,0.09415725,0.3347745,-0.4017051,-0.1700854
0.742241,-0.1738438,0.2459375,-0.2526282,0.004949147,0.09824164,0.2599605,-0.5641814,-0.1753426
0.8457438,-0.1585193,0.1765723,-0.1490382,0.02072762,0.02815152,0.2226293,-0.6998297,-0.07974486
0.9053129,-0.1508977,0.1615209,-0.08929425,0.0287621,0.0123191,0.2668288,-0.6167522,-0.05146316
0.9015599,-0.1825946,0.1985752,-0.09278482,-0.002561985,0.04854081,0.4502945,-0.5304677,-0.09613203
0.8991426,-0.1775968,0.2397499,-0.09485414,0.002769643,0.08883529,0.5679362,-0.4509004,-0.1389703
0.8799418,-0.1497124,0.2377145,-0.1136235,0.03095054,0.08587487,0.6185315,-0.369659,-0.0951853
0.9199975,-0.1301017,0.2144317,-0.07305523,0.05082122,0.06162376,0.6125892,-0.2074547,-0.06143585
1.068425,-0.2038939,0.2162687,0.07596217,-0.02274688,0.0624511,0.5426298,0.05071793,-0.06133784
1.340665,-0.3647626,0.1233366,0.3488616,-0.1834251,-0.03152887,0.5561895,0.32838,-0.04119839
1.543789,-0.4552061,0.01202429,0.5526961,-0.2737043,-0.1439217,0.6150542,0.5865363,-0.01143132
1.504582,-0.4247834,0.04504636,0.5142227,-0.2431314,-0.1120039,0.7940601,0.5988976,0.0194614
1.483847,-0.2759224,0.1555366,0.4942157,-0.09412204,-0.002631548,0.9783898,0.3235472,-0.05372142
1.573708,-0.07150019,0.2329723,0.5847693,0.1104541,0.07367917,0.8512103,-0.09355816,-0.2235985
1.580273,0.02520175,0.2055156,0.5919659,0.2073146,0.04509323,0.5533998,-0.3949995,-0.3028101
1.457249,0.03115121,0.1668295,0.4694854,0.2134195,0.005274532,0.1922291,-0.2774109,-0.2498572
1.290687,0.06195189,0.194213,0.3033574,0.244362,0.03152394,-0.1396673,-0.1503822,-0.1446884
1.250918,0.0368523,0.1807026,0.2638994,0.2193795,0.01687987,-0.2390598,-0.3124267,0.02757831
1.275263,-0.0508931,0.1434584,0.2884247,0.1317168,-0.02149516,-0.2351095,-0.3277446,0.2970027
1.156317,-0.08629234,0.104985,0.1695225,0.09635906,-0.06109348,-0.1808905,-0.2948854,0.5486725
0.9932555,-0.1446398,0.03702222,0.006368868,0.03800877,-0.1301702,-0.06020821,-0.3141357,0.6779457
0.8831962,-0.1725471,0.04699211,-0.1039136,0.01005403,-0.1212965,0.003691162,-0.1640159,0.7015422
0.814297,-0.1051723,0.08232215,-0.173155,0.07733798,-0.0870373,0.0447831,-0.1325845,0.6815446
0.8207397,-0.1170576,0.04325939,-0.1671573,0.06531957,-0.1271388,0.07926324,-0.08004979,0.6685137
0.8604298,-0.1233446,0.04423917,-0.1279984,0.05885747,-0.1271594,0.09415797,0.1785986,0.588042
0.8958913,-0.08639921,0.0598739,-0.09313924,0.09558569,-0.1124805,0.1024975,0.3690525,0.3933948
0.8913533,-0.1065523,0.047193,-0.0983378,0.07517315,-0.126067,0.07795584,0.5453928,0.1466052
0.8726918,-0.07049029,0.08282889,-0.1177067,0.1109328,-0.09128173,0.0836205,0.5477611,-0.109162
0.8943999,-0.03163312,0.09853479,-0.09674224,0.1494434,-0.0763676,0.07086009,0.4202414,-0.2024044
0.8917886,-0.00938188,0.08278886,-0.1001232,0.1713015,-0.09284395,-0.03794612,0.4293101,-0.04450656
0.8793682,0.02569704,0.06866016,-0.1133299,0.2059369,-0.1076396,-0.1996329,0.4094044,0.1700602
0.834838,-0.022356,0.04220436,-0.1586542,0.1573855,-0.1346964,-0.3552015,0.4106003,0.3269556
0.7252321,-0.05566693,0.05805804,-0.2690514,0.1235178,-0.1193749,-0.3739528,0.3583988,0.3917115
0.6953942,-0.06839034,0.08001534,-0.2996649,0.1101775,-0.09787824,-0.3044239,0.2035405,0.2930266
0.7442783,-0.08506397,0.08527142,-0.251526,0.09282675,-0.09300951,-0.2435086,0.1637737,0.11431
0.7799559,-0.05639626,0.106569,-0.2165497,0.1207579,-0.07202535,-0.1627876,0.1465941,-0.03098542
0.8192496,-0.05597794,0.1065522,-0.1779025,0.1203809,-0.07228181,-0.1378421,0.1298721,-0.142568
0.8583513,-0.03565808,0.1057663,-0.1393846,0.1398469,-0.07323443,-0.1166601,0.06883235,-0.176206
0.8744294,-0.01207067,0.11062,-0.123822,0.1625217,-0.06847572,-0.06543227,-0.06953121,-0.1550538
0.8694324,-0.04727444,0.07427415,-0.129263,0.1263458,-0.1048458,-0.08015996,-0.1387719,-0.1602036
0.8934356,-0.1090325,0.0560114,-0.1056295,0.06355639,-0.1230625,-0.116561,-0.1026559,-0.1933863
1.004971,-0.2939701,0.1594257,0.005611042,-0.1224689,-0.01953223,-0.2240251,0.138747,-0.3919956
1.151009,-0.5032125,0.3140535,0.1514272,-0.3328455,0.1352788,-0.3570915,0.358167,-0.7360608
1.247685,-0.4985735,0.3658773,0.2479441,-0.3293704,0.187345,-0.3063727,0.2031013,-0.8486332
1.403499,-0.3627704,0.3642627,0.4036487,-0.1947405,0.1860196,-0.2456998,0.01637449,-0.6735511
1.640408,-0.2581015,0.3648647,0.6404758,-0.09123757,0.1869443,-0.3320273,0.0873123,-0.5400998
1.75727,-0.1577919,0.2809883,0.7572563,0.007923756,0.1034114,-0.4321343,0.1515479,-0.4748191
1.781579,-0.07122182,0.1983769,0.7814485,0.09336726,0.02115513,-0.6368056,0.3236393,-0.3424037
1.653309,-0.08020058,0.241098,0.6529919,0.0832833,0.06423715,-0.8702568,0.6095972,-0.308405
1.330066,-0.1171595,0.279421,0.3294622,0.0452383,0.1029222,-0.8778612,0.3892384,-0.3370809
1.233417,-0.1190067,0.2439293,0.2324103,0.04232223,0.06778916,-0.8377089,0.1097788,-0.2098422
1.256886,-0.1262764,0.2399072,0.2553522,0.03400014,0.06411713,-0.8274711,0.3859369,-0.03363774
1.05472,-0.1442009,0.2431577,0.052534,0.01503968,0.06770533,-0.7607717,0.5787817,0.1433786
0.8638347,-0.1588081,0.2144439,-0.1391251,-0.0005867447,0.0393136,-0.7453187,0.6098775,0.3240682
0.6979151,-0.1352129,0.2093005,-0.3059265,0.02200688,0.03447402,-0.7442844,0.615903,0.4358826
0.5257874,-0.09040257,0.2034663,-0.4790226,0.06583385,0.028924,-0.717373,0.3289197,0.4719586
0.5319535,-0.08174217,0.1966068,-0.4738835,0.07352831,0.02232795,-0.7085641,0.01778672,0.3318498
0.6419625,-0.09745818,0.198778,-0.3649299,0.05686195,0.02474134,-0.6947521,-0.1385025,0.1117452
0.7702441,-0.1299467,0.174622,-0.2377067,0.02343709,0.0008060729,-0.6720056,-0.07976999,0.004365635
0.8438415,-0.1621852,0.1697994,-0.1651517,-0.009724331,-0.003817025,-0.6266064,0.05720906,-0.07864398
0.8110738,-0.1584427,0.1844667,-0.1989325,-0.006890214,0.0110295,-0.5396811,0.01095053,-0.1727833
0.7751284,-0.1436271,0.2001735,-0.235851,0.007033149,0.02689579,-0.4029963,-0.009805956,-0.1908608
0.772709,-0.1403461,0.2424466,-0.2391929,0.009439195,0.06930867,-0.2735029,-0.1311696,-0.1616498
0.8136192,-0.1292555,0.2670166,-0.1991438,0.01967282,0.09399701,-0.1609583,-0.3073193,-0.1644628
0.9010359,-0.1168429,0.2538467,-0.1125183,0.03124684,0.08092156,-0.06756121,-0.2344162,-0.149684
0.9387119,-0.09337203,0.2163632,-0.07555831,0.05389695,0.04350585,-0.09588279,-0.1625568,-0.06674746
0.9017168,-0.02563653,0.1796274,-0.1131921,0.120828,0.006810012,-0.1532021,-0.03200054,0.01630969
0.8450406,0.04569753,0.1775902,-0.1704281,0.19137,0.004785337,-0.1922065,0.1340247,0.05362889
0.7621214,0.07951493,0.1870643,-0.2538249,0.2244013,0.01424571,-0.2690256,0.09010756,0.0065048
0.6943295,0.0672393,0.2019316,-0.3220056,0.2113369,0.02907446,-0.3428479,-0.01439034,-0.08273316
0.663117,0.03698894,0.2250969,-0.3535092,0.1802868,0.05217715,-0.4577306,-0.1610993,-0.1418304
0.635843,0.02257226,0.2211783,-0.3809655,0.1650522,0.04817182,-0.4789227,-0.2465292,-0.1624642
0.7410766,-0.1289286,0.1570226,-0.2757949,0.01271058,-0.0160948,-0.3976288,-0.1364944,-0.09634143
1.089684,-0.4977094,0.03115195,0.07287454,-0.356932,-0.1420986,-0.3541373,0.181095,0.00647636
1.551698,-0.8384239,-0.04739442,0.5350706,-0.6985153,-0.2207941,-0.05886809,0.5316059,0.06923462
1.747057,-0.8989718,0.05282437,0.7307056,-0.759911,-0.120731,0.4987316,0.3727993,0.007911771
1.599115,-0.6810814,0.218584,0.5830992,-0.5428124,0.04487453,0.8595557,-0.1071545,-0.2015199
1.594545,-0.3512465,0.2850893,0.5788855,-0.2136843,0.1112298,0.7175268,-0.4511539,-0.3567882
1.699576,-0.005740157,0.2915504,0.6842603,0.1312147,0.1175421,0.0491118,-0.6378788,-0.3889034
1.626155,0.152655,0.2286203,0.6111369,0.2890998,0.05445961,-0.7843035,-0.2818591,-0.2626888
1.54798,-0.006526148,0.1317186,0.5331855,0.1294926,-0.04260108,-1.20598,0.2510212,-0.03335502
1.351287,-0.1237824,0.1129106,0.3366162,0.01188018,-0.06157453,-1.165545,0.2317528,0.04534995
1.055541,-0.1150113,0.09918103,0.04088107,0.02035642,-0.07547267,-1.194208,0.1219557,0.05058187
0.887001,-0.1857272,0.07917704,-0.1277627,-0.05059807,-0.0956443,-1.191591,-0.005648771,0.06261955
0.7048437,-0.2004682,0.06547788,-0.3101287,-0.06552364,-0.1095053,-0.9781014,-0.3520299,0.07281409
0.6030992,-0.1860986,0.004249725,-0.4121675,-0.05128581,-0.170884,-0.9354108,-0.4955199,0.1711508
0.5969969,-0.2003344,-0.04613565,-0.4186254,-0.06560084,-0.2214014,-0.862678,-0.4790661,0.2657874
0.5543335,-0.1561374,-0.06955386,-0.461679,-0.02143145,-0.2449243,-0.7328753,-0.36278,0.3393832
0.5912263,-0.1466372,-0.07215676,-0.4251851,-0.01190872,-0.2475946,-0.7057094,-0.09234185,0.3567807
0.6358156,-0.1345568,-0.08074156,-0.3809793,0.0002415932,-0.2561993,-0.5889629,0.1551289,0.2623053
0.6504834,-0.1143626,-0.1111326,-0.3666587,0.02054987,-0.286553,-0.5547186,0.4099906,0.1692469
0.6179464,-0.1476071,-0.06324409,-0.3994885,-0.01254027,-0.2385606,-0.4200114,0.5393738,0.06241133
0.5552618,-0.150416,0.03054308,-0.4623944,-0.01515793,-0.1445953,-0.176394,0.4925955,-0.06080401
0.7265057,-0.1834062,0.07280902,-0.2912839,-0.04792252,-0.1020729,-0.1209382,0.5273354,-0.1212306
1.019245,-0.2170209,0.04823141,0.001421104,-0.08127852,-0.126315,-0.02432264,0.6057075,-0.09009836
1.095002,-0.1568534,0.00759865,0.07724375,-0.02081953,-0.1665335,-0.02175507,0.5693635,-0.06031086
0.8452625,-0.05825064,0.04606013,-0.1723366,0.0781061,-0.1275786,-0.1637057,0.3884418,-0.1435217
0.5256856,0.06875218,0.1192417,-0.4916622,0.205458,-0.05382476,-0.3718663,0.05106875,-0.2432266
0.5414271,0.08057557,0.1724094,-0.4755696,0.2176472,-8.638987e-06,-0.6937217,-0.2216686,-0.302383
0.7250062,-0.0983748,0.1716227,-0.291526,0.03906802,-7.622702e-05,-0.7120869,-0.2210299,-0.2686044
0.9216812,-0.3862781,0.1006164,-0.09426409,-0.2484647,-0.07029909,-0.4741122,-0.06569502,-0.2388756
1.235594,-0.7519156,0.1062897,0.2203563,-0.6137265,-0.06378286,-0.1326336,0.2158049,-0.5121032
1.343341,-0.8856031,0.2151797,0.328919,-0.7470135,0.04600496,0.4086759,0.3931423,-0.8523055
1.242908,-0.6829483,0.3608555,0.2293885,-0.5439047,0.1926268,0.6669214,0.1442628,-0.8617615
1.306396,-0.5004314,0.4413565,0.2938415,-0.3608542,0.2741099,0.6194461,-0.2210246,-0.5870005
1.485517,-0.3364056,0.3713775,0.473968,-0.196199,0.2051333,0.6399719,-0.3833853,-0.2624608
1.66844,-0.166796,0.3600639,0.6579109,-0.02585814,0.194826,0.5371339,-0.2983389,-0.1305717
1.783173,-0.2186146,0.4125654,0.7736462,-0.07684612,0.2483238,0.4251927,-0.1032219,-0.1244306
1.744567,-0.2872444,0.3869673,0.7359864,-0.1445511,0.2236987,0.5363217,-0.017749,0.01639683
1.580274,-0.2177911,0.3703379,0.5725498,-0.07408329,0.2080061,0.6748047,0.1067406,0.1967445
1.308252,-0.200643,0.3211347,0.3012641,-0.05583521,0.1596928,0.7676086,0.2763657,0.2024114
1.043535,-0.1069254,0.2542583,0.03715042,0.03906176,0.09365104,0.6330519,0.283501,0.2577935
0.7516763,0.07249268,0.2152599,-0.2542404,0.2197292,0.05542726,0.298556,0.1452538,0.4873737
0.4046745,0.09968529,0.1697638,-0.6008941,0.2482262,0.01064397,0.1217883,-0.05320045,0.6157002
0.2810138,0.08454944,0.1877546,-0.7242981,0.2344315,0.02928617,0.00199159,-0.235823,0.6828009
0.2782154,0.04247797,0.1956839,-0.7268933,0.1937195,0.0378068,-0.07744564,-0.4366264,0.6879292
0.258968,-0.08490482,0.1823426,-0.7459506,0.06769919,0.02499797,-0.0129983,-0.6379149,0.4983621
0.3910596,-0.1589854,0.2108277,-0.6136448,-0.005026461,0.05395783,0.144926,-0.7059109,0.2582834
0.572406,-0.2385508,0.2132624,-0.4320283,-0.08324945,0.05681022,0.4861239,-0.579829,-0.0301196
0.7605465,-0.3347362,0.2273011,-0.2435402,-0.1781054,0.07120981,0.7760481,-0.3577645,-0.2399821
0.8845251,-0.3192766,0.2231814,-0.1191253,-0.1613258,0.06739407,0.9105302,-0.3006104,-0.2675571
0.8566896,-0.1829441,0.1537799,-0.1464325,-0.0236786,-0.001760099,1.025255,-0.4170163,-0.2638862
0.8514628,0.002930066,0.1234859,-0.1510396,0.1635057,-0.0318615,0.9672661,-0.5028027,-0.224275
0.8096929,0.06682725,0.1649477,-0.1920989,0.2287018,0.009741734,0.9229155,-0.4707219,-0.225073
0.7763158,-0.04423128,0.2089433,-0.2246741,0.1189202,0.05383108,0.9371292,-0.3826968,-0.1908592
0.9181012,-0.2221931,0.1628221,-0.0819946,-0.05779606,0.007758036,0.7572111,-0.2529264,-0.05217721
1.172598,-0.3796524,0.08358088,0.1734856,-0.2140435,-0.07147825,0.6791885,0.1096453,0.09986187
1.537057,-0.4048405,0.06686141,0.5390035,-0.2380485,-0.0882314,0.8327112,0.4121889,0.3270599
1.794469,-0.3471529,0.0845788,0.7975236,-0.1791972,-0.07057993,0.9383132,0.2972195,0.3316798
1.70679,-0.3512337,0.1506357,0.7109649,-0.182125,-0.004615108,0.9110386,0.1496175,0.1339507
1.54753,-0.3148452,0.2278756,0.5527945,-0.144587,0.07251032,0.8812037,-0.04955132,0.06483387
1.551765,-0.2179924,0.2567845,0.5580578,-0.04658331,0.1012827,0.910933,-0.5278913,-0.133912
1.532246,-0.1479569,0.2306892,0.5394742,0.02460581,0.07502701,0.8136952,-0.6888139,-0.2533198
1.494547,-0.03154945,0.1570836,0.502597,0.1421668,0.001235465,0.5993997,-0.3914131,-0.02303323
1.485578,0.007463652,0.109229,0.4943136,0.182326,-0.0468301,0.3724908,-0.1857201,0.1549854
1.260676,-0.05885479,0.06932108,0.2699447,0.1171366,-0.08697062,0.1784518,-0.0961986,0.3219195
0.9435839,-0.07525635,0.03499937,-0.04677413,0.1018377,-0.1215411,0.1700109,-0.1758842,0.5386572
0.7201436,-0.1497802,0.0432002,-0.2699972,0.02838331,-0.1135982,0.2099322,-0.4658536,0.6141735
0.6308457,-0.2113986,0.03412495,-0.3592161,-0.03220223,-0.1229332,0.2600198,-0.5181143,0.6877397
0.6690308,-0.1699001,0.02824116,-0.3210657,0.01029167,-0.1290717,0.4298466,-0.3696516,0.7094567
0.5743068,-0.1384781,0.02332632,-0.4159124,0.0426715,-0.1342292,0.5529345,-0.2479948,0.6426337
0.4874211,-0.08775651,-0.004966431,-0.502982,0.0943121,-0.162746,0.6039439,-0.1606529,0.6100268
0.5174001,-0.08340575,-0.007111511,-0.4732205,0.09953995,-0.1650896,0.65149,-0.08287311,0.4595869
0.5193882,-0.1165546,0.03106681,-0.4714556,0.06722245,-0.1270774,0.7614949,0.1648054,0.2117464
0.6565561,-0.1066453,0.07909373,-0.334492,0.07791411,-0.07917905,0.8735219,0.448537,0.04955126
0.9261357,-0.153421,0.05667895,-0.06507961,0.03186944,-0.1016814,0.8071592,0.7332289,0.06118295
1.090845,-0.1704706,0.01840135,0.09950736,0.01549879,-0.1400031,0.6972683,0.8634374,0.2376238
0.8654745,-0.04429119,0.04343125,-0.1259406,0.1423045,-0.114971,0.5789047,0.439603,0.3236481
0.5464366,0.1033883,0.09085598,-0.4450109,0.2905546,-0.06749507,0.3632663,0.01494971,0.1933504
0.6138129,0.1286871,0.1806134,-0.3776123,0.3163603,0.02236315,0.1766603,-0.05330145,0.01630048
0.699997,0.0295611,0.2128965,-0.2913363,0.2176668,0.05479408,0.1009492,-0.1423696,-0.0485101
0.7624251,-0.1111329,0.1393652,-0.228735,0.0773223,-0.01854722,0.2178376,-0.1762173,-0.05698569
1.003943,-0.3412646,0.1188252,0.01304356,-0.1525446,-0.03885918,0.476733,0.008091401,-0.15024
1.190549,-0.6110985,0.1655166,0.1999952,-0.4221903,0.008095648,0.6448376,0.2444908,-0.3333212
1.297866,-0.6773867,0.2689257,0.3077321,-0.4883478,0.1118002,0.6570698,0.1939513,-0.4915796
1.322405,-0.5337871,0.4051064,0.3327452,-0.3446506,0.2483016,0.6270516,-0.2232401,-0.3105536
1.475188,-0.3962589,0.4404164,0.4860351,-0.2070355,0.2839461,0.6681976,-0.5519695,0.1020411
1.828999,-0.3679544,0.409552,0.8403586,-0.1786392,0.2534152,0.6742099,-0.3610017,0.2022937
1.879289,-0.337452,0.4081665,0.8911314,-0.1480303,0.2523479,0.5667557,0.03290729,0.07875149
1.672676,-0.248668,0.3839086,0.6849314,-0.05911815,0.2283799,0.4952971,0.1192508,0.02361786
1.485718,-0.2112621,0.3141518,0.4982821,-0.02155918,0.1588742,0.4950093,0.163899,0.07552107
1.188686,-0.1849361,0.2656049,0.20143,0.004945044,0.1105317,0.5370334,0.2164665,0.1965354
0.8731641,-0.0977423,0.2513867,-0.114049,0.09234006,0.09646681,0.5469586,0.09598276,0.2901662
0.6563671,-0.0225916,0.2408655,-0.3309325,0.1677099,0.08604552,0.4757615,-0.008365976,0.430036
0.4918633,0.001867897,0.2297063,-0.4956323,0.1923982,0.0749318,0.4393525,-0.3054702,0.5460536
0.4248788,-0.004346955,0.2155734,-0.5628934,0.1864118,0.06078949,0.4445502,-0.686235,0.6054246
0.4270741,-0.005372042,0.2005462,-0.5610224,0.1856046,0.04569856,0.4570332,-0.8130814,0.6291671
0.4484398,-0.01630426,0.2023566,-0.539996,0.1748702,0.0473922,0.4547323,-0.7934478,0.4778091
0.4976805,-0.04796725,0.2166966,-0.4910795,0.1433769,0.06156408,0.4386676,-0.716667,0.2758185
0.5371384,-0.07559492,0.2301887,-0.4519043,0.1158842,0.07483785,0.4346564,-0.7493969,-0.01799333
0.5846352,-0.1259045,0.2418882,-0.4046266,0.06567043,0.08626961,0.4027904,-0.7414813,-0.3452521
0.6861501,-0.1739889,0.198937,-0.3032496,0.01764075,0.0430019,0.4280436,-0.6652928,-0.3968365
0.8250345,-0.1738105,0.1155708,-0.1644096,0.01783318,-0.04072807,0.5307815,-0.6143367,-0.3105688
0.9360696,-0.1379037,0.09860525,-0.05332033,0.05371465,-0.0581004,0.6539713,-0.2898233,-0.2023874
0.9192192,-0.08193237,0.116195,-0.07001842,0.1096222,-0.04095422,0.723235,-0.04547955,-0.1201414
0.8049767,-0.0346904,0.1663921,-0.1840135,0.1567604,0.008768492,0.658487,-0.09068287,-0.08074428
0.7539777,-0.06448883,0.2811694,-0.2346707,0.1268152,0.1230442,0.6143613,-0.1232592,-0.006532969
0.8870548,-0.2476545,0.2811832,-0.101156,-0.05654257,0.1225297,0.5498372,-0.1081893,0.05986966
1.233547,-0.479004,0.09003358,0.2458676,-0.2881261,-0.06917606,0.4782592,0.1765382,0.2123873
1.607554,-0.5266321,-0.09836653,0.6204854,-0.3360186,-0.2581567,0.6586759,0.5610125,0.3296952
1.721667,-0.4488157,-0.0794602,0.7352621,-0.2584798,-0.2398449,0.9071958,0.583935,0.2702076
1.61748,-0.4392843,0.1018543,0.6317522,-0.2492227,-0.05912583,1.045393,0.2725212,0.1752927
1.585472,-0.3544942,0.2121199,0.6003995,-0.1646898,0.0505524,1.132019,-0.2291799,-0.02837124
1.619164,-0.127501,0.1955801,0.6346902,0.0620718,0.03343574,1.122737,-0.6685469,-0.2956066
1.581945,0.006090647,0.1280644,0.5979842,0.1954588,-0.03464665,0.9342246,-0.6431446,-0.3443652
1.553635,0.05886587,0.06429906,0.5700762,0.2480493,-0.09896716,0.4963058,-0.2559188,-0.1733129
1.44496,0.07485412,0.0293322,0.4616688,0.2638611,-0.1344739,0.01627817,0.03332667,0.06181532
1.18875,-0.02933788,0.007268358,0.2055761,0.1594886,-0.1570561,-0.2180336,0.2062551,0.3555357
0.9512574,-0.1389766,0.02985618,-0.03195617,0.04965611,-0.1349581,-0.1696231,0.1179582,0.5662174
0.7244307,-0.1855198,0.04662945,-0.2589719,0.002901412,-0.1186397,0.01106361,-0.2051327,0.6456608
0.5726578,-0.1818656,0.01626075,-0.4110651,0.006326341,-0.1494226,0.1489047,-0.2618589,0.7782887
0.536841,-0.1624313,0.01565284,-0.447307,0.02551476,-0.1503988,0.2836891,-0.192481,0.7479304
0.4991227,-0.1768672,0.03165182,-0.4855248,0.01081758,-0.1347173,0.4403884,-0.02239067,0.6165443
0.5503271,-0.1677017,0.0439815,-0.4348643,0.01970737,-0.1226496,0.6177728,0.2708094,0.5583099
0.6416189,-0.1583326,0.03989728,-0.344133,0.02878706,-0.1269369,0.8434898,0.4970348,0.246683
0.6595987,-0.1597829,0.03468034,-0.3267072,0.02703453,-0.1322953,0.9343327,0.7415191,-0.002462914
0.6999271,-0.1448458,0.08780818,-0.2869079,0.04165662,-0.0792449,0.8297543,0.620926,0.02322426
0.7575868,-0.1382339,0.1227278,-0.2297369,0.0479407,-0.04433808,0.660168,0.3655722,-0.05092698
0.7723796,-0.08080522,0.09175896,-0.2153805,0.1050281,-0.07525592,0.5052062,0.3008579,-0.03415688
0.7324481,-0.003676781,0.06548295,-0.2556867,0.1817993,-0.1014185,0.4149295,0.002780915,0.1261066
0.715241,0.01225553,0.08381747,-0.2731979,0.1973534,-0.08290861,0.3892919,-0.1408618,0.1305697
0.7754959,-0.04090684,0.09838782,-0.2131678,0.1437855,-0.06810154,0.4156437,-0.03464,0.04795005
0.8620547,-0.2029368,0.08512741,-0.1267475,-0.01868202,-0.08106485,0.5381334,0.05402303,-0.02097777
1.020895,-0.4559649,0.1290756,0.0320425,-0.272178,-0.03676074,0.7651276,0.314923,-0.2112467
1.221793,-0.6291387,0.2702696,0.2329742,-0.445839,0.1048448,0.8585882,0.4248514,-0.5953281
1.348053,-0.5698636,0.4811356,0.3593385,-0.387051,0.3161702,0.752962,0.2011537,-0.8259603
1.498598,-0.4440296,0.5750282,0.5100381,-0.2616834,0.4105543,0.7409949,-0.07592969,-0.4855318
1.747754,-0.3639394,0.4353985,0.7593723,-0.1820223,0.2714283,0.8207888,-0.1772757,0.01937815
1.834394,-0.2195248,0.3548922,0.84618,-0.03798966,0.1914193,0.8249005,-0.07788538,0.09000883
1.644213,-0.123749,0.4070208,0.6561156,0.05745432,0.2440245,0.6902585,0.03107623,0.07082343
1.459992,-0.07919186,0.3736341,0.4719291,0.1017273,0.2110823,0.3990494,0.09753715,0.1608511
1.337748,-0.03996221,0.3247983,0.349613,0.140714,0.1626491,0.1748695,0.06409364,0.1488771
1.140208,-0.1078562,0.3249917,0.15188,0.07261037,0.1631953,0.1775868,-0.03993173,0.2475788
0.9039225,-0.1283821,0.2978884,-0.08472127,0.05190132,0.136389,0.241869,-0.101533,0.3541969
0.7770401,-0.0978713,0.2770159,-0.2120347,0.08225003,0.1157533,0.2535703,-0.1931676,0.378852
0.7320009,-0.10808,0.2453582,-0.2576043,0.0718958,0.08426945,0.2845167,-0.2901614,0.4852001
0.517,-0.06980284,0.1517887,-0.4732138,0.110039,-0.009189573,0.3079343,-0.4186877,0.4913838
0.4155122,-0.05504763,0.1133023,-0.5753614,0.1246667,-0.04762667,0.3011478,-0.6114261,0.4496395
0.5317839,-0.05688629,0.1659382,-0.4597707,0.122701,0.005002341,0.3442703,-0.6390841,0.3744473
0.4214065,-0.03877586,0.2088144,-0.5708199,0.1406786,0.04782004,0.3460794,-0.5256184,0.1229878
0.4083315,-0.05588378,0.2540742,-0.5845289,0.1234263,0.09297241,0.260493,-0.511212,-0.1485179
0.5791033,-0.0845555,0.2421654,-0.4143264,0.09459342,0.08090773,0.1531922,-0.5563964,-0.2975249
0.6986011,-0.1265485,0.1369241,-0.2953114,0.05241858,-0.02453747,0.06546527,-0.5524473,-0.252503
0.9346782,-0.1318231,0.0921741,-0.05961751,0.04693944,-0.06953646,0.1445329,-0.4470361,-0.1122863
0.9251324,-0.121362,0.1330842,-0.06944327,0.05717282,-0.0289152,0.3128106,-0.321566,0.01310091
0.8382115,-0.1463095,0.2123765,-0.1565422,0.031974,0.05005407,0.3715357,-0.3608719,0.07649341
0.973346,-0.1411022,0.2839828,-0.02148583,0.03690654,0.1213055,0.3611649,-0.3764615,0.006663583
0.938463,-0.1634089,0.2896717,-0.05634975,0.0143023,0.1266073,0.3338321,-0.2056896,-0.03475166
1.031409,-0.2705988,0.2385479,0.03670766,-0.09320598,0.07506182,0.3490312,-0.01502799,-0.07162385
1.257133,-0.3947595,0.09429966,0.2626271,-0.2177009,-0.06964327,0.4213591,0.2323091,-0.148991
1.327038,-0.4416693,-0.05375955,0.3327975,-0.264951,-0.2181902,0.5607113,0.4574923,-0.07982605
1.436535,-0.3968904,-0.03374181,0.4426093,-0.2205058,-0.198681,0.7719906,0.384765,0.01128916
1.455428,-0.3438884,0.1028508,0.4618428,-0.1678185,-0.06260598,0.8454384,0.1443532,0.07535791
1.494079,-0.2602534,0.1955857,0.500834,-0.08447007,0.02961051,0.7923607,-0.09115854,0.1475424
1.587755,-0.1325795,0.1710271,0.5948232,0.04295026,0.004536242,0.7013496,-0.3093864,0.04824532
1.592259,-0.03862744,0.1006705,0.599588,0.1366811,-0.06633202,0.4124931,-0.2682223,-0.05601459
1.665139,-0.01354562,0.06273515,0.6726462,0.1615682,-0.1047723,0.02959052,-0.01392019,0.02825727
1.490201,-0.05390326,0.06058201,0.4977796,0.1210341,-0.1074186,-0.2210375,0.08076279,0.1409272
1.788505,-0.7058022,-0.1321789,0.8232783,-0.5159851,-0.2847075,0.3612459,0.732458,-0.02252926
1.500576,-0.4819723,-0.001420558,0.5359007,-0.2931569,-0.1549568,0.587792,0.6118091,0.01976798
1.267499,-0.3439298,0.2023476,0.3033554,-0.1560568,0.04780458,0.6453081,0.1934796,0.07484724
1.519701,-0.3822152,0.1414686,0.5560445,-0.1952137,-0.01407385,0.6156983,-0.1602481,0.007940272
1.609067,-0.2831895,0.06638301,0.6458299,-0.0969822,-0.09014821,0.7589029,-0.3871945,-0.1011356
1.4676,-0.070862,0.1033315,0.5046913,0.114631,-0.05417392,0.7746248,-0.3131185,-0.1834105
1.420271,0.02484154,0.08211467,0.457575,0.2096958,-0.0763454,0.3727221,-0.19472,-0.2570412
1.321858,0.04780503,0.1201026,0.359244,0.2320853,-0.03928803,-0.1136682,-0.3039524,-0.2137268
1.267916,0.06014559,0.1046473,0.3052391,0.2439025,-0.0556459,-0.4152889,-0.1350141,-0.0652592
1.241705,0.01135419,0.02972239,0.2788139,0.1946244,-0.131442,-0.5109105,0.1375257,0.1230505
1.042819,-0.03104114,0.07960525,0.07956169,0.1517667,-0.08239433,-0.564321,0.151172,0.3196204
0.8151378,-0.07930422,0.06357854,-0.1486363,0.1030562,-0.0992154,-0.5762725,0.09751846,0.3972858
0.6139642,-0.1198051,0.03246388,-0.3504613,0.06211628,-0.1310792,-0.5164983,-0.06386471,0.4429436
0.4961647,-0.0961098,0.03179693,-0.4690237,0.08537683,-0.1324455,-0.544317,-0.07683202,0.5319378
0.482137,-0.1327948,-0.02007091,-0.4838956,0.04825846,-0.1849575,-0.4555245,-0.04151699,0.508797
0.4714476,-0.1673331,0.0002507208,-0.4954783,0.01328623,-0.1652193,-0.2437829,-0.01956858,0.4269339
0.5839,-0.1619381,-0.006507505,-0.383938,0.01824597,-0.172494,-0.02431138,0.4401948,0.2801961
0.7257839,-0.1915669,-0.0239211,-0.2429592,-0.01181888,-0.1903518,0.3118282,0.9293942,0.01327684
0.7592286,-0.1468879,0.02153191,-0.2103942,0.03242407,-0.1452657,0.4707102,1.081251,-0.1742313
0.7754923,-0.0853618,0.03962856,-0.1949716,0.09351419,-0.1274548,0.403063,0.8632358,-0.2555479
0.7512012,-0.02386192,0.07228471,-0.2200549,0.154576,-0.09500127,0.2318635,0.4554149,-0.2584661
0.7227103,0.07745062,0.06562394,-0.2492793,0.2554431,-0.1017811,-0.1363077,0.2298001,-0.1878537
0.708377,0.07428992,0.04060173,-0.2642778,0.2518212,-0.126839,-0.4181271,0.026965,-0.1731879
0.7266739,-0.06284182,0.07729748,-0.246568,0.1142033,-0.09009612,-0.4408675,0.07549001,-0.2340963
0.8766602,-0.3515287,0.1480391,-0.09708255,-0.1749991,-0.01922551,-0.3550444,0.3197196,-0.4449716
1.122561,-0.6405922,0.3302864,0.1484062,-0.4646015,0.1632281,-0.2356598,0.3508871,-0.816856
1.359237,-0.6642935,0.5097025,0.3847518,-0.488847,0.3429172,-0.1308768,0.2839755,-1.01922
1.467899,-0.5071403,0.5145294,0.4931464,-0.3322198,0.3480664,-0.1170593,-0.1324562,-0.7713565
1.586498,-0.3612713,0.4744001,0.6115164,-0.1868382,0.3082879,-0.1815635,-0.5217693,-0.3090851
1.821693,-0.2922645,0.4553725,0.8464882,-0.118268,0.2896195,-0.1876826,-0.3013388,-0.009454656
1.912245,-0.2549451,0.4009817,0.9367871,-0.08132798,0.2355796,-0.1736431,0.04071708,0.1372402
1.773959,-0.2302064,0.3753072,0.7981759,-0.05690937,0.2102337,-0.2067547,0.2578656,0.1323957
1.470445,-0.1993378,0.385246,0.4942292,-0.02630136,0.2204677,-0.2463973,0.3346274,0.1000383
1.151116,-0.106839,0.3699042,0.1743356,0.06599461,0.2053781,-0.3150248,0.1468219,0.2298865
0.9823967,-0.07529942,0.3661238,0.004914875,0.09738426,0.2017983,-0.3467156,-0.1074855,0.3030949
0.8037337,-0.08245361,0.3373457,-0.1745814,0.09012615,0.1731623,-0.3423651,-0.2462016,0.3367073
0.6197859,-0.03761547,0.2648799,-0.3594778,0.1348984,0.1007744,-0.3609095,-0.3441746,0.386748
0.6000971,-0.05259196,0.2302492,-0.3802067,0.1198856,0.06615492,-0.393055,-0.3979875,0.3660027
0.5474789,-0.05005395,0.1851798,-0.4339289,0.1224087,0.02103052,-0.5258706,-0.4189965,0.3824413
0.3727555,-0.01104608,0.1284827,-0.6097902,0.1614148,-0.0357851,-0.6354728,-0.6149916,0.3184147
0.3353922,-0.04858136,0.1498411,-0.6482932,0.1238829,-0.0146039,-0.5159054,-0.7173307,0.1383861
0.4216212,-0.1026145,0.2043536,-0.5631716,0.06985118,0.03967823,-0.398227,-0.4524185,-0.1016986
0.4567249,-0.2031539,0.2114707,-0.5291114,-0.03069318,0.04651565,-0.4512488,-0.2464789,-0.3113524
0.5352462,-0.3059832,0.173321,-0.4515434,-0.1335341,0.008039638,-0.4035129,-0.3789845,-0.2664633
0.7123493,-0.2964206,0.1345206,-0.2752828,-0.1239857,-0.03113047,-0.1884034,-0.5062698,-0.1733424
0.8496523,-0.2699771,0.1259626,-0.138699,-0.09755301,-0.04009707,0.01082437,-0.4204111,-0.122077
0.8341269,-0.2271172,0.1464541,-0.1548152,-0.05469517,-0.02004762,0.2002108,-0.4972739,-0.01687073
0.8219083,-0.1777699,0.1502426,-0.1674955,-0.005338061,-0.01672949,0.2870761,-0.5775977,-0.005060679
1.050387,-0.2832205,0.1083451,0.06064919,-0.1107653,-0.05912112,0.2099103,-0.1661689,0.001419432
1.405531,-0.4689583,0.01205793,0.4155789,-0.2964629,-0.1559203,0.2063763,0.4875476,0.06123064
1.596927,-0.5321318,-0.08592629,0.6068605,-0.3595703,-0.2544259,0.3531626,0.9468315,0.1142863
1.488859,-0.4917714,-0.02184644,0.4987469,-0.3191045,-0.1908651,0.5382253,0.8727177,0.1896837
1.316425,-0.4156888,0.1336974,0.3263064,-0.2428638,-0.03582698,0.6789592,0.4294334,0.1690231
1.332549,-0.3163074,0.1965431,0.342437,-0.1432616,0.02653277,0.7515047,-0.04436548,0.02143562
1.494484,-0.2734922,0.1770633,0.5043714,-0.1001581,0.006587931,0.7796256,-0.5347459,-0.1403796
1.704523,-0.2054197,0.05151642,0.71438,-0.03172869,-0.1194029,0.7400379,-0.5895243,-0.2268306
1.64191,-0.02121964,-0.05425656,0.6516795,0.1528931,-0.2255957,0.5302839,-0.1485428,-0.1578446
1.3995,0.07317631,0.02465339,0.4090963,0.2477666,-0.1470743,0.04890328,0.2813086,-0.04425378
1.322366,0.03582952,0.1027719,0.3316831,0.2109388,-0.06930586,-0.4107865,0.4572187,0.06353778
1.083423,-0.02328631,0.0832605,0.09234435,0.1523683,-0.08912463,-0.5133859,0.3451011,0.3155839
0.7803962,-0.1192633,0.0865775,-0.2111946,0.05695041,-0.08606985,-0.4730851,0.2175902,0.5486441
0.6722621,-0.1564598,0.1009389,-0.3199453,0.02031883,-0.07192377,-0.4193364,-0.008918585,0.5669452
0.5663438,-0.134382,0.06571378,-0.426563,0.04296259,-0.1073159,-0.2989495,-0.2720814,0.5142092
0.5315199,-0.154732,0.02561081,-0.4621422,0.02317618,-0.1475356,-0.1995344,-0.1797025,0.4730681
0.4938617,-0.1467771,0.01000731,-0.5005833,0.03168935,-0.1632024,-0.08086635,-0.1034956,0.4138063
0.4780019,-0.1253118,0.0007070856,-0.5172245,0.05370483,-0.1725083,0.08360837,-0.06851704,0.3095014
0.5842701,-0.1287236,0.0209964,-0.4117088,0.050832,-0.152163,0.2612828,0.1979774,0.1128035
0.7449027,-0.1081407,0.0379811,-0.2517771,0.07193931,-0.1350569,0.4357052,0.5508268,-0.1761985
0.958363,-0.1030508,-0.002109071,-0.03895145,0.07753545,-0.1749576,0.4609171,0.9511806,-0.3140248
0.9130577,-0.0694793,-0.01725301,-0.08481942,0.111591,-0.1898412,0.2678067,1.009689,-0.1472472
0.7123656,0.0490706,0.08282142,-0.286,0.2305975,-0.089433,0.03652025,0.595188,-0.04912578
0.6631898,0.1143197,0.1940506,-0.3355847,0.2962675,0.02220356,-0.1204433,0.2413876,-0.1198556
0.6952702,0.03787315,0.1724444,-0.3038234,0.2201951,0.001074444,-0.3604287,0.2157598,-0.124205
0.8067079,-0.1002323,0.1201251,-0.1926055,0.08240748,-0.05070394,-0.6148899,0.3110703,-0.1431543
0.8157961,-0.2779097,0.1137125,-0.1836315,-0.09501232,-0.05651685,-0.5924977,0.2444667,-0.1740527
0.8798586,-0.5339623,0.1146153,-0.1195745,-0.3508628,-0.05495908,-0.3229659,0.2435744,-0.281482
1.100822,-0.705907,0.2659345,0.1014904,-0.522646,0.09706658,0.02391274,0.4108859,-0.6738486
1.123413,-0.6598909,0.4696779,0.1242822,-0.4764857,0.3015598,0.1754172,0.3815803,-0.9865194
1.204076,-0.4928537,0.4736528,0.2052329,-0.3092974,0.3063132,0.005820263,0.01002786,-0.7578493
1.570825,-0.2417407,0.483193,0.5723391,-0.05800827,0.3166421,-0.1950499,-0.3894372,-0.3212166
1.867535,-0.08149595,0.5436025,0.8694486,0.1024449,0.3778311,-0.5007001,-0.1724397,-0.1091488
1.784599,-0.1811821,0.4549174,0.7869145,0.00299765,0.2898975,-0.8457064,0.1926724,0.02511601
1.618075,-0.2640941,0.3432546,0.6207549,-0.07964905,0.1789422,-0.7439184,0.1218311,0.1420112
1.670195,-0.2394382,0.2487383,0.6731653,-0.05470279,0.08507837,-0.5865205,0.4439966,0.2006508
1.445974,-0.2349902,0.230529,0.4491343,-0.04993914,0.06746155,-0.6946684,0.7908958,0.2210532
1.006104,-0.1502069,0.3230162,0.009332022,0.03518463,0.1604786,-0.730374,0.4367723,0.1801629
0.7578568,-0.08508599,0.2910384,-0.2389702,0.1006682,0.1289655,-0.8141872,0.08766618,0.2492119
0.5661519,-0.1235839,0.2826405,-0.4308407,0.06254976,0.1209637,-0.8351708,-0.1858344,0.3048558
0.5443407,-0.1386855,0.2970047,-0.4529035,0.04783845,0.1356526,-0.6440094,-0.3855851,0.2624646
0.5693933,-0.1740606,0.1807251,-0.4281602,0.01285987,0.01962459,-0.5088691,-0.2410214,0.2832344
0.5114142,-0.1863807,0.2034396,-0.4864784,0.0009392819,0.04251825,-0.309048,-0.1530775,0.204081
0.52034,-0.150895,0.2254283,-0.4778946,0.0368254,0.06461581,-0.1897624,-0.1744164,0.1262871
0.4823507,-0.161221,0.1829494,-0.5162027,0.02689856,0.02217807,-0.2544592,-0.2518738,0.04848662
0.5109884,-0.1495411,0.231912,-0.4878361,0.03897385,0.07111642,-0.2032591,-0.475802,-0.1638299
0.6143688,-0.138873,0.1759413,-0.3846569,0.05003095,0.01505871,-0.1882585,-0.5275415,-0.240489
0.7024751,-0.1620345,0.1310809,-0.2966641,0.02724945,-0.02994849,-0.1401702,-0.3698567,-0.2525811
0.8266509,-0.1908002,0.1545021,-0.1725028,-0.001147489,-0.00672919,0.006940173,-0.309694,-0.272345
0.8679399,-0.2575574,0.1633516,-0.131124,-0.06754766,0.001868511,0.04169959,-0.3565119,-0.2341874
0.8846931,-0.2693751,0.2377097,-0.114176,-0.07901857,0.07592906,0.1276091,-0.3577787,-0.230677
0.8827804,-0.2097256,0.2610239,-0.1157906,-0.01902982,0.09890186,0.2267347,-0.247504,-0.2219964
0.8803457,-0.191987,0.2512839,-0.1178259,-0.0009574199,0.08877685,0.2510505,-0.06748238,-0.2524032
1.005869,-0.2730533,0.2191911,0.008194337,-0.08169448,0.05625523,0.2697879,0.1220099,-0.2665287
1.203296,-0.4289976,0.0721152,0.2062096,-0.2373115,-0.09129199,0.3072953,0.3220744,-0.1955762
1.451303,-0.5010202,-0.04781631,0.4548817,-0.3090014,-0.2117313,0.4936909,0.3919174,-0.151138
1.545092,-0.418367,0.0004270158,0.5493881,-0.2259987,-0.1640217,0.6457584,0.2688104,-0.1687014
1.486059,-0.2612328,0.1240261,0.4910958,-0.06848813,-0.04097091,0.5273836,0.1311007,-0.2488152
1.594127,-0.09090506,0.1622804,0.599896,0.102247,-0.003271339,0.2574655,0.02839561,-0.3141603
1.69003,0.00684699,0.1956883,0.6964936,0.2004335,0.02957894,-0.04624639,0.001235395,-0.3167865
1.545383,0.01403772,0.2521635,0.5524716,0.2080758,0.08549454,-0.3874965,0.02053474,-0.1952276
1.363176,0.02149493,0.2636116,0.3707941,0.2159894,0.09638007,-0.6382225,-0.02224578,0.02285221
1.309454,0.0189667,0.2384098,0.3174856,0.2139098,0.07061017,-0.7212702,-0.01469143,0.1602369
1.233966,-0.01713355,0.1306115,0.2422843,0.178239,-0.03776329,-0.8456935,-0.01654779,0.3020926
1.032181,-0.02154723,0.07377471,0.04065483,0.1742257,-0.09518079,-0.9320227,-0.1101041,0.4404622
0.8642591,-0.02813121,0.05879073,-0.1272401,0.1680046,-0.1107463,-0.9296953,-0.1615171,0.4492857
0.7823528,-0.06099705,-0.006586603,-0.2092382,0.1354574,-0.1766989,-0.9934741,-0.1656734,0.4225477
0.745854,-0.07952513,-0.00608513,-0.2459304,0.1171983,-0.176758,-0.9435638,-0.05988222,0.3705398
0.725378,-0.09502451,-0.02407215,-0.2666823,0.1019144,-0.1952817,-0.8540842,0.1299134,0.2808606
0.7065838,-0.08713061,-0.03831672,-0.2858148,0.1099677,-0.2100295,-0.7922532,0.3198967,0.167339
0.7266051,-0.07609447,-0.01167611,-0.266175,0.1211053,-0.1838497,-0.648382,0.6417341,-0.009963218
0.7352907,-0.06847456,-0.03347182,-0.2578957,0.1287667,-0.2060553,-0.6255836,0.9919617,-0.1942649
0.7409975,-0.02129975,-0.01235378,-0.2526035,0.1759204,-0.1852886,-0.6993185,1.187374,-0.2490801
0.7491129,0.03401214,0.02173852,-0.2448961,0.2311452,-0.1514829,-0.8477411,1.199721,-0.1586102
0.7100908,0.08449486,0.05034973,-0.2843057,0.2814693,-0.1230886,-1.118025,0.9759628,-0.06831173
0.7032945,0.1119391,0.06669632,-0.2914558,0.308676,-0.1068866,-1.350634,0.5749687,0.009117414
0.768739,0.1159381,0.02756811,-0.2263188,0.3123498,-0.1460856,-1.574277,0.228408,0.07082886
0.8660152,0.08293568,0.008188161,-0.1292934,0.2789265,-0.1654609,-1.701556,0.1892634,0.01471506
0.9033816,-0.01679022,-0.0335806,-0.09211544,0.1786772,-0.207147,-1.664004,0.3394806,-0.09874529
0.8622167,-0.1234147,-0.03478885,-0.1334035,0.07142457,-0.2081909,-1.651914,0.4309179,-0.2457925
0.8798113,-0.3535902,0.05027537,-0.1158655,-0.1594802,-0.1228773,-1.603463,0.555885,-0.4353444
0.9640692,-0.6999678,0.1362931,-0.03159657,-0.5066751,-0.03652385,-1.470336,0.6933114,-0.6891689
1.027492,-0.8105139,0.2362154,0.03190315,-0.6181014,0.06381714,-1.368986,0.639843,-1.053108
1.087717,-0.6859743,0.2498009,0.0922665,-0.4944719,0.07789709,-1.235398,0.4191116,-1.199577
1.378756,-0.5348344,0.3222406,0.383496,-0.3442402,0.1508965,-1.141858,0.1194442,-1.053336
1.883266,-0.3632013,0.5488573,0.8882287,-0.1734901,0.3781248,-1.366213,-0.1197241,-0.9489936
1.996721,-0.3034688,0.517546,1.001904,-0.1146004,0.3474584,-1.845282,-0.005923316,-0.7754917
1.74193,-0.3790846,0.2697092,0.7472864,-0.1910108,0.10028,-2.08992,0.3022241,-0.5670344
1.627433,-0.3598393,0.1520502,0.6328758,-0.1725048,-0.01672082,-1.838509,0.487914,-0.5222001
1.459569,-0.3003372,0.181652,0.4649809,-0.1136802,0.01353303,-1.606392,0.6182836,-0.4681328
1.192597,-0.2400355,0.268263,0.1978422,-0.05398987,0.1007877,-1.775082,0.5278619,-0.4384873
1.031113,-0.08507065,0.2612817,0.03604834,0.1004305,0.09443746,-1.942841,0.3583197,-0.3214002
0.9838947,-0.07644892,0.2306765,-0.01161968,0.1085703,0.06444579,-2.077307,0.4185075,-0.03398726
1.058298,-0.1611135,0.2040408,0.0622039,0.02347927,0.03840169,-2.280379,0.5040911,0.06257821
0.9283027,-0.1361036,0.07542604,-0.06849009,0.04811184,-0.08964536,-2.253923,0.6988051,0.06157479
0.7426745,-0.190149,0.05281786,-0.2549246,-0.006266285,-0.1117084,-2.213755,0.7684262,0.1055088
0.7062423,-0.2267031,0.09867501,-0.2922527,-0.04311169,-0.06532432,-2.186696,0.5024581,0.08223407
0.4309446,-0.2138172,0.07731699,-0.5685121,-0.03047676,-0.08616929,-1.95007,0.2837886,0.04182623
0.3127556,-0.2763574,0.09448781,-0.6876987,-0.09322809,-0.06849555,-1.744571,0.002703102,-0.08399115
0.428396,-0.2412192,0.1106292,-0.5730563,-0.0582602,-0.0518583,-1.415249,-0.1931859,-0.2501631
0.3344184,-0.2166495,0.1433697,-0.6679972,-0.03381927,-0.01862673,-1.016068,-0.1625567,-0.3862897
0.385755,-0.258573,0.1717271,-0.6175568,-0.07582973,0.01021758,-0.8594804,-0.2091349,-0.5725179
0.5271969,-0.2313261,0.1711758,-0.4769146,-0.04862804,0.01014844,-0.6945581,-0.264298,-0.7317224
0.5528433,-0.2209706,0.1948508,-0.4519479,-0.03827589,0.03429943,-0.5949017,-0.4698633,-0.7709397
0.6272672,-0.1468864,0.1429661,-0.378066,0.03584559,-0.01711713,-0.6331757,-0.7782375,-0.6746357
0.6863436,-0.01374539,0.08395508,-0.3193815,0.1690607,-0.07566858,-0.6466565,-0.7995728,-0.5418309
0.7868112,0.01403849,0.09582018,-0.2191474,0.1969478,-0.06335099,-0.7491849,-0.543909,-0.4762677
0.8604104,-0.01227456,0.1115059,-0.1456206,0.1707561,-0.0472175,-0.8359846,-0.2569449,-0.4662241
0.8359557,-0.06997104,0.149658,-0.1699877,0.1131887,-0.008620698,-0.8186882,-0.1623268,-0.4514075
0.9504077,-0.2653118,0.1566074,-0.05529211,-0.08202255,-0.001228944,-0.7514416,0.009089693,-0.312243
1.279945,-0.6197125,0.04452675,0.2746357,-0.4362926,-0.1128696,-0.5236965,0.5496041,-0.1137081
1.603409,-0.8218932,-0.08993837,0.59862,-0.6383284,-0.2468941,-0.09119396,0.9813944,-0.02228396
1.62563,-0.6850177,-0.04172874,0.6214585,-0.5012707,-0.1982363,0.3188435,0.6897365,-0.02102485
1.504612,-0.5368753,0.1179473,0.5011174,-0.3528849,-0.03809679,0.4282257,0.04494229,-0.04560538
1.540835,-0.4678583,0.1983261,0.5380416,-0.2835458,0.04276442,0.4202107,-0.2474463,-0.1370565
1.586519,-0.3475047,0.2189998,0.5844212,-0.1627816,0.06393746,0.4862648,-0.3659164,-0.313481
1.589832,-0.2518738,0.1929927,0.5883913,-0.06664762,0.0384419,0.4556891,-0.3933643,-0.3546665
1.604491,-0.1305216,0.1867202,0.6036428,0.05529793,0.03268865,0.2703099,-0.2580362,-0.2038823
1.512081,-0.03379633,0.1701697,0.5117313,0.1526989,0.01666094,-0.01610954,-0.1260299,-0.03338826
1.325952,-0.07619404,0.06272662,0.3259854,0.1110471,-0.09025799,-0.1850003,-0.01899384,0.2183709
1.05176,-0.09821271,0.02987213,0.05204816,0.0898313,-0.1225865,-0.1326403,-0.2694032,0.4741055
0.7938439,-0.1286959,0.04380137,-0.2057425,0.06019642,-0.1081263,-0.05987426,-0.6468356,0.5657426
0.741248,-0.1875124,0.02316516,-0.2583302,0.002264462,-0.1282226,0.06560591,-0.6491701,0.6106635
0.7099852,-0.1414481,0.01172685,-0.2896832,0.04924223,-0.1391078,0.2145747,-0.4384733,0.6371241
0.6102765,-0.1092622,-0.02059721,-0.3895587,0.08236411,-0.1708611,0.2702087,-0.1706539,0.6113549
0.5741604,-0.1076883,0.001835424,-0.4258947,0.08488917,-0.1478351,0.3768491,-0.1296616,0.5316679
0.6196914,-0.1262335,0.03162558,-0.380612,0.06730268,-0.1174244,0.5540317,-0.04576176,0.2958581
0.7857776,-0.2195853,0.00536085,-0.2147804,-0.02508943,-0.143038,0.7875241,0.4448589,-0.01881775
0.9527156,-0.2305736,0.01752054,-0.04808747,-0.03512094,-0.1301937,1.027389,0.8479248,-0.1522711
0.9323148,-0.1242331,0.05396619,-0.06871585,0.07217148,-0.0930277,1.080659,0.9351464,-0.1069269
0.7524406,0.0300393,0.1334644,-0.2487956,0.2273864,-0.01277249,0.9456948,0.6326788,-0.09551647
0.6060123,0.1357222,0.2185426,-0.3953993,0.3339931,0.07309686,0.6619135,0.1831734,-0.08951628
0.6250166,0.1135418,0.2128854,-0.3765267,0.312703,0.06825951,0.2777854,-0.03833084,-0.0104143
0.6801493,0.09271357,0.1853742,-0.3214663,0.2927158,0.04158943,0.02304377,-0.2603719,0.00747038
0.7471038,0.07418041,0.1620201,-0.2545109,0.27496,0.01909126,0.05160075,-0.2949033,-0.1038137
0.8841575,0.01382756,0.1113857,-0.1173743,0.215309,-0.03067733,0.1150454,-0.03892577,-0.2419956
0.9323993,-0.01572725,0.07425452,-0.06896396,0.1863715,-0.0669354,0.03429955,0.1092786,-0.2611447
0.9029946,-0.1118159,0.04506539,-0.09811528,0.0908098,-0.09524475,0.1020287,0.1623103,-0.2384248
0.9505935,-0.3465088,0.03390373,-0.05018071,-0.143447,-0.1055188,0.2057377,0.2080663,-0.3740659
1.039909,-0.5721748,0.1708868,0.0395492,-0.3687603,0.03236076,0.1423245,0.240956,-0.5484361
1.168317,-0.6286974,0.3661971,0.1684422,-0.4249964,0.228574,0.238131,0.1619853,-0.5250764
1.369383,-0.5231,0.4013689,0.3700526,-0.3191564,0.2646462,0.452588,-0.008090792,-0.2454612
1.567482,-0.4355165,0.3985598,0.5687352,-0.2313532,0.262721,0.5622455,0.02598285,0.07621229
1.670438,-0.4286752,0.4490897,0.6722845,-0.2242994,0.3141035,0.5185517,0.04230816,0.1253529
1.585678,-0.3415494,0.4237572,0.5880965,-0.1369566,0.2895776,0.4413389,-0.1263709,0.08479464
1.503743,-0.2257249,0.3463474,0.5066798,-0.02090275,0.2129146,0.5689444,-0.1140354,0.2028182
1.537223,-0.2439541,0.2694202,0.5405987,-0.03888702,0.1366642,0.6370403,0.1421463,0.2387311
1.330178,-0.210274,0.2140104,0.333891,-0.004946288,0.08185513,0.5356075,0.3802761,0.1923856
0.9459365,-0.05448671,0.2646466,-0.05012852,0.1511155,0.1330135,0.408575,0.1944143,0.2691397
0.6924344,0.0235182,0.3233889,-0.3035224,0.2294031,0.1921975,0.1784419,-0.2408874,0.3500502
0.5636048,0.03527009,0.2885237,-0.4323425,0.2414355,0.1576902,0.08754882,-0.3705315,0.4040698
0.5527851,0.02546735,0.2673885,-0.4432266,0.231899,0.1368257,0.08000123,-0.4093172,0.4831597
0.539809,-0.01976403,0.2167643,-0.456314,0.1869079,0.08638305,-0.1215161,-0.425729,0.5298904
0.4851751,-0.05459974,0.134793,-0.5110787,0.1522772,0.004504872,-0.2238327,-0.3853525,0.5255251
0.4741782,-0.093769,0.1715973,-0.5221991,0.1132708,0.04131704,-0.1065453,-0.4890744,0.385899
0.5087011,-0.1402641,0.2274155,-0.4877667,0.06689238,0.09706203,0.03483932,-0.5208926,0.1270119
0.6002236,-0.1795444,0.2309451,-0.3962782,0.02768093,0.10044,0.1482105,-0.5659213,-0.05543024
0.695904,-0.199989,0.2160138,-0.3005571,0.007257838,0.08528017,0.2333859,-0.6062221,-0.05223397
0.7975916,-0.1942042,0.166536,-0.1987416,0.01301923,0.03549858,0.2649662,-0.5347099,0.01724431
0.9017872,-0.1822968,0.1701551,-0.09432476,0.02486082,0.03874186,0.2616023,-0.5930482,-0.00235336
0.9706372,-0.1379917,0.1984208,-0.02515982,0.06905971,0.06656352,0.2525187,-0.5206554,-0.01895468
0.9856454,-0.1093818,0.1996913,-0.009747034,0.09752371,0.06732517,0.2310145,-0.3588807,-0.01427139
0.9362074,-0.1306538,0.2340419,-0.0586967,0.07606563,0.1011047,0.3158548,-0.3223867,-0.04689226
0.947541,-0.1560063,0.2425333,-0.04679664,0.05048598,0.1089646,0.4992428,-0.1870257,-0.07006286
1.047684,-0.2876913,0.2061663,0.05398534,-0.08146617,0.07190661,0.610542,0.03944865,-0.09215281
1.238556,-0.5109151,0.1236858,0.2455604,-0.3049912,-0.01132197,0.7346994,0.389102,0.03630529
1.424327,-0.5705594,0.007955073,0.4320845,-0.3649583,-0.1278529,0.9243059,0.6019296,0.2563944
1.383273,-0.4245151,0.03018263,0.3918114,-0.2192407,-0.1064687,0.9917301,0.3862145,0.3154385
1.34006,-0.2830296,0.1414299,0.3493828,-0.07807103,0.003902061,0.8830372,0.06802314,0.3592499
1.435618,-0.2309692,0.1854597,0.4457061,-0.02630726,0.04702953,0.7851072,-0.1961989,0.3644349
1.489016,-0.2120619,0.2065445,0.4998289,-0.007674381,0.0671898,0.707142,-0.3144006,0.2124278
1.522095,-0.1563799,0.1915003,0.5335699,0.04775533,0.05120042,0.4862208,-0.1804287,0.1127193
1.460615,-0.03579355,0.1741875,0.4726649,0.168109,0.03292299,0.2217471,-0.07042571,0.09160732
1.324928,-0.006053526,0.193275,0.3374464,0.1976296,0.05102826,-0.01196602,-0.09443555,0.09897283
1.272461,-0.05820237,0.1492802,0.2853264,0.145266,0.006035432,-0.1874708,-0.1021489,0.1895077
1.126794,-0.03022336,0.09407902,0.1398769,0.1730264,-0.0501766,-0.2137249,-0.1637329,0.3367012
0.9003847,-0.04831161,0.07512112,-0.08644594,0.1547081,-0.07015351,-0.2162486,-0.28393,0.4617739
0.8061258,-0.1046231,0.0651509,-0.180741,0.09814857,-0.08114471,-0.2194927,-0.2867609,0.481623
0.7513106,-0.102755,0.0681793,-0.2357004,0.09974603,-0.07913256,-0.1653557,-0.2384122,0.4748738
0.712864,-0.1344015,0.03350017,-0.2743808,0.06780345,-0.1148165,-0.05991611,-0.1616325,0.4979079
0.7496021,-0.1570265,0.01322199,-0.2379463,0.04485535,-0.1360809,0.1401748,0.0378475,0.4493226
0.7795017,-0.1585857,0.018372,-0.2084014,0.04294575,-0.131891,0.332936,0.3355616,0.2986122
0.778952,-0.1474713,-0.004507991,-0.2093405,0.0536831,-0.1556974,0.4504205,0.6851323,0.04417179
0.6922691,-0.08674316,0.005579393,-0.2964323,0.1140074,-0.1464951,0.4902526,0.8474838,-0.1925759
0.523739,-0.03214421,0.03893673,-0.4653743,0.1681742,-0.1139748,0.4362651,0.6917196,-0.292549
0.4474797,0.03352556,0.07866354,-0.5420274,0.2333795,-0.07503151,0.3244709,0.461573,-0.3051987
0.4797482,0.08805049,0.1062541,-0.5101101,0.2874009,-0.04816786,0.0835695,0.2576412,-0.2095229
0.56917,0.1015885,0.08582057,-0.4209731,0.3003874,-0.06927029,-0.189475,0.03824126,-0.09039132
0.7146717,0.1009742,0.06947619,-0.2756705,0.2991638,-0.08622455,-0.2963534,-0.02184508,-0.06404517
0.8020656,0.01295477,0.03127279,-0.1883776,0.2104683,-0.1249773,-0.3139529,0.09782041,-0.06802246
0.8674994,-0.1625528,0.006407485,-0.1229411,0.03421258,-0.1503289,-0.2873925,0.2408072,-0.1386634
1.069565,-0.4237018,0.1337526,0.07923016,-0.2277545,-0.02340414,-0.2312483,0.475376,-0.3769666
1.281174,-0.6883771,0.3219625,0.2910416,-0.493305,0.1644509,-0.2142144,0.5221127,-0.7114155
1.335785,-0.623907,0.4228743,0.345934,-0.4297442,0.2650658,-0.1702456,0.05782529,-0.8050406
1.404522,-0.4185852,0.4735755,0.4150099,-0.2253399,0.3155146,-0.1373544,-0.3803356,-0.5275082
1.713517,-0.4384058,0.4566014,0.7243762,-0.2460657,0.298316,-0.1585796,-0.3195828,-0.3087912
2.009941,-0.3526671,0.3891222,1.021167,-0.1612055,0.2306236,-0.1779577,-0.0238647,-0.359867
1.925254,-0.2569115,0.4181417,0.9368018,-0.06629137,0.2594269,-0.3610884,0.2662004,-0.4330846
1.666432,-0.3081887,0.4361345,0.6782102,-0.1183666,0.2771882,-0.6828775,0.4799723,-0.4122106
1.427596,-0.1044654,0.3802183,0.4394795,0.08460516,0.2210137,-0.8220396,0.2999734,-0.2864936
1.158723,-0.03836243,0.3591347,0.1705662,0.1500018,0.199635,-0.8488202,0.00701767,-0.06417343
1.062025,-0.14022,0.2532302,0.07367674,0.04747786,0.09339152,-1.033438,0.1513875,0.09855933
1.036174,-0.002377419,0.1335133,0.04748656,0.1846872,-0.02671111,-1.264594,0.2067018,0.1686348
0.8518034,-0.04195433,0.1324428,-0.137362,0.1445033,-0.02821189,-1.337516,0.114896,0.2594328
0.7308516,-0.1294044,0.119942,-0.258916,0.05646504,-0.04118235,-1.360897,0.2267587,0.3525132
0.6278002,-0.1445331,0.1042675,-0.3626735,0.04076194,-0.05736009,-1.37018,0.17279,0.4320125
0.4779054,-0.2419797,0.09590121,-0.5133527,-0.05724723,-0.06625665,-1.186537,0.1628984,0.4350539
0.4688968,-0.1756913,0.09109593,-0.5231942,0.008491098,-0.07161281,-0.8465967,0.2359401,0.286288
0.4506111,-0.174497,0.1214986,-0.5423293,0.00914909,-0.04177527,-0.5679592,0.1342779,0.08303
0.4499024,-0.2104662,0.1488983,-0.5438733,-0.02734215,-0.01494963,-0.4864455,0.07263716,-0.131334
0.6042133,-0.1736199,0.1822213,-0.3903551,0.008997187,0.01779397,-0.4687364,-0.09488559,-0.2142108
0.7707844,-0.2467676,0.1632018,-0.2245121,-0.06464154,-0.00180801,-0.3889029,-0.2349374,-0.1505828
0.8761024,-0.2269914,0.1397416,-0.1198443,-0.04533851,-0.02585206,-0.3542038,-0.1961652,-0.1779309
0.8859824,-0.1887025,0.1907694,-0.1105303,-0.007503053,0.02459262,-0.2850284,-0.1282901,-0.204304
0.9090175,-0.1679682,0.2201912,-0.08797527,0.01279888,0.05343307,-0.1521921,0.09360541,-0.2354222
0.9231392,-0.05901961,0.2495555,-0.07424752,0.1213352,0.08221754,-0.08889352,0.1898551,-0.344278
0.824806,0.01062537,0.2815111,-0.1728887,0.1905839,0.1135927,-0.06863635,0.07354006,-0.3485034
0.7892501,0.05020707,0.2717767,-0.2086654,0.2297776,0.1032742,-0.172209,-0.02083542,-0.3061256
0.8622313,-0.06592573,0.2464306,-0.1358147,0.1132558,0.07733684,-0.43816,-0.05457068,-0.1960699
1.202551,-0.4016431,0.1548071,0.2044647,-0.2228566,-0.014887,-0.5964192,0.3111047,0.02984321
1.707416,-0.778047,0.03402356,0.70937,-0.5996557,-0.1362787,-0.3260007,0.8601172,0.1048235
1.736425,-0.8936357,0.04957271,0.7384703,-0.7156189,-0.1213401,0.2227515,0.7994951,-0.03048626
1.389375,-0.6468857,0.224364,0.3915277,-0.4691933,0.05284491,0.4553292,0.1272951,-0.1978442
1.253336,-0.4275855,0.3576048,0.2555831,-0.2501415,0.185486,0.2586394,-0.556455,-0.2703527
1.384704,-0.2431822,0.3111182,0.3870131,-0.06589672,0.1384028,-0.1736551,-0.7087856,-0.184117
1.535814,-0.04125693,0.1771217,0.5381362,0.1359622,0.003807404,-0.8486143,-0.2830333,0.01733497
1.543205,-0.07268651,0.06116017,0.5454721,0.1045515,-0.1127566,-1.395947,0.06808257,0.1968081
1.392449,-0.1355484,0.001895852,0.3945717,0.04178304,-0.1726227,-1.476013,0.09389827,0.2588562
1.124374,-0.1724064,0.01246777,0.1262474,0.00508345,-0.1626438,-1.47797,0.07465634,0.1351109
0.8722462,-0.2494725,0.04067575,-0.1262395,-0.07176536,-0.135011,-1.520368,-0.1656983,-0.06692931
0.7449306,-0.2216313,0.04502544,-0.254015,-0.04365168,-0.1312107,-1.287916,-0.5525685,-0.08114681
0.707889,-0.2104318,0.04486066,-0.2916008,-0.03212686,-0.1318923,-1.046821,-0.615235,-0.0004558153
0.7447541,-0.2096297,0.001673541,-0.2553435,-0.03094901,-0.1755575,-0.9489714,-0.3080618,0.06486472
0.7682322,-0.1490751,-0.07357833,-0.2325168,0.03002808,-0.2512419,-0.8809305,0.08129148,0.1573492
0.7196196,-0.1193316,-0.08412679,-0.2818063,0.06023642,-0.2621686,-0.9526577,0.2539849,0.1177585
0.6886316,-0.1096158,-0.06924702,-0.3134795,0.07045286,-0.247603,-0.9155151,0.3484221,-0.002553906
0.6745749,-0.1541065,-0.06669489,-0.328212,0.02649171,-0.2452918,-0.7478895,0.4752262,-0.1056419
0.7158565,-0.2126406,-0.04108204,-0.2875794,-0.03148945,-0.2198385,-0.5532103,0.5585498,-0.1855625
0.8429701,-0.2141379,-0.01341638,-0.1610733,-0.03241375,-0.1922448,-0.2813403,0.7880076,-0.1659809
0.8881693,-0.2010633,-0.01284232,-0.11643,-0.01874799,-0.1916503,-0.2141936,0.930348,-0.1923822
0.7912162,-0.1534141,0.0006721479,-0.2138808,0.0295085,-0.1780199,-0.1801253,0.7079206,-0.3033832
0.6715862,-0.07044276,0.095369,-0.3339438,0.1130999,-0.08310986,-0.1039392,0.3706624,-0.4208315
0.6744861,-0.01918911,0.1580211,-0.3314021,0.16498,-0.02014859,-0.1806849,0.1006411,-0.5360276
0.7977077,-0.03168719,0.08604995,-0.2084528,0.1531059,-0.09171867,-0.2074465,-0.007978872,-0.5377103
0.8884377,-0.04686033,0.01430508,-0.1179012,0.138545,-0.1629746,-0.2514058,0.03735422,-0.4767428
0.9085396,-0.08811326,0.02018642,-0.09788115,0.0978845,-0.156518,-0.3018775,0.09808236,-0.4426324
0.958084,-0.3131911,0.06237975,-0.0483231,-0.1266257,-0.1136635,-0.3268043,0.1857907,-0.458496
1.137892,-0.6293033,0.1432195,0.1315904,-0.4421924,-0.0320783,-0.415432,0.3109355,-0.5888434
1.316319,-0.7499034,0.2868418,0.3102033,-0.5622548,0.1123688,-0.3523382,0.3211354,-0.7051678
1.383451,-0.6760772,0.4531442,0.3775866,-0.4878765,0.2795647,-0.1526858,0.2281583,-0.6557171
1.46747,-0.6087669,0.5640621,0.4618979,-0.419976,0.3914273,0.1036723,0.1120413,-0.4570933
1.508443,-0.4954034,0.5587846,0.5031812,-0.3059656,0.3871233,0.2668769,-0.1279308,-0.2210881
1.555115,-0.3073264,0.4725187,0.5501518,-0.1171731,0.3018363,0.1878306,-0.3088439,-0.07592496
1.696386,-0.235931,0.4001902,0.691684,-0.04498896,0.2304713,0.1084824,-0.1904765,0.0136726
1.640587,-0.2247424,0.3259312,0.6360787,-0.03294087,0.1571453,0.04422283,0.02492913,0.1354113
1.332172,-0.1888639,0.3068329,0.3277628,0.003862738,0.1389388,0.01437581,0.1512737,0.1879434
0.9974538,-0.1597188,0.3380274,-0.006967297,0.03399181,0.1709762,0.07940585,0.1628893,0.1454042
0.8442107,-0.1091098,0.288335,-0.1603342,0.08563584,0.1220711,0.03865355,0.003496884,0.2032839
0.7794758,-0.0954878,0.2513453,-0.2252941,0.1003342,0.08580785,0.004781501,-0.1988589,0.3271998
0.5134842,-0.07295775,0.2059245,-0.491593,0.1239714,0.0410498,0.002182495,-0.2632843,0.4261875
0.4143886,-0.05643231,0.1590603,-0.5910528,0.1416237,-0.005215769,-0.06772165,-0.3037997,0.5424211
0.5066135,-0.1135975,0.2108881,-0.4992181,0.08559427,0.04714787,-0.06966428,-0.4347214,0.5363618
0.3092915,-0.1130584,0.1869772,-0.6969248,0.08726849,0.02371206,-0.08649762,-0.6128813,0.4194328
0.2674193,-0.1140281,0.171483,-0.7391437,0.08742547,0.008633868,-0.06986986,-0.74366,0.2381434
0.4743965,-0.1673934,0.2155532,-0.5324425,0.03517155,0.05306286,0.06010742,-0.7049237,-0.02256833
0.5518691,-0.2218917,0.1807961,-0.4551477,-0.01823513,0.01860903,0.1748937,-0.6269971,-0.136997
0.6950703,-0.2998855,0.1818925,-0.3120066,-0.09515918,0.01995479,0.428717,-0.6192106,-0.1424547
0.778177,-0.319562,0.1673218,-0.2288311,-0.1137862,0.005581674,0.7596865,-0.5801912,-0.1736453
0.7825493,-0.3143217,0.1538327,-0.2242557,-0.1075133,-0.007758939,0.9182738,-0.5615413,-0.1635656
0.8183533,-0.2527043,0.2131237,-0.1881128,-0.04487678,0.05163411,0.975842,-0.5932727,-0.1605607
0.7435957,-0.08523183,0.2248026,-0.2623951,0.1236026,0.06337053,0.9678883,-0.602316,-0.1598864
0.7808668,-0.05902142,0.2383402,-0.2245119,0.150804,0.07692142,0.9002258,-0.5075319,-0.1005598
0.9491463,-0.228421,0.211882,-0.05548436,-0.01762692,0.05043214,0.8535631,-0.2404192,0.02025739
1.250199,-0.4270918,0.09085761,0.2464462,-0.2153546,-0.07066685,0.930106,0.097924,0.1623506
1.646489,-0.5198583,-0.02615245,0.6437252,-0.3071985,-0.1877905,1.138728,0.3772966,0.254274
1.70646,-0.4871386,-0.0240309,0.7047652,-0.273566,-0.1858126,1.309748,0.453391,0.2742753
1.525452,-0.4249347,0.1523101,0.5248645,-0.2104466,-0.009634845,1.386676,0.1250522,0.2256643
1.384813,-0.3273523,0.2733368,0.3853367,-0.1119369,0.1112151,1.402881,-0.4772933,0.1332295
1.392385,-0.2473557,0.2347165,0.3939954,-0.03099623,0.07240466,1.380819,-0.845249,0.01565216
1.540009,-0.1839716,0.1328704,0.5426573,0.03334872,-0.02964669,1.282435,-0.7534285,-0.01548243
1.575532,-0.07894716,0.04158613,0.579147,0.1393468,-0.1211504,1.016252,-0.4611262,0.07587837
1.448194,-0.04604143,0.06762603,0.4526797,0.173231,-0.09533941,0.7002428,-0.1641492,0.1573908
1.193273,-0.02881454,0.09534066,0.1985121,0.1914307,-0.06785711,0.4897989,-0.04025724,0.2970338
0.9507105,-0.008885481,0.07281186,-0.0434221,0.2123154,-0.09061621,0.4229341,-0.2356599,0.4662425
0.7713281,-0.05587455,0.0879597,-0.2222999,0.1662534,-0.07569198,0.4237833,-0.442615,0.5662439
0.576218,-0.05959647,0.07604027,-0.4170144,0.1634199,-0.087824,0.3953754,-0.4834414,0.6937502
0.5624359,-0.08161656,0.03837984,-0.4304877,0.1422412,-0.1256816,0.4427924,-0.4726205,0.7233032
0.6387108,-0.1247453,-0.008087366,-0.3539652,0.09990041,-0.1723255,0.5677953,-0.2993569,0.6123929
0.695573,-0.1091282,-0.04768878,-0.296893,0.1162472,-0.2120764,0.7073058,0.07877854,0.45285
0.7884412,-0.1245739,-0.0238613,-0.2038337,0.1014693,-0.1883632,0.8418073,0.5000142,0.1940309
0.757394,-0.1105052,0.03468912,-0.2346941,0.1161412,-0.1298845,0.8461728,0.6607667,-0.04415795
0.7042594,-0.05938979,0.1084287,-0.2876344,0.1677921,-0.0561691,0.826793,0.5162707,-0.2142613
0.6916541,-0.02338007,0.1550093,-0.3000255,0.2042655,-0.009563618,0.8035611,0.4348904,-0.2806608
0.6597446,0.04001343,0.1292124,-0.331688,0.2680452,-0.0352878,0.6516876,0.2526086,-0.1465313
0.7044822,0.05677744,0.1040272,-0.2866576,0.2851105,-0.06035457,0.5234528,-0.1297891,-0.01676599
0.7765974,0.02442796,0.09214607,-0.2141926,0.2529689,-0.07207284,0.3823381,-0.2376829,0.0226921
0.862227,-0.06013617,0.03617391,-0.1281487,0.1685125,-0.1278377,0.2822558,-0.1722907,0.0315217
0.9854451,-0.2841561,0.03227739,-0.004449274,-0.05550275,-0.1314812,0.4408133,-0.08109552,-0.05702146
1.147885,-0.5578226,0.1696609,0.1585356,-0.3292618,0.006202387,0.5825797,0.2076899,-0.2686806
1.317418,-0.6592638,0.3505947,0.3286674,-0.4308763,0.1874813,0.6123779,0.3577711,-0.5202815
1.374541,-0.5146102,0.4200863,0.3864251,-0.2864534,0.2573542,0.69555,0.07736975,-0.5126957
1.496622,-0.3597583,0.3752773,0.509155,-0.131868,0.212949,0.7219812,-0.2301906,-0.168353
1.741798,-0.3234528,0.3877614,0.754966,-0.09585011,0.2258448,0.6887594,-0.1562896,0.1375349
1.757892,-0.2778602,0.4284032,0.7716488,-0.05055716,0.2668927,0.5961935,0.01561481,0.1993929
1.555331,-0.235902,0.3890801,0.5695953,-0.008905214,0.227957,0.4671607,0.04024154,0.1812586
1.36429,-0.2436918,0.3356246,0.3789521,-0.01700486,0.1748584,0.5044181,0.05139617,0.2860238
1.20614,-0.2427229,0.2656406,0.2210721,-0.01634715,0.1051917,0.6322411,0.006761185,0.3558653
1.053442,-0.1911044,0.260343,0.06851022,0.03496019,0.1001664,0.6985509,-0.0330724,0.2837555
0.8200586,-0.1084011,0.306611,-0.1648703,0.1173522,0.1466581,0.6970566,-0.1528471,0.3312036
0.6323491,-0.04439301,0.2444794,-0.3526969,0.1810456,0.0846985,0.5866383,-0.501165,0.4375473
0.6050959,-0.007585353,0.1922453,-0.3801662,0.217529,0.03258275,0.4901305,-0.7181118,0.4989742
0.5496905,-0.01146898,0.1704847,-0.4358609,0.2133033,0.01088707,0.5054936,-0.6881073,0.5481729
0.5071664,-0.03384339,0.1602411,-0.4787201,0.1905605,0.0006572191,0.4888122,-0.5555732,0.4609767
0.4983168,-0.05212124,0.2248515,-0.4879233,0.1718804,0.06523309,0.4297163,-0.4517252,0.3282159
0.4638045,-0.09284388,0.2291353,-0.5227803,0.1307161,0.06943589,0.4046458,-0.5603233,0.1371831
0.5492131,-0.1299481,0.206388,-0.4376818,0.09312713,0.04656174,0.3711408,-0.6381827,-0.05130244
0.6703039,-0.1664065,0.1781082,-0.3168444,0.05613951,0.01811024,0.3557387,-0.4789511,-0.01654153
0.7387727,-0.1862239,0.1100757,-0.2485561,0.03574923,-0.05013657,0.4235701,-0.2759106,-0.002545509
0.7698472,-0.1733368,0.144848,-0.2175788,0.04802182,-0.01561698,0.5537109,-0.1426153,-0.076809
0.7296638,-0.2038745,0.21498,-0.2577692,0.01683058,0.05422809,0.6606055,-0.100727,-0.1379148
0.7834961,-0.2733939,0.2444778,-0.2038482,-0.05337794,0.08340715,0.7136466,-0.1824049,-0.2165669
1.070867,-0.3797704,0.2000232,0.08370982,-0.1604732,0.03860222,0.8092928,-0.1847078,-0.1486259
1.489463,-0.497726,0.02872139,0.5025851,-0.2791673,-0.1330799,0.9562977,0.178265,0.04667304
1.654578,-0.489264,-0.06516241,0.6680476,-0.2714494,-0.2273682,1.054553,0.5227279,0.2687235
1.514563,-0.4033823,0.01666427,0.5284182,-0.186302,-0.1459596,1.051102,0.3052423,0.3719553
1.54193,-0.3644576,0.1354764,0.5561747,-0.1480891,-0.02756873,1.028955,-0.1148422,0.2159913
1.622697,-0.3005619,0.1694894,0.6373033,-0.08487351,0.006026001,1.111806,-0.342182,0.04673089
1.56886,-0.169858,0.1390776,0.5837709,0.04518696,-0.0247987,1.135784,-0.4941582,-0.08624631
1.598318,-0.06977685,0.1357089,0.6134495,0.1446613,-0.02857331,0.9505609,-0.4647715,-0.1841005
1.529228,-0.02634903,0.1285308,0.5444701,0.1875136,-0.03614864,0.6507068,-0.3155286,-0.0453219
1.396674,0.01916972,0.1095791,0.4118955,0.232479,-0.05548664,0.3202164,-0.2608446,0.1747805
1.332187,0.005712653,0.09010613,0.3472416,0.2184804,-0.07533221,0.1501155,-0.1987853,0.365492
1.043223,-0.09622329,0.0655263,0.05795743,0.1160047,-0.1002676,0.1657111,-0.3074815,0.5242034
0.748478,-0.1213183,0.06713964,-0.237258,0.09036431,-0.09898851,0.185999,-0.5428937,0.6023853
0.7389464,-0.09816448,0.05742125,-0.2473959,0.112963,-0.1090155,0.2034542,-0.5575788,0.7204841
0.724997,-0.1286344,0.02567627,-0.2620648,0.08192527,-0.141039,0.2028656,-0.4006867,0.7545696
0.6511889,-0.1129913,-0.003836277,-0.336682,0.09698535,-0.1707946,0.2425607,-0.1538546,0.6917532
0.6654614,-0.1025347,-0.01607054,-0.3232841,0.1068414,-0.1832305,0.3814425,-0.02653201,0.6588309
0.6669776,-0.1160805,-0.004095254,-0.3226845,0.09267553,-0.1714091,0.5128567,0.1248569,0.4436801
0.6783913,-0.08925375,0.0205341,-0.3122069,0.1188605,-0.14688,0.5976417,0.5246965,0.166467
0.7421297,-0.08374017,0.06332109,-0.2494042,0.1237083,-0.1041352,0.6109476,0.7051017,0.02011137
0.7134563,-0.06303075,0.08409542,-0.2789957,0.1437254,-0.08334261,0.5848324,0.6673775,-0.07127193
0.6953461,-0.06131865,0.08765789,-0.2979911,0.1447155,-0.07970076,0.5561174,0.5490051,-0.05800548
0.7567194,-0.0748266,0.09538642,-0.2374555,0.1304527,-0.07183212,0.4872427,0.2939291,-0.007784663
0.8005501,0.0009341419,0.06871938,-0.1944029,0.2054228,-0.09829899,0.3810517,0.1975141,0.07441256
0.8798581,0.04213009,0.05022727,-0.1158045,0.2457879,-0.1165312,0.2530506,0.1996782,0.1542561
0.9012768,-0.03747758,0.05139857,-0.09502179,0.1653038,-0.11504,0.2450336,0.1763651,0.09580623
0.8735625,-0.2087817,0.05268559,-0.123296,-0.00692582,-0.1133725,0.408424,0.202726,0.002685357
0.9534647,-0.4122876,0.1156104,-0.04387639,-0.2114036,-0.05000644,0.5991529,0.2972152,-0.2455734
1.085583,-0.5090895,0.2460883,0.08783559,-0.3092125,0.08097108,0.6935282,0.3751364,-0.7299198
1.269333,-0.4501005,0.4129386,0.2712497,-0.2512486,0.2483724,0.5090691,0.1911376,-0.9714284
1.47655,-0.3635645,0.5214753,0.4781866,-0.1657383,0.3574979,0.2219561,-0.1016741,-0.5853141
1.619339,-0.3648879,0.4493737,0.6207296,-0.1680741,0.2860045,0.2041101,-0.2092118,0.03451535
1.689777,-0.3693262,0.3455928,0.6909268,-0.1735005,0.1828327,0.2673714,-0.09102824,0.2848571
1.671325,-0.362528,0.354865,0.6722055,-0.1676563,0.1927007,0.2465434,0.11001,0.2945587
1.551555,-0.3574581,0.3569567,0.5521069,-0.1634976,0.1953638,0.2488939,0.1278941,0.2796403
1.306266,-0.293707,0.3448725,0.3064048,-0.100607,0.1838169,0.2634631,0.036419,0.2376046
1.105461,-0.2695452,0.3493338,0.1050884,-0.07725002,0.1887727,0.3672859,-0.08422784,0.2812429
1.053505,-0.2489387,0.3158542,0.05251974,-0.05738947,0.155737,0.4921826,-0.22251,0.2849466
0.9292044,-0.1575362,0.2764905,-0.07249058,0.03332684,0.1167605,0.4536737,-0.2305134,0.3053479
0.7672827,-0.07982619,0.220611,-0.2352094,0.1104081,0.06120766,0.3388214,-0.2297983,0.4287387
0.6581594,-0.03514437,0.1749133,-0.3452005,0.1545128,0.01577501,0.1948638,-0.2545932,0.4853341
0.4785979,-0.03725704,0.1776787,-0.5256779,0.1518661,0.01874515,0.04371076,-0.2812108,0.5399536
0.3671866,-0.04061691,0.1705317,-0.6380246,0.1480061,0.01174539,0.04910846,-0.40323,0.5200485
0.3884503,-0.0492003,0.1845668,-0.6176832,0.1389476,0.02587315,0.1584381,-0.4668012,0.4037111
0.3855635,-0.09752252,0.2197873,-0.621446,0.09016775,0.06113414,0.2514254,-0.4245796,0.2719914
0.4286433,-0.1246414,0.2410495,-0.5791649,0.06260289,0.08238606,0.3706195,-0.41386,0.0221453
0.5901169,-0.1789798,0.2406018,-0.4183861,0.007826544,0.08187752,0.3769202,-0.4524377,-0.2104136
0.8058883,-0.2435239,0.201053,-0.2031868,-0.05714835,0.04221736,0.3138268,-0.4677985,-0.3973989
0.9052435,-0.2261743,0.1915192,-0.1042718,-0.04022084,0.0325225,0.4323223,-0.4058717,-0.4779227
0.8117448,-0.1524329,0.2064352,-0.1980774,0.03310909,0.04722956,0.582306,-0.2787943,-0.3400773
0.7821209,-0.1002249,0.2242644,-0.2278749,0.08491674,0.06480358,0.7232185,-0.1553874,-0.2985808
0.7983293,-0.1103689,0.2575889,-0.2117059,0.07438122,0.09782787,0.815269,-0.1652655,-0.3029946
0.7959222,-0.1447967,0.2435428,-0.2140165,0.03956771,0.08343659,0.6924113,-0.1465763,-0.172022
1.026877,-0.2381574,0.2070291,0.0171703,-0.05417477,0.04653272,0.6437003,0.1486844,-0.07963364
1.323441,-0.3704526,0.1319696,0.314094,-0.1868461,-0.02896056,0.7344513,0.4826344,0.03997458
1.484807,-0.414793,0.04346105,0.4759292,-0.2315503,-0.1179423,0.8370623,0.5315259,0.1634281
1.591028,-0.4262527,0.1031459,0.5827002,-0.2433514,-0.05876293,0.983866,0.2715296,0.1207806
1.600778,-0.4340409,0.2003019,0.5930484,-0.2514474,0.03786238,1.017918,-0.05242015,0.005712378
1.593317,-0.3303858,0.1938198,0.5861978,-0.148056,0.03082871,0.9651548,-0.2624412,-0.1327136
1.611392,-0.1521104,0.1916219,0.6048639,0.03000661,0.02806011,0.7783216,-0.4102687,-0.2932374
1.506491,0.02129977,0.2057372,0.5005028,0.2032541,0.04158691,0.3345942,-0.4331795,-0.2819715
1.341396,0.0998731,0.1919626,0.3358713,0.2817065,0.02720726,-0.01194444,-0.3297531,-0.05386128
1.318041,0.006455972,0.1631535,0.312887,0.1881966,-0.002222078,-0.1023069,-0.2100362,0.1993418
1.271866,-0.0634201,0.09655553,0.2669766,0.1182429,-0.06945308,-0.1054378,-0.1780265,0.4423435
1.020751,-0.06355005,0.04876805,0.01601543,0.1180412,-0.1178816,-0.03429922,-0.3130265,0.6097853
0.8279808,-0.132557,0.05140745,-0.1767123,0.04896191,-0.1158847,0.05803277,-0.3971835,0.6311108
0.7733818,-0.1482528,0.03713384,-0.2313685,0.03318935,-0.1307944,0.147908,-0.3019174,0.6078821
0.751923,-0.1250351,0.02718963,-0.2529673,0.0563236,-0.1413607,0.2763377,-0.1747159,0.5339809
0.7615501,-0.1260062,0.02050722,-0.2435448,0.05526066,-0.1486435,0.3606284,-0.02564497,0.4274486
0.7336739,-0.08591381,0.001335815,-0.2716718,0.09525076,-0.168386,0.4188608,0.2039671,0.2360094
0.6990134,-0.07638238,0.03938525,-0.3066119,0.1046665,-0.130871,0.5026166,0.4098246,-0.03980577
0.6717562,-0.05753428,0.09351791,-0.3341595,0.1233817,-0.07723012,0.5197308,0.5009988,-0.1967722
0.6651527,-0.004818289,0.09075446,-0.3410465,0.1759432,-0.08043874,0.4024846,0.5323152,-0.2407717
0.6954117,0.01347985,0.0796367,-0.3110467,0.1940594,-0.09195278,0.1841304,0.4001495,-0.1349073
0.690241,0.03093272,0.06888294,-0.3164365,0.211296,-0.1030519,-9.478378e-05,0.1347965,0.05307241
0.7197444,0.0313981,0.03806629,-0.2870982,0.2115037,-0.1341605,-0.05659693,-0.02848286,0.1279706
0.7715306,0.02564736,0.04099102,-0.2354114,0.2054467,-0.1314715,-0.02786744,-0.08962338,0.1364985
0.8018214,0.02731628,0.06134228,-0.2051454,0.2067544,-0.1112966,-0.02527437,0.009409721,0.03314457
0.8443396,-0.02249925,0.05405465,-0.1625711,0.1565173,-0.1186987,-0.05569234,0.1537975,-0.1321605
0.4091122,-0.2121391,0.1542962,-0.5616263,-0.01847468,0.006291944,-0.6261067,-0.4029983,-0.09990152
0.6454245,-0.2063676,0.15681,-0.3253683,-0.01319633,0.008060026,-0.3446854,-0.4013939,-0.2458766
0.6273327,-0.2038659,0.1586664,-0.3434522,-0.01119298,0.009130265,-0.3076444,-0.4718116,-0.3141802
0.8065567,-0.2003403,0.1736538,-0.1641452,-0.008168671,0.02329578,-0.3238385,-0.4659346,-0.4041763
0.9685094,-0.1545041,0.2062462,-0.002027901,0.03716527,0.05503423,-0.3698595,-0.476864,-0.473388
0.898618,-0.148692,0.2105506,-0.0716737,0.04247465,0.05845547,-0.3286698,-0.4059251,-0.3400964
0.975339,-0.1451642,0.186256,0.005369739,0.04549901,0.03325034,-0.2453913,-0.1646271,-0.2125921
0.9130491,-0.1397857,0.1947955,-0.05652551,0.05037243,0.04085411,-0.253919,-0.04815339,-0.2211646
0.895914,-0.190059,0.2182903,-0.07319834,-0.0004080715,0.06339015,-0.234369,0.08977107,-0.2493155
0.994679,-0.2747514,0.2018586,0.02609281,-0.08560909,0.04597841,-0.278902,0.328718,-0.2463391
1.215189,-0.4025338,0.05323147,0.2471866,-0.2138973,-0.1036475,-0.2050169,0.5554773,-0.1206465
1.530926,-0.5143709,-0.1065935,0.5635499,-0.3262283,-0.2644835,0.01528486,0.5612386,0.04017297
1.419197,-0.4199495,0.02037395,0.4524681,-0.2322759,-0.138528,0.1267778,0.3251482,0.06825191
1.328566,-0.2645541,0.1755161,0.3624755,-0.07731237,0.01561261,0.1701918,0.1856134,0.002251624
1.586871,-0.3168015,0.1182669,0.6213883,-0.1299472,-0.04262146,0.1596945,0.05290503,-0.1074224
1.682203,-0.2829267,0.1591914,0.7172697,-0.0964113,-0.002662281,0.1456184,0.02004427,-0.276255
1.584794,-0.1098736,0.2224591,0.6203226,0.07635307,0.0596613,-0.03570226,0.089633,-0.3677602
1.420918,-0.1028425,0.1521365,0.4567935,0.08314358,-0.01158384,-0.3527829,-0.01469928,-0.2902576
1.235874,-0.03984325,0.1529413,0.2719624,0.1459441,-0.01167996,-0.4473727,0.008354334,-0.1763374
1.17472,0.03057797,0.1175978,0.2108755,0.2161996,-0.04790151,-0.4868844,0.01929172,0.05430021
1.144213,-0.06082387,0.03669427,0.1802867,0.1246548,-0.1296573,-0.5351442,-0.07460792,0.3118644
0.9431105,-0.03999893,0.06906314,-0.02104364,0.1453498,-0.09811048,-0.52596,-0.001971413,0.3329567
0.7604107,-0.04533129,0.05194191,-0.2041096,0.1398923,-0.1160179,-0.5731917,-0.003009281,0.3586848
0.7624318,-0.1105256,0.0271363,-0.2025774,0.07457101,-0.1415684,-0.5868882,0.05933965,0.408321
0.7051174,-0.09507368,0.056588,-0.2604837,0.08988878,-0.1128149,-0.5041274,0.2137281,0.3297918
0.580721,-0.1645716,0.0283008,-0.3855529,0.02024633,-0.1417486,-0.2727485,0.2763769,0.2495373
0.580687,-0.1809492,0.03713238,-0.3863167,0.003712218,-0.1335069,0.02216848,0.5035498,0.07460525
0.5849172,-0.1284217,0.06851948,-0.3828481,0.05607112,-0.1026491,0.2130869,0.7284257,-0.1399653
0.5346969,-0.1133747,0.08627749,-0.4338371,0.0709372,-0.0853565,0.306182,0.7484004,-0.2659757
0.6289461,-0.0387491,0.1237456,-0.3403407,0.1453673,-0.04828859,0.2343953,0.6710638,-0.3194398
0.7999393,-0.008272923,0.1088578,-0.1700649,0.1756295,-0.06351126,0.01193419,0.5408842,-0.1619193
0.8513966,-0.001259618,0.07912401,-0.1192767,0.1824043,-0.09351527,-0.2021813,0.3756932,0.03097864
0.8191899,0.02317864,0.06091228,-0.1520972,0.2065728,-0.1119323,-0.3258396,0.177788,0.03465511
0.7801896,-0.009040517,0.05533504,-0.1916507,0.1740459,-0.117649,-0.4045554,0.1494849,-0.03299442
0.803559,-0.09050354,0.06926909,-0.1687683,0.09223155,-0.1037871,-0.4570262,0.2505243,-0.1188493
0.8420953,-0.3148989,0.06605446,-0.1306474,-0.1325602,-0.1070058,-0.3754476,0.2646368,-0.2560661
0.9334146,-0.5716702,0.1566836,-0.03966886,-0.3897664,-0.01631249,-0.2387507,0.2919995,-0.5738224
1.159026,-0.6168646,0.3517308,0.1856755,-0.435418,0.1788639,-0.1889478,0.252562,-0.9256035
1.346781,-0.4655183,0.4874765,0.3732275,-0.2845295,0.3147941,-0.1545918,0.03248134,-0.8644403
1.571381,-0.2882474,0.5105909,0.597671,-0.1076988,0.3381323,-0.2022459,-0.08837456,-0.4719638
1.82376,-0.2053352,0.4676912,0.8499107,-0.02519832,0.2954765,-0.4567679,0.1781034,-0.08409307
1.801861,-0.1672999,0.4486957,0.8278529,0.01245672,0.2767269,-0.6921242,0.4941529,0.1330179
1.611053,-0.161721,0.4428107,0.6368295,0.01768659,0.2710737,-0.6805283,0.3675863,0.1276759
1.424399,-0.18821,0.3856734,0.449869,-0.009121854,0.2141408,-0.5793068,0.2593339,0.1382658
1.202391,-0.1767057,0.3391453,0.2274451,0.002090947,0.1677789,-0.5950872,0.3867234,0.1848493
0.9364654,-0.1437502,0.3455899,-0.03901422,0.03478158,0.1743435,-0.6330161,0.2154707,0.1650723
0.7439349,-0.1010109,0.3488674,-0.2321917,0.07728015,0.1776885,-0.6244231,-0.00592666,0.2607838
0.700966,-0.08687171,0.3015123,-0.2759051,0.09119903,0.1303436,-0.6481923,-0.06093412,0.3736338
0.6226714,-0.1070836,0.244362,-0.3550202,0.07078227,0.07314265,-0.6389617,-0.1493674,0.4404395
0.5497703,-0.09997257,0.2175852,-0.4287935,0.07769936,0.04625345,-0.6103428,-0.1611124,0.5180304
0.5576283,-0.1089772,0.2032155,-0.4218336,0.06850735,0.03171107,-0.5398173,-0.2488401,0.4424015
0.4919634,-0.127388,0.2135514,-0.4883964,0.04991237,0.04181666,-0.3800343,-0.3478747,0.3090962
0.4997531,-0.139088,0.237068,-0.4814782,0.03802844,0.06504798,-0.3266885,-0.3660312,0.1270496
0.5611749,-0.1828836,0.2425885,-0.4208771,-0.005952347,0.07023019,-0.2683124,-0.5528147,-0.1075664
0.5954379,-0.2012259,0.215757,-0.3873622,-0.02448141,0.04300908,-0.1073906,-0.6980771,-0.1717595
0.7687698,-0.1923548,0.1759621,-0.2146888,-0.01579737,0.002775445,-0.04937163,-0.6872019,-0.1852106
0.8796305,-0.1826036,0.1889833,-0.1043868,-0.006232385,0.01531205,-0.01225478,-0.6224438,-0.171757
0.910787,-0.1523772,0.2154996,-0.07368567,0.02380976,0.04130163,0.06328934,-0.516909,-0.1115929
0.9633082,-0.1413689,0.225211,-0.02151782,0.03463554,0.05044739,0.07450613,-0.4470485,-0.1329402
0.9076373,-0.1186615,0.2585652,-0.07744356,0.05716109,0.08319889,0.03134737,-0.4191483,-0.1199638
0.9260453,-0.07387437,0.2611075,-0.05919542,0.1017649,0.08510225,-0.02289221,-0.3876425,-0.1164098
1.014531,-0.130984,0.2138651,0.02922105,0.04446744,0.03718545,-0.1114063,-0.1558652,-0.1607227
1.151807,-0.2968629,0.09956951,0.1665127,-0.1216052,-0.07781802,-0.2645283,0.194715,-0.1466191
1.383388,-0.4455068,-0.05704397,0.3981821,-0.2704454,-0.2351668,-0.3094569,0.4273923,-0.09562413
1.380592,-0.4877116,-0.04676243,0.3955281,-0.3128389,-0.2256368,-0.1078748,0.4947153,-0.007704078
1.306682,-0.4647195,0.1013877,0.3217896,-0.290014,-0.07824111,0.2233819,0.3288203,0.02576006
1.405262,-0.4365204,0.178131,0.4205504,-0.2619466,-0.002245524,0.4941099,0.1373588,0.01149973
1.501908,-0.3410658,0.1929994,0.5173641,-0.1665767,0.01188641,0.5773068,-0.03659682,-0.03100874
1.592829,-0.2061563,0.1713091,0.6084171,-0.03169769,-0.01052763,0.502913,-0.1541686,-0.2025953
1.481934,-0.075651,0.1518918,0.4975909,0.09883238,-0.03065453,0.2816147,-0.09120174,-0.2871024
1.220065,0.0213752,0.162333,0.2357078,0.1959331,-0.02090721,-0.09075414,-0.1266391,-0.2024112
1.185641,-0.0249515,0.1294436,0.2011729,0.1497203,-0.05447237,-0.3665235,-0.1259054,-0.08970787
1.155599,-0.06341019,0.08961111,0.1709172,0.1114037,-0.09495994,-0.4064304,-0.0395601,0.1414262
1.003809,-0.05293099,0.05212908,0.01881028,0.1220436,-0.133072,-0.3987958,-0.02882277,0.4145287
0.8984972,-0.1272822,0.02439449,-0.08691831,0.0478642,-0.161406,-0.3738388,0.06606897,0.543053
0.7570298,-0.1305846,0.04105246,-0.2288915,0.04473907,-0.14531,-0.2991032,0.05810948,0.5595691
0.6613669,-0.1105517,0.02488677,-0.3251336,0.06495083,-0.1619937,-0.2616302,-0.006940076,0.5171393
0.6674531,-0.1392316,0.01957214,-0.3196797,0.03644816,-0.167776,-0.1590244,0.03356742,0.4393068
0.6967086,-0.1207488,0.03605701,-0.2910881,0.0551036,-0.1517026,0.03386606,0.1687573,0.3094437
0.7613843,-0.1393832,0.02704617,-0.2270886,0.0366346,-0.1610634,0.2287298,0.5376042,0.08925608
0.7618841,-0.1304305,0.05740227,-0.2272607,0.04574324,-0.1309911,0.4170862,0.8247269,-0.118055
0.7414795,-0.07103555,0.09898819,-0.2483195,0.1052824,-0.08961988,0.4496727,0.855621,-0.198929
0.7685213,-0.04240207,0.1354973,-0.2219012,0.1340446,-0.05325502,0.2616617,0.7251045,-0.182134
0.7695828,-0.01796263,0.1344953,-0.2214212,0.1585923,-0.05433161,-0.004556118,0.4140034,-0.08989793
0.8086026,0.0008573741,0.08120274,-0.1829311,0.1774937,-0.1076305,-0.1838649,0.145687,0.04227635
0.8550628,0.05529026,0.07929894,-0.1369406,0.231974,-0.1094733,-0.2574368,0.02356667,0.09606305
0.8514023,0.03135382,0.08558741,-0.1410059,0.208043,-0.1030562,-0.3326597,0.06007516,0.01408323
0.8714467,-0.1249068,0.08449802,-0.1212971,0.05173891,-0.1039492,-0.395285,0.1120389,-0.1054221
0.9209655,-0.3049098,0.1016158,-0.07204287,-0.1283585,-0.08656743,-0.4381251,0.08776187,-0.1880038
0.9736682,-0.4829434,0.1072283,-0.01953297,-0.3065313,-0.08062412,-0.3703466,0.2547392,-0.4110122
1.031136,-0.5481518,0.1886686,0.03781085,-0.3719097,0.001211982,-0.2041042,0.3976816,-0.7959154
1.117089,-0.5919242,0.3053764,0.1237049,-0.4158634,0.1183761,-0.1953424,0.2550221,-0.9505321
1.227546,-0.5671051,0.3642572,0.2341561,-0.391216,0.1777653,-0.2124734,-0.001266013,-0.6665592
1.417809,-0.3180333,0.4093793,0.4244561,-0.1422875,0.2234352,-0.162717,-0.2037035,-0.1992608
1.640717,-0.2487188,0.4166353,0.6474198,-0.07307612,0.2312642,-0.181164,-0.09459636,0.09246127
1.661392,-0.3371254,0.4043545,0.6681428,-0.1615405,0.2195669,-0.1935779,0.1815124,0.1002454
1.600851,-0.2933505,0.4345018,0.6076112,-0.117775,0.250294,-0.2644462,0.2524674,0.01981162
1.53753,-0.2847448,0.4228878,0.5442296,-0.1091273,0.2392426,-0.3463271,0.2066392,0.04727289
1.291353,-0.2582088,0.355615,0.2978996,-0.08249564,0.1725029,-0.3132719,0.1664661,0.07651983
1.095036,-0.2120667,0.3137114,0.1013225,-0.03620376,0.1310933,-0.3412767,0.1580736,0.074797
0.9541222,-0.168876,0.2640478,-0.03995909,0.007189553,0.08187789,-0.4524647,0.1290617,0.2186334
0.696741,-0.05175363,0.2310404,-0.2978095,0.1245631,0.04926971,-0.5057206,-0.004128716,0.3713044
0.5800928,-0.04495523,0.2248141,-0.4150109,0.131654,0.04339221,-0.4864988,-0.1420577,0.4334836
0.5084682,-0.07449368,0.1673112,-0.4872478,0.1024398,-0.01381172,-0.4698274,-0.3179078,0.4554394
0.4005216,-0.03959592,0.1359364,-0.5958365,0.1376842,-0.04493524,-0.4321794,-0.4623089,0.3244968
0.4347391,-0.04496591,0.1471406,-0.5622599,0.1326743,-0.03352342,-0.3254126,-0.3858298,0.1035051
0.449251,-0.06491313,0.1626854,-0.5483568,0.1130921,-0.01781065,-0.2802415,-0.3369687,-0.1389582
0.4696966,-0.1082236,0.2078699,-0.5284599,0.07014404,0.02750598,-0.2928538,-0.4141709,-0.3436154
0.5645294,-0.1409213,0.2165715,-0.4340913,0.03780077,0.03630575,-0.2911377,-0.4084204,-0.3967683
0.676021,-0.1393082,0.2093268,-0.3229598,0.03975674,0.02912625,-0.3562059,-0.3889628,-0.3700671
0.8626184,-0.1354091,0.2177977,-0.1366063,0.04398489,0.03762981,-0.4551784,-0.3972142,-0.3058937
0.9862397,-0.1346981,0.2109382,-0.01310862,0.04500899,0.03077101,-0.481423,-0.344468,-0.2341479
1.01633,-0.1968217,0.2152899,0.01697496,-0.0168189,0.0350921,-0.3661662,-0.2109866,-0.1908152
1.016883,-0.258339,0.2185374,0.01763026,-0.07805775,0.03827815,-0.1425869,-0.01511647,-0.2343174
0.9935498,-0.2473562,0.208606,-0.005500608,-0.06681148,0.02825521,0.0003545387,0.1204714,-0.3423678
1.058687,-0.2628216,0.1510433,0.05993125,-0.08202436,-0.02942819,0.01403178,0.2692691,-0.3237356
1.227709,-0.3505621,0.04981463,0.2293288,-0.1695189,-0.1308035,0.04109067,0.4776992,-0.1796075
1.463633,-0.3968266,0.00397515,0.4656941,-0.2155374,-0.1768092,0.111165,0.3780552,-0.01270069
1.608666,-0.3383035,0.00660266,0.611212,-0.1567599,-0.1743585,0.1363491,0.1125609,0.02308912
1.68472,-0.2740222,0.01271187,0.6877614,-0.09220838,-0.1684266,0.1074999,0.09141729,-0.05903839
1.789403,-0.2113573,0.06558379,0.7929151,-0.02925268,-0.1157234,-0.02108442,0.08405296,-0.1271019
1.540095,-0.07542758,0.1912953,0.5440184,0.1069885,0.009834262,-0.349337,0.008155639,-0.3229398
1.213575,0.02888647,0.2914703,0.217821,0.2116303,0.1098722,-0.671879,-0.07742391,-0.4006278
1.354619,-0.001149137,0.2589986,0.3590825,0.1819294,0.07727705,-0.7126034,-0.1580912,-0.184121
1.416156,-0.04283694,0.1558732,0.4207208,0.1405726,-0.02596212,-0.686906,-0.03256498,0.04368304
1.231518,-0.02689103,0.07671671,0.2360596,0.1568366,-0.1052241,-0.8142325,0.05614637,0.3101893
1.104725,-0.01091663,0.04170387,0.1091123,0.1731082,-0.1403317,-0.9042275,-0.03202524,0.4215786
0.8705179,0.01734083,0.05807359,-0.1253808,0.201634,-0.1240406,-1.005349,-0.09778486,0.3244461
0.7758253,-0.005639517,0.0638169,-0.2204791,0.1788851,-0.1183544,-1.157519,-0.148942,0.3609066
0.8458466,-0.07791831,0.02566693,-0.1509667,0.1067939,-0.1565345,-1.114114,-0.0574401,0.3709008
0.7338433,-0.09522341,0.0153436,-0.2635636,0.08962753,-0.1668559,-1.02181,0.1379937,0.3156206
0.738679,-0.1176911,0.02095727,-0.2593872,0.06724771,-0.1612024,-0.9154666,0.295537,0.2536539
0.8416085,-0.1244574,0.01721962,-0.1571641,0.06051761,-0.1648568,-0.7132379,0.5579121,0.04602368
0.855076,-0.09490827,0.02354546,-0.144434,0.09005134,-0.1583991,-0.6575967,0.8446679,-0.100848
0.9193817,-0.0868387,0.01718653,-0.08088433,0.09805375,-0.1645734,-0.6545274,0.9032918,-0.1565019
0.8533704,-0.02697735,0.01933411,-0.1476607,0.1577951,-0.1621841,-0.6708628,0.7317401,-0.224818
0.7718142,0.04821518,0.02092811,-0.2299814,0.2328118,-0.1602879,-0.7981646,0.570127,-0.1886764
0.8043872,0.09368814,0.009511826,-0.198161,0.2780477,-0.1713382,-0.9219947,0.5631224,-0.1219868
0.7880231,0.1342785,0.01664298,-0.2152541,0.318332,-0.1637744,-1.116717,0.6401621,-0.05669321
0.822828,0.1290672,0.01715899,-0.1811436,0.3127363,-0.1627567,-1.290696,0.7108172,0.07011809
0.822473,0.1156491,0.02132601,-0.1821491,0.2988463,-0.1580167,-1.367181,0.6886801,0.1085181
0.7961102,0.08282912,0.03198677,-0.2091098,0.265459,-0.1467102,-1.442861,0.5502684,0.02634931
0.8402056,0.01709285,0.03403127,-0.1655523,0.1990542,-0.1439466,-1.457898,0.3943715,-0.03319528
0.8569415,-0.02762447,0.03559755,-0.1492878,0.1535645,-0.1415873,-1.452032,0.3738376,-0.0729946
0.9386936,-0.1596795,0.02024377,-0.06793605,0.02063418,-0.1560744,-1.468623,0.4845854,-0.1204849
1.011359,-0.4388558,0.03457874,0.004401286,-0.2595136,-0.1407991,-1.528838,0.6237429,-0.233224
1.049593,-0.6883557,0.1189426,0.04237678,-0.5100643,-0.05542227,-1.600244,0.7838444,-0.5808233
1.137364,-0.7671525,0.2344845,0.1299528,-0.5899642,0.06120163,-1.522479,0.8061551,-1.011706
1.205785,-0.7359296,0.36,0.1982346,-0.5598634,0.1878598,-1.230646,0.6470716,-1.182796
1.434997,-0.6466333,0.5086539,0.4273489,-0.4716749,0.3377029,-0.890489,0.4836316,-1.152631
1.783963,-0.4254086,0.5450079,0.7762398,-0.2515164,0.3752729,-0.9394281,0.2874957,-1.030883
1.871386,-0.1622821,0.3414371,0.8635772,0.01060279,0.1729236,-1.371887,0.2335361,-0.719444
1.677676,-0.09854114,0.156577,0.6697331,0.07340117,-0.01072595,-1.759737,0.4717848,-0.4072964
1.523195,-0.173668,0.1500743,0.5150366,-0.002605682,-0.01603715,-1.955684,0.6831343,-0.2813976
1.429711,-0.1740982,0.1925454,0.4212305,-0.0038567,0.02760378,-1.898263,0.7262339,-0.2253907
1.109849,-0.1704358,0.2634686,0.1009246,-0.0009585894,0.09967279,-1.856954,0.6567813,-0.222553
0.8566249,-0.1966193,0.295529,-0.1528661,-0.02785135,0.1328504,-1.990385,0.5883502,-0.1635844
0.9276337,-0.1804773,0.2494696,-0.08253855,-0.01236503,0.08787315,-1.967397,0.5934013,0.002249979
0.8685944,-0.2230945,0.1886886,-0.1423584,-0.05558544,0.02813395,-1.855323,0.5529233,0.02893426
0.7525606,-0.2731348,0.1631616,-0.2592557,-0.1061762,0.003605332,-1.675795,0.5274989,-0.04996285
0.800654,-0.2404777,0.1934478,-0.2120906,-0.07401565,0.03484547,-1.412691,0.435986,-0.1171268
0.6862651,-0.2206839,0.2018412,-0.3274534,-0.05466275,0.04414769,-1.322319,0.1498064,-0.2164443
0.5703561,-0.2019126,0.2085705,-0.4443606,-0.03627608,0.05173973,-1.279454,-0.1252921,-0.3011183
0.600563,-0.1752628,0.2027526,-0.415153,-0.009955535,0.04673706,-1.256215,-0.3151041,-0.3660064
0.5495391,-0.1650559,0.1534358,-0.4671526,-2.419721e-05,-0.001813141,-1.215072,-0.355274,-0.411882
0.5697362,-0.1506879,0.1559443,-0.4478838,0.01411899,0.001413802,-1.035462,-0.2851697,-0.4326812
0.6323455,-0.1509981,0.1532634,-0.3861335,0.01363133,-0.0005957403,-0.9590189,-0.3054632,-0.4585142
0.6344516,-0.1257577,0.1437371,-0.384798,0.03873806,-0.009496145,-0.9198924,-0.3252543,-0.4826262
0.7003809,-0.07964238,0.170061,-0.3195355,0.0847589,0.01740997,-0.8573043,-0.3701218,-0.5167162
0.7249579,-0.07410325,0.1654921,-0.2955091,0.09023712,0.01338092,-0.8961273,-0.5314796,-0.5389381
0.749085,-0.07060246,0.1629518,-0.2718072,0.09370407,0.011339,-0.909188,-0.6081974,-0.528179
0.8350905,-0.04122548,0.1616172,-0.1860952,0.1230675,0.01046243,-0.905275,-0.5293102,-0.5173401
0.8984001,-0.01888571,0.153055,-0.1229446,0.1454068,0.002318944,-0.90112,-0.3687149,-0.5007003
0.9196081,-0.03794602,0.16936,-0.101762,0.1263517,0.01900464,-0.8716267,-0.1606049,-0.4401951
0.8976814,-0.1470867,0.2235909,-0.1235839,0.01721509,0.07357896,-0.8701728,-0.03208366,-0.3674398
1.004353,-0.3598641,0.3295114,-0.01668123,-0.1955616,0.1798045,-0.857348,0.004772219,-0.3492532
1.157235,-0.5154813,0.3403218,0.1365494,-0.3511763,0.1908772,-0.8061542,0.2427682,-0.2974623
1.24754,-0.4973827,0.1344878,0.2273097,-0.3330611,-0.0147424,-0.6150856,0.6960526,-0.1379296
1.401215,-0.4990257,-0.05588134,0.3815276,-0.3346575,-0.2049455,-0.2531571,0.8423381,-0.02654167
1.399214,-0.5338461,0.02545032,0.3801343,-0.3693863,-0.1234891,0.01395894,0.4323897,-0.0414436
1.344395,-0.4162665,0.1830146,0.3259625,-0.2516562,0.03416731,0.03022657,-0.09725232,-0.05763981
1.496465,-0.3203545,0.2113922,0.4786961,-0.1555242,0.06260936,-0.0471339,-0.2918489,-0.04490148
1.561985,-0.3358707,0.2143328,0.5448704,-0.1707452,0.06558701,-0.05315403,-0.2772988,-0.06400849
1.513856,-0.3157675,0.1605083,0.4973618,-0.1502689,0.0117713,0.02460727,-0.2441963,-0.06528642
1.453646,-0.2723495,0.09720272,0.4377125,-0.106399,-0.05155341,0.08579326,-0.1483502,-0.03120185
1.2961,-0.1746442,0.1197064,0.280646,-0.008163378,-0.02909404,0.03393256,-0.1187698,0.02788539
1.18296,-0.07630393,0.08958026,0.1678921,0.09078081,-0.05928592,-0.03788883,-0.09891785,0.1925143
1.066556,-0.08031044,0.06270258,0.05177331,0.08744341,-0.0862464,-0.0412984,-0.02282259,0.3967329
0.8298115,-0.09575299,0.06499034,-0.1847849,0.0727247,-0.08405352,-0.06092395,-0.1116605,0.5392411
0.6485777,-0.1067362,0.01433685,-0.3659203,0.06251006,-0.1348082,-0.06782969,-0.23812,0.622017
0.5347295,-0.1251524,-0.008361086,-0.4797388,0.0448983,-0.1576072,0.02671541,-0.2868359,0.5896291
0.4596378,-0.1551887,-0.004199472,-0.5548434,0.01569485,-0.1535391,0.2043922,-0.2998854,0.4880477
0.4853177,-0.2087409,0.02606681,-0.5291899,-0.03700174,-0.1233512,0.4516047,-0.1432496,0.3597756
0.5492958,-0.2376702,0.05400462,-0.4652238,-0.06505612,-0.09547065,0.7368594,0.1749861,0.1871362
0.6427633,-0.2423505,0.04182568,-0.3717296,-0.06884372,-0.1076812,0.9892712,0.5481186,0.0996931
0.6970141,-0.2041275,0.05580496,-0.3173946,-0.02971093,-0.09370428,1.110334,0.6531853,0.07267563
0.627706,-0.1336929,0.07872296,-0.3865466,0.04164887,-0.07075655,1.070879,0.2618072,-0.001732618
0.6101715,-0.05359647,0.1004966,-0.4038401,0.1226818,-0.04891927,0.9422513,-0.1590618,-0.04682976
0.756151,0.01006587,0.09069739,-0.2575225,0.1872842,-0.05862039,0.7330392,-0.1907405,-0.05047751
0.9050313,-0.02412547,0.03503265,-0.108199,0.1540264,-0.114152,0.5358801,-0.03741623,-0.04261753
0.9208474,-0.1284049,0.0213528,-0.09183327,0.05066419,-0.127662,0.4856775,0.06682236,-0.08340119
0.9494566,-0.3186085,0.1116051,-0.06257115,-0.138644,-0.03720121,0.4939515,0.2443807,-0.317856
1.111979,-0.5164976,0.3246788,0.1007009,-0.3356576,0.1761193,0.4406313,0.3551869,-0.6150693
1.240938,-0.484196,0.5060657,0.2304963,-0.3024904,0.3577835,0.3596648,0.01535405,-0.5968903
1.367282,-0.3501839,0.5151799,0.3577453,-0.1676102,0.3671901,0.3955892,-0.4153057,-0.2250081
1.610706,-0.3099084,0.4271022,0.6021214,-0.1264544,0.2794011,0.5333426,-0.3847322,0.1733897
1.716141,-0.3072528,0.3721356,0.7085231,-0.1229013,0.2247026,0.5527385,-0.1029507,0.3231684
1.613488,-0.3153133,0.4253608,0.6068169,-0.1300438,0.2781623,0.3707758,0.04256616,0.1572506
1.463574,-0.2627404,0.4623711,0.4577958,-0.07653037,0.3153616,0.1458623,0.00672488,0.05394
1.234449,-0.1705847,0.4006694,0.2294861,0.01658879,0.2537916,0.1586281,-0.03306146,0.2753112
1.052047,-0.1396715,0.3361161,0.04780602,0.048486,0.1893025,0.2557554,0.04130108,0.4231781
0.9345243,-0.08566997,0.2767523,-0.06909044,0.1034862,0.1299287,0.1505079,0.07556245,0.4232528
0.6723001,-0.02754461,0.2486993,-0.330778,0.1626172,0.1017884,0.07727195,-0.01583685,0.4737346
0.4732113,-0.03768252,0.2708676,-0.5294036,0.1534821,0.1237916,0.006989051,-0.2077178,0.4696674
0.4722871,-0.05965865,0.2654329,-0.5299138,0.1324958,0.1181139,-0.07585113,-0.4942402,0.3621194
0.4979281,-0.0928783,0.2533442,-0.5038796,0.100244,0.1057047,0.01570152,-0.5987136,0.1191043
0.5656495,-0.1235252,0.2543983,-0.4357589,0.07053592,0.1063616,0.03653851,-0.5581341,-0.1075627
0.640538,-0.1383958,0.2178602,-0.3604427,0.05657012,0.06935079,0.09867245,-0.6434672,-0.2044475
0.6986722,-0.1554341,0.169969,-0.3018353,0.04039926,0.02091391,0.2300422,-0.576085,-0.2505655
0.7568212,-0.1577901,0.1601771,-0.2431546,0.03887112,0.01050776,0.1989801,-0.4263636,-0.1793415
0.760334,-0.1443076,0.1952203,-0.2390432,0.05314016,0.04487352,0.2884599,-0.4232214,-0.1491749
0.7851638,-0.1242532,0.2452898,-0.2135415,0.07393827,0.09420676,0.3941428,-0.2918259,-0.203001
0.7987493,-0.134511,0.2604483,-0.1992064,0.0643792,0.1085733,0.3678938,-0.2068242,-0.2041014
0.8356833,-0.1970958,0.2473475,-0.1614424,0.002446437,0.09462605,0.4517159,-0.2824767,-0.2324212
1.091857,-0.3506336,0.207789,0.09564191,-0.1504852,0.054168,0.5361397,-0.1454532,-0.2238659
1.444812,-0.5521777,0.08470008,0.4495781,-0.3514625,-0.06987032,0.5942254,0.2139536,-0.1756596
1.57578,-0.5930925,-0.03989782,0.5815787,-0.3918365,-0.1954603,0.7557887,0.4900532,-0.09656645
1.46605,-0.5164228,0.006517124,0.4729002,-0.3146341,-0.1500686,0.8883423,0.3356238,0.01645996
1.478556,-0.4245738,0.1260471,0.4864479,-0.222244,-0.03158058,0.8289397,-0.04926551,-0.02763574
1.619527,-0.2401614,0.1520669,0.6284224,-0.03727105,-0.006612445,0.7008379,-0.1608428,-0.117462
1.625789,-0.136626,0.1600877,0.6356193,0.0668481,0.0003523301,0.547744,-0.1547781,-0.1089939
1.568323,-0.1307427,0.1749035,0.5789913,0.07333529,0.01411115,0.2308058,-0.1639412,-0.05477682
1.430416,-0.06658609,0.1773736,0.4418001,0.1381095,0.01552592,0.09966713,-0.1827615,0.0819087
1.296568,-0.1130111,0.182663,0.308527,0.09230812,0.01976375,0.221294,-0.3453511,0.2422771
1.258119,-0.1707126,0.133898,0.2705004,0.03522882,-0.03004711,0.1912121,-0.4383654,0.4104446
1.126079,-0.1114468,0.08155514,0.1387249,0.09510987,-0.08342698,0.1821787,-0.3699864,0.5784715
0.9686052,-0.1254149,0.05065366,-0.01864078,0.0817453,-0.1153516,0.1832985,-0.2685429,0.6573654
0.8107151,-0.1228954,0.02019615,-0.1765715,0.08485156,-0.1468116,0.04975179,-0.2394875,0.7547232
0.6601568,-0.0978969,0.02000173,-0.327303,0.1104151,-0.1479801,0.05322549,-0.2925448,0.8495439
0.6135011,-0.1338303,0.01053066,-0.3742422,0.07502036,-0.1583887,0.08365001,-0.2743873,0.8275889
0.5809215,-0.1277268,0.01793222,-0.4071895,0.08163175,-0.1518804,0.09781579,-0.2399094,0.7485135
0.6288363,-0.1429841,0.02972134,-0.3596997,0.06684832,-0.1409331,0.2483027,-0.1096517,0.5558553
0.753928,-0.1715745,0.02029864,-0.2350664,0.03869538,-0.15114,0.3913923,0.2128699,0.2946818
0.8483842,-0.1699183,0.03315324,-0.1410831,0.0407512,-0.1390065,0.5210855,0.5430221,0.08635765
0.8676359,-0.1638068,0.02672191,-0.1223063,0.04722386,-0.1460909,0.6313003,0.729013,-0.08412137
0.8003761,-0.1124206,0.03085159,-0.1900336,0.09893199,-0.1425421,0.653238,0.6635575,-0.148543
0.7791638,-0.0517166,0.04386235,-0.2116969,0.1599165,-0.1300363,0.5501537,0.6257692,-0.1235447
0.6680444,0.05725051,0.03798493,-0.3232401,0.2691179,-0.1363398,0.2907241,0.6781701,-0.01328218
0.4745819,0.1675702,0.0655309,-0.5170851,0.3796171,-0.1091388,0.05612818,0.5052223,0.1469895
0.5037854,0.1245365,0.09293231,-0.4882041,0.3366956,-0.08200005,-0.08533435,0.2895983,0.1413151
0.6200934,0.002227719,0.1131143,-0.372138,0.2144195,-0.06199878,-0.1623679,0.1508992,0.05201972
0.7094563,-0.1515516,0.117732,-0.2829197,0.06058547,-0.05748133,-0.1284714,0.09259031,0.02705599
0.8989769,-0.3783243,0.1365497,-0.09343687,-0.1663293,-0.03868598,0.03893833,0.194129,-0.07020658
1.175937,-0.5842622,0.2637643,0.1835938,-0.3724867,0.08858019,0.2779726,0.248161,-0.3930071
1.350622,-0.6238394,0.409198,0.3584461,-0.412342,0.2341319,0.2811612,0.1268301,-0.7878732
1.331049,-0.517741,0.4373586,0.3391185,-0.3065571,0.2624642,0.09371853,-0.1742976,-0.7965815
1.528573,-0.3668634,0.3844463,0.5369414,-0.1560076,0.2097611,-0.01964907,-0.4433697,-0.4792249
1.923361,-0.2073852,0.3684459,0.9320517,0.003141593,0.1939925,-0.2035111,-0.2699726,-0.2925107
1.899349,-0.2039704,0.3698842,0.908347,0.006232198,0.195672,-0.3893212,0.2543682,-0.2541284
1.660115,-0.2768509,0.3870659,0.6693612,-0.06696591,0.2130926,-0.4918636,0.5954434,-0.2963728
1.469786,-0.1729079,0.4711625,0.479185,0.03666739,0.2974145,-0.587856,0.4447716,-0.3245247
1.11512,-0.1204807,0.4631738,0.1245548,0.08879318,0.2896245,-0.6111818,0.1158718,-0.2379323
0.9697271,-0.1125817,0.364581,-0.02092615,0.09639649,0.1911915,-0.8151135,0.07363287,-0.1992819
1.031342,0.05104388,0.2555192,0.0404796,0.2597271,0.08224112,-1.244417,0.1788712,-0.1237619
0.880252,0.1255235,0.0920363,-0.1109317,0.3339036,-0.08118215,-1.582727,0.2433943,0.08925467
0.7972937,0.07678117,0.01884564,-0.1943112,0.2848373,-0.1543616,-1.739326,0.3501553,0.2833108
0.7804371,-0.01963264,0.03453534,-0.2116737,0.1880665,-0.1387008,-1.675673,0.4028111,0.354944
0.6696635,-0.1632722,0.08472118,-0.3230197,0.04402851,-0.08857408,-1.51966,0.3876648,0.2376805
0.6182193,-0.3065327,0.2021297,-0.3750823,-0.09967344,0.02875257,-1.306759,0.2574033,0.08307974
0.5420978,-0.4053221,0.2274474,-0.4518454,-0.1989417,0.05396924,-0.9793831,0.009931231,-0.06731367
0.5422881,-0.3025971,0.1951923,-0.4522956,-0.09672289,0.02159451,-0.6842355,-0.1065417,-0.2807379
0.6134604,-0.1914447,0.2050955,-0.3817384,0.0139056,0.03135934,-0.4603363,-0.1354462,-0.3536222
0.6386148,-0.1348838,0.195003,-0.3571527,0.06993002,0.02110977,-0.4838529,-0.1460797,-0.3070159
0.7828176,0.002943784,0.1860274,-0.2134553,0.2072086,0.01195912,-0.7025678,-0.1342824,-0.2373209
0.9121901,0.006074819,0.1488726,-0.08451405,0.2097738,-0.0253876,-0.840762,-0.06990877,-0.1274281
0.9361348,0.003012956,0.08439102,-0.06092231,0.2061221,-0.09007562,-0.9852179,0.1284997,-0.08873184
0.9336584,0.02918908,0.07976071,-0.06367338,0.2316769,-0.09492241,-1.020991,0.2615103,-0.1071169
0.9009761,-0.03427164,0.1151561,-0.09655354,0.1675565,-0.05974817,-0.9776186,0.3607388,-0.08653502
0.8887841,-0.02698805,0.1339717,-0.1088672,0.1741364,-0.04115347,-1.018101,0.4204014,-0.03765949
0.8276236,-0.07559425,0.1424418,-0.1700731,0.1247786,-0.03290078,-0.9534612,0.2374572,-0.03888796
0.8028604,-0.1818108,0.1597726,-0.1948035,0.01776137,-0.01578165,-0.8312618,0.1054946,-0.113218
0.9248689,-0.3565258,0.139327,-0.07268155,-0.1578008,-0.03643148,-0.6621048,0.2834052,-0.2184064
1.158091,-0.7119861,0.03562052,0.1607342,-0.5141436,-0.1403326,-0.4224838,0.7492233,-0.3154505
1.461628,-0.8894904,-0.03731208,0.4645342,-0.6925435,-0.2134456,-0.1564115,1.072021,-0.378321
1.567371,-0.7485203,0.1225976,0.5705886,-0.5524508,-0.05369521,0.2108438,0.5577093,-0.4292309
1.545066,-0.5305674,0.3472326,0.5486163,-0.3353264,0.1708057,0.3210889,-0.1741768,-0.4220464
1.624465,-0.3306913,0.3133305,0.6283361,-0.1362085,0.1367912,-0.0689757,-0.1070956,-0.3763502
1.583088,-0.1887563,0.2376111,0.587238,0.005048015,0.06097398,-0.6466782,0.04559803,-0.2901289
1.473424,-0.1885935,0.2694453,0.477783,0.004612835,0.09271858,-1.051559,-0.1481638,-0.05878849
1.447362,-0.2845896,0.2191637,0.4518385,-0.0919036,0.04235115,-1.086668,-0.05659897,0.08846208
1.357542,-0.3549046,0.1856642,0.3620254,-0.1626629,0.008766384,-0.9122914,-0.04288157,0.04716005
1.254408,-0.3550365,0.1823805,0.2587758,-0.1631613,0.005396752,-0.7624048,-0.1702881,0.01138527
1.164109,-0.2743757,0.1214786,0.1682308,-0.08278653,-0.05559185,-0.7026792,-0.1177617,-0.02042792
0.9996706,-0.1999083,0.09180728,0.003417283,-0.008523729,-0.08534883,-0.7406424,-0.3015439,0.01834648
0.8080494,-0.1387907,0.04095249,-0.1887028,0.05246772,-0.1362845,-0.7741907,-0.4365083,0.1228498
0.6457228,-0.1059523,-0.007941085,-0.3516368,0.08525219,-0.1852484,-0.7318041,-0.4199046,0.1702169
0.5724294,-0.1588203,-0.0002980076,-0.425623,0.0323946,-0.1776577,-0.623735,-0.5246306,0.2344961
0.5719676,-0.1613625,-0.02952729,-0.4268361,0.02991968,-0.2069135,-0.4304166,-0.417498,0.2708469
0.63289,-0.1927363,-0.07154426,-0.3666961,-0.00133618,-0.2489227,-0.2060825,-0.144652,0.2149292
0.7490559,-0.2578064,-0.09103932,-0.2513194,-0.06624183,-0.2683663,-0.02973422,0.2431932,0.1338384
0.7641929,-0.2241453,-0.0891161,-0.2369598,-0.03237232,-0.2663383,0.1677049,0.6043168,0.02860542
0.6882639,-0.2067205,-0.06022257,-0.3136389,-0.01469706,-0.2372774,0.3390048,0.615213,-0.04791287
0.6252788,-0.1405972,0.0153657,-0.3773323,0.05171621,-0.1614516,0.3555639,0.5168794,-0.08949539
0.6288018,-0.08509941,0.1480015,-0.3744596,0.1075385,-0.02850417,0.2745783,0.4637176,-0.167286
0.7974618,-0.1390148,0.1829563,-0.2063762,0.05397549,0.006835173,0.1304974,0.4976566,-0.1935514
0.9346967,-0.127761,0.09124863,-0.06963392,0.06560265,-0.08441928,0.007139205,0.5113478,-0.09594785
0.7943603,-0.07473671,0.05501946,-0.2103747,0.1190149,-0.1201304,-0.02215366,0.2575299,-0.03267883
0.6297259,-0.02482642,0.1060309,-0.3753212,0.1693207,-0.06853779,-0.08448365,-0.08522925,-0.1521042
0.6979509,-0.02118725,0.1369346,-0.3073083,0.1733541,-0.03699158,-0.2317999,-0.2450898,-0.3190481
0.7997469,-0.1098534,0.1038706,-0.2056151,0.085072,-0.06935472,-0.3694704,-0.1331128,-0.3499404
0.8932314,-0.2753215,0.09607627,-0.1121186,-0.08002811,-0.07639287,-0.3522578,0.03266849,-0.3237852
1.133343,-0.5605665,0.1686882,0.1281185,-0.3649198,-0.002972581,-0.1544971,0.1957553,-0.3994471
1.332015,-0.7328254,0.2681619,0.3270202,-0.5368287,0.0973571,0.07020951,0.4253919,-0.5932638
1.370303,-0.6708694,0.3745541,0.3656234,-0.4745055,0.2046444,0.1705784,0.3024082,-0.7197715
1.371022,-0.6172736,0.4497841,0.3667194,-0.4205029,0.2807957,0.1690314,-0.09965895,-0.5695186
1.505162,-0.5369765,0.4646601,0.5012723,-0.3397404,0.2966028,0.1751028,-0.3319913,-0.3150558
1.749157,-0.3746193,0.4604293,0.7456895,-0.176846,0.2932953,0.1701338,-0.2953717,-0.1575776
1.802558,-0.3709726,0.3904193,0.7994883,-0.172583,0.2241842,0.2572436,-0.02184694,0.00453116
1.762327,-0.4182011,0.2722018,0.7595927,-0.2191131,0.1068278,0.3739487,0.1769411,0.05241799
1.62884,-0.2719294,0.2864249,0.6263439,-0.07205972,0.1218655,0.2106671,0.2609587,-0.01859957
1.211106,-0.1278255,0.3469303,0.2087248,0.07290722,0.1831332,-0.01945196,0.1149833,0.07998734
0.9323583,-0.04729207,0.2985541,-0.07004533,0.1543773,0.1354612,-0.1128715,-0.2943389,0.2286504
0.861195,0.03152768,0.2601272,-0.1413628,0.2341939,0.09767508,-0.2491552,-0.2904776,0.3352651
0.7465292,0.03817911,0.1925909,-0.2563003,0.2418856,0.03071305,-0.4494762,-0.127472,0.4733808
0.6614829,0.05260556,0.1085152,-0.3417163,0.2573781,-0.05285454,-0.6324157,-0.1806098,0.5407662
0.476675,-0.005030144,0.1280667,-0.5269679,0.2008168,-0.03285779,-0.6917046,-0.2282096,0.5727233
0.3032837,-0.1403155,0.1048843,-0.7008473,0.06659989,-0.05565249,-0.619433,-0.5108483,0.4678028
0.3420493,-0.1955157,0.115145,-0.6625793,0.01245271,-0.04505623,-0.3915175,-0.6808671,0.1642065
0.3926036,-0.2597884,0.211843,-0.6124966,-0.05078673,0.05192973,-0.01722862,-0.5504371,-0.1570932
0.4603519,-0.3183106,0.2131621,-0.5451614,-0.1082957,0.05349196,0.1852237,-0.54361,-0.454374
0.6052095,-0.329602,0.2005304,-0.4006325,-0.1185914,0.04105903,0.2481875,-0.588559,-0.5063316
0.7132876,-0.3119291,0.1615771,-0.2927798,-0.09993656,0.002260708,0.4840033,-0.5936759,-0.2966445
0.796397,-0.2461381,0.09274859,-0.2097809,-0.03317389,-0.06645475,0.7411377,-0.4548713,-0.159247
0.8373196,-0.1973968,0.1415568,-0.1688486,0.01653016,-0.0175715,0.827432,-0.263886,-0.09825384
0.7608479,-0.1671034,0.2164491,-0.2451885,0.04777606,0.05736162,0.832121,-0.2311476,-0.0560202
0.7363694,-0.2350359,0.2351584,-0.269411,-0.01921693,0.07607914,0.7696286,-0.2384245,0.0338809
0.9979757,-0.4301002,0.1496462,-0.007423303,-0.2133558,-0.009457657,0.7217854,-0.11904,0.2146876
1.414544,-0.5966606,-0.02489997,0.4096457,-0.3789994,-0.1840592,0.9162319,0.2553647,0.3510339
1.648542,-0.6319193,-0.08585777,0.6442445,-0.4133379,-0.2450959,1.257842,0.5716102,0.4453154
1.595797,-0.5602879,-0.01383964,0.5921661,-0.3407665,-0.1731688,1.509913,0.4978714,0.4272656
1.466425,-0.5299644,0.09692398,0.4634905,-0.3094682,-0.06249759,1.675047,0.068133,0.2659532
1.389821,-0.441374,0.2151863,0.3875825,-0.219857,0.05567716,1.761785,-0.5847232,0.07795486
1.360394,-0.2462915,0.2090898,0.3588259,-0.02370086,0.04949881,1.771433,-0.9958674,-0.1355656
1.476513,-0.1322642,0.05819762,0.4755688,0.09145195,-0.1014708,1.734083,-0.8985558,-0.1844642
1.563123,0.03359762,-0.04793388,0.562736,0.258483,-0.2076734,1.479301,-0.4881986,-0.0181172
1.397818,0.1609676,-0.04905539,0.3979006,0.3870503,-0.208853,0.9149085,-0.01540528,0.1587365
1.127963,0.07422227,0.001767191,0.1284091,0.30151,-0.1580664,0.4413393,0.1467291,0.3413902
0.8556512,0.04088256,0.05740493,-0.143651,0.2693625,-0.1024349,0.3299968,-0.1424293,0.4312227
0.677808,0.01919305,0.06788435,-0.3213472,0.2488349,-0.09192738,0.3148138,-0.4112139,0.4530816
0.6615743,-0.07527032,0.06330192,-0.337521,0.1554892,-0.09644435,0.3441746,-0.4118939,0.5157567
0.6862688,-0.08021539,0.03369251,-0.3128318,0.1516071,-0.1259488,0.4797756,-0.3014563,0.4543482
0.6945719,-0.09988949,-0.01517051,-0.3045779,0.1329339,-0.1746644,0.5400438,0.02273739,0.3565617
0.6797891,-0.1349433,-0.01568442,-0.3194343,0.09881365,-0.1749844,0.6249646,0.3763409,0.2575067
0.6885684,-0.1053923,0.0001354314,-0.3107349,0.1292268,-0.1589195,0.7941889,0.5297596,0.05050702
0.749868,-0.1100551,0.0313912,-0.249505,0.1253516,-0.1273634,0.8344063,0.6430557,-0.06806945
0.7942381,-0.1012657,0.0689186,-0.2051807,0.1348508,-0.08947808,0.7889861,0.638597,-0.08003669
0.781607,-0.0649116,0.05925767,-0.2178232,0.1718336,-0.09872276,0.7195159,0.455053,-0.0383301
0.7338984,-0.04963061,0.05082513,-0.2654998,0.1876585,-0.1066809,0.6272044,0.1730278,0.04005089
0.723245,-0.001188281,0.07387101,-0.2760683,0.2365552,-0.08310305,0.6324503,0.01646236,0.01848126
0.7363288,-0.00137805,0.08609025,-0.2628375,0.2367246,-0.07029499,0.6573523,0.08219545,-0.02792865
0.8081385,-0.1681313,0.1213899,-0.1908101,0.07023062,-0.03435156,0.6272956,0.1308414,-0.1419689
1.070218,-0.4698132,0.3014578,0.07156257,-0.2312915,0.1464108,0.5954243,0.177644,-0.4597312
1.323915,-0.6561242,0.5064237,0.3256224,-0.4175312,0.3521126,0.4129063,0.06523152,-0.6852406
