accx,accy,accz,body_accx,body_accy,body_accz,body_gyrox,body_gyroy,body_gyroz
0.8433589,-0.1418884,-0.09791802,-0.1527641,0.02784935,0.01273961,-0.08876094,0.4906961,0.1356724
0.8329309,-0.06653776,-0.09455708,-0.1639377,0.1033704,0.01623867,-0.1442239,0.5571532,-0.01141621
0.7558568,-0.01666468,-0.07988628,-0.2417463,0.153423,0.03107897,-0.2215494,0.636161,-0.0464912
0.729204,-0.02729558,-0.05466706,-0.2691107,0.1429737,0.05649497,-0.3996934,0.7194028,-0.0670937
0.7505254,-0.03617743,-0.04391891,-0.248465,0.1342674,0.06746242,-0.5167266,0.7414218,-0.1528238
0.6932627,-0.06658649,-0.0487583,-0.3063548,0.1040209,0.06285961,-0.570994,0.5515264,-0.1243383
0.6851158,-0.05344242,-0.0893246,-0.3150675,0.1173088,0.02254224,-0.6990801,0.3197459,-0.07613908
0.7427021,-0.08281051,-0.1752302,-0.2579735,0.08806086,-0.0631053,-0.8656817,0.2377322,0.02963073
0.793526,-0.2048031,-0.2511548,-0.2075577,-0.03383816,-0.138763,-0.8791757,0.3140915,0.1128399
0.7324051,-0.3789449,-0.2485609,-0.2689949,-0.2079117,-0.1358898,-0.8158869,0.3931484,0.1112913
0.6614976,-0.5562778,-0.2043163,-0.3401194,-0.3851936,-0.09134907,-0.7505024,0.3782586,0.09457605
0.8810738,-0.57848,-0.1392322,-0.1206538,-0.4073466,-0.02594848,-0.6019223,0.3039618,0.009410073
1.427375,-0.43263,-0.07325407,0.4256438,-0.2614306,0.04036707,-0.4476462,0.1183225,0.03115268
1.959798,-0.2764053,-0.09561221,0.9581519,-0.1051086,0.01836493,-0.3825622,0.01287932,0.1202567
1.917746,-0.2864027,-0.1236453,0.9162364,-0.1149693,-0.009296783,-0.5004926,0.1545719,0.1209203
1.564779,-0.4046798,-0.05863761,0.5634094,-0.2330663,0.05609474,-0.5919891,0.2444875,0.06922501
1.438144,-0.4218989,0.03198435,0.43688,-0.2500563,0.1471091,-0.2013207,0.1399714,-0.07879913
1.196049,-0.3153264,0.08544332,0.1948329,-0.1431991,0.2009621,0.2135363,-0.03992988,-0.08986303
1.070557,-0.1205012,0.001660392,0.06931704,0.05197053,0.1175658,-0.01031336,-0.1489782,0.1880725
1.255812,-0.03813697,-0.1198169,0.2544732,0.134736,-0.003539854,-0.3998578,0.04538719,0.5090164
1.174771,-0.19203,-0.04224407,0.1732542,-0.01870653,0.07438569,-0.5257099,0.2998164,0.5957039
1.034825,-0.3044757,0.06453713,0.0330503,-0.1306593,0.1814978,-0.375781,0.1841629,0.383321
0.9035305,-0.2712436,0.08991101,-0.09858132,-0.09689338,0.2071752,-0.01007415,0.03855427,0.2060012
0.7172951,-0.1995608,0.1265265,-0.2852248,-0.02463572,0.2440584,0.03239326,0.04637616,0.1618633
0.7564174,-0.06791484,0.0669975,-0.2465662,0.107624,0.184752,-0.1771749,-0.05269744,0.1238067
0.6889933,0.07594578,0.01096472,-0.3144913,0.2521303,0.128889,-0.331934,-0.007600016,0.1434608
0.6059117,0.07026419,0.02059467,-0.3980919,0.2471138,0.1386307,-0.7309224,0.07557742,0.08771981
0.6343162,-0.03431075,-0.02141314,-0.3702038,0.1432088,0.09667361,-0.9889127,-0.0942218,-0.01182326
0.5573862,-0.08842983,-0.01346502,-0.4476268,0.08975254,0.1046095,-0.8443075,-0.2191908,-0.02682908
0.647491,-0.1929693,-0.01121385,-0.3579711,-0.01413846,0.1067847,-0.6528942,-0.2852021,-0.03899801
0.766326,-0.3169416,-0.05777811,-0.2395237,-0.1374789,0.06008051,-0.3302417,-0.2397768,-0.08131334
0.7841309,-0.3177737,-0.0493795,-0.2220325,-0.1376931,0.06827583,-0.02459316,-0.1122546,-0.1974722
0.8177465,-0.2895066,-0.05248919,-0.1886487,-0.1088165,0.06490108,-0.009413597,-0.1918712,-0.2386453
0.791156,-0.2731878,-0.06446267,-0.2153835,-0.09189137,0.05260268,-0.06210013,-0.2526131,-0.1297474
0.8963903,-0.2967008,-0.09598091,-0.1102022,-0.1147973,0.02070205,0.02433985,-0.2412577,-0.01243852
1.09284,-0.3976328,-0.1745034,0.08628635,-0.2151171,-0.05825659,0.1972486,-0.1007662,0.1801083
1.212008,-0.4811684,-0.2273495,0.2055797,-0.2980284,-0.1115863,0.3701597,0.2252954,0.385401
1.234206,-0.4356689,-0.2647742,0.2279752,-0.2518828,-0.1495332,0.3900604,0.3038564,0.439416
1.216052,-0.2905613,-0.2737756,0.2100751,-0.106098,-0.1590847,0.07375892,0.2364154,0.3659088
1.330494,-0.2373915,-0.256967,0.3248108,-0.05221486,-0.1428431,-0.2498176,0.1090309,0.2591589
1.436857,-0.254584,-0.2580536,0.4314893,-0.06865718,-0.1445029,-0.3054558,-0.07892696,0.08720263
1.484946,-0.2087193,-0.2225945,0.4798934,-0.02200717,-0.1096139,-0.3843132,0.2045801,-0.2643271
1.405246,-0.1241634,-0.1428406,0.400486,0.06336622,-0.03041973,-0.5705609,0.4829896,-0.4123295
1.15402,-0.08854605,-0.1062209,0.1495087,0.09982764,0.005655078,-0.619113,0.04362957,-0.02850368
1.124832,-0.1753151,-0.1393915,0.1205157,0.01392197,-0.02804384,-0.384977,-0.3637901,0.3764086
1.109092,-0.2255382,-0.1856749,0.1049096,-0.03542476,-0.07483761,-0.1402186,-0.2695311,0.3882899
0.9211915,-0.1725457,-0.2175627,-0.08291811,0.01845363,-0.1072151,-0.1606496,-0.2195407,0.276481
0.872517,-0.1384323,-0.2281637,-0.1315767,0.05345905,-0.1182807,-0.3078466,-0.2809846,0.291978
0.7972545,-0.1136491,-0.2138368,-0.2068713,0.0791359,-0.1043885,-0.4458677,-0.2136328,0.3183476
0.7384018,-0.1444188,-0.2092951,-0.2657919,0.04925596,-0.1002469,-0.477362,-0.1357743,0.3122131
0.7868872,-0.2105431,-0.1884756,-0.217396,-0.01598749,-0.07978902,-0.342707,-0.0554828,0.321618
0.7786199,-0.2406137,-0.1379747,-0.2257604,-0.04518862,-0.02960882,-0.1055491,0.05819208,0.2639223
0.8232728,-0.2299944,-0.1274261,-0.1812,-0.0337118,-0.01933899,0.1219019,0.1369976,0.1642571
0.8187277,-0.1115242,-0.1261898,-0.1858225,0.08560353,-0.01834047,0.1906048,0.2674521,0.05451566
0.7598191,0.03699615,-0.08654057,-0.2447842,0.2349531,0.02111063,0.07742233,0.4242322,-0.07449135
0.7751857,0.06307234,-0.06122562,-0.2294371,0.2618338,0.0462644,-0.1203712,0.5097372,-0.121629
0.7630231,-0.01711284,-0.04901739,-0.2415759,0.1824166,0.05834464,-0.3243542,0.5519243,-0.05329012
0.7926163,-0.07483679,-0.02455565,-0.2119069,0.1254137,0.08270682,-0.4410897,0.5515018,0.05567055
0.8314154,-0.08022759,-0.0333929,-0.1729724,0.1206901,0.07379314,-0.4121488,0.5138507,0.07178704
0.8471944,-0.07049122,-0.09914047,-0.1569933,0.1310351,0.007987354,-0.4923377,0.4273591,-0.06465924
0.9045542,-0.01913585,-0.1856075,-0.09936551,0.1829362,-0.07852241,-0.8510922,0.3701641,-0.2327646
0.8799803,-0.01164687,-0.2297463,-0.1236022,0.1909031,-0.1226879,-1.232828,0.4408142,-0.2484234
0.7979234,-0.1471603,-0.1899318,-0.2052521,0.0557948,-0.08288072,-1.381683,0.4817641,-0.06649311
0.6875456,-0.3989715,-0.1494554,-0.3151502,-0.1956844,-0.04238885,-1.083426,0.4190002,0.1618472
0.6184819,-0.6038263,-0.1641766,-0.3836547,-0.400272,-0.05706992,-0.5620364,0.3404142,0.2693444
0.8130337,-0.6768041,-0.126336,-0.1884556,-0.4730291,-0.01916382,-0.2406336,0.2316018,0.09614767
1.125241,-0.7669167,-0.05842551,0.1244916,-0.562943,0.04883691,0.01010931,0.03270695,-0.241687
1.389199,-0.6404766,-0.05951992,0.3892739,-0.4362997,0.04785491,0.1092067,-0.176324,-0.3766052
1.688733,-0.2218215,-0.09142246,0.6896958,-0.01741514,0.01608321,-0.1781384,-0.1484641,-0.2604365
1.806982,-0.1069178,-0.1589538,0.8088622,0.09775331,-0.05130177,-0.5084738,-0.0008705631,-0.03477929
1.657447,-0.2573971,-0.2109859,0.6602333,-0.05242754,-0.1031725,-0.4296475,0.04777238,0.1036406
1.523039,-0.2865398,-0.1296245,0.5266817,-0.08124152,-0.02163326,-0.08212597,0.1520681,0.06767519
1.290542,-0.2727102,-0.039749,0.2949638,-0.06705376,0.06843721,0.005152403,0.1105687,0.1289292
1.030813,-0.1800189,-0.08033215,0.03591927,0.02602506,0.02806398,-0.3062166,-0.03258222,0.3668491
1.100959,-0.08411129,-0.1040672,0.1066491,0.122347,0.004550335,-0.7514174,0.2161292,0.5079529
1.14622,-0.1665511,-0.04638267,0.1523928,0.04034246,0.06246492,-0.8264652,0.4581193,0.4412044
1.027713,-0.2388432,-0.005685195,0.03427012,-0.03149914,0.1033976,-0.6096914,0.4051073,0.3447036
0.9630859,-0.1591414,0.06559394,-0.03007103,0.04866455,0.1749118,-0.6805332,0.3564434,0.2898439
0.7810036,-0.05382509,0.09975088,-0.2119583,0.1544507,0.2092958,-0.8055377,0.2230697,0.2731909
0.6463999,0.007988936,0.02029573,-0.3464452,0.2167354,0.1300507,-0.978116,0.09808122,0.3697444
0.6587556,0.05179367,-0.03124472,-0.3340326,0.2610011,0.07869591,-1.339819,0.1408772,0.4064013
0.636448,0.01419622,-0.0703191,-0.3563219,0.2238427,0.03977827,-1.562308,0.2876443,0.2676132
0.692209,-0.07430968,-0.08619054,-0.3005612,0.1357427,0.02403307,-1.72282,0.4088235,0.03161602
0.7404357,-0.1460348,-0.0535363,-0.2523353,0.06438256,0.05678282,-1.644481,0.2362192,-0.1724658
0.7089078,-0.204433,-0.08315457,-0.2838498,0.00630494,0.02722929,-1.42282,-0.01376292,-0.115705
0.7272572,-0.1962758,-0.1134454,-0.2654597,0.01473835,-0.003027298,-1.374889,-0.02052487,0.07131656
0.7802651,-0.2436313,-0.1333691,-0.2123724,-0.03238334,-0.02294567,-1.287318,0.07305367,0.1380998
0.8569057,-0.3463489,-0.1343819,-0.1356047,-0.134906,-0.0239797,-1.286909,0.09105368,0.03092033
0.8817575,-0.3810709,-0.0559086,-0.1105727,-0.1694655,0.05444846,-1.096931,-0.07631855,-0.1736048
0.8726681,-0.4501813,-0.03698168,-0.1194263,-0.2384361,0.07330731,-0.5570466,-0.3192455,-0.1632747
0.9869644,-0.5212438,-0.118008,-0.004837996,-0.3093696,-0.007810503,-0.1985315,-0.3470589,0.05138335
1.184443,-0.5544241,-0.2187485,0.1929857,-0.3424173,-0.1086647,-0.05022787,-0.0759003,0.2406949
1.340198,-0.4970766,-0.2727604,0.3491295,-0.2849183,-0.1628081,-0.1333415,0.3743287,0.381365
1.436067,-0.3408706,-0.2842243,0.4454132,-0.1285286,-0.1744128,-0.3583991,0.7625077,0.4137901
1.528746,-0.307167,-0.2728343,0.5385094,-0.09460132,-0.1631638,-0.5588351,0.8080966,0.2559921
1.589813,-0.3258288,-0.1468021,0.5999694,-0.1129959,-0.03726456,-0.7627157,0.6251348,-0.212465
1.547307,-0.2889534,-0.0353847,0.557805,-0.07580835,0.07403221,-0.7742967,0.4629928,-0.7537679
1.374722,-0.1995914,-0.05067671,0.3854842,0.01391066,0.05863138,-0.8002392,0.1129038,-0.8043315
1.153564,-0.08439509,-0.112359,0.1644952,0.1295059,-0.003150829,-0.844914,-0.3347585,-0.2377668
1.134819,-0.1857054,-0.2414632,0.145815,0.02862974,-0.1323471,-0.6710652,-0.4147142,0.5721836
1.21421,-0.4159958,-0.3187497,0.2251635,-0.2011969,-0.2097146,-0.4870402,-0.1681349,0.8781579
1.119578,-0.5241013,-0.2723811,0.130381,-0.308808,-0.1634087,-0.2383323,0.08338817,0.5000838
1.01606,-0.481993,-0.2170342,0.02660483,-0.2661667,-0.1080987,-0.09398091,0.1074381,0.1490684
0.9494964,-0.3019449,-0.1685209,-0.04032007,-0.08553839,-0.05959121,-0.1819996,-0.02978053,0.01554111
0.8880048,-0.1314834,-0.140217,-0.102268,0.0855538,-0.03125985,-0.2109275,-0.1050858,-0.04730669
0.9385689,-0.07551832,-0.1515882,-0.05224409,0.1421954,-0.04257005,-0.3264175,-0.1050066,0.08806116
0.9449394,-0.1355394,-0.1696277,-0.04648647,0.08288721,-0.06051534,-0.4097296,-0.01466173,0.2165489
0.9157456,-0.2017764,-0.1630025,-0.07635574,0.01738979,-0.05376281,-0.3454603,0.09857453,0.1767142
0.9431359,-0.1845563,-0.1648635,-0.04969413,0.03536912,-0.05546349,-0.4195445,0.1191146,0.1589228
0.9100642,-0.2328282,-0.178221,-0.08353872,-0.01212897,-0.06862733,-0.4793079,0.105356,0.159261
0.8942332,-0.2995005,-0.1720864,-0.1001775,-0.07801596,-0.06226562,-0.4651163,0.1325883,0.1487232
0.9254621,-0.3002212,-0.1735791,-0.06978254,-0.07794095,-0.06349756,-0.4178629,0.2247851,0.1689305
0.972459,-0.3053313,-0.1377945,-0.02363735,-0.08224413,-0.02741862,-0.2912106,0.2849683,0.1464582
1.045691,-0.2906804,-0.09304018,0.04873106,-0.06677421,0.0176624,-0.2561826,0.2816005,0.1284319
1.021786,-0.2864357,-0.09826352,0.0239529,-0.06169766,0.01279546,-0.2650202,0.2785181,0.1409572
0.9398658,-0.2297721,-0.08702015,-0.05884658,-0.004189453,0.02442119,-0.2573036,0.2276151,0.1574972
0.8512166,-0.1329383,-0.05257118,-0.148378,0.09349939,0.05927433,-0.2584035,0.08962585,0.2113736
0.7806971,-0.1470822,-0.03165224,-0.2197744,0.08021608,0.08061434,-0.1727484,-0.1222938,0.2342092
0.9072376,-0.1819009,-0.08018325,-0.09409541,0.04625724,0.03251584,-0.04636159,-0.202122,0.2329053
1.110275,-0.185983,-0.1591663,0.1081031,0.04302856,-0.04602751,0.01349259,0.02998878,0.1978492
1.136719,-0.175393,-0.163803,0.1337323,0.05446104,-0.05021907,-0.04334227,0.3444172,0.04889805
1.040323,-0.1279265,-0.1213226,0.03654212,0.1027548,-0.007287911,-0.1931409,0.5066431,-0.109952
0.9444719,-0.09371406,-0.06825415,-0.06008645,0.1377737,0.04623628,-0.3893254,0.5121471,-0.1550596
0.9046739,-0.08236557,-0.03492802,-0.1006435,0.1499015,0.08002068,-0.4973756,0.4836714,-0.1011384
0.9034123,-0.08065035,-0.0183509,-0.1026417,0.1523612,0.09705411,-0.4141829,0.5340473,-0.05792324
0.8967083,-0.06436757,-0.00808662,-0.1100542,0.1693466,0.1077672,-0.3797427,0.5538241,-0.05309715
0.905032,-0.04133539,-0.03654876,-0.1024057,0.1930319,0.07974069,-0.4269483,0.4830653,-0.07010697
0.9060056,-0.02401761,-0.05139949,-0.1020691,0.210946,0.0653075,-0.4763252,0.4578034,-0.09516836
0.9026183,-0.01270956,-0.04928787,-0.1060509,0.2227855,0.0678148,-0.7138289,0.5588302,0.02331346
0.9254349,-0.05176071,-0.05662772,-0.08378244,0.1841936,0.0608458,-0.9372504,0.7625461,0.1600455
0.9353435,-0.1197705,-0.0258551,-0.07437281,0.1165646,0.0919617,-0.9566803,0.9373545,0.07158288
0.9505655,-0.190021,0.04410044,-0.05959857,0.04661372,0.1622296,-0.9599182,0.9482213,-0.07773648
0.9663994,-0.2001813,0.115341,-0.04416043,0.03667228,0.2337462,-0.9605535,0.771591,-0.1403391
0.9765175,-0.1178384,0.1298768,-0.03438588,0.1191554,0.2485136,-0.9513023,0.504158,-0.06458943
1.055922,-0.05154054,0.08107681,0.04472562,0.1855156,0.1998918,-0.9678862,0.4249304,0.1045941
1.16555,-0.02022883,0.01804031,0.1541078,0.2168099,0.1369724,-1.089238,0.6808296,0.09995171
1.191542,-0.04376231,-0.02511283,0.1798937,0.1931752,0.09387068,-1.374264,0.9839499,-0.0558711
1.097981,-0.1573961,-0.002962697,0.08615651,0.07935304,0.1160046,-1.510756,0.9550025,-0.2160134
0.9598645,-0.2814033,0.02084292,-0.05211331,-0.04492919,0.1397255,-1.286534,0.5299913,-0.3187742
0.8749978,-0.3271103,-0.04638149,-0.1371135,-0.09099216,0.07234714,-1.024215,0.03945943,-0.2000336
0.8954076,-0.2810641,-0.1531424,-0.1168142,-0.04537352,-0.03463623,-1.021235,-0.01216884,0.0485418
1.035642,-0.2938937,-0.2147796,0.02333644,-0.05869271,-0.09655986,-1.164085,0.4113968,0.2778189
1.260791,-0.4124962,-0.1435904,0.2484283,-0.1778372,-0.02571328,-1.391157,0.7427799,0.3859002
1.523282,-0.5573505,0.009574489,0.5108784,-0.3232736,0.1270596,-1.570254,0.7089288,0.2396426
1.617685,-0.6674997,0.07932271,0.6052369,-0.4340276,0.1963683,-1.271299,0.4848751,-0.02021815
1.410612,-0.5634368,0.1027149,0.3980909,-0.330571,0.2192708,-0.7352897,0.1386215,-0.3760543
1.127177,-0.3209071,0.1214832,0.1145337,-0.08862996,0.2374937,-0.5932201,-0.1781192,-0.5339534
0.9796529,-0.1795768,0.105962,-0.03317293,0.05214036,0.2213655,-0.8746431,-0.1868785,-0.08298057
1.041263,-0.1940717,0.0910814,0.02819608,0.03711606,0.2058107,-1.400151,0.07995264,0.3581576
1.157558,-0.2716572,0.01100679,0.1441943,-0.04096979,0.1249908,-1.863512,0.2880864,0.3748991
1.143891,-0.2387025,-0.07990577,0.1301755,-0.008487366,0.03326118,-1.92992,0.2779355,0.2379065
1.101518,-0.279513,-0.03529168,0.08739487,-0.04974177,0.07698885,-1.772855,0.1675465,0.0645285
0.9830145,-0.4071734,0.01127764,-0.03157136,-0.177816,0.1226062,-1.64445,0.07704542,0.0364555
0.8210286,-0.3668412,-0.0304132,-0.1940714,-0.1378633,0.07990053,-1.437798,0.05132145,0.07980545
0.8095935,-0.3594996,-0.03458498,-0.2060612,-0.1308611,0.07465358,-1.23131,0.02333532,0.06581951
0.8430451,-0.3687101,-0.009879711,-0.1731916,-0.1403655,0.09822622,-1.188338,-0.004994874,0.0362872
0.8749226,-0.3309156,-0.01788934,-0.1419102,-0.1028151,0.08902935,-1.020118,0.008297218,-0.05033286
0.8961141,-0.3478321,-0.004639375,-0.121318,-0.1199227,0.1010399,-0.7743882,-0.01942014,-0.07036713
0.8812061,-0.2637251,-0.004077884,-0.1368197,-0.03595148,0.1003121,-0.7033299,-0.0619431,-0.07140409
0.8971246,-0.2086852,-0.02700755,-0.1214812,0.01900771,0.07604532,-0.6168691,-0.07700796,-0.1064373
0.8817183,-0.2210041,-0.01346389,-0.1374466,0.006660694,0.08820665,-0.593029,-0.08330073,-0.07293743
0.8779211,-0.1992061,-0.02832083,-0.1417752,0.02847868,0.07192492,-0.6113554,-0.07685716,-0.06086211
0.9231053,-0.2345477,-0.04799035,-0.09708838,-0.006798966,0.05079119,-0.5281135,-0.04728847,-0.09392408
0.9358208,-0.2285006,-0.02380159,-0.08483146,-0.0006477631,0.07347981,-0.5250015,0.007540837,-0.1793384
0.893991,-0.1877326,-0.01170485,-0.1270771,0.04026101,0.08404375,-0.5071966,-0.01715312,-0.276738
0.7944859,-0.1421205,-0.0001395938,-0.2269512,0.08604603,0.09404615,-0.4831044,-0.1225744,-0.2768651
0.7644234,-0.09922008,0.007664433,-0.2573293,0.1291457,0.1002592,-0.5084812,-0.2100596,-0.2202197
0.8164578,-0.1241133,0.01044446,-0.2055484,0.1044704,0.1014214,-0.4785776,-0.2265709,-0.1797037
0.8438037,-0.1342286,0.008507521,-0.1783863,0.09458391,0.09784126,-0.5329404,-0.1370147,-0.2119846
0.8535289,-0.1912278,-0.002163806,-0.1687694,0.03781821,0.0855025,-0.5683539,-0.1028897,-0.2881781
0.8249243,-0.2886746,0.03396652,-0.1974028,-0.05939421,0.1199425,-0.4379666,-0.2261499,-0.3445767
0.8153715,-0.3402385,0.07458702,-0.2069011,-0.1107231,0.1588505,-0.1764123,-0.3510139,-0.327003
0.8850252,-0.3738739,0.07129927,-0.1371058,-0.1441197,0.1538275,0.2307801,-0.3820612,-0.2789481
0.9749609,-0.3357769,0.06368116,-0.04693991,-0.1057747,0.1444498,0.6233975,-0.4061989,-0.315028
1.013536,-0.2680225,0.0428902,-0.008048575,-0.03775889,0.1218742,0.8486025,-0.525689,-0.3293949
1.008318,-0.2007669,-0.01430541,-0.01286848,0.02977334,0.06286881,0.8795909,-0.6271939,-0.3182854
1.093265,-0.1602484,-0.07652077,0.07255081,0.07058226,-0.001179059,0.8269436,-0.5773818,-0.3230262
1.267973,-0.2282049,-0.1009165,0.2477966,0.002926577,-0.02742524,0.8304547,-0.3695097,-0.2054093
1.355669,-0.323371,-0.1231045,0.3360812,-0.09193112,-0.05147466,0.8733777,-0.01464981,-0.08733425
1.212555,-0.3835751,-0.1952931,0.1935874,-0.1518183,-0.1255275,0.9480135,0.2812176,-0.05226914
0.9637914,-0.3394623,-0.2559633,-0.05453881,-0.1073761,-0.1880546,0.9455972,0.3420065,0.04794654
0.9035245,-0.2548974,-0.2382291,-0.1141586,-0.02246543,-0.172158,0.6791616,0.3102112,0.1345558
0.9929595,-0.3115323,-0.2005123,-0.02406716,-0.07873624,-0.1362471,0.2810581,0.2813698,0.1013682
1.139092,-0.359288,-0.1629267,0.1227315,-0.1261085,-0.1004252,0.1885005,0.2163042,0.07533974
1.323589,-0.3363269,-0.07578608,0.3078977,-0.1027423,-0.01499864,0.4062622,0.1982364,0.05650837
1.334536,-0.3158667,-0.01784798,0.3195045,-0.08185255,0.04127905,0.4566497,0.2172372,-0.1129957
1.232082,-0.2119278,-0.009587401,0.2176862,0.02254179,0.04793334,0.2920271,0.07144967,-0.2619727
1.146935,-0.08575522,0.02318111,0.1331379,0.1491932,0.079148,0.05374164,-0.2969243,-0.1426219
1.01702,0.01912828,0.02896845,0.003776092,0.2545717,0.08343111,-0.175249,-0.6566455,0.1042198
1.041351,0.009698689,-0.02016234,0.02861262,0.245641,0.03284255,-0.1432602,-0.6590351,0.277754
1.146225,-0.1456323,-0.1004751,0.1339439,0.09080011,-0.04888337,-0.02028883,-0.4788406,0.3051011
1.04323,-0.195412,-0.1541482,0.03135725,0.04149237,-0.1039238,-0.02706676,-0.4603356,0.2043735
0.9810241,-0.2333973,-0.1428685,-0.03049031,0.003956906,-0.0939621,0.02402976,-0.3407541,0.1167654
0.9886304,-0.2836437,-0.1340279,-0.02257382,-0.04586259,-0.08638517,0.1565219,-0.1757862,0.09078267
0.9027507,-0.2035048,-0.1041813,-0.1081871,0.03468102,-0.05774404,0.3315104,-0.1259057,0.05913933
0.9032585,-0.1923952,-0.06138358,-0.1074509,0.04617352,-0.01609094,0.4906997,0.06094339,0.02539472
0.8846806,-0.174324,-0.04263588,-0.1258311,0.06460479,0.001573669,0.5214694,0.141064,-0.03425642
0.8019649,-0.0991886,0.003998963,-0.2083716,0.1400747,0.04718579,0.5465635,0.04226126,-0.1472534
0.7833218,-0.07897333,0.0156286,-0.2268522,0.1605947,0.05785027,0.6062889,0.0312129,-0.2177568
0.7476759,-0.02274649,-0.02097863,-0.2623368,0.2170901,0.02033175,0.6091817,0.05863658,-0.2168632
0.7608825,-0.01945429,-0.04562161,-0.2489582,0.2206069,-0.005171855,0.5337784,0.1538306,-0.1860598
0.7680191,-0.05372478,-0.04922073,-0.2416271,0.1865089,-0.009582874,0.4459329,0.2666697,-0.1569895
0.7180487,-0.07983214,0.003862957,-0.2913697,0.1605151,0.04273621,0.5087175,0.3122842,-0.1682815
0.72091,-0.1290453,0.0601564,-0.2882364,0.1113515,0.09830977,0.5653934,0.2506289,-0.1937291
0.7240734,-0.09982519,0.04478333,-0.2847463,0.1405543,0.08225705,0.4428969,0.04538256,-0.2255561
0.7623807,-0.09331898,-0.03111615,-0.2460478,0.1469746,0.005713287,0.389707,-0.09713451,-0.2435826
0.7935275,-0.1449806,-0.1118085,-0.2144377,0.09515651,-0.07559067,0.4643692,-0.08075474,-0.1955202
0.7463359,-0.2028148,-0.1348156,-0.2610878,0.03709508,-0.09917586,0.5004852,-0.08794822,-0.1189893
0.6918693,-0.3021615,-0.1365388,-0.3149292,-0.06254679,-0.1014405,0.4561324,-0.3224994,-0.05504298
0.6815679,-0.3886387,-0.1572976,-0.3245146,-0.1493808,-0.1227001,0.399804,-0.4844769,-0.01155682
0.9677919,-0.4699309,-0.1235483,-0.0374783,-0.2310803,-0.08940711,0.3679923,-0.2867158,0.005261062
1.585162,-0.5001203,-0.005507805,0.5807966,-0.2617136,0.02822434,0.2434062,-0.1485829,-0.01198714
1.956216,-0.4344992,0.08372871,0.9528243,-0.1965571,0.1170979,0.1095539,-0.2006584,-0.09332026
1.742342,-0.3567565,0.07852649,0.7399502,-0.1192859,0.1115734,0.1640352,-0.2854932,-0.1806761
1.470344,-0.308131,0.05651976,0.468935,-0.07112868,0.08927803,0.3748821,-0.3977652,-0.1550659
1.444676,-0.306693,0.06100141,0.4441986,-0.07014944,0.09349764,0.638818,-0.4077714,-0.09216825
1.3205,-0.2539796,0.03470843,0.3208802,-0.01788094,0.06696333,0.7069592,-0.3187003,-0.06905379
1.230736,-0.1186755,-0.02192975,0.2318822,0.1169936,0.01009996,0.4265332,-0.2155348,0.08567674
1.228213,-0.09362062,-0.02117945,0.2300237,0.1416321,0.01063849,0.1309704,-0.1799274,0.3411634
1.080642,-0.1664963,0.03540259,0.08301051,0.06834798,0.06702051,0.1032691,-0.2503109,0.4193501
0.9878965,-0.1882113,0.08189155,-0.00928598,0.04622796,0.1133186,0.2089084,-0.3470813,0.3275196
0.8893285,-0.1810367,0.08257482,-0.1075094,0.0529983,0.1138157,0.348563,-0.4087861,0.2764771
0.7771874,-0.1273804,0.04803559,-0.2194002,0.1062491,0.07908985,0.4604868,-0.3960629,0.2521457
0.7952597,-0.0244454,0.01987695,-0.2011583,0.2087738,0.0507399,0.2659254,-0.347277,0.1125646
0.7763607,0.02708838,-0.03507109,-0.2199525,0.2598859,-0.004406527,-0.1580049,-0.2452564,-0.04114804
0.711308,0.03789908,-0.07655228,-0.2849495,0.2702541,-0.04609321,-0.4018711,-0.1516897,-0.0863209
0.5706796,-0.00691947,-0.04458522,-0.4255542,0.2249617,-0.01433693,-0.4718811,-0.2596285,-0.07709553
0.5019453,-0.1333937,-0.03374738,-0.4942759,0.09797403,-0.003712989,-0.4427505,-0.4182668,-0.0512471
0.6545628,-0.2649789,-0.03388402,-0.3416345,-0.03416758,-0.004065152,-0.2452773,-0.405261,-0.09166319
0.8088432,-0.401126,-0.001130274,-0.1872995,-0.1709112,0.02847223,0.1427627,-0.3442393,-0.2326986
0.8921288,-0.4617735,0.01210279,-0.103917,-0.2321858,0.041488,0.72338,-0.3440521,-0.3562525
0.823489,-0.3691506,0.0004694633,-0.172412,-0.1402078,0.0296356,1.02478,-0.4007157,-0.2937281
0.766272,-0.289164,-0.04673313,-0.229432,-0.06087202,-0.01778855,0.932185,-0.5576757,-0.08066542
0.9734714,-0.3097705,-0.1435727,-0.02197933,-0.08212719,-0.1148512,1.029986,-0.6305765,0.08643872
1.247622,-0.4176003,-0.2496467,0.2524809,-0.1905971,-0.2211451,1.205775,-0.364476,0.3074118
1.389875,-0.5296151,-0.2778467,0.3950887,-0.3032346,-0.2495534,1.267482,0.0707229,0.4373199
1.295187,-0.4161726,-0.2239297,0.3007823,-0.1903856,-0.1958221,1.2213,0.2461593,0.1391734
1.231519,-0.1788238,-0.1542632,0.2375031,0.04640896,-0.1263092,0.7677722,0.00603123,-0.2233809
1.456383,-0.1030256,-0.08313338,0.4627454,0.1216946,-0.05529442,0.3351876,-0.2932455,-0.2722041
1.591294,-0.132192,-0.1097864,0.5980054,0.09205315,-0.08202113,0.3423872,-0.3261107,-0.1471794
1.503523,-0.1316194,-0.1798952,0.5105294,0.09218182,-0.1521606,0.3380296,-0.1302284,-0.03989165
1.369323,-0.09120556,-0.1276837,0.3765461,0.1321766,-0.09993426,0.1226969,0.04308778,0.07138993
1.201583,-0.09987568,-0.1111499,0.2089279,0.1231059,-0.08333759,0.00378804,-0.143517,0.2272736
1.08576,-0.172852,-0.1557018,0.09312286,0.04974128,-0.1277768,0.07668692,-0.4274926,0.3048069
1.045,-0.1907571,-0.1532234,0.05227545,0.03145606,-0.1251342,0.0903402,-0.4007083,0.3373046
0.9709346,-0.1818426,-0.1936462,-0.02197784,0.03999631,-0.1653392,0.02268849,-0.3098439,0.3501363
0.866427,-0.1725572,-0.1989697,-0.1267671,0.04891205,-0.1703881,-0.01066343,-0.2462278,0.3251827
0.8126373,-0.1679423,-0.1694716,-0.1809207,0.05316013,-0.1405552,-0.01075407,-0.2013504,0.3402165
0.7903698,-0.1970452,-0.2003048,-0.2036201,0.02369182,-0.1709908,0.07379341,-0.2530647,0.3165961
0.779656,-0.1981219,-0.1894567,-0.214818,0.02224996,-0.1596794,0.1962963,-0.2077744,0.2851737
0.804781,-0.2076608,-0.1642817,-0.1902136,0.01234595,-0.1339736,0.3165643,-0.07815885,0.2566214
0.814792,-0.203119,-0.1365869,-0.1807453,0.01652264,-0.1056791,0.4189454,0.09444982,0.1240342
0.8061954,-0.158981,-0.08355895,-0.189894,0.06029536,-0.05198337,0.492735,0.2266848,-0.002521642
0.7949738,-0.1102483,-0.07386162,-0.2016649,0.1086616,-0.04155273,0.5351069,0.1749133,-0.03643714
0.7760507,-0.01644996,-0.04857944,-0.2211234,0.2020885,-0.01547589,0.4889988,0.2123396,-0.007371309
0.7618874,-0.01274983,-0.03428773,-0.2357965,0.205406,-0.0003333315,0.4554109,0.291516,-0.02866037
0.7033092,-0.06694732,-0.04909684,-0.2948475,0.1508068,-0.01424118,0.4431401,0.2302781,-0.1435441
0.6373362,-0.03805356,-0.01702055,-0.3612436,0.1792731,0.01878093,0.3884585,0.1837087,-0.2238344
0.6698187,-0.04594072,-0.02756969,-0.3291206,0.1709269,0.009216204,0.2923641,0.04675211,-0.2269372
0.7972999,-0.05922308,-0.09508946,-0.2019223,0.1571487,-0.05728614,0.07192183,-0.01866628,-0.187612
0.9491297,-0.05625457,-0.1803767,-0.05029081,0.15958,-0.1415264,-0.1383789,0.3067287,-0.1917956
0.9876526,-0.1120871,-0.2526407,-0.01188004,0.1031654,-0.2127138,-0.1828306,0.6092819,-0.2289098
0.7817874,-0.2173543,-0.1815567,-0.2177733,-0.002729687,-0.1405204,-0.1149555,0.4535584,-0.2225147
0.4972414,-0.4029174,-0.0860319,-0.5022612,-0.1889635,-0.04385079,0.01411029,0.0993736,-0.1887667
0.4996269,-0.4973133,-0.09704697,-0.4997208,-0.2840629,-0.05368618,0.1402071,-0.1215145,-0.0934169
0.9158487,-0.4307365,-0.06631796,-0.08323316,-0.2182075,-0.0217454,0.1943206,-0.1771371,-0.04716712
1.539952,-0.4350736,-0.01973442,0.5412493,-0.2232684,0.02607795,0.05296741,-0.1047461,-0.1186667
1.865271,-0.4383307,-0.04565951,0.8670396,-0.2272376,0.001415513,-0.2224597,-0.09717722,-0.1621333
1.709527,-0.3553101,-0.07233226,0.7118203,-0.1449054,-0.02397708,-0.2621371,-0.06190648,-0.1851371
1.568427,-0.3420219,-0.08619277,0.5712553,-0.1322719,-0.03654421,0.0552893,0.1757754,-0.2238237
1.481016,-0.307517,-0.08599236,0.4843527,-0.09838144,-0.03504031,0.325406,0.2472809,-0.2271235
1.244865,-0.1560423,-0.07776893,0.2486601,0.05252284,-0.02550587,0.1052267,0.2015674,-0.07077188
1.193219,-0.0124042,-0.08413932,0.1974026,0.1956336,-0.03056027,-0.3370779,0.266091,0.203473
1.24994,-0.0002687656,-0.07256287,0.2544353,0.2072775,-0.0176654,-0.5574267,0.318296,0.3029714
1.163179,-0.1319982,-0.03529638,0.1679012,0.07508243,0.02091914,-0.6416077,0.3821982,0.2843772
1.069844,-0.2200784,0.02307772,0.07470442,-0.01344481,0.08060695,-0.6052312,0.2876393,0.3077815
0.9712394,-0.1979457,0.06531689,-0.02385176,0.008256822,0.1241495,-0.6162183,0.1098176,0.2988732
0.9094868,-0.127762,0.01983595,-0.08563972,0.07802455,0.0799543,-0.8788164,0.08308088,0.3232101
0.8629163,-0.01590094,-0.05922743,-0.132321,0.189482,0.0021522,-1.164469,0.0326127,0.3975575
0.7694697,-0.01029445,-0.0776694,-0.2259423,0.1946909,-0.01505691,-1.425972,-0.01717735,0.4273821
0.7934245,-0.08985305,-0.06743862,-0.2022122,0.1147327,-0.003623229,-1.477182,-0.01947835,0.4251763
0.8248083,-0.1086895,-0.07806987,-0.1710886,0.09548813,-0.01308222,-1.338286,-0.03691772,0.4169866
0.8038639,-0.09421016,-0.1118041,-0.1923154,0.1095464,-0.0456751,-1.405234,-0.01681643,0.4302251
0.8736573,-0.05283725,-0.1582014,-0.1228151,0.1504819,-0.09096113,-1.589385,0.1268546,0.4369612
0.9487866,-0.05003303,-0.1907103,-0.04798069,0.1528279,-0.1223861,-1.883343,0.4137355,0.3996281
0.9795761,-0.1252391,-0.1970427,-0.01748215,0.07713858,-0.1276578,-2.060563,0.5714997,0.3726054
0.899801,-0.2382715,-0.1714565,-0.09754106,-0.03640401,-0.1010291,-1.901487,0.4752835,0.3596359
0.7384477,-0.3375417,-0.1291846,-0.2591665,-0.1362091,-0.05772888,-1.775119,0.3411763,0.3079088
0.6984871,-0.334503,-0.09629409,-0.2993789,-0.1337229,-0.02382198,-1.541791,0.2093972,0.1832936
0.7226901,-0.3115351,-0.08735506,-0.2753947,-0.1113161,-0.01387812,-1.21527,0.03530201,0.02773696
0.7546189,-0.3223577,-0.1421933,-0.2436393,-0.1227,-0.06772345,-1.062656,-0.0403997,0.01189897
0.8763937,-0.3578626,-0.2483583,-0.1219825,-0.1587584,-0.1729065,-0.9035042,0.02266385,0.3018231
1.068339,-0.489301,-0.3300021,0.06990451,-0.2907333,-0.2535747,-0.8256261,0.288359,0.736757
1.236146,-0.5909135,-0.326361,0.237711,-0.3928531,-0.2489564,-0.7974671,0.7488103,0.8329562
1.34595,-0.5341321,-0.2711237,0.3475591,-0.3365344,-0.1927308,-0.7586935,0.8503355,0.5468285
1.474273,-0.4497943,-0.2518249,0.4759537,-0.2525987,-0.1724251,-0.942197,0.6470267,0.3117324
1.508761,-0.4210616,-0.2366683,0.5105173,-0.2241955,-0.1562373,-1.147513,0.6494347,0.1773498
1.355801,-0.3128902,-0.191478,0.3576133,-0.1162734,-0.1099877,-1.139251,0.5405459,-0.0144224
1.202134,-0.146335,-0.1426349,0.2039624,0.05011562,-0.06005556,-1.088451,0.2610309,-0.1214174
1.119543,-0.1244967,-0.1196993,0.1213357,0.07186756,-0.03600178,-1.135546,0.03542027,0.01946817
1.085188,-0.2106156,-0.1437231,0.08688664,-0.01426501,-0.05888042,-1.117582,-0.04949779,0.2596399
1.050397,-0.2951504,-0.135346,0.05194382,-0.09874683,-0.04933389,-0.8408659,0.1891412,0.3463405
1.008247,-0.3494079,-0.1115507,0.009584562,-0.152887,-0.02434723,-0.4167748,0.2914402,0.2602187
1.006855,-0.3340677,-0.130608,0.007929594,-0.1373642,-0.04219405,-0.1939895,0.09171173,0.06951688
0.922591,-0.2388157,-0.1543089,-0.07664829,-0.04186312,-0.06466809,-0.3462604,-0.06379157,-0.1177735
0.8576564,-0.1023873,-0.2127698,-0.1419397,0.09487927,-0.1218871,-0.4968867,-0.2230281,-0.1473675
0.9259063,-0.07292245,-0.240582,-0.07408113,0.1247164,-0.1484423,-0.482104,-0.216567,-0.06623014
0.939925,-0.1371314,-0.2167435,-0.06047967,0.06092844,-0.1233297,-0.5025743,0.01219194,-0.009665953
0.9353664,-0.162663,-0.2258842,-0.06547433,0.03585732,-0.1311768,-0.4490294,0.2714901,-0.005667317
0.9157928,-0.2093002,-0.1959674,-0.08549684,-0.01028643,-0.09994567,-0.4316813,0.4461558,-0.05449958
0.8500516,-0.2567712,-0.1417505,-0.1516934,-0.05723545,-0.04439308,-0.4343682,0.4016339,-0.1745727
0.8626219,-0.2453763,-0.1183335,-0.1395773,-0.04529215,-0.01962047,-0.2161053,0.3100881,-0.2651456
0.8710507,-0.2317907,-0.1115448,-0.1315933,-0.0311328,-0.01145948,-0.009745889,0.2418266,-0.2536606
0.8655029,-0.2087017,-0.1450441,-0.1375687,-0.007446394,-0.0435736,0.1391064,0.2705462,-0.2857545
0.8807363,-0.186256,-0.1557461,-0.1227391,0.01561814,-0.05288073,0.2183602,0.4726571,-0.4087278
0.8237553,-0.1887895,-0.1115737,-0.1800935,0.01372147,-0.007306277,0.1993309,0.5475879,-0.4951916
0.7688243,-0.1835931,-0.0552422,-0.2353606,0.01956903,0.05043115,0.3152416,0.4978972,-0.4069302
0.7948291,-0.1722126,-0.02641387,-0.209646,0.03161133,0.08066423,0.5253236,0.4494676,-0.2282429
0.8576417,-0.1436779,-0.04019682,-0.1470697,0.06081431,0.0682781,0.7862173,0.4216555,-0.225736
0.9202124,-0.07454479,-0.05405805,-0.08467564,0.1306172,0.05579897,0.8443216,0.3762769,-0.3524088
0.9529638,-0.01153675,-0.0874011,-0.05203882,0.1942894,0.0238175,0.5226652,0.2326041,-0.4585046
0.9176693,-0.009159436,-0.1179353,-0.08738592,0.1973158,-0.005379823,0.2675444,0.2086091,-0.4818184
0.855866,-0.0657016,-0.09448221,-0.14918,0.1413977,0.0193827,0.2522795,0.2405533,-0.3819647
0.849984,-0.1397483,-0.0816402,-0.1549896,0.06794197,0.03350452,0.3882541,0.1813751,-0.2962337
0.8985351,-0.2027795,-0.09993289,-0.1063004,0.005463962,0.01645954,0.4839713,0.08890106,-0.2564417
0.9498651,-0.2812194,-0.1484689,-0.05476562,-0.0724611,-0.03086281,0.3801014,-0.0828024,-0.2707668
0.9026897,-0.4012332,-0.1881138,-0.10167,-0.191995,-0.06932848,0.2388559,-0.1366004,-0.3595629
0.8873929,-0.5299534,-0.08576508,-0.1166307,-0.3202618,0.03416591,0.126996,-0.08917408,-0.412632
1.17028,-0.579339,0.09327659,0.1666559,-0.3692071,0.2143185,0.2315797,-0.04210619,-0.4449203
1.541231,-0.4690722,0.1647819,0.5380594,-0.2584971,0.2868933,0.4680987,0.01674317,-0.3797193
1.678753,-0.2375986,0.1584272,0.6760647,-0.02656435,0.281555,0.4338372,-0.2687832,-0.2334584
1.661937,-0.08503594,0.1231234,0.6597308,0.1264779,0.2472016,0.2808669,-0.6328599,-0.1912554
1.618422,-0.1849949,0.04285658,0.6166624,0.02701593,0.1678081,0.2361315,-0.5185384,-0.1765207
1.467618,-0.3081762,0.003878549,0.4662389,-0.09565594,0.1296189,0.4386829,-0.2959946,-0.1588377
1.261186,-0.1901375,-0.01138915,0.2600964,0.02290287,0.1150514,0.655638,-0.2316148,-0.08910235
1.1962,-0.1057668,-0.06320054,0.1952985,0.1078025,0.06384997,0.2866752,-0.117993,0.05347567
1.152574,-0.1576493,-0.06131539,0.1517501,0.0564535,0.06625489,-0.147325,-0.05725998,0.1038335
0.9966101,-0.1785234,0.01728774,-0.004245189,0.03611205,0.1452886,-0.01696976,-0.1318786,0.1655615
0.841849,-0.2516645,0.08903895,-0.1591426,-0.03650081,0.2173805,0.2101006,-0.2451861,0.2455067
0.7920136,-0.2359336,0.0691108,-0.2092075,-0.02024749,0.1977,0.3894373,-0.3280766,0.2535622
0.826933,-0.1050061,0.01549461,-0.1745951,0.1111957,0.1442348,0.5183679,-0.2852615,0.3178241
0.7699319,-0.0492565,0.01771621,-0.2319643,0.1674509,0.1465081,0.3274066,-0.263969,0.3338274
0.7070103,0.004148551,-0.005190501,-0.2952986,0.2213439,0.1235534,0.0723175,-0.3443523,0.2470803
0.7334863,-0.0304036,-0.02479186,-0.2692624,0.1872527,0.1038048,-0.06434197,-0.3835132,0.1560971
0.6559428,-0.1052372,-0.01629194,-0.3472549,0.1128441,0.1120597,-0.1185224,-0.4173346,-0.006178187
0.6108718,-0.1067787,-0.03708934,-0.392766,0.1116848,0.09092189,-0.02324768,-0.4384293,-0.149129
0.664143,-0.1304339,-0.02618076,-0.3399071,0.08836527,0.1013971,0.005183128,-0.4510871,-0.1871229
0.6688578,-0.08970623,-0.03257044,-0.3355591,0.129379,0.0944841,-0.04382047,-0.4679428,-0.1964593
0.7038552,-0.08945296,-0.05129293,-0.3008677,0.1298658,0.07515136,-0.03679081,-0.4309638,-0.1732189
0.7299045,-0.1766018,-0.02433094,-0.2750509,0.0428952,0.1014196,-0.03823712,-0.4222488,-0.1794169
0.7452172,-0.2522134,-0.01805789,-0.259887,-0.03259382,0.1069186,0.1911774,-0.4251298,-0.2707776
0.8149054,-0.3553149,0.01195463,-0.190256,-0.1356249,0.1360794,0.6577511,-0.4745401,-0.4045663
0.8757846,-0.3455288,0.03358716,-0.1293375,-0.1258132,0.1567841,0.9294371,-0.5998075,-0.4725298
0.9808995,-0.321361,-0.007509306,-0.02408604,-0.1016555,0.1146846,0.9353071,-0.6406296,-0.2865779
1.174152,-0.3740673,-0.08710703,0.1693961,-0.1543985,0.03401065,1.018754,-0.600545,0.1558363
1.382477,-0.3882585,-0.2175689,0.3780316,-0.1686443,-0.09759573,1.395554,-0.2999041,0.5543284
1.486065,-0.4922622,-0.2923496,0.481992,-0.2727105,-0.1735796,1.671534,0.3518722,0.5697977
1.530734,-0.5617637,-0.3356405,0.5270668,-0.3422697,-0.2181182,1.41935,0.7662908,0.4574965
1.57827,-0.3833594,-0.3479831,0.5750141,-0.1639044,-0.2317367,0.8676757,0.6459336,0.5453751
1.517937,-0.1476278,-0.2205387,0.5150679,0.07181644,-0.1055804,0.381166,0.2914686,0.3815339
1.513095,-0.1352064,-0.1034323,0.5105609,0.08425704,0.01023791,0.1787915,-0.07091611,-0.01494101
1.501105,-0.263183,-0.01739181,0.4988309,-0.0436744,0.09499675,0.324732,-0.2416432,-0.2272783
1.260172,-0.2710619,0.007865218,0.2580635,-0.05148505,0.1189794,0.5228969,-0.3434541,-0.2899259
1.120657,-0.2408004,-0.08575843,0.1186059,-0.0211328,0.02408721,0.6925629,-0.67561,-0.03841998
1.141561,-0.212411,-0.1033165,0.1394571,0.007369716,0.005266147,0.9371111,-0.8206725,0.2613847
1.144726,-0.1779536,-0.1603863,0.1424581,0.04196101,-0.05305912,0.9415369,-0.643356,0.2349558
1.103819,-0.2258093,-0.236786,0.1012786,-0.005742637,-0.1307022,0.7752264,-0.60059,0.07373753
0.9660704,-0.2432776,-0.1634569,-0.03684782,-0.02304318,-0.05859799,0.7170305,-0.5001243,-0.1607458
0.8687493,-0.2361911,-0.1622887,-0.1346452,-0.01577448,-0.05862981,0.6835966,-0.3511753,-0.2041896
0.8168935,-0.2101464,-0.1719751,-0.1870632,0.01046624,-0.0694863,0.8043818,-0.41491,-0.1018622
0.8194562,-0.1251146,-0.1554066,-0.1851331,0.09570587,-0.05405361,0.8895473,-0.3787452,-0.124726
0.8806463,-0.07678896,-0.2029582,-0.1246304,0.1442469,-0.1027029,0.7631263,-0.2466182,-0.08028406
0.8669046,-0.057145,-0.1608594,-0.1391002,0.1641067,-0.06165944,0.6961135,-0.1014326,-0.1175247
0.867125,-0.07268749,-0.1073235,-0.1396365,0.1487726,-0.009133093,0.6712676,0.09736104,-0.2418445
0.8309757,-0.08204247,-0.07065365,-0.1765596,0.1396104,0.02657418,0.7049011,0.1410664,-0.2460618
0.7786919,-0.05351371,-0.04556008,-0.2296225,0.1683094,0.0507512,0.7432155,0.151439,-0.216123
0.7964075,-0.06117948,-0.100064,-0.2126786,0.1607845,-0.0046255,0.7198894,0.2653044,-0.1191446
0.7684522,-0.07728975,-0.1012196,-0.2413853,0.1447792,-0.006611886,0.7072365,0.4048554,-0.05171641
0.7620013,-0.09523166,-0.07932431,-0.248555,0.1269009,0.0144935,0.5703102,0.4902159,-0.0771438
0.7458331,-0.08184865,-0.07946481,-0.2653972,0.1403018,0.01360309,0.3709754,0.3930458,-0.1180336
0.6980249,-0.04473059,-0.0794722,-0.3138224,0.177388,0.01288431,0.1588041,0.2392531,-0.1920518
0.7090765,-0.06163823,-0.1124009,-0.3033185,0.1603946,-0.02071857,-0.03406524,0.09298549,-0.2399938
0.7860986,-0.08842213,-0.1286217,-0.2267632,0.1334667,-0.03757692,-0.08860089,-0.07099694,-0.2160217
0.9407629,-0.1474281,-0.1651407,-0.07247669,0.07425588,-0.07469626,-0.04603919,-0.06932932,-0.09957394
0.9757715,-0.2670232,-0.197441,-0.03775425,-0.0456048,-0.1075576,0.1707538,0.06888071,0.01529714
0.8710063,-0.4044551,-0.1775318,-0.1427153,-0.1833579,-0.08816729,0.406578,0.1770964,0.007228363
0.8231183,-0.5140348,-0.1551606,-0.1907098,-0.2933038,-0.06626964,0.4048439,0.1475667,-0.06344601
0.8592885,-0.5265741,-0.08717265,-0.1545553,-0.3062385,0.001291691,0.3335539,0.01859784,-0.1928177
1.111465,-0.479255,-0.02225926,0.09769718,-0.2593263,0.06582458,0.3753546,-0.07986551,-0.3539347
1.626592,-0.3756272,-0.0102376,0.6129821,-0.1561012,0.07750818,0.4695764,-0.2278442,-0.3534237
1.954798,-0.23309,0.005956414,0.9414049,-0.01395153,0.09340105,0.5624689,-0.3479495,-0.2011775
1.699255,-0.2129922,0.006938138,0.6860955,0.005778817,0.09411232,0.7101936,-0.3631001,-0.08442345
1.395125,-0.2642339,0.001763313,0.3821777,-0.04580929,0.08869156,0.8234276,-0.3397349,0.02369802
1.439431,-0.2417561,-0.01110064,0.4266442,-0.02365639,0.07560046,0.8034533,-0.2396054,0.1145524
1.338732,-0.1969845,-0.06311151,0.3260366,0.02081231,0.02337653,0.6429029,-0.2399605,0.224692
1.229276,-0.1859912,-0.08909606,0.2165887,0.03152405,-0.002809877,0.4123673,-0.209721,0.4183357
1.27105,-0.2476778,-0.03373085,0.2582791,-0.03042417,0.05236317,0.3788192,-0.0474013,0.3867972
1.061788,-0.3564302,0.05333251,0.0488357,-0.1394183,0.1392419,0.5755579,-0.1183709,0.2434312
0.8995131,-0.3548855,0.0849937,-0.1137154,-0.1380921,0.1707211,0.7898625,-0.1754769,0.2289341
0.8808287,-0.2503753,0.07461971,-0.1327642,-0.03377257,0.1601608,0.8076067,-0.1168215,0.1706202
0.7199429,-0.1408084,0.08073384,-0.2940884,0.07563365,0.1660767,0.5758428,-0.2214711,0.2027317
0.6537601,-0.03896745,0.07333415,-0.3607657,0.1773413,0.1584598,0.3167384,-0.2478212,0.2122234
0.7174047,-0.02648618,0.05021563,-0.2976509,0.1897089,0.1350988,0.1725388,-0.1674696,0.019975
0.7070181,-0.06050383,0.06065089,-0.3085819,0.1555877,0.1452613,0.1772389,-0.1377941,-0.1834242
0.6535805,-0.04595284,0.07690112,-0.3625595,0.1700358,0.1612039,0.1972486,-0.2188534,-0.3444063
0.6259276,-0.05581917,0.05940306,-0.3907294,0.1600588,0.1433589,0.1502488,-0.4590146,-0.3033164
0.6112219,-0.0831747,0.01209173,-0.4059103,0.1325777,0.09565774,0.160358,-0.6041721,-0.1906315
0.6819633,-0.147321,-0.05908786,-0.3355839,0.06828496,0.02404377,0.1634844,-0.5138398,-0.2020335
0.8355342,-0.2866044,-0.08379169,-0.1823532,-0.0711683,-0.001137808,0.2971676,-0.3467936,-0.2302815
0.8687227,-0.3706811,-0.04632411,-0.1494209,-0.1554358,0.03581185,0.6925918,-0.2909654,-0.3370642
0.8424201,-0.3530381,-0.04646915,-0.1758914,-0.1379978,0.03511196,1.048955,-0.3618179,-0.3664704
0.8677254,-0.2797353,-0.07507168,-0.1506631,-0.06490589,0.005920485,1.148956,-0.4343091,-0.30889
0.9374219,-0.2222599,-0.1298968,-0.08095137,-0.00764139,-0.04952434,1.017605,-0.4004266,-0.1689343
1.101282,-0.2782042,-0.2226111,0.08301457,-0.06379327,-0.1428836,0.9447674,-0.116637,0.2973071
1.195187,-0.3494399,-0.2525141,0.177109,-0.1352303,-0.1734484,0.9729095,0.268656,0.7106698
1.177976,-0.3328726,-0.272018,0.1601587,-0.1188532,-0.1936202,0.7513039,0.3668838,0.8305222
1.303248,-0.3777603,-0.3072051,0.2857476,-0.163914,-0.2294696,0.4088596,0.1736672,0.7327619
1.564101,-0.4882344,-0.2476688,0.546956,-0.2745366,-0.1705781,0.3300925,0.05322967,0.2111082
1.617671,-0.4602236,-0.1447221,0.6008949,-0.2466404,-0.0682488,0.5010606,0.06239627,-0.5256724
1.429335,-0.2581582,-0.06485143,0.412913,-0.04464632,0.01103762,0.576895,-0.06623145,-0.8069211
1.344852,-0.01606021,-0.08974292,0.3287431,0.1974268,-0.01440353,0.4005797,-0.278674,-0.3655529
1.364156,0.007342733,-0.1919644,0.3483022,0.2208452,-0.1171398,0.3008746,-0.4467669,0.1612394
1.281361,-0.1821053,-0.1875539,0.2656891,0.03144205,-0.1132072,0.4328817,-0.5124091,0.3612442
1.105869,-0.2854148,-0.1846141,0.09029697,-0.0718012,-0.1107043,0.5207459,-0.4063462,0.3847029
0.9426898,-0.3169104,-0.188572,-0.07286837,-0.1032108,-0.1150543,0.4449271,-0.3216497,0.1307623
0.8185855,-0.288328,-0.09806972,-0.1970386,-0.07452067,-0.0248961,0.3948566,-0.337928,-0.08544805
0.7102911,-0.187747,-0.09947157,-0.3054662,0.02619162,-0.026593,0.4319707,-0.38586,-0.07346122
0.7224966,-0.1603287,-0.145905,-0.2934442,0.05376393,-0.07327304,0.460546,-0.4431043,-0.0441577
0.8005933,-0.1244288,-0.1676239,-0.2155626,0.08983686,-0.09519015,0.5664365,-0.4498493,0.07845847
0.8449791,-0.1159131,-0.201821,-0.1714078,0.09853923,-0.1295358,0.7181784,-0.3800394,0.0900602
0.8959112,-0.1579577,-0.1532966,-0.1207106,0.05668908,-0.08110814,0.7782543,-0.1787337,0.04493458
0.8685213,-0.127831,-0.116099,-0.1483304,0.08701261,-0.04395394,0.7889358,0.1231562,0.05364211
0.8174286,-0.1043877,-0.0970796,-0.1996401,0.1106505,-0.02492511,0.7111405,0.3953004,-0.08005888
0.7679906,-0.06665439,-0.04075518,-0.2492735,0.1485704,0.03145951,0.5467613,0.5196325,-0.1795869
0.6897541,-0.06411566,-0.01533842,-0.327673,0.1512815,0.05698314,0.3686634,0.4998509,-0.2213414
0.7227759,-0.1245018,0.007517447,-0.2947694,0.09104669,0.0799868,0.2830648,0.4563277,-0.1558134
0.7739262,-0.1055407,-0.00957393,-0.2436802,0.1101331,0.0630775,0.4552408,0.346021,-0.06226896
0.8049312,-0.07339833,-0.06329796,-0.2126691,0.1423703,0.009563637,0.5783707,0.1614299,-0.1880426
0.8927587,-0.03289879,-0.1221305,-0.1247619,0.1829296,-0.04903487,0.2943774,0.07690559,-0.2466691
0.9339706,-0.02522494,-0.1729976,-0.08339349,0.1906223,-0.09964538,-0.06598383,0.1508788,-0.2077561
0.9442496,-0.100716,-0.1523088,-0.07288141,0.1151032,-0.0786766,-0.1593847,0.2564086,-0.1776192
0.9458644,-0.171331,-0.1559552,-0.07095876,0.04440932,-0.08201763,-0.1343196,0.2994023,-0.07509187
0.8987548,-0.3281615,-0.1755083,-0.1176879,-0.1125507,-0.1012383,-0.1489744,0.2602428,-0.04999122
0.870745,-0.5000426,-0.134775,-0.145246,-0.2846052,-0.06014403,-0.1720671,0.1689517,-0.2143794
1.02027,-0.5669301,-0.100162,0.004800744,-0.3516969,-0.02514067,-0.1272641,0.1347371,-0.4422089
1.362783,-0.5721412,-0.04255989,0.3479009,-0.3571247,0.0328801,0.1653744,-0.05925275,-0.4395158
1.576195,-0.5030385,0.009929601,0.56195,-0.2882325,0.08581296,0.6349693,-0.4139881,-0.3194059
1.53553,-0.4030661,0.0005648928,0.521944,-0.1884481,0.07691071,0.8648739,-0.3737208,-0.2819466
1.462425,-0.236987,-0.03204209,0.449492,-0.02252399,0.04477899,0.8724466,-0.1344004,-0.1888689
1.426259,-0.1273692,-0.07471224,0.4139447,0.08697518,0.002591733,0.8381922,-0.08104426,-0.1484702
1.37621,-0.1878331,-0.0557983,0.3644608,0.02642654,0.02199278,0.5948101,0.01266497,-0.06289072
1.343349,-0.1894703,-0.004877132,0.3320921,0.02473407,0.07340238,0.2952949,0.06155073,0.1291397
1.309206,-0.2228938,0.01259205,0.2983546,-0.008718763,0.09135743,0.2594211,0.03500926,0.09401461
1.155273,-0.3199622,0.06930995,0.1447309,-0.1057922,0.1485532,0.4658872,0.01388216,0.03713967
0.9383147,-0.2334354,0.08750486,-0.0720203,-0.01924553,0.1672111,0.703361,-0.1513639,0.1365988
0.8106278,-0.1117395,0.02195742,-0.1995959,0.1024949,0.1021042,0.6880736,-0.2389782,0.1971458
0.7873335,-0.07438869,-0.01268666,-0.2228626,0.1399113,0.06787195,0.4578052,-0.1333214,0.2949703
0.8112654,-0.06745781,-0.01418762,-0.1989711,0.1469215,0.06675036,0.197981,-0.04698699,0.3187607
0.7866079,-0.1062416,0.01120302,-0.223721,0.1082228,0.09248535,0.01115255,-0.02312019,0.1176979
0.7454725,-0.1190027,0.04107695,-0.2649853,0.09554513,0.1226659,0.0562546,-0.05801341,-0.1310928
0.7144117,-0.1009226,0.04424043,-0.2961961,0.1137016,0.1260947,0.1252739,-0.1414371,-0.3497868
0.6417996,-0.07643658,0.05207586,-0.3689624,0.1382514,0.1341502,0.0944284,-0.3299011,-0.3991757
0.6244785,-0.03465707,0.02348961,-0.3864243,0.1800763,0.105735,0.1106224,-0.5570541,-0.2104481
0.6844947,-0.04454924,-0.02569971,-0.3265174,0.1702042,0.05666486,0.05278831,-0.5559605,-0.04658694
0.7790279,-0.1360971,-0.04112765,-0.2320462,0.07864482,0.04130346,-0.02152868,-0.3247373,-0.06568195
0.8581314,-0.2652978,-0.04641151,-0.1529464,-0.05060233,0.03603433,0.0233846,-0.1470683,-0.2273211
0.8304652,-0.3377123,-0.01648,-0.1805516,-0.1230964,0.06593019,0.2478347,-0.2738706,-0.3424737
0.8057694,-0.3007811,0.02833824,-0.2051172,-0.08627189,0.1106632,0.6574154,-0.5053276,-0.2941369
0.8502533,-0.234038,0.0024439,-0.1604299,-0.01965583,0.08463366,0.8152581,-0.527401,-0.254915
0.8746342,-0.171699,-0.07471743,-0.1357691,0.0425402,0.007286949,0.6685718,-0.4387613,-0.2435679
0.91986,-0.1582985,-0.1390141,-0.09018551,0.05578313,-0.05724325,0.6678825,-0.3217708,-0.02862456
1.027325,-0.2948739,-0.1721591,0.01771357,-0.0809643,-0.09066489,0.766617,-0.2059351,0.3802487
1.14655,-0.4478415,-0.2083611,0.137444,-0.234115,-0.127179,0.8054331,-0.07546071,0.6377863
1.239773,-0.4535255,-0.2845336,0.2312333,-0.2399848,-0.2036897,0.8253995,0.05785424,0.5969889
1.353773,-0.41205,-0.3119652,0.3458442,-0.1986858,-0.2314744,0.7063436,0.02913994,0.4395582
1.551158,-0.3922292,-0.2562507,0.5438653,-0.1790215,-0.1761156,0.5555934,0.08810911,0.1262913
1.599415,-0.2894855,-0.1959518,0.5927571,-0.07640589,-0.1161636,0.5531805,0.2213,-0.3533609
1.369642,-0.09622384,-0.1074547,0.363589,0.1167599,-0.02799709,0.339435,0.01749382,-0.4895516
1.218604,-0.0130832,-0.08206719,0.2131039,0.1998338,-0.00292019,-0.06565852,-0.2929047,-0.1779359
1.236939,-0.1159078,-0.1556689,0.2319245,0.09696344,-0.07681128,-0.05137927,-0.5049591,0.09156533
1.232643,-0.2329348,-0.1670499,0.2280392,-0.020096,-0.0884589,0.2602192,-0.5815165,0.3070424
1.182064,-0.2716089,-0.1852729,0.1777875,-0.05879264,-0.1069228,0.4178908,-0.432019,0.3968834
1.047835,-0.2517482,-0.2075348,0.04379881,-0.0389441,-0.1293959,0.4309187,-0.3675125,0.1623475
0.9004675,-0.2120062,-0.1672871,-0.1034145,0.0007975354,-0.08932566,0.3681905,-0.4333842,0.01856992
0.8565886,-0.2115134,-0.1805673,-0.1472192,0.001301988,-0.1027458,0.3793089,-0.4503392,0.03631123
0.8710219,-0.2299603,-0.1937704,-0.1327805,-0.01712189,-0.1160486,0.5161571,-0.4458508,0.002833883
0.8491157,-0.2389527,-0.1871786,-0.1547381,-0.02608029,-0.1095131,0.6469319,-0.3154181,-0.03566818
0.8171595,-0.2339147,-0.1668148,-0.1867903,-0.02099719,-0.08915981,0.7628811,-0.08388515,-0.120893
0.8576623,-0.1743776,-0.08383137,-0.1464164,0.03859593,-0.006139706,0.812931,0.06419396,-0.1587543
0.8652081,-0.09824641,-0.06830914,-0.1390211,0.1147922,0.009465367,0.8342057,0.1209357,-0.1486958
0.8349026,-0.06853933,-0.1199607,-0.169489,0.1445687,-0.04206004,0.8401131,0.1485957,-0.1486494
0.8214344,-0.06962819,-0.1400408,-0.1831221,0.1435471,-0.06197293,0.7439437,0.1705291,-0.1178821
0.7839803,-0.094142,-0.1120002,-0.2207339,0.1190912,-0.0337255,0.6510043,0.2193622,-0.1388992
0.8250639,-0.1366555,-0.07394154,-0.1797907,0.07662017,0.004578261,0.557094,0.2562642,-0.1330399
0.8926518,-0.1552678,-0.1031432,-0.1123172,0.05803096,-0.02434231,0.5218064,0.2183764,-0.08124472
0.8964681,-0.1425528,-0.123979,-0.108583,0.07074707,-0.04486341,0.6390323,0.2085893,-0.05031382
0.901487,-0.1401961,-0.1217386,-0.10361,0.07308115,-0.04227661,0.6939237,0.2391509,-0.02428514
0.8984952,-0.1372866,-0.1652597,-0.1066084,0.07594235,-0.0854204,0.5557808,0.2360358,-0.03723409
0.9189517,-0.1323186,-0.203193,-0.08611681,0.08083444,-0.1229452,0.2699622,0.2529718,-0.0391927
0.9452764,-0.1969431,-0.2195911,-0.05971351,0.01610525,-0.1389017,0.1226581,0.2987778,-0.06394257
0.9391706,-0.2831836,-0.2024175,-0.06569691,-0.07026844,-0.1212508,0.3298667,0.3485602,-0.1027513
0.9643741,-0.3275919,-0.1670317,-0.04032718,-0.1148348,-0.08534934,0.5907495,0.3398147,-0.08835915
1.03681,-0.3813816,-0.150883,0.03231737,-0.1688004,-0.0686455,0.6057428,0.322356,-0.1080075
1.159596,-0.3978037,-0.1322523,0.1553499,-0.1854074,-0.04942065,0.3911148,0.4288503,-0.1189139
1.379819,-0.3815905,-0.09154648,0.3758483,-0.1693784,-0.008083071,0.1516976,0.4873256,-0.1126538
1.623357,-0.4287094,-0.01418646,0.6196739,-0.2166708,0.0699429,0.09488957,0.3230858,-0.1550101
1.641587,-0.4449964,0.02387868,0.6381768,-0.2331108,0.1087023,0.2667561,0.006608422,-0.2255442
1.54525,-0.4102154,0.030237,0.5420681,-0.1984523,0.1157751,0.5751962,-0.2261639,-0.3052744
1.499364,-0.3778966,0.05373873,0.4963385,-0.1662165,0.1400023,0.8589784,-0.2001851,-0.2946786
1.232167,-0.2741535,0.02155114,0.2292052,-0.0625107,0.1085422,0.918325,-0.1732625,-0.2286729
0.9965516,-0.2174092,0.02022195,-0.006449436,-0.005755403,0.107934,0.7652652,-0.2964442,-0.1317
1.028871,-0.2241213,0.02414863,0.02572658,-0.01240923,0.112568,0.6889383,-0.3435384,0.09774634
0.7510789,-0.4104816,-0.06865155,-0.2286031,-0.1947778,-0.004548211,-0.8434214,-0.3662418,-0.275816
0.8475575,-0.5542525,-0.07807135,-0.1320665,-0.3385247,-0.01406911,-0.3095074,-0.2842524,-0.4110918
0.917867,-0.613455,-0.08571145,-0.06162244,-0.3976958,-0.02180271,0.2184586,-0.1885844,-0.3594267
0.8924663,-0.503899,-0.1345434,-0.08681219,-0.288084,-0.07071972,0.5457357,-0.03515511,-0.05438968
1.047486,-0.4163218,-0.2214453,0.06849209,-0.2004117,-0.1576957,0.6068207,0.3076327,0.2401538
1.19527,-0.3502867,-0.248401,0.2166272,-0.1342327,-0.1847092,0.319621,0.422634,0.2667012
1.226325,-0.2728764,-0.2609935,0.2480876,-0.05662467,-0.1973361,-0.1443062,0.3162993,0.2337281
1.271919,-0.2607427,-0.3146298,0.2941258,-0.04423876,-0.2509749,-0.239181,0.2823366,0.365311
1.480181,-0.3313607,-0.3312439,0.5028504,-0.1145511,-0.2675503,0.07084218,0.3255496,0.3861969
1.652151,-0.3511688,-0.2766202,0.675278,-0.1340005,-0.2128371,0.1298023,0.3092087,-0.003902854
1.44453,-0.1773375,-0.2445778,0.4680804,0.04024257,-0.1806462,-0.6499931,0.1703079,-0.3367052
1.248935,-0.03197911,-0.231238,0.2728494,0.1860621,-0.1670934,-1.394413,0.0189747,-0.09479252
1.319214,-0.2287677,-0.1688096,0.3434158,-0.0102242,-0.1043837,-0.7827178,-0.1443772,0.3458112
1.28348,-0.4705985,-0.1358362,0.30788,-0.251518,-0.07105971,0.1591653,-0.2354229,0.5087812
1.12844,-0.4039183,-0.1804243,0.1529383,-0.184265,-0.1152287,0.1975201,-0.1892708,0.4740798
1.067536,-0.2750512,-0.2144155,0.09203054,-0.05478461,-0.148733,-0.04081457,-0.1664246,0.3037585
0.980492,-0.2067233,-0.1933958,0.004879046,0.0141985,-0.1271588,-0.2634878,-0.2426376,0.06720134
0.862447,-0.1336861,-0.1862411,-0.1133702,0.0879295,-0.1193812,-0.3626258,-0.3495984,0.02122619
0.8161675,-0.1616438,-0.2016053,-0.159941,0.06069744,-0.1340545,-0.2251301,-0.3591475,0.04675272
0.7274069,-0.1771612,-0.1859512,-0.2490658,0.04593003,-0.1176416,-0.2561438,-0.3181451,0.02679903
0.7023567,-0.152049,-0.176781,-0.2745365,0.07180951,-0.1076455,-0.200577,-0.2197911,0.04729071
0.7661521,-0.1684617,-0.1645543,-0.2112002,0.05617518,-0.09452703,-0.1107432,0.099916,0.02413819
0.7559835,-0.1110993,-0.1196056,-0.2218499,0.1143204,-0.04862308,-0.2269042,0.4819139,-0.02739818
0.7521977,-0.06221093,-0.07837997,-0.2261241,0.1639888,-0.006382246,-0.2099641,0.5884656,-0.1295194
0.7154934,-0.0552526,-0.04059588,-0.2633109,0.1717157,0.03247124,-0.2761175,0.5003894,-0.2191739
0.6635604,-0.03565703,-0.03122484,-0.3157064,0.1920585,0.04295855,-0.3723828,0.5568063,-0.1799653
0.7176901,-0.05766981,-0.05261331,-0.262005,0.170762,0.02272519,-0.3755323,0.5726816,-0.1489434
0.8298792,-0.04757995,-0.1038281,-0.1501975,0.1815282,-0.02730292,-0.4942628,0.4800299,-0.1276092
0.9449311,-0.04134219,-0.2041745,-0.03547274,0.188394,-0.126436,-0.5606132,0.5484947,-0.1204153
0.9004346,-0.08270582,-0.2537112,-0.08023911,0.1476027,-0.1747341,-0.7674393,0.5602447,-0.1253674
0.7238316,-0.1865538,-0.260739,-0.2570532,0.04426602,-0.1804959,-1.044246,0.5600087,-0.05575923
0.6234816,-0.3766062,-0.3264584,-0.3575501,-0.1453372,-0.2449182,-1.203041,0.6838951,-0.002369886
0.6379662,-0.4418983,-0.3359672,-0.343138,-0.2102366,-0.2530937,-1.498967,0.8476521,0.01191804
0.8698186,-0.4812804,-0.1807287,-0.1112728,-0.2492712,-0.09648046,-1.686834,1.111439,0.008638851
1.356056,-0.6811072,0.07504916,0.3750649,-0.4487807,0.1607142,-1.598698,0.9611476,0.00391975
1.737391,-0.7331032,0.2419778,0.7565735,-0.5004701,0.3290929,-1.128021,0.2454456,0.0351579
1.623472,-0.5677594,0.1408415,0.6428704,-0.3348083,0.2294232,-0.2255738,-0.2603149,0.0140208
1.422177,-0.4402454,0.03085347,0.4417974,-0.2069464,0.1209006,0.4596623,-0.184906,-0.1197097
1.503802,-0.3521284,0.1102986,0.5236206,-0.11844,0.2017957,0.5547941,-0.08959457,-0.2239815
1.34953,-0.1880234,0.05052659,0.3694977,0.04609977,0.1434468,0.08157599,-0.3491367,-0.03928117
1.14299,0.04140511,-0.09349243,0.1630412,0.2760051,0.0008145101,-0.7123142,-0.1305607,0.3054175
1.223751,0.09467331,-0.07527711,0.2438083,0.32978,0.02037491,-1.127644,0.3687166,0.4452467
1.101496,-0.1277495,-0.0126162,0.1214778,0.1078777,0.08433668,-1.052008,0.2631844,0.447532
0.9144329,-0.27802,0.09109032,-0.06574554,-0.04187105,0.1892962,-0.8777637,0.2233034,0.364233
0.8481866,-0.2503242,0.133998,-0.1322311,-0.01365697,0.2334022,-0.6886022,0.232653,0.1448332
0.7431915,-0.1719267,0.08165205,-0.2375336,0.06525399,0.1821906,-0.6786983,-0.02683931,-0.02502574
0.6801208,-0.02676356,0.09260409,-0.3009645,0.2109227,0.1942041,-0.9301007,-0.1761854,-0.1339091
0.5692182,0.02433037,0.04678434,-0.4122615,0.2625066,0.1493656,-1.218381,-0.3465731,-0.2015077
0.5378572,-0.04816413,-0.02361511,-0.4440293,0.1904754,0.07986182,-1.465351,-0.2476051,-0.2176871
0.6294844,-0.1654649,-0.02927726,-0.3527985,0.07360124,0.07500748,-1.527695,0.03050603,-0.2622031
0.6477983,-0.3533364,-0.03577199,-0.33485,-0.1138848,0.06923243,-1.335236,0.09367977,-0.2457678
0.6533787,-0.4493723,-0.01565868,-0.3295868,-0.2095735,0.08997783,-0.8732707,0.02296338,-0.2179176
0.676836,-0.4596974,-0.03829685,-0.3063843,-0.2195808,0.06788478,-0.103657,-0.2907221,-0.2415298
0.7568864,-0.4736062,-0.09078423,-0.2265141,-0.2331893,0.01585678,0.4899191,-0.4249105,-0.2518439
0.8252521,-0.4486333,-0.13469,-0.1582453,-0.2079217,-0.02767239,0.6068728,-0.4645763,-0.2474982
0.8836989,-0.4769079,-0.2199567,-0.09980794,-0.2358961,-0.1126399,0.7122202,-0.5606025,0.0282921
1.072071,-0.5344451,-0.2765702,0.08864207,-0.2931169,-0.1690228,0.9981822,-0.05279414,0.5152734
1.210535,-0.5066443,-0.2701588,0.2272631,-0.2649722,-0.1624388,1.096922,0.5978088,0.6731626
1.217693,-0.3511469,-0.2517044,0.2346463,-0.1090933,-0.1438576,0.8356309,0.693284,0.5147558
1.308129,-0.1572388,-0.3143901,0.3253571,0.08523871,-0.2064512,0.3098643,0.3266288,0.3830628
1.571888,-0.1535726,-0.3666421,0.5894205,0.08936852,-0.2586339,-0.1475122,0.05576607,0.2220083
1.703182,-0.1689921,-0.2777775,0.7210212,0.07444505,-0.1697104,-0.282762,0.2076028,-0.06628093
1.54491,-0.03060585,-0.2151087,0.5630261,0.2133509,-0.1069822,-0.5869718,0.1892033,-0.2149913
1.432783,-0.05229367,-0.2142288,0.4511172,0.1921959,-0.1060348,-0.9501542,0.04990049,-0.008270787
1.411434,-0.2488078,-0.1886979,0.429902,-0.003783157,-0.08042349,-0.6591871,0.1090636,0.320022
1.351172,-0.4154941,-0.165093,0.3696745,-0.1699375,-0.05672155,-0.2442883,0.0554221,0.3672712
1.252175,-0.4422227,-0.1607928,0.2705979,-0.1961351,-0.05230563,-0.03569702,-0.09060052,0.1456135
1.055314,-0.2736797,-0.1802139,0.0735375,-0.02705632,-0.07159095,0.09680689,-0.2209239,-0.03003476
0.8750665,-0.1541342,-0.1818493,-0.1070297,0.09303283,-0.07306892,-0.1940525,-0.2400462,-0.07518239
0.7773718,-0.1004725,-0.1810162,-0.2051537,0.1472431,-0.0720553,-0.4015212,-0.1689744,0.03604896
0.6818573,-0.06132791,-0.1849333,-0.3011906,0.1869336,-0.07576712,-0.3260308,-0.2118695,0.1643012
0.6350183,-0.1294361,-0.1747811,-0.3486243,0.1193594,-0.06538356,-0.31827,-0.2893442,0.129535
0.6858822,-0.1224306,-0.1837026,-0.2984046,0.1268788,-0.0740464,-0.14267,-0.3405755,0.1227049
0.7505907,-0.1118046,-0.1813161,-0.2343685,0.1379918,-0.07137301,-0.1038034,-0.2590459,0.1418691
0.7861628,-0.1535698,-0.1753042,-0.1994793,0.09668072,-0.06504519,-0.2122491,0.07581753,0.1321866
0.8474587,-0.1445489,-0.1518595,-0.1388629,0.1061181,-0.04125507,-0.1697073,0.4836256,0.1328495
0.8651105,-0.183209,-0.08569948,-0.1218766,0.06783303,0.02527908,-0.1566588,0.7438995,-0.01930638
0.8116298,-0.1716438,-0.03711689,-0.1760008,0.07972933,0.07426166,-0.02690724,0.7418958,-0.2447751
0.7833027,-0.1278795,-0.01397796,-0.2049411,0.1237789,0.0978212,0.03145148,0.6386866,-0.3526498
0.7808424,-0.06260392,-0.02826367,-0.2079754,0.1892906,0.08397001,-0.1121511,0.5095888,-0.330227
0.799532,0.06649588,-0.07235464,-0.1898113,0.3185718,0.04032103,-0.2815809,0.1776724,-0.2135112
0.8719843,0.02225643,-0.1473515,-0.1178285,0.2744501,-0.03423094,-0.5380972,-0.005482174,-0.06407062
0.955582,-0.09362214,-0.2497006,-0.03463965,0.1586162,-0.1361335,-0.6923169,0.231344,-0.02051529
0.9040686,-0.1759643,-0.2657879,-0.08649955,0.07623994,-0.1517699,-0.7621433,0.4577825,-0.1325812
0.7810094,-0.3159521,-0.2341617,-0.2098422,-0.06386088,-0.1196834,-0.719372,0.4713323,-0.1800832
0.7851542,-0.3800832,-0.2469349,-0.2059143,-0.1281783,-0.1319818,-0.6144262,0.3580936,-0.1369178
0.8658893,-0.4624874,-0.2285962,-0.1253242,-0.2108318,-0.1131498,-0.801435,0.3049195,-0.04682047
1.127115,-0.6538007,-0.124519,0.13583,-0.4024422,-0.008557791,-0.9088209,0.6145746,0.135677
1.600616,-0.7075823,0.04852921,0.6093261,-0.4565493,0.165026,-0.7147848,0.83952,0.1437105
1.849345,-0.5716817,0.1480921,0.858091,-0.3209792,0.2651382,-0.5564076,0.3179855,-0.09481509
1.732246,-0.4388508,0.0741176,0.7410333,-0.1884638,0.1917146,-0.3844552,-0.2245229,-0.2633205
1.462453,-0.3673901,0.02205529,0.4712482,-0.1172902,0.1401925,0.03629811,-0.05898426,-0.1500934
1.211286,-0.2571598,0.0401441,0.2200277,-0.007312023,0.158801,0.375267,-0.006387898,0.0868051
1.186903,-0.1626066,-0.03566457,0.1955138,0.08702543,0.08348383,0.0171089,-0.2061404,0.2331792
1.296473,-0.2259517,-0.1001164,0.3048698,0.02349792,0.0194904,-0.5276985,0.04149988,0.3781303
1.261528,-0.3083156,-0.06072455,0.2696209,-0.05901866,0.05930531,-0.5655748,0.2912346,0.3988392
1.176617,-0.2956867,-0.02136826,0.1843103,-0.04651402,0.09904799,-0.444897,0.3180791,0.2492169
0.9851838,-0.28951,0.04927639,-0.007621122,-0.04043286,0.1700397,-0.2860657,0.3013491,0.1961608
0.6416842,-0.2513519,0.1524825,-0.3517121,-0.002341099,0.273548,-0.1680526,0.09973547,0.1953391
0.6414516,-0.1687451,0.1357378,-0.3526126,0.08022704,0.2570523,-0.3357137,0.07182796,0.2130957
0.7853481,-0.07567517,0.02895152,-0.2094383,0.1732817,0.1504526,-0.5353199,0.1258002,0.2050067
0.6765163,0.05658682,-0.005391315,-0.3190253,0.3055435,0.1162276,-0.6699304,0.1205551,0.06441771
0.701074,0.06682999,0.004927877,-0.2952369,0.3157885,0.1265929,-0.7993775,0.2629549,-0.06081265
0.742347,-0.02352914,-0.001654624,-0.2547294,0.2254184,0.1199833,-0.9311505,0.1673589,-0.07083175
0.67207,-0.04198546,-0.02350504,-0.3257514,0.2069256,0.09803197,-1.097018,0.08171535,0.05037554
0.7311337,-0.103417,-0.06104137,-0.2673968,0.1454227,0.06032104,-1.168338,0.251187,0.1082352
0.7467012,-0.2205093,-0.03444208,-0.2524883,0.02821836,0.08667349,-1.090485,0.2558635,-0.05747477
0.7764899,-0.3771458,0.01647824,-0.223297,-0.1285714,0.1372763,-0.760253,0.1327197,-0.2924081
0.8212017,-0.5263422,0.03540921,-0.1791116,-0.2779562,0.1558193,-0.1095406,-0.1172543,-0.5031812
0.7409668,-0.4357222,0.05372751,-0.2597944,-0.1875476,0.1736781,0.4681673,-0.3446346,-0.5031599
0.7304118,-0.3362875,-0.02291429,-0.2707118,-0.08833473,0.0965038,0.5629594,-0.3189641,-0.1121086
0.797263,-0.3973458,-0.1709976,-0.2041298,-0.1496158,-0.05218416,0.4244909,-0.06051766,0.5174559
1.008573,-0.3960261,-0.2726487,0.007008332,-0.1485125,-0.1545062,0.2624052,0.4090557,0.8702977
1.370437,-0.4479807,-0.3163208,0.3687958,-0.2006692,-0.1989041,-0.1974828,0.6112972,0.681656
1.621504,-0.5375109,-0.3561964,0.6198641,-0.2903781,-0.2395458,-0.4736717,0.4977007,0.3324299
1.729564,-0.5464905,-0.3582085,0.7279731,-0.2995018,-0.2423482,-0.2073799,0.5907882,-0.2824679
1.542987,-0.4635763,-0.110563,0.541458,-0.2166853,0.004497419,-0.2076169,0.6600551,-1.043368
1.125108,-0.1175865,0.20762,0.1236238,0.1292613,0.3218779,-0.6679711,0.1918337,-1.023316
1.022112,0.1922412,0.2090933,0.02063697,0.4390973,0.3225414,-0.9556146,-0.4513602,-0.41138
1.190365,0.1478084,0.01845907,0.1888614,0.3947083,0.1310797,-0.7143038,-0.4772019,0.3254494
1.273481,-0.06105929,-0.1454659,0.2719044,0.185899,-0.03369762,-0.3844895,-0.007463851,0.9320936
1.289553,-0.2415111,-0.221264,0.2878539,0.00550496,-0.1103721,-0.5368109,0.331374,0.5288744
1.160732,-0.233853,-0.1473583,0.1588495,0.0132136,-0.03736031,-0.7329255,0.4277328,-0.08880131
0.9287083,-0.1338581,-0.05280216,-0.0734211,0.1132501,0.05629076,-0.7888608,0.4362629,0.1190158
0.8502466,-0.11357,-0.06973447,-0.152192,0.1335679,0.03844553,-0.8644994,0.4763051,0.1681486
0.8620835,-0.1229507,-0.09259946,-0.1407167,0.1242001,0.01466119,-0.7532466,0.5448483,0.08650034
0.8549552,-0.1472446,-0.0877411,-0.1482469,0.09989733,0.01859526,-0.7618766,0.6548917,0.1785993
0.8502959,-0.1642319,-0.08747045,-0.153337,0.0828751,0.01793855,-0.8196848,0.7125824,-0.03309092
0.8245779,-0.1729579,-0.04640013,-0.1795035,0.07408526,0.05808002,-0.7272476,0.631575,-0.05543369
0.7793336,-0.1540345,-0.03216269,-0.2252025,0.09291395,0.07138773,-0.7889761,0.5933892,-0.02444755
0.7442609,-0.08749216,-0.03017747,-0.260724,0.1593284,0.07244187,-0.8043265,0.4542913,-0.1276337
0.7550556,-0.04525389,-0.002790787,-0.2503592,0.2014017,0.09889494,-0.8816249,0.2388101,0.02643584
0.7878403,-0.04200129,-0.05136123,-0.217973,0.2044465,0.04938703,-1.03336,0.2529974,0.0244312
0.8207545,-0.0854567,-0.1049178,-0.1854149,0.1607342,-0.005111362,-0.8471258,0.2654839,-0.09451403
0.8696646,-0.1182362,-0.1046781,-0.1368106,0.1276439,-0.005816335,-0.6808247,0.2348579,-0.15587
0.8963033,-0.07252555,-0.1059912,-0.1104218,0.1729864,-0.00807424,-0.7023721,0.3088222,-0.1836978
0.9067728,-0.01129734,-0.08891638,-0.100143,0.2337861,0.008058421,-0.7392881,0.3672282,-0.08659765
0.9170167,0.02207086,-0.03982906,-0.09002876,0.2666605,0.05620836,-0.8474413,0.3911116,-0.0808674
0.9273144,0.006069278,0.003551754,-0.07979892,0.2500935,0.09865694,-0.9706439,0.3669917,0.02551722
0.9728904,-0.05067781,-0.01061644,-0.0342292,0.1927033,0.08356026,-1.022515,0.3589507,0.06957202
0.9817108,-0.1049094,-0.02921019,-0.02535483,0.1377472,0.06403973,-0.9540017,0.3587761,-0.1415862
0.9025374,-0.1355465,-0.04019123,-0.1044163,0.1063035,0.05213219,-0.9410698,0.2367066,-0.191406
0.8571845,-0.1469501,-0.102836,-0.1496002,0.09401264,-0.01143902,-1.066019,0.07098509,-0.1722976
0.9428184,-0.2186515,-0.1200186,-0.06373922,0.02134676,-0.0295464,-1.318609,-0.01257463,-0.09479851
1.126513,-0.3760717,-0.05274149,0.1202393,-0.137109,0.03681021,-1.837358,0.03333077,0.1058693
1.29032,-0.5222091,-0.004810466,0.2843817,-0.2843414,0.08382654,-2.341219,0.06180365,0.2178984
1.436178,-0.6604677,-0.00423052,0.4306093,-0.4237366,0.08349704,-2.287403,0.03163607,0.002531294
1.607121,-0.8577631,0.04615781,0.6019356,-0.6221852,0.132979,-1.376978,0.08456839,-0.5436959
1.579704,-0.8112471,0.1050749,0.5748891,-0.576809,0.190989,-0.3394458,0.08815669,-0.733356
1.380277,-0.2147797,-0.0603026,0.3757889,0.01855995,0.02469924,-0.4823805,-0.006280814,-0.4231956
1.338538,0.3482427,-0.2743692,0.334313,0.5805364,-0.1902857,-1.50065,-0.03289888,0.004172101
1.369372,0.256621,-0.2253761,0.3653306,0.4879092,-0.142211,-2.282608,0.1238659,0.4013976
1.325634,-0.06249436,-0.1320037,0.3216824,0.1678068,-0.0497481,-2.50166,0.3096411,0.4458875
1.209908,-0.2417183,-0.08838464,0.2059427,-0.01240071,-0.007022881,-2.152911,0.1979164,0.283973
1.032334,-0.4361031,0.01097159,0.02824749,-0.2077681,0.09145803,-1.824883,0.06737633,0.252242
0.9631587,-0.4064775,-0.0186299,-0.04115613,-0.1791169,0.06099906,-1.760463,0.1420176,0.2899103
0.8912586,-0.2075942,-0.1003458,-0.113383,0.01880937,-0.02155822,-1.583652,0.103538,0.3095287
0.8107576,-0.2453657,-0.07284908,-0.1942971,-0.01989557,0.005113,-1.616997,0.05999093,0.2836729
0.9279825,-0.2449699,-0.08566414,-0.07755772,-0.0204077,-0.008510626,-1.657661,0.08829645,0.2660978
0.9515529,-0.2060911,-0.08491102,-0.05453222,0.01759001,-0.008547874,-1.44473,0.04504995,0.1659027
0.8800158,-0.2706087,-0.04012039,-0.1266631,-0.04778084,0.0354715,-1.348161,0.03946872,0.01770726
0.8828778,-0.1966831,-0.04468741,-0.1244339,0.02532001,0.03015239,-1.168533,0.004364239,0.008695606
0.8032567,-0.1816151,-0.0460343,-0.2047156,0.03959217,0.02807184,-1.094888,-0.04370714,0.05726302
0.7862127,-0.1631529,-0.07402519,-0.2224357,0.05728624,-0.0006349458,-1.103625,-0.02012641,0.05394741
0.8117971,-0.08757888,-0.08120364,-0.1975293,0.1321169,-0.008511538,-0.9708977,-0.003457276,-0.04297368
0.7794557,-0.1275968,-0.04135871,-0.2305381,0.09137617,0.03065343,-1.123623,0.07729891,-0.1918902
0.8024599,-0.05455537,-0.03113259,-0.2081782,0.1637101,0.04021761,-1.196218,0.0984639,-0.3020389
0.7914372,-0.03592218,0.003079071,-0.219811,0.181645,0.07378409,-1.056429,-0.0525371,-0.3312405
0.79144,-0.08720732,0.004718885,-0.2203737,0.1296638,0.07479313,-0.9880634,-0.197796,-0.3009396
0.8271209,-0.06444356,-0.03632818,-0.1852043,0.1517275,0.03312703,-0.8546771,-0.236709,-0.2617766
0.8290557,-0.1330456,-0.04572043,-0.183719,0.08241643,0.0231256,-0.7833531,-0.1505165,-0.2112695
0.8510927,-0.1253282,-0.04641926,-0.1620634,0.08941248,0.02182672,-0.6275721,-0.1149201,-0.2458409
0.8424864,-0.109159,-0.03097173,-0.1709776,0.1048459,0.03668295,-0.425522,-0.2236782,-0.2956053
0.8437721,-0.1726715,-0.0687731,-0.1699223,0.04058167,-0.001701226,-0.3758173,-0.3070048,-0.1787259
0.9144976,-0.2231881,-0.1655293,-0.09934641,-0.01070263,-0.09903097,-0.2716216,-0.2796513,0.04679397
1.050772,-0.3862311,-0.2526759,0.03686001,-0.1745263,-0.186738,-0.1272763,-0.0253512,0.3839357
1.18023,-0.5303576,-0.3058886,0.166327,-0.3194378,-0.2404904,0.1196487,0.4447576,0.6575532
1.100227,-0.5192008,-0.2940558,0.08640059,-0.3090564,-0.2291661,0.3751833,0.8220995,0.5878425
1.03019,-0.3872928,-0.2873711,0.01649701,-0.1778983,-0.222948,0.2350336,0.8266101,0.3928026
1.283657,-0.2771329,-0.2800848,0.270145,-0.0684506,-0.2160763,-0.3292241,0.4909684,0.3020305
1.667131,-0.3340595,-0.2664705,0.6538343,-0.126045,-0.202816,-0.7631037,0.2164254,0.2340644
1.831949,-0.3587036,-0.2615289,0.818875,-0.1513079,-0.1981605,-0.491266,0.2568556,0.08698411
1.545276,-0.2669485,-0.1564822,0.5323965,-0.06011846,-0.09332635,-0.1509363,0.31683,-0.1560305
1.210562,-0.2144871,-0.0495458,0.1978189,-0.008166764,0.01347321,-0.380429,0.1049107,-0.270454
1.285399,-0.2256596,-0.05298326,0.2727178,-0.01979323,0.009972214,-0.3616858,-0.2229672,-0.1142046
1.242794,-0.2444842,-0.09805123,0.2300909,-0.03901777,-0.03509076,0.1054525,-0.5698066,0.116582
1.037018,-0.2434791,-0.1484054,0.02420414,-0.03836003,-0.08537548,0.346187,-0.8092329,0.2711131
1.111564,-0.2290065,-0.1827473,0.09854952,-0.02418312,-0.1195852,0.326524,-0.7100236,0.2538505
1.033303,-0.2155458,-0.2016121,0.02000229,-0.01096801,-0.138255,0.1074174,-0.5728967,0.1372025
0.8367368,-0.236318,-0.1802322,-0.1769314,-0.03193746,-0.116616,-0.02396162,-0.5029322,0.115245
0.8496719,-0.2604404,-0.1481796,-0.1644339,-0.05621042,-0.08423948,0.1486882,-0.3752604,0.0977668
0.7623786,-0.2305088,-0.1533638,-0.2522208,-0.02638363,-0.08903512,0.2968749,-0.4052324,0.08961497
0.7069816,-0.177984,-0.1625854,-0.3081506,0.02608061,-0.09780445,0.4483285,-0.4163188,0.1364696
0.7701482,-0.1315491,-0.1806992,-0.2455382,0.072496,-0.1154033,0.5076496,-0.3055384,0.1249999
0.7608102,-0.09981296,-0.155439,-0.255435,0.1042485,-0.0895661,0.4698985,-0.1907436,0.1225644
0.7968104,-0.07556017,-0.09160971,-0.2199829,0.1285464,-0.02509915,0.5403527,0.004100796,0.1192043
0.8043649,-0.06733542,-0.07070461,-0.2129531,0.1368369,-0.003498864,0.4825983,0.1413457,0.09830502
0.766298,-0.09197055,-0.06593729,-0.2515099,0.1122799,0.002016203,0.4521058,0.2998516,0.07874383
0.7507638,-0.09936525,-0.04941552,-0.2674882,0.1049684,0.01933248,0.5310213,0.4871809,-0.06266288
0.6887465,-0.09719742,-0.004166912,-0.3298925,0.107218,0.06541597,0.5739552,0.4575258,-0.1923919
0.6973524,-0.07997384,0.01234739,-0.3216041,0.1245163,0.08279814,0.6608708,0.3401897,-0.1683835
0.7814131,0.00508968,-0.05488852,-0.2377799,0.2096412,0.01645518,0.6103184,0.1892569,-0.113505
0.8351896,0.04688826,-0.1409544,-0.1841499,0.2514798,-0.06869877,0.4048989,0.1228949,-0.1203768
0.8515223,-0.03277799,-0.1935391,-0.1678685,0.1718228,-0.1203553,0.09915098,0.3288144,-0.1823954
0.8086072,-0.1751905,-0.1736499,-0.2107369,0.02938138,-0.09952113,-0.1390389,0.4908613,-0.2114371
0.7836479,-0.3649552,-0.1555108,-0.2355485,-0.1604521,-0.08041885,-0.06664683,0.4334633,-0.1375593
0.8298603,-0.5470988,-0.1751697,-0.1890843,-0.3426976,-0.0990954,0.02134564,0.3944596,-0.07044879
0.9526728,-0.6096373,-0.1075184,-0.06591424,-0.4053563,-0.03044232,0.04653603,0.4260302,-0.2120336
1.231538,-0.5526504,0.01611516,0.2134105,-0.3484885,0.09421053,0.105386,0.304949,-0.3276524
1.575435,-0.4788937,0.08047522,0.5578564,-0.274831,0.1596019,0.09361319,-0.0754046,-0.09346133
1.817249,-0.4218306,0.03381396,0.8002793,-0.2178322,0.1139747,0.1414784,-0.3707557,0.09896829
1.891471,-0.4138745,-0.01632107,0.8751313,-0.2098948,0.06486721,0.2797411,-0.08098677,-0.01832639
1.695341,-0.4180861,0.07629135,0.67961,-0.2140712,0.1584927,0.5099985,0.3009304,-0.1386592
1.336181,-0.254954,0.1247398,0.3209976,-0.05084425,0.2079318,0.7343479,-0.01875508,-0.1120322
1.165084,-0.09647053,0.03580898,0.1503661,0.107795,0.1199597,0.4510718,-0.2231372,0.1103442
1.216795,-0.1732552,0.007740431,0.2024503,0.03122237,0.09280964,-0.07587441,0.1273263,0.4130233
1.182903,-0.2679147,0.0872095,0.168834,-0.06317559,0.1731509,-0.04528514,0.1457742,0.3863426
1.005881,-0.267458,0.1544272,-0.008012016,-0.06241189,0.2411879,0.3595324,-0.05013094,0.1811639
0.9086349,-0.2212139,0.096,-0.1051775,-0.01581695,0.183519,0.6606058,-0.1538938,0.1713555
0.8529329,-0.131768,0.02307542,-0.1608862,0.0740208,0.1112839,0.668352,-0.2020014,0.1381036
0.7675198,-0.1136267,0.02766202,-0.2463798,0.09258966,0.1164864,0.3516383,-0.1256319,0.1302518
0.7609785,-0.1564132,-0.003932753,-0.25306,0.05025918,0.08543133,0.0780944,-0.1818176,0.2011934
0.73948,-0.1779185,0.000164109,-0.2747384,0.02923158,0.08999062,-0.02150889,-0.1466426,0.07897978
0.7179955,-0.2470123,0.05755509,-0.2964268,-0.03936761,0.147766,0.1080269,-0.06035158,-0.0438594
0.7457991,-0.2869183,0.06106388,-0.2688342,-0.07876423,0.1515796,0.4132614,-0.2233869,-0.1214778
0.7112052,-0.2100042,0.05164984,-0.3036307,-0.001326281,0.1423884,0.4527318,-0.3565875,-0.1367972
0.7321645,-0.1755071,0.01926422,-0.2828505,0.03370808,0.1101417,0.3709384,-0.4564198,-0.01654381
0.8070437,-0.2207892,-0.01578785,-0.208114,-0.01102571,0.07514404,0.3575945,-0.4271494,-0.04473005
0.8686821,-0.2717143,-0.01607338,-0.1465715,-0.06139388,0.07482933,0.4116691,-0.3463639,-0.1229505
0.9122487,-0.3228201,-0.006697742,-0.1030478,-0.1119343,0.08409421,0.6368052,-0.4321532,-0.1762177
0.850616,-0.320199,0.02059305,-0.1646671,-0.1087375,0.1111946,0.7700033,-0.3967715,-0.192944
0.8488944,-0.2548106,0.01551835,-0.1663159,-0.04276036,0.1058513,0.80091,-0.3557629,-0.1305139
0.9067128,-0.181244,0.0198501,-0.1083618,0.03140883,0.1098371,0.7603926,-0.3805878,-0.2400641
0.9070376,-0.1572585,0.06733174,-0.1078364,0.05600879,0.1568962,0.7018184,-0.3992386,-0.3053571
0.913943,-0.1718735,0.06425419,-0.1006649,0.04201577,0.1533193,0.8439866,-0.5495971,-0.2562423
0.8950755,-0.1538596,0.03956689,-0.1192008,0.06065447,0.1280553,0.950931,-0.6146946,-0.2715182
0.9443201,-0.1453466,0.007373985,-0.06955922,0.06979044,0.09520843,0.9872368,-0.5798193,-0.2113666
1.033566,-0.1987344,-0.05187065,0.02014753,0.01701918,0.0352345,0.988012,-0.5263258,-0.169929
1.070227,-0.3128291,-0.08630528,0.05732794,-0.09646798,-6.728524e-07,1.006074,-0.2686226,-0.1047222
1.145069,-0.4537266,-0.08315502,0.1327412,-0.2367654,0.002283846,1.281338,0.1443971,-0.003096462
1.1747,-0.4904327,-0.06751842,0.1629844,-0.2728719,0.01699623,1.58388,0.3680001,-0.03291739
1.168043,-0.3866147,-0.08369781,0.1569694,-0.1684447,-0.0001594462,1.837869,0.190442,-0.03105031
1.202129,-0.2471034,-0.1140956,0.1917151,-0.02830681,-0.03157926,1.962031,-0.02431798,0.03899539
1.289199,-0.09545165,-0.1474772,0.2794491,0.1239907,-0.06602158,1.437558,-0.1294555,0.02619105
1.473471,0.02305496,-0.176535,0.4643745,0.2431568,-0.09617056,0.4973638,-0.2691807,-0.1322922
1.559708,-0.02172258,-0.129827,0.5512338,0.1990415,-0.05057538,0.09717191,-0.1601536,-0.2669059
1.42686,-0.109842,-0.07282672,0.4189546,0.1115749,0.005298296,0.2222893,-0.03878429,-0.131024
1.296877,-0.1073409,-0.06093458,0.2894634,0.1147101,0.0160556,0.2399346,-0.2280706,0.1557271
1.277607,-0.1690595,-0.07188647,0.2705953,0.05360027,0.003964169,0.3790285,-0.3470407,0.3951857
1.188772,-0.2458822,-0.1242603,0.1820624,-0.02264241,-0.04955049,0.5572002,-0.35725,0.4874806
1.042019,-0.2212064,-0.1501593,0.03550782,0.002583589,-0.07658722,0.4272837,-0.331306,0.3364678
0.9723743,-0.190776,-0.1286809,-0.03404202,0.03353499,-0.05623769,0.3687583,-0.2582344,0.1330496
0.8286334,-0.1258845,-0.1084138,-0.1777838,0.09891783,-0.03708503,0.377331,-0.2962231,0.1192262
0.7185664,-0.05994574,-0.105795,-0.2879347,0.1653153,-0.03556168,0.3806188,-0.2702686,0.1656938
0.7934354,-0.03805935,-0.1266738,-0.2132159,0.1876225,-0.05751335,0.436834,-0.1247545,0.2120492
0.7919713,0.02017119,-0.1359663,-0.214879,0.2462283,-0.0678521,0.3753267,0.008749557,0.2987345
0.7681175,0.02539709,-0.1379617,-0.2389647,0.2517753,-0.07086333,0.3013392,0.1654819,0.2714554
0.8078955,-0.009436467,-0.1246879,-0.1994372,0.2171993,-0.05857082,0.2170181,0.2958226,0.155026
0.7222258,0.01363786,-0.08640983,-0.2853621,0.2404594,-0.02123618,0.06663865,0.3812482,0.0007527305
0.6035202,0.01646836,-0.06108062,-0.4043132,0.2433966,0.003189162,-0.1478379,0.3990274,-0.1621358
0.5516928,0.001907514,-0.0356678,-0.4563587,0.2288566,0.02773787,-0.3848829,0.3628531,-0.1842109
0.5376598,-0.01397738,-0.007900485,-0.4705623,0.2129007,0.0546795,-0.3937782,0.2740388,-0.1705016
0.5863459,-0.05367165,-0.006797752,-0.4219791,0.1730393,0.05499246,-0.2959918,0.06169968,-0.1727973
0.669101,-0.05821041,-0.07901971,-0.3392413,0.1682346,-0.01798598,-0.3134998,-0.043025,-0.06889242
0.7733907,-0.1059783,-0.1797956,-0.2348702,0.1201012,-0.1194857,-0.3184935,0.06820141,0.0693573
0.869263,-0.276048,-0.1904576,-0.1388105,-0.05043181,-0.1308361,-0.3661604,0.2864353,0.1099336
0.9118007,-0.4272712,-0.1535079,-0.09597757,-0.2022087,-0.09453456,-0.6701701,0.5933016,0.04481457
1.016001,-0.4985353,-0.09904318,0.008623616,-0.2741033,-0.04067348,-1.059135,0.6608562,0.03773332
1.362389,-0.5191343,-0.01195681,0.3555089,-0.2953904,0.04585541,-1.0872,0.3119061,0.1846306
1.829478,-0.4898274,-0.006341483,0.8231713,-0.2668093,0.05095772,-0.7490755,0.0678033,0.3396007
2.023251,-0.4817535,-0.09827218,1.017558,-0.2594798,-0.04144468,-0.4681381,0.2603343,0.2840979
1.888179,-0.4555334,-0.1380075,0.8830914,-0.2340058,-0.08161202,-0.34504,0.5185245,-0.09001192
1.639189,-0.2645496,-0.06780793,0.6346527,-0.04375602,-0.01180447,-0.3014045,0.535754,-0.4467727
1.381424,0.0164528,-0.007483099,0.3773464,0.2365311,0.04816839,-0.4794003,0.3228009,-0.3471115
1.318338,0.1005161,-0.0410755,0.3146058,0.3198942,0.01426181,-0.8911502,0.1128059,-0.02952273
1.309247,-0.04256978,-0.08749266,0.305736,0.1761124,-0.03243454,-1.346618,0.3289879,0.1936594
1.056366,-0.1661189,-0.09543422,0.05294342,0.05186171,-0.04062177,-1.603917,0.6123783,0.3910032
0.9832328,-0.2505855,-0.0913018,-0.0202322,-0.03331604,-0.03670171,-1.579775,0.4696519,0.3735837
1.078656,-0.2892104,-0.04942451,0.07502431,-0.07265992,0.004996361,-1.417355,0.3855634,0.1928448
0.9188062,-0.2566801,-0.006906904,-0.08510894,-0.04085213,0.04736656,-1.183842,0.3778417,0.1727995
0.8719065,-0.2659169,-0.02900008,-0.1323972,-0.05080983,0.02515493,-1.073879,0.2173891,0.1805248
0.9056557,-0.1475052,-0.06870956,-0.09912922,0.06688626,-0.01464716,-1.203277,0.2231887,0.2375694
0.7594577,0.04125542,-0.10355,-0.2458863,0.2549363,-0.0495562,-1.377921,0.221128,0.3593599
0.6939773,0.01961491,-0.112852,-0.3119869,0.2325845,-0.0589028,-1.59674,0.1106435,0.3836224
0.6179339,-0.04024571,-0.09907708,-0.3886915,0.172003,-0.04514779,-1.756805,0.006841654,0.4476842
0.5469733,-0.08483458,-0.1224504,-0.4603315,0.1266759,-0.06851517,-1.727797,-0.1487199,0.577103
0.6442498,-0.1888508,-0.1418792,-0.3637285,0.02189995,-0.08791088,-1.720601,-0.06782769,0.7778904
0.770087,-0.3102177,-0.1457077,-0.2385376,-0.1002478,-0.09167744,-1.630437,0.1725985,0.8539057
0.8381158,-0.488323,-0.1506494,-0.1711123,-0.2791489,-0.09652589,-1.255892,0.2852286,0.5828469
0.8028143,-0.6057797,-0.1194092,-0.2069644,-0.3974034,-0.06515915,-0.7746112,0.2740397,0.2513353
0.7928487,-0.5782787,-0.08223334,-0.2174197,-0.3706837,-0.02782237,-0.3219328,0.1469488,-0.04113384
0.8613397,-0.4402054,-0.05748747,-0.1493504,-0.233356,-0.002881591,-0.04562486,0.1225617,-0.2372446
0.8868216,-0.1934193,-0.02077621,-0.1242167,0.01273365,0.03405632,-0.08081714,0.1281862,-0.2674405
0.8932778,-0.01377968,-0.002116863,-0.1180322,0.1917299,0.05297038,-0.3519011,0.1379994,-0.1228642
0.9313153,-0.1365246,-0.09817053,-0.08018829,0.06838965,-0.04280465,-0.7432482,0.4928048,0.3780547
1.136761,-0.4799759,-0.2270504,0.1251405,-0.2756142,-0.1713838,-0.9201711,0.9705633,0.7162966
1.390761,-0.6908513,-0.1708887,0.3790919,-0.4869948,-0.1148971,-0.7199601,1.069393,0.2589065
1.369508,-0.575846,-0.06411001,0.357843,-0.3724331,-0.007765938,-0.6235837,0.5868005,-0.361718
1.291482,-0.3342077,-0.05908958,0.2798534,-0.1311605,-0.002365076,-0.8056359,0.04030249,-0.3154734
1.405389,-0.2827662,-0.07720421,0.3938081,-0.07999811,-0.02007329,-0.8801055,0.0009346189,-0.04425394
1.502948,-0.3046992,-0.1684932,0.491408,-0.1021221,-0.1109317,-0.8307248,0.1199996,0.03394701
1.510902,-0.2684515,-0.2389602,0.4993724,-0.06597817,-0.1809432,-0.8876492,0.2682597,0.2174855
1.390163,-0.3278694,-0.1889631,0.3785932,-0.1254143,-0.130462,-0.9931067,0.4604437,0.2441863
1.089358,-0.3256481,-0.1400539,0.07768018,-0.1231265,-0.08103631,-0.9962765,0.2681137,0.1242498
0.9220176,-0.2760539,-0.09438845,-0.0898428,-0.07338182,-0.03482022,-0.8704846,-0.1632281,0.1266097
0.9277805,-0.2601606,-0.1105028,-0.08433277,-0.05725548,-0.05035048,-0.7325224,-0.4049841,0.05213691
0.919887,-0.145458,-0.2001572,-0.09253999,0.05775883,-0.1393881,-0.7077045,-0.4646989,0.07640923
0.9463961,-0.1205102,-0.2634367,-0.06639583,0.08309063,-0.2020172,-0.7648718,-0.4173558,0.1415193
0.9262156,-0.1541817,-0.336961,-0.08698355,0.04986632,-0.2748529,-0.8477854,-0.2668982,0.1350505
0.8938681,-0.219663,-0.344357,-0.119772,-0.01511334,-0.2815148,-0.9133618,-0.04371159,0.1466817
0.8670386,-0.391552,-0.2616621,-0.1470671,-0.1864514,-0.1980323,-0.7935626,0.178715,-0.01528425
0.7574954,-0.4184127,-0.1826235,-0.2570903,-0.2127123,-0.1181467,-0.4440782,0.2145296,-0.1841527
0.7350446,-0.3407841,-0.1242933,-0.2800225,-0.1344312,-0.05890855,-0.1441657,0.1285704,-0.2602478
0.7911916,-0.2561513,-0.1433555,-0.2243442,-0.04909076,-0.07700362,-0.04789598,0.1541673,-0.2558429
0.8236422,-0.1798473,-0.1565228,-0.1923366,0.02797492,-0.0891474,0.03278271,0.2054433,-0.2287008
0.809512,-0.1875832,-0.1142842,-0.2068736,0.02104977,-0.04583203,0.2121174,0.2363774,-0.3981837
0.7522079,-0.186299,-0.1128004,-0.2645387,0.02318731,-0.04322167,0.3555201,0.193694,-0.5021399
0.7465644,-0.1648638,-0.1085156,-0.2704878,0.04551166,-0.03776454,0.414729,0.05224017,-0.4594959
0.7440741,-0.1433335,-0.1105446,-0.2732181,0.06795987,-0.03857988,0.4956692,0.04503125,-0.3410266
0.7643175,-0.1323218,-0.137059,-0.2531393,0.07991092,-0.06384351,0.5462183,0.1554674,-0.1307709
0.8109064,-0.1353256,-0.1351381,-0.2066312,0.07786007,-0.06063831,0.5129524,0.2321385,-0.1146257
0.8307873,-0.1161176,-0.1350495,-0.1867414,0.09802692,-0.05923455,0.4226567,0.152517,-0.2777672
0.8947291,-0.1038287,-0.1311392,-0.1226975,0.1112729,-0.05398126,0.2697358,0.02758922,-0.393087
0.8897981,-0.1371278,-0.1339444,-0.1274321,0.07892148,-0.05541822,0.2239632,0.07784106,-0.3242252
0.8028323,-0.3103809,-0.1616252,-0.2141073,-0.09339897,-0.08170817,0.4069283,0.01636489,-0.1785921
0.729005,-0.5471156,-0.174886,-0.2875479,-0.3292158,-0.09355729,0.7028169,-0.1828866,-0.179298
0.6904183,-0.6056247,-0.1747157,-0.3256475,-0.386813,-0.09195553,0.8889276,-0.2106401,-0.2504036
0.9154834,-0.5112837,-0.1462941,-0.09998938,-0.2915519,-0.06208355,0.8742543,-0.07189611,-0.3823111
1.42656,-0.4259069,-0.06767556,0.4117838,-0.2052333,0.01800239,0.9655592,0.1316902,-0.4681243
1.767241,-0.3472741,0.03962208,0.7532481,-0.1256282,0.1267799,1.27185,0.09077981,-0.4362531
1.62599,-0.2975883,0.1251509,0.6128311,-0.07493573,0.2137922,1.397461,-0.326411,-0.3927945
1.455188,-0.3177381,0.1681662,0.4428761,-0.09404385,0.258282,1.189726,-0.6398195,-0.2488333
1.574773,-0.3040192,0.1234702,0.5632904,-0.0792493,0.2150368,1.059402,-0.4233607,-0.1663245
1.526106,-0.3015408,0.003001212,0.5154055,-0.0756621,0.09598145,1.328301,-0.1562062,-0.1314795
1.348387,-0.2698662,-0.001569438,0.3383978,-0.04284727,0.09277782,1.521854,-0.3980419,0.05548507
1.236177,-0.1190776,-0.003499595,0.2268105,0.1091098,0.09216209,1.178709,-0.5281334,0.1781467
1.062135,-0.09359619,-0.09805931,0.05329039,0.1357808,-0.001139779,0.8325992,-0.3795146,0.227608
1.051231,-0.1677357,-0.04510222,0.0428077,0.06284256,0.05301655,0.8980942,-0.4172396,0.2531294
0.9989454,-0.2099556,0.002514772,-0.009155208,0.02182666,0.1017729,1.021444,-0.305029,0.2251268
0.7923711,-0.2406828,0.002233538,-0.2154987,-0.007699718,0.1025687,1.039691,-0.1943992,0.2280629
0.7167303,-0.1811707,0.08020575,-0.2909885,0.05300597,0.1815517,0.9941667,-0.3242663,0.1946757
0.6233872,-0.1195954,0.05027388,-0.3842426,0.1157631,0.1525594,0.875025,-0.3545477,0.1488335
0.6494215,-0.06227012,0.02528565,-0.3581604,0.1742516,0.128434,0.8267334,-0.4079933,0.03444549
0.7477304,-0.01055041,0.03535512,-0.2598239,0.2271068,0.1392854,0.8350508,-0.4528389,-0.2147218
0.7034154,-0.03947531,-0.0155086,-0.3041138,0.1992788,0.08911964,0.7923532,-0.4731886,-0.3328158
0.7523668,-0.06939155,-0.02544336,-0.2551249,0.1704101,0.07979729,0.7471043,-0.6183386,-0.2553395
0.7975789,-0.149448,-0.07257955,-0.2098497,0.09134337,0.03318811,0.7166761,-0.6557817,-0.2259882
0.8330784,-0.2258269,-0.07098876,-0.1742519,0.01589143,0.03522229,0.7454773,-0.5084651,-0.3385347
0.8509219,-0.2108286,-0.02341611,-0.1562673,0.03175256,0.08315719,0.8822817,-0.3612516,-0.4317333
0.748613,-0.1964395,-0.0798818,-0.2583866,0.04694075,0.02697484,1.061703,-0.5067932,-0.4144972
0.7584663,-0.1856546,-0.1042906,-0.2482884,0.05846151,0.002773013,1.163125,-0.7389215,-0.2755504
0.823249,-0.24073,-0.1294746,-0.1831981,0.004059094,-0.02227626,1.12949,-0.6420217,-0.001292129
1.026446,-0.4557258,-0.1897073,0.02037329,-0.2103241,-0.08244101,1.174898,-0.3583068,0.1977916
1.300633,-0.6811979,-0.2195484,0.2949995,-0.4352348,-0.1122735,1.473991,0.07333317,0.1999515
1.218297,-0.6154211,-0.2440326,0.2131535,-0.3689308,-0.1367993,1.704434,0.2899638,0.02898488
1.175756,-0.3284037,-0.2303298,0.171139,-0.08140194,-0.1231784,1.440798,-0.04181687,-0.1255113
1.446581,-0.1106083,-0.277198,0.4425103,0.1368996,-0.1701589,0.922416,-0.397109,0.09193943
1.585201,-0.02043421,-0.3461153,0.5816758,0.2275733,-0.2392082,0.7604857,-0.4874518,0.2928779
1.499281,-0.1988827,-0.2840488,0.4962754,0.04961023,-0.1772817,0.8609428,-0.1183348,0.006707656
1.358642,-0.3802046,-0.1613426,0.356104,-0.1312461,-0.0547131,0.775865,0.3177062,-0.2912884
1.222901,-0.1792389,-0.02000342,0.2207602,0.070165,0.08649657,0.4895481,-0.1660697,-0.2736415
1.159105,0.002731728,0.01962873,0.1572788,0.2525604,0.1260068,0.2374789,-0.8225846,-0.05154089
1.178374,0.02608478,-0.0726123,0.1767746,0.2763107,0.03364725,0.2388811,-0.8013011,0.2668897
1.142101,0.01427172,-0.1497863,0.1406385,0.264856,-0.04364519,0.2599029,-0.7479181,0.3938006
1.018181,-0.09641149,-0.2765239,0.0167634,0.1544809,-0.1705003,0.12199,-0.7467377,0.3404234
0.9357293,-0.1406435,-0.3596828,-0.06573315,0.110499,-0.25377,0.06366981,-0.62771,0.3294751
0.8868628,-0.2177525,-0.3041044,-0.1147259,0.03357857,-0.1982861,0.005215766,-0.4565527,0.2300048
0.8146555,-0.3381959,-0.2768432,-0.1871302,-0.08673715,-0.1710931,0.03513249,-0.1432097,0.0462011
0.7077633,-0.335513,-0.1959384,-0.2942764,-0.08398249,-0.09022244,0.3247341,0.01702492,-0.05533745
0.6469974,-0.3374232,-0.09573609,-0.3553362,-0.08586925,0.009983544,0.6187709,0.0471401,-0.09593521
0.7509508,-0.2614312,-0.1384743,-0.2516973,-0.009894825,-0.03271295,0.8262129,0.1850416,-0.1258984
0.8537176,-0.1009071,-0.1717196,-0.1492488,0.1505751,-0.06588,0.8390311,0.2629008,-0.161994
0.8225736,0.01371622,-0.185585,-0.1807023,0.2651065,-0.07963112,0.6482941,0.2665719,-0.07551336
0.7588965,0.0977008,-0.2114755,-0.2446706,0.3489544,-0.1053705,0.3113179,0.3038207,0.1019568
0.6956891,0.08530749,-0.1810643,-0.30814,0.336368,-0.07477,-0.3131163,0.3978342,0.1121187
0.6928252,0.01090109,-0.1501133,-0.3112244,0.2617002,-0.04359045,-0.7988866,0.3860485,0.02433978
0.7590163,-0.07694355,-0.110474,-0.2451995,0.1735166,-0.003683834,-0.8395496,0.1871104,-0.03568954
0.8031052,-0.1337742,-0.1254959,-0.2012119,0.1162646,-0.0184018,-0.7550916,0.00922769,-0.08146344
0.8220107,-0.145652,-0.207894,-0.1823354,0.1038821,-0.1004613,-0.6314527,0.003437213,-0.09345708
0.828249,-0.2069504,-0.2273983,-0.176049,0.04199769,-0.1195928,-0.484534,0.2186026,-0.1147535
0.8770083,-0.224884,-0.2373536,-0.127161,0.0234003,-0.1291393,-0.4184316,0.4243221,-0.1139836
0.9592728,-0.2084786,-0.2632942,-0.04468602,0.03906969,-0.1546326,-0.5800085,0.4453359,-0.08084326
0.9569357,-0.2932571,-0.2659341,-0.04673272,-0.04651126,-0.1567832,-0.922899,0.4214746,-0.07945389
0.9251756,-0.4491257,-0.1851137,-0.07812608,-0.2032402,-0.07542868,-1.035655,0.4170716,-0.1381486
0.9791302,-0.5656044,0.03939207,-0.02373194,-0.320624,0.1496559,-0.7722287,0.4299647,-0.2825497
1.211793,-0.5010877,0.203542,0.2094377,-0.2570394,0.3144221,-0.2665951,0.2553453,-0.3819878
1.650869,-0.3472599,0.1683643,0.6490744,-0.1041529,0.2798832,0.09215308,-0.2408393,-0.3001228
1.877566,-0.2479232,0.02001255,0.8763572,-0.005754528,0.1321764,0.07490416,-0.5789428,-0.01750475
1.633114,-0.200273,-0.09911658,0.632479,0.04096636,0.01368583,0.2197577,-0.1903539,0.3193998
1.378017,-0.2379723,-0.0595965,0.3779077,0.002348556,0.05383187,0.5505385,0.2628029,0.3471554
1.27266,-0.2203856,-0.01268496,0.2730019,0.01902845,0.1013532,0.460668,-0.108018,0.1772391
1.161089,-0.1354406,-0.05643738,0.1617948,0.1030785,0.05819038,0.19088,-0.3348213,0.1995489
1.173976,-0.1392615,-0.03151438,0.1749517,0.09837315,0.0836787,0.1571519,-0.02155711,0.262194
1.092374,-0.1268793,0.03018655,0.09352311,0.1098783,0.1459165,0.2284365,-0.071751,0.257024
0.8370951,-0.1001614,0.05887455,-0.1616776,0.135723,0.1751077,0.3471903,-0.165341,0.2583429
0.7859283,-0.09143991,0.07691521,-0.2128536,0.1435706,0.1936108,0.318243,-0.1383028,0.1778965
0.7777386,-0.03306123,0.05631761,-0.2211253,0.20107,0.1734274,0.09010215,-0.1904555,0.08016667
0.6862108,0.006167094,0.0400145,-0.3127908,0.2394074,0.1574835,-0.0444941,-0.08334946,-0.06096773
0.6507631,0.02392428,0.02148662,-0.3484136,0.256254,0.1392541,-0.1265326,-0.09684137,-0.223651
0.5614743,0.002601123,-0.01087025,-0.4378946,0.2339922,0.1071312,-0.1257939,-0.2417823,-0.210406
0.5901745,-0.07157542,-0.02173621,-0.4093821,0.1588415,0.09643221,-0.09046265,-0.4215445,-0.1365003
0.764784,-0.1888991,-0.07256715,-0.2349354,0.04050396,0.04570057,-0.1378777,-0.5836969,-0.09895624
0.8368938,-0.3719347,-0.08578915,-0.1629485,-0.1435841,0.0325112,-0.02381962,-0.4908869,-0.1529999
0.8688048,-0.4776558,-0.02842642,-0.131112,-0.250388,0.0898419,0.3027181,-0.4368202,-0.264853
0.8582554,-0.5025066,-0.04998903,-0.1416826,-0.2763375,0.06818429,0.8874018,-0.4329116,-0.1736233
0.8925314,-0.5409681,-0.1821921,-0.1073712,-0.3158964,-0.06417477,1.390827,-0.3663846,0.09136796
1.048547,-0.5686986,-0.3756372,0.04873706,-0.3447048,-0.257831,1.558312,-0.2704629,0.4119256
1.098804,-0.5977016,-0.4557018,0.09914228,-0.3747474,-0.3381493,1.802949,0.06142695,0.5114085
1.119266,-0.5378552,-0.4251978,0.1197989,-0.3158846,-0.3079239,1.69837,0.2308348,0.2655256
1.363681,-0.329424,-0.4368712,0.3644451,-0.108366,-0.3198818,0.9999144,0.01870689,0.1354758
1.792171,-0.1396059,-0.3558606,0.793185,0.08061817,-0.2391448,0.4499074,-0.0846158,0.03255841
1.928431,-0.1425149,-0.256361,0.9296806,0.0769524,-0.1398941,0.4187769,-0.02218583,-0.2704345
1.545829,-0.1213205,-0.2552761,0.5472633,0.09746058,-0.1390241,0.4495367,-0.08956169,-0.3831866
1.302732,0.07622912,-0.2104397,0.3042663,0.2943857,-0.09436313,-0.03135906,-0.2936891,-0.1511565
1.412571,0.004836405,-0.2020171,0.414101,0.2224178,-0.08607278,-0.2164762,-0.3693463,0.2381227
1.334536,-0.2582522,-0.2273838,0.3359458,-0.04120906,-0.1115263,0.2164787,-0.2789993,0.4299254
1.07814,-0.3175073,-0.1742842,0.07930586,-0.1009714,-0.05846621,0.3631771,-0.2427273,0.2858109
1.000389,-0.3150648,-0.1464413,0.001186104,-0.09900407,-0.03061491,0.3975439,-0.3488058,0.09919209
0.984713,-0.2070372,-0.1818371,-0.01497743,0.008583477,-0.065955,0.3308266,-0.4719986,0.04748794
0.83674,-0.08363208,-0.2364017,-0.1635459,0.1315839,-0.1204171,0.143335,-0.4461404,0.1671106
0.7935078,-0.07688386,-0.2779307,-0.2074672,0.1379584,-0.1617957,0.2124103,-0.3404586,0.3335922
0.840032,-0.07974005,-0.2660322,-0.1617087,0.134752,-0.1496959,0.1737809,-0.2413882,0.3232332
0.7545686,-0.1898292,-0.2320299,-0.247997,0.02432922,-0.1154381,0.2338923,-0.1259179,0.2059954
0.7228076,-0.2121147,-0.1891816,-0.2806244,0.001722277,-0.07227822,0.4736778,0.04410735,0.108997
0.7542329,-0.1615208,-0.1009965,-0.2500887,0.05200537,0.01627428,0.5557135,0.2432148,-0.01992574
0.7337674,-0.1570403,-0.04574642,-0.2714493,0.05618397,0.0719439,0.6535372,0.2665837,-0.1452622
0.7298685,-0.02304481,-0.07019038,-0.2762323,0.1898836,0.04796502,0.6698286,0.2389876,-0.1699516
0.6958868,0.01364334,-0.07752236,-0.3110712,0.2262756,0.04113642,0.6587691,0.3456365,-0.08526256
0.6639352,0.007580425,-0.08654864,-0.3438374,0.2199072,0.03264528,0.5584304,0.3564833,0.03963257
0.7132686,0.04989698,-0.1446294,-0.2952606,0.261899,-0.02487389,0.1724951,0.2520311,0.03227079
0.764239,-0.03772983,-0.2271094,-0.2449747,0.1739184,-0.1067691,-0.2047651,0.1813708,-0.03816718
0.7278123,-0.1452173,-0.2926166,-0.2820029,0.0660411,-0.1716682,-0.382862,0.2053715,-0.04279485
0.6274793,-0.3431834,-0.2340735,-0.3828442,-0.1323528,-0.1124906,-0.2677477,0.2787963,-0.08705325
0.5638599,-0.5343987,-0.1318955,-0.4468666,-0.3240277,-0.009649304,-0.1134546,0.2786795,-0.08764837
0.6763727,-0.5577343,-0.1128648,-0.3346381,-0.3478403,0.01007312,-0.09576798,0.2726144,-0.08229361
1.11498,-0.5555209,-0.09635887,0.1038126,-0.346103,0.02729571,0.002623951,0.1740021,-0.1307911
1.698464,-0.5177075,-0.08668116,0.6872624,-0.3087457,0.03771042,0.1400965,-0.1642317,-0.04657015
1.906326,-0.4480513,-0.113173,0.8951831,-0.2395094,0.01197101,0.325192,-0.4243721,0.008946789
1.670113,-0.3937614,-0.1264339,0.6590814,-0.1855908,-0.0005264219,0.3827132,-0.2592308,-0.09873073
1.525314,-0.4400512,-0.1022496,0.514403,-0.232194,0.02442894,0.4030695,-0.0174671,-0.2041534
1.547419,-0.502836,-0.04543505,0.536606,-0.295226,0.08201839,0.7814921,-0.1186336,-0.1987853
1.387249,-0.3705983,-0.02217842,0.3764853,-0.1631611,0.1060486,1.01552,-0.1434235,-0.03571185
1.195279,-0.2057121,-0.02299311,0.1844956,0.001632053,0.1059997,0.8090431,-0.01311087,0.1851771
1.105308,-0.1309672,-0.004757531,0.09442818,0.07636282,0.1249863,0.5715672,-0.003584967,0.2668577
1.031008,-0.1237696,0.03850757,0.01995273,0.0836184,0.1689805,0.5358115,0.104938,0.09942221
0.9618047,-0.1245849,0.1053617,-0.04950359,0.08292427,0.2365333,0.5919951,0.03062017,-0.1438257
0.7958483,-0.004950903,0.09022915,-0.2157814,0.2027326,0.2220594,0.4476407,-0.1647464,-0.2511477
0.6358442,0.1105398,0.0230992,-0.3761626,0.3184384,0.1555381,0.1508031,-0.06149412,-0.2544521
0.5209971,0.1189831,0.005739713,-0.4914223,0.3271212,0.1387295,-0.2251626,-0.138292,-0.1752995
0.4548617,0.04614223,-0.02977295,-0.5579803,0.2545264,0.1037049,-0.4362375,-0.3619904,-0.0634737
0.5764306,-0.08541176,-0.07907362,-0.4368166,0.1232098,0.05482665,-0.277595,-0.4558169,0.04958685
0.7030779,-0.1996232,-0.1123519,-0.3105328,0.009217551,0.02190461,-0.2121104,-0.5413716,0.08836359
0.7631094,-0.3243236,-0.1350556,-0.2508055,-0.1152846,-0.0005073081,-0.0907789,-0.3928137,-0.0812801
0.7626027,-0.4492614,-0.1394888,-0.2515452,-0.2400413,-0.004710089,0.3085661,-0.2249515,-0.1714989
0.7227842,-0.5618289,-0.177048,-0.2915165,-0.352435,-0.04209618,0.659757,-0.3034435,0.06905381
0.8265208,-0.6516268,-0.2274476,-0.1878446,-0.4420512,-0.09237472,1.17119,-0.2458669,0.3415584
0.9860264,-0.5539892,-0.2617134,-0.02831069,-0.3442061,-0.1265646,1.544624,0.06434704,0.3482671
1.275877,-0.3228229,-0.3127814,0.2616584,-0.1127907,-0.1775932,1.13578,0.2862156,0.2451969
1.691164,-0.1872936,-0.3910752,0.6771407,0.02303739,-0.2558734,0.6234647,0.2304154,0.1800807
1.800338,-0.2540268,-0.4283612,0.7865563,-0.04334778,-0.2931586,0.6584612,0.191517,-0.03561086
1.514159,-0.3252636,-0.2831918,0.5006289,-0.11419,-0.1479877,0.6032357,0.2812984,-0.3001283
1.217113,-0.09807953,-0.09171946,0.2038115,0.1134331,0.04349687,0.1689065,0.09093646,-0.394818
1.256313,0.07959012,-0.1125687,0.2431988,0.2915802,0.02267347,-0.2306355,-0.3264503,-0.2448845
1.314291,-0.1033218,-0.1909922,0.3013112,0.109172,-0.05571166,-0.3453264,-0.5030931,0.1874524
1.117414,-0.2618315,-0.1709062,0.1045065,-0.0488188,-0.03557502,-0.04651635,-0.4006105,0.4411489
0.976398,-0.2607762,-0.1769342,-0.03650393,-0.04723506,-0.04153941,0.1887332,-0.313879,0.3420866
0.8753933,-0.2179591,-0.1960231,-0.1375679,-0.003880651,-0.06055061,0.129006,-0.3960385,0.2315018
0.8061643,-0.1516287,-0.2059004,-0.2069116,0.06299448,-0.07033458,0.1246122,-0.3877266,0.1371379
0.8513728,-0.1311188,-0.2330381,-0.1618612,0.08405338,-0.09736141,0.05082112,-0.1719631,0.08414004
0.8319421,-0.1151039,-0.1716997,-0.1814805,0.100616,-0.03589214,0.05588546,0.02641568,0.02830805
0.7967289,-0.06894335,-0.09238989,-0.2169007,0.1473168,0.04356929,0.1914181,0.1528449,-0.0516974
0.7661128,0.005071725,-0.1034307,-0.2477298,0.221857,0.03269933,0.2011478,0.1308757,0.02205501
0.7234258,0.1064478,-0.1368099,-0.290623,0.3237326,-0.0004929907,0.1325542,0.1352518,0.1538785
0.7343788,0.1187029,-0.1626803,-0.2798557,0.3364488,-0.02616273,-0.1747099,0.3843568,0.2142215
0.7294733,0.03733968,-0.1473255,-0.2849126,0.2554936,-0.01059491,-0.5857327,0.6444407,0.1628019
0.7171579,-0.02506518,-0.118866,-0.2973328,0.1934318,0.01808931,-0.9077076,0.7959379,0.04623427
0.6982472,-0.08482399,-0.1233242,-0.3162895,0.1339431,0.01386584,-1.032719,0.73096,0.01972566
0.6546421,-0.1751621,-0.1264741,-0.3598698,0.04379836,0.01095882,-0.8568368,0.5792624,0.06394951
0.6074567,-0.2418008,-0.1551235,-0.4069474,-0.02272305,-0.01744138,-0.822756,0.5224896,0.1094806
0.5446141,-0.3070869,-0.1992652,-0.4695856,-0.08796356,-0.06132825,-0.8927398,0.4396617,0.1305157
0.5468121,-0.4136882,-0.2242588,-0.4670717,-0.1945827,-0.08606043,-1.031826,0.5600436,0.1372015
0.8272167,-0.5268,-0.2074329,-0.1862268,-0.3077635,-0.06896447,-1.524877,0.8340993,0.1374029
1.446361,-0.6653669,-0.1110424,0.433485,-0.4464337,0.02770681,-1.784928,0.9260028,0.05272568
1.882265,-0.7606964,-0.02658438,0.8700652,-0.5418784,0.1124553,-1.318869,0.6077315,-0.1458269
1.766199,-0.6226404,-0.04651575,0.7547456,-0.4039248,0.09281963,-0.4838388,0.139079,-0.3344944
1.52896,-0.3297728,-0.07780671,0.5182787,-0.1111253,0.061824,-0.07101622,0.2894724,-0.2977978
1.412984,-0.1243266,-0.05445324,0.4030626,0.09429739,0.08546733,-0.4034901,0.4225529,-0.1180082
1.330878,-0.05113057,-0.07650683,0.3216801,0.1675133,0.06369387,-0.8742316,0.1640461,0.06155615
1.34779,-0.09316339,-0.111918,0.3392593,0.1255354,0.02854953,-1.161823,0.3428824,0.3804319
1.305469,-0.2386189,-0.06777925,0.2975337,-0.0198391,0.07293936,-1.343274,0.484363,0.534751
1.129874,-0.4193387,-0.02832534,0.1224513,-0.2004556,0.1126258,-1.197979,0.4367215,0.3592403
0.9970585,-0.4822784,0.005131175,-0.009939391,-0.2632666,0.1462924,-0.8266061,0.5083862,0.2579228
0.8404747,-0.3249245,0.0226067,-0.1661852,-0.1057508,0.1639501,-0.6003009,0.3200912,0.1088641
0.7104655,-0.150346,-0.02435687,-0.2959327,0.0690276,0.1171347,-0.5472303,0.1941999,0.01039919
0.6861406,-0.05592396,-0.0486146,-0.3200566,0.1636859,0.09298628,-0.8097251,0.1658721,0.2158066
0.6234132,0.0003685658,-0.05312466,-0.3826241,0.2202423,0.08854353,-1.199157,0.1053423,0.2579153
0.5757233,-0.04491929,-0.03879081,-0.4301745,0.1752343,0.1029006,-1.229918,0.171252,0.1678986
0.5369781,-0.04582364,-0.01026684,-0.4687787,0.174614,0.1314017,-1.193711,0.02042488,0.09949924
0.4829353,-0.005734649,-0.03773104,-0.5226563,0.2149807,0.1038661,-1.247916,-0.2312988,-0.01305447
0.5167128,-0.08063728,-0.07638086,-0.4886662,0.1403393,0.06509452,-1.324173,-0.3414117,0.1551385
0.5983176,-0.2917505,-0.1690316,-0.4067804,-0.07053598,-0.02772835,-1.427644,-0.1688046,0.3297215
0.686254,-0.5978634,-0.2893081,-0.3184777,-0.3764337,-0.1482236,-1.145056,0.2011304,0.1809672
0.6680293,-0.644677,-0.2456256,-0.3362385,-0.4230432,-0.1047988,-0.5300812,0.1778616,0.0194607
0.5890142,-0.5105747,-0.1304625,-0.4146824,-0.2887299,0.0100761,0.1178186,0.0006396881,-0.03350013
0.6325437,-0.5589306,-0.1164467,-0.370465,-0.3368506,0.02377882,0.5556558,-0.02785683,0.1117386
0.7834805,-0.5190857,-0.175219,-0.218715,-0.296732,-0.03532839,0.4886546,0.05510583,0.5249588
1.138759,-0.4313855,-0.2483673,0.1375038,-0.2087075,-0.1088301,0.1931287,0.380085,0.7530219
1.549871,-0.4587865,-0.2571313,0.5496722,-0.2357248,-0.1179605,-0.2313497,0.4816419,0.3548882
1.744957,-0.412878,-0.2510108,0.7459021,-0.1893669,-0.1122119,-0.6490131,0.1883226,-0.06150471
1.882765,-0.5037402,-0.3069375,0.8849002,-0.2797085,-0.1685083,-0.4772951,-0.03654543,0.1046461
1.926452,-0.607717,-0.284224,0.9297757,-0.3830872,-0.1461544,-0.248514,0.07270769,0.1103926
1.742982,-0.3441824,-0.2007135,0.7474459,-0.1188692,-0.06298598,-0.5755648,0.196844,-0.2006603
1.58332,-0.1651017,0.03166133,0.6132257,0.07464802,0.159042,-0.1001275,0.1518716,-0.1959588
1.427812,0.09004088,0.06897265,0.4577876,0.3303618,0.1961652,-0.07809778,0.02347192,-0.4032853
0.8807292,0.1519249,0.05066361,-0.08927058,0.3928616,0.1776406,-0.2387355,-0.4927754,-0.497978
0.7412757,0.1043233,-0.0250188,-0.22875,0.3458986,0.1017089,-0.5381146,-0.584611,-0.2576105
0.7926085,0.04165106,-0.1048152,-0.1774857,0.2838663,0.02162584,-0.996631,-0.3316689,-0.252541
0.6913533,-0.0504784,-0.1908744,-0.2788387,0.1923602,-0.06475711,-1.19254,-0.5165586,-0.1046756
0.8434552,-0.2175171,-0.1663234,-0.1268501,0.02591611,-0.04056281,-0.9938375,-0.5995501,0.1255761
0.8779453,-0.4242122,-0.1714166,-0.0924779,-0.1802175,-0.04604017,-0.6261636,-0.6958513,0.2080511
0.7877218,-0.6372429,-0.2671866,-0.182816,-0.3927148,-0.1422157,0.111943,-0.6606185,0.4931731
0.762619,-0.7695632,-0.3229368,-0.2080227,-0.5245147,-0.1983849,0.8247828,-0.253979,0.7670731
0.7098872,-0.6730102,-0.3576734,-0.260838,-0.4274332,-0.2335435,0.7136258,0.0178408,0.7762203
0.8268977,-0.4273823,-0.3115945,-0.1438811,-0.1812485,-0.1878778,-0.02375866,0.2090369,0.5063047
0.9821952,-0.2702398,-0.2770391,0.01140013,-0.02350948,-0.1537159,-0.8426579,0.04933752,0.2506283
1.258791,-0.3186176,-0.3352556,0.2880164,-0.07124806,-0.2122968,-1.007379,-0.1897999,0.3361526
1.53812,-0.4361222,-0.3219744,0.5673921,-0.1880715,-0.1993428,-0.2125392,0.0558095,0.2297724
1.476094,-0.4046634,-0.2357952,0.5054157,-0.1558883,-0.1134454,0.2304842,0.07130099,-0.1814299
1.301198,-0.1778298,-0.1520271,0.3305487,0.07171444,-0.02990891,-0.3072297,-0.1793349,-0.312572
1.111301,0.05894336,-0.1649155,0.1406398,0.3092969,-0.04297709,-0.7843509,-0.268799,0.002978885
1.091015,0.009332996,-0.2190238,0.1202905,0.260523,-0.09721405,-0.7165898,-0.2214908,0.4666229
1.167608,-0.2390528,-0.1716718,0.1967653,0.01298487,-0.04993959,-0.4963617,0.01332082,0.5359542
1.084805,-0.3740757,-0.1242913,0.1137855,-0.1211888,-0.002585993,-0.1656758,0.2863846,0.1838814
1.075527,-0.4055911,-0.07423255,0.1042687,-0.1518544,0.0474943,0.3670022,0.619165,-0.202693
1.014836,-0.2524014,-0.04864486,0.04327684,0.002188422,0.07314737,0.5902451,0.765809,-0.3678114
0.8448929,-0.01735605,-0.08826626,-0.1270265,0.2380898,0.03362927,0.5739986,0.6270408,-0.2861502
0.7696058,-0.0253864,-0.05882294,-0.202726,0.2309107,0.06320802,0.6590007,0.6747374,-0.2990063
0.6921911,-0.001462506,-0.07131481,-0.2805925,0.2556684,0.05087831,0.3786328,0.6509742,-0.3633077
0.663306,0.06007365,-0.121065,-0.3099523,0.3180067,0.001312207,-0.02296605,0.512642,-0.2866278
0.6902732,-0.0995233,-0.1279576,-0.2834653,0.1591669,-0.005377847,-0.198386,0.4769991,-0.2414812
0.6376383,-0.2683751,-0.1907006,-0.3365686,-0.008982471,-0.06790161,-0.326857,0.3184449,-0.148359
0.5561609,-0.4089673,-0.1863513,-0.4184856,-0.1489289,-0.06331627,-0.2263525,0.3259167,-0.04226079
0.5154788,-0.4540139,-0.1535493,-0.4595598,-0.1933807,-0.0302607,-0.1823637,0.4052888,-0.02452613
0.5681401,-0.4095621,-0.1634389,-0.4072239,-0.1483754,-0.03987848,-0.3375275,0.2941596,0.07014994
0.8984687,-0.435298,-0.07906124,-0.07713781,-0.1735889,0.04478862,-0.3871764,0.2830655,0.1201266
1.514966,-0.3986117,-0.01175346,0.5392035,-0.1364022,0.1124007,-0.3746745,0.160077,0.1042062
1.86006,-0.4020361,-0.01222789,0.8842099,-0.13934,0.1122401,-0.3135425,-0.08351245,0.1315566
1.676925,-0.4928835,-0.005478362,0.7010188,-0.229707,0.1193059,-0.238047,-0.1126794,0.03047439
1.517373,-0.5406887,0.01244712,0.541404,-0.2770292,0.137543,0.03407519,0.0102635,-0.1208484
1.49108,-0.5331818,0.03415219,0.515008,-0.2690256,0.1595479,0.544342,0.1118587,-0.1254999
1.316564,-0.2860318,0.006114501,0.3403247,-0.02135548,0.1317908,0.70633,7.319897e-05,-0.02362459
1.214774,0.001744113,-0.02727217,0.2382871,0.2669666,0.09865902,0.3107548,-0.06960758,0.138673
1.240373,-0.03300671,-0.02775895,0.2635479,0.23278,0.09839641,-0.1639566,0.1356162,0.262253
1.159305,-0.1277294,0.07050227,0.1820463,0.1386264,0.1968468,-0.2426885,0.2335551,0.1854473
0.9532653,-0.0796368,0.2291314,-0.02452489,0.187281,0.3556235,-0.1248497,0.04520281,-0.01431529
0.7818034,-0.07820292,0.196492,-0.1966107,0.1892596,0.3230792,-0.1571675,-0.2458434,-0.09124788
0.7674194,-0.09189591,0.08862236,-0.2116983,0.1760845,0.21524,-0.2430163,-0.3335436,-0.04344034
0.7086683,-0.04236006,0.02503718,-0.2712152,0.2261022,0.1516115,-0.4172925,-0.1618902,-0.01610402
0.655589,-0.06261655,-0.07675357,-0.3251031,0.2062825,0.04969967,-0.6324562,-0.06157387,-0.08317707
0.7307813,-0.08621597,-0.05503551,-0.2507423,0.1830663,0.0712191,-0.653757,-0.15965,-0.1239803
0.6607415,-0.1098268,-0.02020972,-0.3216178,0.1597777,0.1057709,-0.5518554,-0.3304385,0.05510784
0.6354067,-0.2457353,-0.0923221,-0.3477742,0.02412615,0.03331138,-0.4469627,-0.3936236,0.1850569
0.7394103,-0.3631587,-0.06852341,-0.244561,-0.09310589,0.05669258,-0.3018257,-0.254848,0.01037294
0.7209267,-0.4324316,-0.05954052,-0.2637885,-0.1622473,0.06519102,-0.1044614,-0.105679,-0.1913328
0.6921578,-0.4436405,-0.1295,-0.2932422,-0.1733749,-0.00531626,0.1313845,-0.1909706,-0.118194
0.6720768,-0.4488247,-0.1848715,-0.3139369,-0.1785161,-0.06129385,0.4284134,-0.2566735,0.292776
0.8124071,-0.5781759,-0.2683711,-0.1741383,-0.3078501,-0.1454502,0.6532839,0.007100351,0.7233195
1.127938,-0.6133643,-0.2712207,0.1409495,-0.3430326,-0.1489967,0.6203627,0.2541569,0.7159239
1.365482,-0.4871032,-0.2419533,0.3781331,-0.216761,-0.1204547,0.3785335,0.2794262,0.4178915
1.692285,-0.3333297,-0.2406593,0.7046401,-0.06295948,-0.1199036,0.1599585,0.2110065,0.1190241
1.905206,-0.1377549,-0.09769839,0.9172981,0.1326663,0.02230576,0.02721839,0.1444173,-0.322044
1.727275,0.04183615,0.0159412,0.7390972,0.3123276,0.1351895,-0.3524599,0.1859906,-0.4951416
1.553441,0.1210098,-0.03302887,0.5649463,0.3915783,0.08545895,-0.8686848,0.1439864,-0.08909721
1.479451,0.03803543,-0.07381939,0.4905638,0.3086706,0.04390097,-0.9564642,-0.0003115495,0.2520182
1.325902,-0.1054944,-0.1302318,0.3365244,0.165181,-0.01328659,-0.799945,-0.04225947,0.4247253
1.191305,-0.208798,-0.2254418,0.201328,0.06188109,-0.1092771,-0.814463,0.1415542,0.4187446
1.045193,-0.2998007,-0.2207277,0.05450169,-0.02915819,-0.1053436,-0.8826953,0.5014296,0.1494309
0.8099531,-0.2685739,-0.1266053,-0.1815613,0.001993144,-0.01199538,-0.8733677,0.5600568,0.06979356
0.6677476,-0.2104987,-0.06824884,-0.3246867,0.0599566,0.0455975,-0.7278036,0.3985908,0.04276456
0.6568744,-0.2018721,-0.0494116,-0.3365548,0.06843695,0.06368282,-0.4286082,0.3394215,0.08480431
0.6981629,-0.1139596,-0.07294158,-0.2963122,0.1561679,0.03941146,-0.2145143,0.2189026,0.2519967
0.7740481,-0.05665217,-0.1362363,-0.2215018,0.2132554,-0.02461499,-0.2355115,0.2326682,0.2037195
0.7783234,-0.02604887,-0.1516674,-0.2183113,0.2435947,-0.04076717,-0.400541,0.3997097,0.1577205
0.7481505,0.02325648,-0.1353196,-0.2495634,0.2925842,-0.02512763,-0.6671267,0.4907654,0.05134988
0.7368627,0.02501643,-0.1059818,-0.2619101,0.2939673,0.003517387,-0.9209886,0.5723154,-0.05314928
0.717103,0.02122186,-0.08001456,-0.2826937,0.2897257,0.02880837,-1.014412,0.6019213,0.02067964
0.7133058,-0.01923375,-0.07727672,-0.2874656,0.2487443,0.03088657,-1.02833,0.6180489,-0.02437358
0.6880908,-0.03765159,-0.06579964,-0.3135923,0.2297154,0.04171977,-1.08537,0.6002408,0.006981507
0.6920624,-0.02147941,-0.1105624,-0.310456,0.2451862,-0.003672074,-1.270889,0.5458297,0.1128516
0.7262901,-0.07844658,-0.1637916,-0.2769746,0.1874239,-0.05751542,-1.613479,0.6473069,0.1378754
0.7539366,-0.1817141,-0.1546552,-0.2499751,0.08326617,-0.04897651,-1.810022,0.7509343,0.1475603
0.8073776,-0.3330472,-0.1335544,-0.1970735,-0.06904933,-0.02845371,-1.622617,0.7844069,0.01657805
0.7756716,-0.4370464,-0.104022,-0.2292059,-0.174114,0.0005220856,-1.41518,0.8079428,-0.1257954
0.6979367,-0.4329721,-0.1114119,-0.3072493,-0.1711743,-0.007402159,-1.403935,0.6128612,-0.1916908
0.8055378,-0.4371007,-0.1219708,-0.1998336,-0.1764899,-0.01847274,-1.422481,0.3277588,-0.01105886
1.344592,-0.4821843,-0.1127601,0.3391585,-0.2227968,-0.009750735,-1.720465,0.2742731,0.4690029
2.035451,-0.5592142,-0.1499995,1.030064,-0.3010694,-0.04745543,-2.328313,0.3104252,0.6270647
2.048261,-0.5815087,-0.1555595,1.042987,-0.3246077,-0.05345602,-2.465336,0.2822447,0.01040544
1.699602,-0.5309593,-0.05537857,0.6944579,-0.2752847,0.04631004,-1.722493,0.2622991,-0.9109601
1.541439,-0.466377,0.1011662,0.5363948,-0.2118942,0.2024641,-1.048828,0.05919498,-1.013198
1.206338,-0.317796,0.1080507,0.2013344,-0.06445775,0.2089756,-1.477245,-0.1043503,-0.2983423
1.302501,-0.0638921,-0.151065,0.2974617,0.1883545,-0.05050369,-2.350332,0.4335065,0.2285721
1.731762,0.159957,-0.3564245,0.7265994,0.4111604,-0.2562197,-2.881178,1.031616,0.3579043
1.4316,0.05147523,-0.228552,0.4262081,0.3016698,-0.1286908,-3.043763,0.8366788,0.2623521
1.214169,-0.2557325,-0.0234626,0.208425,-0.00652682,0.07607534,-2.626425,0.5916625,0.1501643
1.190842,-0.2682435,-0.02067139,0.1846155,-0.02001386,0.07856502,-2.393823,0.6373522,0.06388509
0.8596444,-0.1825711,-0.08362452,-0.147194,0.06469515,0.01532914,-2.741761,0.4477796,0.03285601
0.8399655,-0.1708045,-0.1527588,-0.1676042,0.07551167,-0.05407168,-2.914552,0.3498837,0.2885736
0.735596,-0.1124567,-0.2415065,-0.2728072,0.1329206,-0.1430689,-3.073554,0.4595474,0.474326
0.6258958,-0.2501421,-0.2359586,-0.3834213,-0.0056948,-0.1377496,-3.047771,0.4710679,0.4383519
0.7872377,-0.4796604,-0.186785,-0.2230502,-0.2361341,-0.08877805,-2.608591,0.5826742,0.2132329
0.6766457,-0.5681427,-0.1015474,-0.3346474,-0.3255203,-0.003712101,-2.165372,0.5319084,-0.1991167
0.6996004,-0.5381886,-0.04056971,-0.3127117,-0.2964391,0.05712498,-1.61178,0.2237761,-0.3266356
0.7196139,-0.4155578,-0.07195594,-0.2937115,-0.1746354,0.02562662,-1.150865,-0.00706548,-0.3555288
0.6075934,-0.3165105,-0.05873158,-0.4067206,-0.07635879,0.03876377,-0.7744999,-0.18021,-0.448545
0.7275175,-0.1504674,-0.06781642,-0.287742,0.08897443,0.02961324,-0.5006327,-0.1078408,-0.3464973
0.723164,-0.0003485168,-0.08991703,-0.2929813,0.238441,0.007465581,-0.5960408,-0.04958258,-0.2616713
0.7527462,0.0162818,-0.06260288,-0.2642117,0.2544667,0.03474888,-0.7096748,-0.1841118,-0.1906434
0.8087888,0.05237651,-0.07458776,-0.2088973,0.2899907,0.02274711,-0.9888549,-0.1438014,-0.09925924
0.7645923,0.002154521,-0.05858077,-0.2537292,0.2392174,0.03874878,-1.27845,-0.1889545,-0.05868626
0.8592535,-0.07943875,-0.04743559,-0.1596039,0.1570793,0.04989767,-1.340031,-0.2462368,-0.01107432
0.9124358,-0.1928296,-0.05279736,-0.1068538,0.04314152,0.0445458,-1.468095,-0.1763017,-0.06889841
0.9957456,-0.4050687,-0.02718485,-0.02387178,-0.1696495,0.07017141,-1.221461,-0.2386747,-0.2668369
1.048592,-0.4498299,-0.03316543,0.02874791,-0.2149627,0.06420389,-0.608868,-0.2311254,-0.4886234
0.9722805,-0.3883726,-0.02953653,-0.04769497,-0.154048,0.06784247,0.1232457,-0.2611916,-0.5237964
0.9280305,-0.2709977,-0.04029001,-0.09198664,-0.03719688,0.05709211,0.7748641,-0.4772574,-0.3618935
0.8570681,-0.1077923,-0.08164867,-0.1629037,0.1255078,0.01572757,0.8064212,-0.6262538,-0.217066
0.941401,-0.1198955,-0.1042548,-0.07843919,0.1129252,-0.006894574,0.7139881,-0.5512395,-0.1341298
1.107066,-0.2065616,-0.1153461,0.08744126,0.02579643,-0.01801173,0.8366552,-0.3784339,-0.07327947
1.102339,-0.2681784,-0.1243697,0.08300823,-0.0362698,-0.02706961,0.9643184,-0.351729,0.1047429
1.038465,-0.335124,-0.1720432,0.01949689,-0.103651,-0.07478374,1.09872,-0.1631456,0.3870286
0.9336367,-0.3626738,-0.1913667,-0.08490796,-0.131619,-0.09415092,0.8708987,0.07014802,0.5226976
0.9217041,-0.3603884,-0.1997069,-0.09636099,-0.129729,-0.1025335,0.4223726,-0.06894262,0.5507424
1.220835,-0.4036236,-0.3110796,0.2033021,-0.1733303,-0.2139414,0.2670799,-0.1553278,0.5770999
1.667735,-0.4564901,-0.4037947,0.6507776,-0.2265269,-0.3066764,0.4650565,-0.1258313,0.4293485
1.793384,-0.3273612,-0.3651971,0.7770169,-0.09768427,-0.268072,0.577168,0.03367414,-0.0403611
1.516896,-0.1020506,-0.2357892,0.5011017,0.1273879,-0.1386191,0.08059553,0.3186669,-0.5362261
1.261713,-0.03088861,-0.1007844,0.2464426,0.1983561,-0.003524034,-0.3508399,0.04616606,-0.4669761
1.101747,-0.132235,-0.04139442,0.08693234,0.09685155,0.05600192,-0.05240578,-0.5372257,-0.01906942
0.9779444,-0.2601342,-0.1025147,-0.03648681,-0.03117865,-0.004940445,0.3815499,-0.8535838,0.2268051
0.9459699,-0.2791743,-0.2090328,-0.06814888,-0.05032642,-0.1112424,0.6461588,-0.895378,0.3778269
0.8146753,-0.2503447,-0.2214244,-0.1991949,-0.02158155,-0.1233802,0.80488,-0.6587354,0.3724963
0.6519023,-0.2275249,-0.2123343,-0.3617715,0.001176789,-0.1139971,0.7340006,-0.5554045,0.2655246
0.6660861,-0.2048899,-0.2233491,-0.3474266,0.02377248,-0.1246769,0.7086447,-0.6221861,0.366011
0.7135709,-0.2243035,-0.219476,-0.2997969,0.004339817,-0.1204249,0.8176158,-0.5678818,0.3080273
0.7308436,-0.2296057,-0.2370233,-0.2823782,-0.0009629443,-0.1375469,0.8554212,-0.506931,0.2012957
0.7677735,-0.1926817,-0.1890577,-0.2452864,0.03597694,-0.08910799,1.013288,-0.3241074,0.1941353
0.7872044,-0.1233535,-0.1221307,-0.2256658,0.105335,-0.02165906,1.118383,-0.1371962,0.03748256
0.7762008,-0.04285628,-0.1120491,-0.2364419,0.1858711,-0.01100879,0.9925277,-0.08437998,-0.01429559
0.7437485,-0.02818082,-0.08781175,-0.2686201,0.2005864,0.01384012,0.9018375,0.0970842,-0.1305934
0.7354191,-0.04376375,-0.06205511,-0.2766199,0.1850347,0.04024625,0.7468131,0.2884131,-0.2934568
0.7138152,-0.01955433,-0.01248951,-0.2978297,0.2092574,0.09049318,0.7144912,0.3317091,-0.2808991
0.6697411,0.03720546,0.01900929,-0.3414357,0.2660031,0.1226976,0.8267346,0.2737895,-0.3161184
0.7322802,0.1049653,-0.02518985,-0.2783453,0.333711,0.07921968,0.6596571,0.1587895,-0.2280923
0.8135959,0.138152,-0.08089304,-0.1963876,0.3667953,0.02424564,0.3548142,0.0764006,-0.1625346
0.8323287,0.07548341,-0.1671435,-0.1769177,0.3039608,-0.06127275,-0.1224444,0.1664044,-0.1854232
0.8858634,-0.02698666,-0.2640237,-0.1225501,0.2012497,-0.1574189,-0.5318539,0.4735788,-0.1128564
0.8929593,-0.08553246,-0.2523417,-0.1145268,0.142381,-0.1449981,-0.451214,0.6588954,-0.191366
0.8515351,-0.2459283,-0.1892476,-0.1549318,-0.01842132,-0.08115593,-0.2961442,0.5992353,-0.2847587
0.8714865,-0.4849335,-0.2117756,-0.133872,-0.2579114,-0.1029234,-0.1373041,0.4913898,-0.330095
0.869528,-0.5026166,-0.2188791,-0.1346352,-0.2761447,-0.1092515,-0.02357084,0.4031919,-0.3652465
0.8912305,-0.4621447,-0.1512891,-0.1116533,-0.2362701,-0.04086982,-0.1574943,0.353129,-0.3184435
1.069571,-0.6126703,-0.01789517,0.06804617,-0.3874207,0.09333199,-0.03792342,0.126329,-0.2781191
1.308057,-0.6447162,0.1708008,0.3079617,-0.4200992,0.2828463,0.5767684,-0.3338076,-0.06280412
1.608014,-0.4390509,0.1089387,0.6093987,-0.2150533,0.2218017,1.112477,-0.5864753,0.1863723
1.964141,-0.2183782,-0.1062664,0.9670237,0.005028835,0.007400564,0.8188653,-0.270271,0.2626598
1.989249,-0.1142656,-0.1288472,0.9936043,0.1085852,-0.01439717,0.3809221,0.1799483,0.3047436
1.681255,-0.2381205,-0.07302536,0.6870078,-0.01579328,0.04218467,0.7374246,0.1534708,0.1608781
1.492831,-0.3348736,0.02097732,0.4998666,-0.1130394,0.1369224,0.7985139,0.0670275,-0.05177163
1.309777,-0.1884011,0.03471043,0.3179541,0.03297152,0.151361,0.3835781,0.1493901,0.04495219
1.039159,-0.1238353,-0.01303677,0.04832259,0.0971071,0.1042835,0.3488957,0.09567716,0.235741
0.865175,-0.1707206,0.1081259,-0.1248309,0.04981966,0.2260735,0.3507677,0.1001148,0.288368
0.6535273,-0.15102,0.1675516,-0.3357933,0.06914187,0.2860764,0.4827026,0.09649478,0.3481756
0.5268384,-0.09723283,0.1435957,-0.4619216,0.1225699,0.2626372,0.6169918,-0.04974449,0.2584877
0.4652217,0.01583841,0.1049904,-0.5230756,0.2352953,0.2244777,0.3606315,-0.2653775,0.03209837
0.3609844,0.09161589,-0.02366912,-0.626917,0.3107309,0.09618497,0.02510337,-0.5087716,-0.06391697
0.4933843,0.01881613,-0.04463504,-0.4941556,0.237581,0.07550327,-0.3841314,-0.4665252,-0.1381804
0.5767771,-0.1354915,-0.008287715,-0.4104065,0.08290376,0.112052,-0.4160415,-0.4129328,-0.086907
0.5237476,-0.3154673,-0.002031913,-0.4630611,-0.09746619,0.1184267,0.01605326,-0.6006482,0.1032956
0.6607681,-0.4809736,-0.01082781,-0.3256272,-0.2633879,0.1096673,0.4106651,-0.5510084,0.1634732
0.8411923,-0.5635481,-0.07039774,-0.1447362,-0.3463877,0.05005192,0.8106557,-0.3727938,0.01007724
0.9661465,-0.5629913,-0.09362071,-0.01925471,-0.3462497,0.02670354,0.9505255,-0.3247698,-0.2246295
0.9692113,-0.5584842,-0.1217364,-0.01560258,-0.3421366,-0.001613523,1.140579,-0.3524473,-0.07063118
0.9672993,-0.5585801,-0.1583876,-0.01687147,-0.3425848,-0.03853663,1.753264,-0.423098,0.3107208
1.066471,-0.5143856,-0.2052348,0.0829937,-0.2986857,-0.08571913,2.125237,-0.250051,0.5939286
1.106329,-0.3219388,-0.245479,0.1235874,-0.1064652,-0.1263533,1.859444,-0.06050438,0.7931607
1.31183,-0.06860994,-0.1998677,0.3298561,0.1467111,-0.08117672,0.8831637,-0.1493139,0.4688619
1.716822,-0.08046884,-0.2025775,0.7356281,0.1347687,-0.08435652,-0.08475879,-0.1119196,0.06999467
1.951029,-0.2054168,-0.1951692,0.9705981,0.009796669,-0.07744506,-0.07142954,-0.02572635,0.1000611
1.785511,-0.1595251,-0.1304459,0.8057839,0.05571535,-0.01323841,0.1848864,-0.1353415,0.07963394
1.450551,-0.09343594,-0.1219303,0.4714295,0.121876,-0.005254089,-0.2705497,-0.1620324,0.1573834
1.359777,-0.06097043,-0.1158821,0.3811336,0.1544494,0.0002515912,-0.7499929,-0.001161921,0.3715553
1.24299,-0.1297208,-0.1210701,0.264684,0.08583423,-0.005487562,-0.7060979,0.1258669,0.4375229
0.9626543,-0.3153663,-0.07544025,-0.01546368,-0.09965598,0.03958433,-0.4503563,-0.01181817,0.3752473
0.7929346,-0.3255414,-0.01567911,-0.185139,-0.1096575,0.09878154,0.01317295,-0.2629222,0.1945776
0.6882595,-0.1999176,-0.08648928,-0.2898994,0.01615956,0.02740062,0.2456978,-0.3322932,0.1087803
0.6954074,-0.1052855,-0.1595687,-0.2829457,0.1110047,-0.04625667,0.1017233,-0.1762929,0.07816954
0.7390297,-0.04118764,-0.1747929,-0.2396041,0.1753301,-0.06206374,0.1242386,0.1804291,0.04246002
0.7085532,-0.07386623,-0.1362544,-0.2704271,0.1428856,-0.02410902,0.09338631,0.5204055,0.04292695
0.6775081,-0.08316221,-0.06125481,-0.3018652,0.1338212,0.05030917,0.119389,0.6315599,-0.05416138
0.597847,-0.05975139,-0.03995968,-0.3819463,0.1574533,0.07102618,0.2447279,0.6385868,-0.0854834
0.6004301,-0.1083614,-0.03270604,-0.3797894,0.109047,0.07770361,0.1060256,0.6762943,-0.1435862
0.6276309,-0.1357748,-0.04739066,-0.3530008,0.08181408,0.06244251,0.06669904,0.5818579,-0.3187833
0.5781804,-0.1832804,-0.1157898,-0.4028297,0.03446187,-0.006534936,0.1106772,0.2496235,-0.3300922
0.6060329,-0.23686,-0.1741333,-0.375304,-0.0189927,-0.0654579,0.1182733,0.08095706,-0.2117691
0.5945721,-0.2745131,-0.1840827,-0.387023,-0.05654786,-0.07598493,0.2050366,0.2794208,-0.1190954
0.5396918,-0.384192,-0.1748716,-0.4420769,-0.1661519,-0.0673449,0.2278407,0.4738034,-0.1879329
0.5595503,-0.4299203,-0.1559569,-0.422292,-0.2118212,-0.04899003,0.1084091,0.4566612,-0.2224918
0.7847563,-0.3960204,-0.05548146,-0.197046,-0.1778682,0.05093986,-0.287778,0.2451341,0.05487047
1.396444,-0.4168782,0.0380321,0.4147992,-0.1986688,0.1439221,-0.6338981,-0.1068207,0.2573022
1.946411,-0.4705468,0.02982576,0.9650245,-0.2522662,0.1351948,-0.5079688,-0.2377402,0.1118612
1.957202,-0.5474337,0.02923179,0.9761339,-0.329057,0.1340842,-0.1024668,0.1935273,-0.1868564
1.734708,-0.594311,0.06382702,0.7539695,-0.3758005,0.1681611,0.3742836,0.5989319,-0.5663347
1.539437,-0.4721913,0.1226325,0.5589932,-0.2534956,0.2264399,0.6380768,0.3539717,-0.8751934
1.241192,-0.2078771,0.1509501,0.2609774,0.01106533,0.2542143,0.3396376,0.1114453,-0.6479238
1.075061,0.08255748,0.07202683,0.09499209,0.3018081,0.1747226,-0.263832,0.1929573,-0.05753197
1.172415,0.25254,0.01708017,0.1924015,0.4721475,0.1191751,-0.7303198,0.1522199,0.2929022
1.106794,0.0748007,0.07050796,0.1267462,0.2947925,0.1719651,-0.9365783,0.1376498,0.4510318
0.9617826,-0.2148,0.1364742,-0.01839162,0.005583434,0.2372528,-0.7225991,0.1019206,0.3350923
0.9136457,-0.2250554,0.1391147,-0.06674176,-0.004283405,0.2391687,-0.4798411,-0.1356604,0.1721165
0.7626149,-0.1713029,0.08609562,-0.2180637,0.04985157,0.1853726,-0.5421325,-0.2168127,0.387535
0.698568,-0.1725657,0.02107353,-0.2824658,0.04896327,0.1195166,-0.4842992,-0.129353,0.4031995
0.7426452,-0.1276108,-0.02594238,-0.2387905,0.09428172,0.07160833,-0.5252388,-0.08073114,0.2361904
0.7287638,-0.09683282,-0.07826872,-0.2531028,0.1254083,0.01833287,-0.7745127,-0.1050707,0.1451125
0.7334657,-0.07854932,-0.1725838,-0.2488448,0.1440199,-0.0769834,-0.9649582,-0.1104358,-0.01058155
0.7543372,-0.195974,-0.2020899,-0.2284151,0.02689771,-0.1075348,-1.026929,0.02105285,0.0408297
0.7878161,-0.4004243,-0.1193027,-0.1953628,-0.177278,-0.02582743,-0.5700758,0.05596515,-0.03877978
0.7551153,-0.4495475,-0.05650837,-0.2284636,-0.2261495,0.03586097,0.03565386,-0.1428874,-0.2594418
0.6811426,-0.4130224,-0.0651017,-0.302799,-0.1893859,0.02614077,0.3208916,-0.3172725,-0.1305925
0.7230341,-0.4010744,-0.1429768,-0.2612213,-0.177202,-0.05287824,0.3440595,-0.1998591,0.1578508
0.933927,-0.4255759,-0.222162,-0.05058333,-0.2014607,-0.1332187,0.04581104,-0.02605197,0.435425
1.321379,-0.4681364,-0.2339532,0.3366744,-0.2437626,-0.1461685,-0.269391,-0.1198461,0.4103833
1.689714,-0.5980972,-0.2512884,0.7048652,-0.3734387,-0.164655,-0.345572,-0.1147698,0.2208345
1.893924,-0.7399826,-0.2379475,0.9089496,-0.5149993,-0.1524479,0.1449381,0.006107531,0.2062255
1.771894,-0.5321417,-0.1049438,0.7867751,-0.3067767,-0.02055129,0.7051059,-0.009251065,-0.08654657
1.389772,-0.09511044,0.02543843,0.4044504,0.1307055,0.1087552,0.2993399,-0.04494989,-0.4384841
