accx,accy,accz,body_accx,body_accy,body_accz,body_gyrox,body_gyroy,body_gyroz
0.4027108,-0.1986274,0.04428417,-0.5740671,-0.0151242,-0.07199179,0.0353347,-0.1715691,-0.388768
0.4812236,-0.2558785,0.05052863,-0.4958315,-0.07242312,-0.06670466,0.4823705,-0.4545694,-0.3209872
0.6810417,-0.30099,0.03380911,-0.2961653,-0.1175752,-0.08436496,0.774583,-0.4783389,-0.2300301
0.9118313,-0.3959256,0.02783277,-0.06539159,-0.2125392,-0.09126018,0.899739,-0.09088761,-0.04058612
0.9470393,-0.4512996,-0.02635738,-0.03006302,-0.267922,-0.1463416,1.078133,0.3443249,0.2395871
1.115723,-0.3596271,-0.08289374,0.1388704,-0.1762286,-0.2037348,0.8269415,0.7766668,0.4952018
1.380767,-0.3070087,-0.07788282,0.4042786,-0.1235511,-0.1995377,0.409895,0.9076147,0.2535059
1.600038,-0.1972098,-0.03019784,0.6240057,-0.01365036,-0.1526147,0.225477,0.5469923,-0.2993698
1.755014,-0.1692232,0.1479252,0.7794946,0.01448136,0.02480446,0.08392014,0.2522973,-0.5363793
1.839197,-0.2210369,0.3617555,0.8642068,-0.03714667,0.2379889,0.09786389,0.242974,-0.3110929
1.828788,-0.09097567,0.2822697,0.8542999,0.09313733,0.1579078,-0.04229395,0.1067115,0.03651935
1.539867,-0.1175976,0.1373337,0.5658127,0.06677041,0.01241696,-0.3198911,-0.1990262,-0.02102724
1.278829,-0.1848026,0.2229814,0.3051072,-0.0001533256,0.09754351,-0.1967359,-0.2320863,-0.02702898
1.339256,-0.1335661,0.2204736,0.3657492,0.05138586,0.09454347,-0.01060317,-0.2113078,0.1604157
1.253473,-0.2173436,0.1679784,0.2800515,-0.03207112,0.0415801,0.150601,-0.3922436,0.110863
0.8785143,-0.2166385,0.1884897,-0.09495451,-0.03103005,0.0616432,0.5273763,-0.4108034,0.3159448
0.6998948,-0.1427541,0.0709123,-0.2737496,0.04320429,-0.05636503,0.6498387,-0.3861211,0.4228648
0.7290503,-0.08981396,0.0274183,-0.244881,0.0965058,-0.1002721,0.5780096,-0.3724507,0.1838175
0.6505351,-0.007755183,0.08394857,-0.3237727,0.1789319,-0.04413457,0.6955041,-0.2798348,0.25693
0.544605,-0.003573835,0.04921926,-0.430146,0.1834782,-0.07923288,0.6810895,-0.2567961,0.3088753
0.4813277,0.03989417,0.02947835,-0.4939075,0.227299,-0.09931614,0.4687818,-0.08747921,0.3072178
0.4634128,0.04948377,0.008188619,-0.5123202,0.2372184,-0.120918,0.2130605,0.1573045,0.2694371
0.5470365,-0.001496588,0.05517947,-0.4291805,0.1865343,-0.07420525,-0.02652184,0.2097642,0.03546579
0.631095,0.07360926,0.1215606,-0.3455682,0.2618931,-0.008065358,-0.1413748,0.06572154,0.05873696
0.7087314,0.0827806,0.007419017,-0.2683218,0.2712645,-0.1224102,-0.5084102,-0.1535182,0.03296755
0.7628906,-0.09898956,-0.1155451,-0.2144832,0.08963289,-0.2455371,-1.068778,-0.1724901,-0.1479542
0.8588384,-0.4123998,-0.09866313,-0.1187786,-0.2237036,-0.2287714,-1.13999,-0.06708331,-0.2796942
1.168765,-0.6740475,0.06757972,0.1909844,-0.4853338,-0.06259104,-0.6899414,-0.01582517,-0.5380712
1.528905,-0.6216408,0.244172,0.5510316,-0.4329459,0.1139954,-0.2556304,0.004321276,-0.6139587
1.806077,-0.4351648,0.2327646,0.8281572,-0.2465017,0.1026345,-0.3234849,0.09383268,-0.5461618
1.905714,-0.3500682,0.2283153,0.9277575,-0.1614311,0.09827572,-0.4496267,0.2503,-0.4410549
1.806236,-0.3588999,0.3379938,0.828209,-0.1702719,0.2080792,-0.169583,0.1734146,-0.226495
1.766021,-0.383175,0.3479752,0.7878473,-0.1945312,0.2182093,-0.05047231,0.06013019,-0.08260766
1.58513,-0.273572,0.2846971,0.6066986,-0.08488034,0.1550917,-0.06973679,0.148914,0.2215077
1.150605,-0.1248085,0.2632585,0.1717813,0.06396639,0.1338146,-0.06231023,0.08201626,0.5538094
0.9422046,-0.06550714,0.2355914,-0.03715668,0.1233845,0.1063017,-0.3042533,-0.1111419,0.6014231
0.8941269,-0.06048167,0.2018973,-0.0859105,0.1285537,0.07274861,-0.5076248,-0.2434818,0.6280623
0.7244585,-0.1176175,0.155795,-0.2563787,0.07158029,0.02677014,-0.5629363,-0.2739312,0.600076
0.6336728,-0.1387815,0.1206847,-0.3480677,0.05059073,-0.008235116,-0.5671306,-0.1385491,0.4183768
0.5985085,-0.1173391,0.1135375,-0.3842139,0.07221458,-0.0152957,-0.5627397,0.007035222,0.2492178
0.4775103,-0.1133757,0.06406402,-0.5062455,0.07636196,-0.06469931,-0.6275085,0.1527581,0.0261169
0.4177188,-0.09543494,0.05331269,-0.5670918,0.09448493,-0.07539428,-0.6632475,0.2294942,-0.2140971
0.3762702,-0.1426049,0.06878195,-0.6095851,0.04749081,-0.0598782,-0.7138487,0.1751126,-0.2536044
0.3089751,-0.2073494,0.04313686,-0.6778824,-0.01708723,-0.08548183,-0.5593338,0.1422264,-0.1867012
0.4235933,-0.2283429,0.06042637,-0.5641918,-0.03792456,-0.06815222,-0.1841154,-0.1239259,-0.1747998
0.5987592,-0.2842736,0.06017861,-0.3898515,-0.09370751,-0.06835745,0.04619002,-0.4400957,-0.2130257
0.6615032,-0.3498672,0.04492407,-0.3278111,-0.159158,-0.08356359,0.3040899,-0.2848243,-0.2416961
0.7390944,-0.3898314,0.04189834,-0.2507893,-0.1989774,-0.08653166,0.5726478,-0.04082557,-0.14355
0.8837241,-0.3862478,-0.03329725,-0.1065888,-0.195239,-0.1616564,0.6356131,0.1424584,0.139466
1.164505,-0.3747626,-0.09807649,0.1739026,-0.1835802,-0.2263459,0.5868661,0.5715774,0.5129712
1.433929,-0.3715755,-0.09228931,0.4431639,-0.1801929,-0.2204423,0.4542507,0.8241115,0.5416838
1.421681,-0.2997785,-0.02085851,0.4308582,-0.1081624,-0.14886,0.3409125,0.5356634,0.01094703
1.426893,-0.1843121,0.1840218,0.4360877,0.007574267,0.05621223,0.3733064,0.2096488,-0.3847736
1.700023,-0.04285868,0.3982488,0.7092827,0.1493335,0.2706696,0.386862,0.2212376,-0.2161335
1.894872,0.1063594,0.3286116,0.9042089,0.2988853,0.201291,0.06880229,0.244227,-0.06779592
1.69911,0.1482929,0.1716112,0.7084956,0.3411665,0.04456511,-0.4702817,0.102814,-0.174498
1.355541,0.06014098,0.2341474,0.3649122,0.2533594,0.1073825,-0.8819982,-0.04449521,-0.06247518
1.200468,-0.08518247,0.197504,0.2097374,0.1083629,0.07102084,-1.006327,-0.1758588,0.1339611
1.047259,-0.2203608,0.1022957,0.05633063,-0.0265148,-0.02390924,-0.7356047,-0.2644506,0.1382552
0.87025,-0.2443714,0.1410437,-0.1209726,-0.05025311,0.01511098,-0.3353521,-0.2478286,0.2101939
0.8446112,-0.1205809,0.05710014,-0.1469926,0.07378307,-0.06856633,-0.02425056,-0.1368679,0.2518362
0.7733588,0.009514708,0.03882372,-0.2186998,0.2040975,-0.08658111,0.1703082,0.02030545,0.2500742
0.656688,0.07937759,0.08708195,-0.3358823,0.2741467,-0.03806305,0.06028408,0.1570217,0.2546834
0.5429367,0.1146362,0.01843683,-0.4501821,0.3095493,-0.1064472,-0.09406349,0.1967563,0.1451611
0.431316,0.08972666,0.03584528,-0.5623638,0.2847297,-0.08877352,-0.2126372,0.1753727,0.2140194
0.4864772,0.06540999,0.04475734,-0.5077484,0.2604376,-0.07958844,-0.4887404,0.2712084,0.3011617
0.5967043,0.04222097,0.08688717,-0.3980254,0.2371984,-0.03717496,-0.6131531,0.4187649,0.2533866
0.7229179,-0.003583296,0.1793778,-0.2722531,0.1912621,0.05561091,-0.6519284,0.4527156,0.2504158
0.7998178,-0.01141855,0.09825339,-0.1957173,0.183208,-0.02520803,-0.8356533,0.3448424,0.1516218
0.7145598,-0.07784059,-0.04434806,-0.2812534,0.1164778,-0.1674946,-1.003365,0.09826685,0.1343085
0.725612,-0.2511838,-0.169349,-0.2703862,-0.05726229,-0.2921676,-1.279116,-0.07599999,0.05866275
0.7889501,-0.4331454,-0.1675916,-0.207133,-0.2397028,-0.29006,-1.537206,-0.194273,-0.2969217
0.8777694,-0.5525767,-0.07269844,-0.1182934,-0.3596802,-0.1947834,-1.3121,-0.5082117,-0.5730088
1.308051,-0.5421165,-0.02921635,0.3121113,-0.349813,-0.150876,-0.988754,-0.6937601,-0.6627342
1.870915,-0.5152494,0.09306221,0.8751871,-0.3235633,-0.02812548,-1.012779,-0.203815,-0.494566
2.005484,-0.5396752,0.1206943,1.010018,-0.3486097,2.512652e-05,-0.9323356,0.5172768,-0.3294327
1.79865,-0.43325,0.1010555,0.803451,-0.2427897,-0.0190517,-0.7528688,0.6219642,-0.4631196
1.794936,-0.2938594,0.270929,0.7999601,-0.1039741,0.151422,-0.820286,0.6383692,-0.4719344
1.772558,-0.294953,0.2931143,0.7777217,-0.1056035,0.1742377,-0.8401088,0.9085638,-0.256203
1.447216,-0.2511184,0.2094173,0.4524022,-0.06226081,0.09119065,-0.8402151,0.7242385,0.004780921
1.103722,-0.07950059,0.2158287,0.1087943,0.1089103,0.0982615,-1.07264,0.4759986,0.2833943
0.8379592,0.04310726,0.1327974,-0.1572246,0.231113,0.01589186,-1.464968,0.444395,0.4647431
0.8366103,-0.01528106,0.0980474,-0.158962,0.1723518,-0.01819893,-1.832508,0.2616388,0.5487215
0.7876328,-0.1316849,0.09912824,-0.2084426,0.0555971,-0.01646351,-1.841025,0.2164176,0.5521408
0.5175211,-0.1579223,0.03997474,-0.4791513,0.02902429,-0.07496743,-1.764908,0.2459545,0.5184121
0.5922612,-0.1797993,0.07663588,-0.4050764,0.006824167,-0.03766098,-1.868164,0.3435934,0.397599
0.5736086,-0.1841087,0.07409109,-0.4244346,0.00220294,-0.03956368,-1.707829,0.6278939,0.03279361
0.4168844,-0.1480222,0.03853609,-0.581877,0.03798835,-0.07447883,-1.503732,0.6965185,-0.3449598
0.5203114,-0.1220543,0.05649946,-0.4791528,0.06366461,-0.05587666,-1.467726,0.5725093,-0.4600238
0.4367376,-0.08361208,0.0151458,-0.5633862,0.1018222,-0.09659084,-1.200547,0.3506276,-0.3869491
0.5142838,-0.1182716,0.02591446,-0.4864307,0.06688147,-0.08517983,-0.9212383,0.158458,-0.3420297
0.792395,-0.2169919,0.08403305,-0.2088199,-0.03211964,-0.02641393,-0.6978041,0.3294217,-0.4120642
0.7966645,-0.2927922,0.1553653,-0.2049472,-0.1082001,0.04557096,-0.1635214,0.4965215,-0.4505096
0.7723457,-0.2580673,0.2877763,-0.2295533,-0.07375148,0.1786367,0.2564879,0.2928641,-0.4884966
0.7257075,-0.1139365,0.2753183,-0.2763646,0.07011088,0.1668285,0.1299038,0.1496859,-0.4661811
0.8642763,-0.1191605,0.08112765,-0.1378507,0.06462671,-0.02672572,-0.1395292,0.3597369,-0.07852116
1.272905,-0.3046192,-0.09525182,0.270841,-0.121085,-0.2024853,-0.2678184,0.7132021,0.3388999
1.534109,-0.5360622,-0.1098435,0.5322125,-0.352771,-0.2164694,-0.299799,0.9399494,0.2762398
1.562472,-0.6191018,-0.02519425,0.5608204,-0.4360319,-0.1312166,-0.2689326,0.5813748,-0.03663057
1.559173,-0.4587418,0.04724029,0.5578132,-0.2758546,-0.05817537,-0.305646,0.05326205,-0.2128649
1.797073,-0.3575947,0.2477949,0.7960152,-0.174837,0.1429912,-0.3749904,0.2669333,-0.3067776
1.898209,-0.2812519,0.4015013,0.8974271,-0.09856152,0.2973102,-0.5994535,0.4000214,-0.4492791
1.66433,-0.1664398,0.2990207,0.6637588,0.01624789,0.1954316,-1.079858,0.08721406,-0.5141851
1.465791,-0.1886136,0.2691048,0.4653309,-0.005865755,0.1660947,-1.254281,-0.00971858,-0.4242983
1.260272,-0.2115398,0.2743966,0.2598001,-0.02867319,0.1719325,-1.036395,-0.2851593,-0.3186448
1.178228,-0.2330142,0.1257542,0.177612,-0.04997386,0.02379626,-0.8107471,-0.3995585,-0.2911879
1.075329,-0.2322785,0.03098243,0.07443437,-0.04901216,-0.07051224,-0.5536223,-0.2142004,-0.1281065
0.8888325,-0.1500546,-0.007240245,-0.1124713,0.03348772,-0.1083122,-0.4137624,-0.3698554,0.1816213
0.9524067,-0.09473268,-0.0234459,-0.04942545,0.08913105,-0.1241298,-0.4905494,-0.2563218,0.247686
0.8665039,-0.02133487,0.007990073,-0.1359623,0.1628885,-0.0923334,-0.5056569,0.02896589,0.1292131
0.6839772,-0.01681338,0.03244678,-0.3192132,0.1677979,-0.06753756,-0.4024026,0.1093931,0.04073202
0.6221715,-0.05126784,0.1054361,-0.3818129,0.1337487,0.00577408,-0.3252086,0.2500017,-0.02319094
0.4329334,-0.006113584,0.1244459,-0.5718895,0.1793151,0.02509138,-0.2466467,0.1102831,0.005280404
0.3608375,0.007539574,0.02058597,-0.6448384,0.1933773,-0.07847536,-0.2483874,0.04193147,0.03869416
0.3931379,0.04229835,-0.06891861,-0.6133719,0.2285315,-0.1676987,-0.4906016,0.199529,0.03559159
0.4467559,0.06292665,-0.1005967,-0.5605362,0.2495307,-0.1991015,-0.7500706,0.3095484,0.01850013
0.6087964,0.02031075,-0.008868298,-0.3991985,0.2072501,-0.1070958,-0.8133244,0.5926931,-0.06966286
0.7082801,0.03678709,0.1552205,-0.3003176,0.2240159,0.05727802,-0.7195474,0.5291476,-0.1616998
0.8030353,0.08342312,0.2000545,-0.2060522,0.2708865,0.102405,-0.7226353,0.2341836,-0.1943773
0.8621501,0.1091964,0.08769019,-0.1473078,0.29683,-0.009661976,-1.035243,0.2144826,-0.1851075
0.865856,-0.03378324,-0.07319423,-0.143851,0.1539469,-0.170247,-1.37347,0.1948505,-0.2282312
1.031214,-0.4068328,-0.1022899,0.02137779,-0.2190837,-0.1990382,-1.428234,0.3338932,-0.4119347
1.27122,-0.7319093,-0.03628498,0.2613687,-0.5442104,-0.1327166,-1.16832,0.399487,-0.703637
1.393717,-0.7909351,0.02313705,0.3839484,-0.6033328,-0.07295958,-0.82402,0.1074208,-0.8937673
1.494464,-0.6443776,0.1633225,0.4848534,-0.4568879,0.06758169,-0.592217,-0.1235527,-0.845467
1.741037,-0.5627855,0.2807422,0.7316306,-0.3753966,0.1853754,-0.4779757,-0.1894935,-0.7507015
1.937592,-0.5846108,0.2735697,0.9283989,-0.397289,0.1785872,-0.5095828,-0.1506582,-0.636829
1.906836,-0.4795141,0.2681665,0.8978246,-0.292208,0.1735681,-0.3740797,0.009489743,-0.3879425
1.732727,-0.2515112,0.2844708,0.7238218,-0.06415713,0.1902461,-0.1138689,0.3535137,-0.1199433
1.433669,-0.05363768,0.2702699,0.4247605,0.1338321,0.1763989,-0.1800065,0.5433052,-0.01920907
1.186965,-0.007137889,0.2304002,0.1779211,0.1805094,0.1368541,-0.5742805,0.4018011,-0.08320455
0.9585215,-0.04154545,0.1885199,-0.050795,0.1463295,0.09526353,-1.155087,0.3462657,0.01657108
0.6921784,-0.06804432,0.179446,-0.3175404,0.1200963,0.08643957,-1.352704,0.1086449,0.2712588
0.7004039,-0.2186819,0.1950335,-0.3098286,-0.03024728,0.1022343,-1.046135,-0.2424068,0.4117797
0.6893706,-0.3264721,0.1694285,-0.3214629,-0.1377198,0.07679171,-0.9384787,-0.2749843,0.5141415
0.4900172,-0.2581835,0.104987,-0.521479,-0.06908943,0.01246647,-0.9094214,-0.3973341,0.4906246
0.4878653,-0.2184949,0.06704609,-0.5243272,-0.02903333,-0.02540355,-0.7491446,-0.5187714,0.3435256
0.5380687,-0.1617392,0.07451619,-0.4748241,0.02811525,-0.01790491,-0.6181048,-0.3019424,0.1621892
0.5553834,-0.1114137,0.1108458,-0.4581857,0.07885624,0.0184145,-0.3911539,-0.005294571,-0.1696436
0.5685688,-0.1517264,0.1228103,-0.4456283,0.03897648,0.03033284,-0.2939841,0.1223845,-0.3891337
0.4993678,-0.1625083,0.1251102,-0.515387,0.0286401,0.03255238,-0.3335455,0.1164409,-0.412953
0.508276,-0.1852655,0.1493508,-0.5069447,0.006336905,0.05667946,-0.02307271,-0.01985568,-0.4038547
0.551262,-0.2052898,0.1407704,-0.4643126,-0.01322762,0.04795264,0.4883154,-0.4174879,-0.3237079
0.6618132,-0.1871552,0.1077376,-0.3539862,0.005370809,0.01474126,0.7293188,-0.6603377,-0.2759624
0.8592984,-0.2088395,0.07606539,-0.1565852,-0.01584703,-0.01714054,0.7506419,-0.5395847,-0.2431583
0.9489585,-0.2196232,0.07282517,-0.06686546,-0.02616261,-0.02061857,0.8467811,-0.3215967,-0.2122762
1.062847,-0.238708,0.05867454,0.04722185,-0.04477795,-0.03503166,0.9610042,0.1419567,-0.1619924
1.285771,-0.2716198,-0.0705352,0.270474,-0.07721836,-0.1645238,0.8170103,0.6395176,0.03630467
1.438474,-0.2440481,-0.1777616,0.4236152,-0.04917192,-0.2720445,0.4508861,0.760927,0.1235478
1.38814,-0.2353101,-0.09262991,0.3738028,-0.03995438,-0.1872076,0.02472314,0.5998822,-0.02714523
1.373054,-0.2921602,0.1093472,0.3592968,-0.09631904,0.01448517,-0.2014731,0.356025,-0.2094809
1.584787,-0.3422303,0.2637538,0.5716405,-0.1458956,0.1686216,0.1514039,0.1409224,-0.2821848
1.674335,-0.323275,0.2870558,0.6618012,-0.1264348,0.1916641,0.6001158,-0.001348142,-0.2208442
1.564554,-0.2248882,0.2469525,0.5526046,-0.02752664,0.1513035,0.5174813,-0.0408096,-0.188322
1.398793,-0.0929128,0.2351764,0.3873697,0.1049864,0.1392645,0.3608492,-0.1104248,-0.1994146
1.220064,-0.03129022,0.2297758,0.2090865,0.1671587,0.1335886,0.2667654,-0.1733942,-0.1412117
1.101932,-0.1026657,0.19781,0.09131029,0.09633677,0.10133,0.09233261,-0.1612326,-0.03221572
0.9431316,-0.1508996,0.1790939,-0.06722661,0.0486524,0.08229969,0.2711987,-0.2631066,0.1079713
0.800426,-0.08951353,0.1279533,-0.2097563,0.1105783,0.03082112,0.5816399,-0.3235366,0.2674159
0.7088432,-0.04551032,0.04387534,-0.3012379,0.1551061,-0.05361827,0.6894748,-0.3374793,0.405784
0.6436527,-0.01096106,0.0316866,-0.366384,0.1901576,-0.06618894,0.7784081,-0.4124786,0.4020218
0.6302104,0.02001479,0.01101382,-0.3798179,0.2216048,-0.08725893,0.7249459,-0.3683494,0.2588393
0.5352931,0.004960599,-0.02686009,-0.4747411,0.2069818,-0.125539,0.624562,-0.2629894,0.1857586
0.5344597,0.01728077,0.02908681,-0.4755712,0.2196837,-0.07000041,0.5483537,-0.04672697,0.2277911
0.6519811,0.03691106,0.1408201,-0.3580151,0.2396376,0.04132778,0.3259826,0.2097933,0.2442528
0.6842564,0.04768242,0.2231153,-0.3256548,0.250666,0.1232224,0.2107498,0.208189,0.167282
0.7435609,0.08441607,0.1572544,-0.2662008,0.2875814,0.05696327,0.1281161,-0.03478434,0.1087065
0.8146898,0.06187391,-0.01181707,-0.1948479,0.2651371,-0.1125063,-0.2054374,-0.3520196,0.1412865
0.9330383,-0.1527806,-0.1121724,-0.07619547,0.05048966,-0.2132568,-0.5360972,-0.3409334,0.09651809
1.101168,-0.5389066,-0.132453,0.09231793,-0.3357193,-0.2339213,-0.5470722,0.02828979,-0.1822151
1.154015,-0.7167999,-0.06436297,0.145621,-0.5137716,-0.1661933,-0.1117515,0.1826506,-0.5656556
1.226579,-0.5553164,0.1082199,0.2187026,-0.352499,0.006057975,0.4680133,-0.1235285,-0.7163224
1.4609,-0.4224967,0.282155,0.4535844,-0.2199171,0.179694,0.6199208,-0.500918,-0.6377765
1.708305,-0.3613371,0.2843879,0.7015727,-0.1590044,0.1816552,0.4735608,-0.4383237,-0.6208956
1.725891,-0.3252085,0.2083519,0.7197313,-0.12312,0.1053658,0.5208765,-0.2712173,-0.4908833
1.70987,-0.3467118,0.2750144,0.7042359,-0.1448565,0.1717847,0.5988073,-0.1945553,-0.05637746
1.741229,-0.2460742,0.2788092,0.7360396,-0.04443483,0.1753382,0.5122534,0.1369245,0.3989757
1.35571,-0.1206756,0.2057957,0.3508545,0.08076847,0.102078,0.3792747,0.164035,0.5859124
0.8352862,0.01362444,0.2303983,-0.1693643,0.2148918,0.1264223,0.06944243,-0.1039788,0.5109037
0.6905066,0.1624271,0.1860985,-0.3140648,0.3635275,0.08184802,-0.2724821,-0.133444,0.5134764
0.7238834,0.02878708,0.1769898,-0.280717,0.2297169,0.07244552,-0.4123988,-0.2895048,0.584254
0.6644871,-0.122885,0.2050146,-0.3402279,0.07785804,0.1001549,-0.4833213,-0.3610384,0.508594
0.53312,-0.1169632,0.1313533,-0.4717714,0.08356959,0.02615494,-0.463977,-0.177987,0.4731362
0.5813528,-0.1514363,0.1291974,-0.4237516,0.04886024,0.02363671,-0.4289331,-0.04757708,0.2800685
0.589316,-0.1150087,0.09579839,-0.4160126,0.0850244,-0.01014711,-0.4170899,0.1317158,-0.1063586
0.4606519,-0.1421932,0.04276487,-0.5448877,0.0575486,-0.06358528,-0.3452099,0.07473361,-0.1763706
0.5015397,-0.212979,0.05828752,-0.5041737,-0.01355663,-0.04848298,-0.1957809,-0.2496672,-0.05414871
0.5183896,-0.2158128,0.0182732,-0.4874364,-0.01673626,-0.08892824,0.2009397,-0.45088,-0.05504541
0.6498024,-0.3464733,0.0621267,-0.356054,-0.1477651,-0.04551097,0.5981974,-0.4326838,-0.1452874
0.8745697,-0.3888387,0.1475015,-0.1312206,-0.1905141,0.03942652,0.8797783,-0.2507349,-0.1800121
0.8169064,-0.2963885,0.1624357,-0.1887145,-0.0984534,0.05392406,1.150203,-0.1030901,0.03160716
0.8840586,-0.2673195,0.1154839,-0.1212885,-0.0697712,0.006535728,1.046502,0.2339052,0.4102644
1.165983,-0.250498,-0.01559597,0.1610115,-0.05332819,-0.1249799,0.7638687,0.591379,0.6109511
1.347468,-0.2549494,-0.0324838,0.3429647,-0.0581459,-0.1422988,0.5786156,0.4320189,0.4165423
1.433331,-0.255188,0.04589358,0.4293674,-0.05873557,-0.06434139,0.4576041,0.1955568,0.1059098
1.589951,-0.2730587,0.1588303,0.5865722,-0.07693905,0.04819136,0.5454681,0.1427398,-0.01155039
1.883848,-0.2505702,0.3131217,0.8810686,-0.05476222,0.2020946,0.503846,0.2642434,-0.0399859
1.839157,-0.114885,0.2689869,0.8369496,0.08063419,0.157582,0.2271099,0.487911,-0.1817848
1.387991,0.01707186,0.2002363,0.3862911,0.2123229,0.08845617,-0.1174613,0.2731529,-0.411362
1.086205,0.08464575,0.2866138,0.08492092,0.2796415,0.174455,-0.3859531,-0.06385558,-0.2828529
1.100647,-0.03264771,0.2722632,0.09967682,0.1620941,0.1597162,-0.1630175,-0.1352022,0.02456867
1.1606,-0.1735774,0.199276,0.1598416,0.02090241,0.08632551,0.1254383,-0.2147484,-0.01516247
0.9615373,-0.1193448,0.1427149,-0.03910954,0.07486054,0.02934176,0.1935405,-0.2234306,0.0685693
0.772963,-0.05175858,0.04971422,-0.2276674,0.1421576,-0.06410109,0.3466409,-0.2210663,0.2949004
0.7721948,0.0206747,0.02695945,-0.2285016,0.2142831,-0.08731417,0.2659678,-0.2060911,0.2948473
0.6828345,0.08721559,0.03260717,-0.3179933,0.2804907,-0.08213522,0.1496518,-0.05840299,0.335825
0.6130851,0.08786072,0.02376692,-0.3879196,0.2807674,-0.09144839,0.1840858,-0.03291436,0.3698503
0.5499657,0.1122016,0.03384888,-0.4512397,0.3046941,-0.08183744,-0.04619263,-0.03288465,0.4116733
0.4900658,0.08914814,-0.001612494,-0.5113402,0.2811702,-0.1177621,-0.3051607,0.08390545,0.4893586
0.6105462,0.04368393,-0.005820642,-0.3910361,0.23517,-0.1224199,-0.4992404,0.2629358,0.420766
0.7233256,0.0514692,0.09355305,-0.2783877,0.2423464,-0.02347666,-0.6805928,0.4424885,0.3070696
0.7884318,0.08593957,0.1808595,-0.2133527,0.2761292,0.06342151,-0.7469682,0.3532115,0.02265893
0.7978493,0.1608948,0.1475992,-0.2039373,0.350312,0.02977453,-1.015293,0.1924735,-0.2859705
0.7717499,0.1506031,0.05554795,-0.2299634,0.3391553,-0.06264375,-1.285724,0.1667628,-0.2719494
0.86532,-0.07211832,-0.02459508,-0.1362394,0.1154695,-0.1431333,-1.225585,0.1176057,-0.2378764
1.075556,-0.487399,-0.1545127,0.07423272,-0.3008741,-0.2733719,-1.149768,0.3421858,-0.4735085
1.446699,-0.8891024,-0.1720828,0.4456866,-0.703723,-0.2912282,-1.015506,0.6430088,-0.8655227
1.719588,-0.9522982,-0.02402784,0.7189422,-0.7681141,-0.1434134,-0.7579506,0.3973344,-1.128498
1.78467,-0.7487028,0.07919011,0.784412,-0.5657228,-0.04038208,-0.7660192,0.05256695,-1.096781
1.891187,-0.5740348,0.1866001,0.8912991,-0.3922309,0.06689662,-0.848016,0.03366573,-0.8826297
1.942651,-0.3852535,0.2388442,0.9430722,-0.2045717,0.1190607,-0.7767466,0.1106004,-0.5621569
1.947866,-0.1197939,0.2149971,0.9484916,0.05983373,0.09517731,-0.9455102,0.3681183,-0.1733895
1.801398,-0.01984188,0.2224399,0.8020833,0.1588019,0.1026193,-1.295098,0.6313819,0.02069937
1.416524,-0.09634106,0.1332635,0.417092,0.08138323,0.01347045,-1.648134,0.5630848,0.02450833
1.19324,-0.1181617,0.09935277,0.1934958,0.05869994,-0.02038942,-1.886139,0.4353207,0.2156095
1.016381,-0.2042264,0.1717357,0.01612825,-0.02817594,0.05206499,-1.671853,0.3126321,0.4618697
0.715966,-0.3008549,0.1550569,-0.2849823,-0.125566,0.03547585,-1.475645,0.104037,0.5442323
0.612685,-0.2226915,0.106116,-0.3891228,-0.04811294,-0.01336047,-1.524728,0.09553312,0.5497661
0.6056232,-0.2075538,0.01035659,-0.3971788,-0.03363261,-0.1090017,-1.43668,0.2025545,0.3670432
0.4937964,-0.211652,-0.02476862,-0.5101013,-0.03833463,-0.1439934,-1.393106,0.1928135,0.1058827
0.4442132,-0.1783903,0.07604375,-0.5608479,-0.005623451,-0.04302844,-1.2234,0.3343308,-0.0805556
0.4797329,-0.2219656,0.1441927,-0.5265244,-0.04969716,0.02529464,-0.8400852,0.5576027,-0.3478488
0.428407,-0.1454851,0.1849781,-0.5790455,0.02633576,0.06627442,-0.6217681,0.4925754,-0.6466187
0.3390214,-0.05492784,0.1837183,-0.6695929,0.1164937,0.06522535,-0.5425194,0.2689343,-0.7375018
0.3473868,-0.06524407,0.1469073,-0.6623233,0.1058208,0.02863672,-0.5681363,0.06825866,-0.6299009
0.4588477,-0.06536897,0.1203628,-0.5518608,0.1053745,0.002322673,-0.5177759,-0.009777961,-0.5597236
0.6526695,-0.09602534,0.08964393,-0.3589142,0.07442519,-0.02815982,-0.3598782,-0.003027155,-0.4408296
0.7756708,-0.09914099,0.08938957,-0.2366482,0.07103904,-0.02817247,-0.2807435,-0.05806057,-0.2000917
0.7702965,-0.1293895,0.08708441,-0.2426092,0.04053786,-0.03023034,-0.1876478,-0.04584259,-0.1206159
0.7325233,-0.2006569,0.1550155,-0.2808165,-0.0309674,0.03795355,0.02939263,-0.05856843,-0.1491042
0.6929525,-0.2139062,0.2333593,-0.3206647,-0.04444065,0.1165539,0.4769307,-0.08505822,-0.1287885
0.8502013,-0.2532171,0.06308386,-0.1635331,-0.08396005,-0.05346455,0.6028629,0.07302129,-0.0156957
1.291251,-0.3559671,-0.2091874,0.2775576,-0.1868999,-0.3254787,0.227303,0.2710328,0.3984458
1.667874,-0.521375,-0.2895139,0.6543642,-0.352472,-0.4055393,0.1474613,0.425169,0.7165669
1.645395,-0.5729578,-0.1551811,0.6321793,-0.4041811,-0.2709171,0.2785328,0.3184752,0.231574
1.534407,-0.4056539,0.07226459,0.5215563,-0.2369508,-0.04314545,0.3549575,0.117015,-0.3511027
1.743462,-0.2527221,0.2502145,0.731011,-0.08402808,0.1351713,0.382678,0.1740557,-0.1582668
1.833311,-0.1767887,0.3085817,0.8212568,-0.008035205,0.1939409,0.2293326,0.05859045,-0.08332006
1.597538,-0.1693479,0.3060487,0.5858383,-0.000468142,0.1918348,0.06961449,-0.1492413,-0.3493598
1.37257,-0.2115859,0.3084519,0.3611523,-0.04251728,0.1946769,-0.1109827,-0.2565946,-0.2381843
1.163492,-0.212022,0.2385621,0.1522623,-0.04270592,0.1252265,-0.1493202,-0.5456069,-0.2658679
1.050479,-0.2162999,0.113881,0.03933709,-0.04668052,0.0009765338,0.04113682,-0.6803256,-0.3663108
0.988621,-0.1802485,0.0257475,-0.02253397,-0.01027304,-0.0867379,0.2287026,-0.6516465,-0.1302257
0.8885377,-0.07435014,-0.03856372,-0.1227232,0.09603023,-0.1506405,0.4406394,-0.7313846,0.04203142
0.8561587,-0.006404795,-0.04115738,-0.1552907,0.1644223,-0.1528307,0.4481444,-0.7404501,0.2991511
0.7258945,0.001438645,-0.02757842,-0.2858121,0.1727438,-0.1388469,0.2450045,-0.7149194,0.4601934
0.5874049,-0.005247411,-0.008480422,-0.4246099,0.1665554,-0.1193366,0.05811054,-0.6359088,0.4081777
0.5675656,0.009950178,0.0567047,-0.4447861,0.1822587,-0.05372686,-0.07866586,-0.4313643,0.4660936
0.5328548,-0.009414961,0.05704996,-0.4798378,0.1633964,-0.05294228,-0.03782865,-0.2529293,0.3232742
0.5001082,-0.04693181,0.0537814,-0.5129041,0.1263698,-0.05575585,0.02024922,-0.1351041,0.1233519
0.4693459,-0.01974168,0.07630618,-0.5439399,0.1540293,-0.03276014,0.04905877,0.01647243,0.009466086
0.5321469,0.02211951,0.05558759,-0.4813423,0.1963315,-0.0529919,0.1151903,0.2227079,-0.1457875
0.6657897,0.08278959,0.08162083,-0.3478118,0.2574059,-0.02645624,0.1034228,0.3136389,-0.1311241
0.7606599,0.1237328,0.1166569,-0.2529481,0.2987065,0.009097087,0.06477906,0.2710512,-0.1227492
0.8305187,0.09216851,0.1203373,-0.1829815,0.2674413,0.01330754,-0.09123282,0.2189787,-0.190156
0.8002835,0.08764363,0.09291488,-0.2129914,0.2631465,-0.01357448,-0.3587706,0.07255738,-0.2327844
0.8454739,0.02514645,-0.006105092,-0.1674568,0.2008011,-0.1120453,-0.5857112,-0.0661994,-0.3168426
1.092979,-0.2584746,-0.06108422,0.08050972,-0.08275137,-0.1664652,-0.6024507,0.06144254,-0.5385899
1.362452,-0.6446717,-0.00510978,0.3505528,-0.468958,-0.1099176,-0.1327024,0.2108992,-0.854555
1.516949,-0.7803642,0.09726134,0.5057081,-0.6047194,-0.006955774,0.3562562,0.0966486,-0.8386585
1.550951,-0.5568455,0.1904354,0.5404276,-0.3813006,0.08682631,0.2901602,-0.007292186,-0.6999552
1.695833,-0.3922669,0.2911114,0.6860539,-0.2168268,0.1881228,0.1791898,-0.04052968,-0.7173342
1.895118,-0.3737651,0.3813937,0.8860722,-0.1984173,0.2790284,0.3524525,-0.09835366,-0.3429348
1.888427,-0.1603086,0.3527045,0.8800643,0.01496898,0.250952,0.3341817,0.03451889,0.2494697
1.658082,0.01729918,0.2859308,0.6503103,0.1925311,0.1847671,0.1154665,0.1225053,0.4582031
1.235047,-0.09927634,0.2666444,0.2277417,0.07592956,0.1660344,-0.01568597,-0.08576639,0.4490896
0.9827743,-0.1820674,0.2294102,-0.02420341,-0.006874576,0.1293105,-0.07086824,-0.2863943,0.5452025
0.9135867,-0.1569073,0.2146418,-0.09320012,0.01828191,0.1150032,-0.009028095,-0.3798295,0.7666269
0.6555772,-0.1799982,0.2002156,-0.3511433,-0.004804598,0.1009847,0.0005549781,-0.5374185,0.9195695
0.5005264,-0.1598655,0.134235,-0.5062314,0.01533967,0.03535583,-0.04382255,-0.7035459,0.9091921
0.5121627,-0.1353768,0.08259284,-0.4947081,0.0398459,-0.01599056,0.01821795,-0.5743195,0.7239817
0.4999841,-0.157706,0.03692605,-0.5070446,0.01753865,-0.06141506,-0.03811368,-0.2521706,0.2899875
0.5388055,-0.1419249,0.01727595,-0.4683966,0.03334419,-0.08087128,-0.1273973,-0.01733231,-0.1851705
0.4754351,-0.1583072,0.04843726,-0.5319288,0.01698736,-0.04955836,-0.1955354,0.1769553,-0.4443998
0.4029248,-0.2162154,0.0732624,-0.6045633,-0.04089537,-0.02461813,-0.1726114,0.1335189,-0.4736987
0.4198076,-0.2619798,0.1075487,-0.5877406,-0.08663355,0.009750962,0.3129313,-0.1779913,-0.3259978
0.4579275,-0.2880549,0.1218373,-0.5495911,-0.1126788,0.02409259,0.9968295,-0.6471728,-0.1158896
0.6688626,-0.2943508,0.101184,-0.3385152,-0.1189366,0.003464211,1.480248,-1.063423,0.01032821
0.8662123,-0.3222912,0.1184284,-0.1409001,-0.1468252,0.02070645,1.720312,-0.7633158,-0.03826343
0.8508158,-0.2471677,0.1636424,-0.1559026,-0.07163133,0.06589222,1.826837,-0.2877888,-0.06528023
0.8539761,-0.1481798,0.2099331,-0.152221,0.02744896,0.1121282,1.762361,-0.129774,0.1770647
1.086178,-0.2655081,0.170282,0.08062527,-0.0897644,0.07239394,1.477041,0.4290219,0.5731652
1.408534,-0.3636228,-0.01943744,0.4037366,-0.1877407,-0.1174382,1.291086,0.6953481,0.7924572
1.518579,-0.3102708,-0.1695009,0.5146284,-0.1342229,-0.2676393,1.010399,0.2906946,0.4651822
1.456945,-0.2797999,-0.08063014,0.4538995,-0.1035537,-0.1789211,0.6726351,0.1339201,-0.05642489
1.488766,-0.2416931,0.1245635,0.4866555,-0.06521281,0.02611607,0.7496788,0.01597054,-0.07897645
1.665478,-0.1864407,0.2225568,0.6643002,-0.009689567,0.1239534,0.8835905,-0.01050854,0.08727701
1.738577,-0.1723098,0.2450539,0.7382981,0.004747664,0.1462927,0.8870992,0.1507322,0.08465414
1.607922,-0.1261901,0.2190305,0.608473,0.05120583,0.1201042,0.7527564,-0.08961083,-0.01709642
1.388441,-0.05087797,0.1553012,0.3897236,0.1268836,0.05619716,0.4022264,-0.3189178,-0.2109684
1.096915,-0.069991,0.1638987,0.09881154,0.1081561,0.06460083,0.2684177,-0.4093835,-0.205571
0.8923395,-0.1476947,0.1580609,-0.1052745,0.03085031,0.05855138,0.5293804,-0.5778422,-0.002794508
0.775999,-0.1759817,0.1147602,-0.2212426,0.002968084,0.01502017,0.94014,-0.5336182,0.2156834
0.6578877,-0.1561084,0.06438926,-0.3390835,0.02324993,-0.03559972,1.169954,-0.4669,0.4087268
0.6647155,-0.08678533,-0.004584694,-0.3320669,0.09298264,-0.1048383,1.159877,-0.3462844,0.3635441
0.6503296,-0.002003341,0.02238488,-0.3463234,0.1781707,-0.07814412,1.134227,-0.1376243,0.265925
0.5521319,0.07374546,0.03641569,-0.4444291,0.254314,-0.06439369,1.090143,-0.1211931,0.2695639
0.4974445,0.123887,0.003215883,-0.4990386,0.3048276,-0.09787367,0.8804029,-0.1166005,0.2790544
0.4770219,0.08727177,0.03827129,-0.5193729,0.2685485,-0.06309344,0.4720727,-0.03595031,0.3309768
0.5608746,0.01719269,0.07164122,-0.4353971,0.1987576,-0.02998959,0.2193025,0.08908566,0.230747
0.6690968,-0.02937102,0.09782732,-0.3269961,0.1524247,-0.004057916,0.2845865,0.07094065,0.06041284
0.6906623,-0.04100126,0.01800649,-0.3051804,0.1409619,-0.08412007,0.1770648,-0.2489701,0.03286148
0.7670131,-0.08902312,-0.1246847,-0.2284974,0.0930409,-0.2270364,-0.2579736,-0.4205101,-0.03372167
0.9844102,-0.309492,-0.06390036,-0.01068047,-0.1273939,-0.1664545,-0.4790736,-0.1482642,-0.2767068
1.318499,-0.5571137,0.1317647,0.3239131,-0.3750416,0.02903778,-0.05731428,0.1301335,-0.630037
1.654166,-0.6236201,0.2762973,0.6601528,-0.4416174,0.1734285,0.4632731,-0.1123068,-0.7321404
1.813008,-0.5119244,0.2589074,0.8196046,-0.3300123,0.155922,0.3602073,-0.3587721,-0.5898632
1.88546,-0.3912029,0.2061919,0.8926632,-0.2093825,0.1031063,0.121093,-0.2005277,-0.5224649
1.994136,-0.4264483,0.2887907,1.001897,-0.2447052,0.1856132,0.2066952,-0.1939315,-0.2371147
1.853319,-0.4265621,0.2772166,0.8615436,-0.2448704,0.1739474,0.3605597,-0.06559382,0.1828336
1.399066,-0.3081933,0.2218109,0.4076219,-0.1265171,0.118442,0.5862634,0.2633238,0.2933547
1.028281,-0.2286471,0.2688562,0.03701123,-0.04694391,0.1653726,0.6012276,0.1652143,0.3141821
0.8918818,-0.1274698,0.2153408,-0.09937103,0.05430414,0.1117215,0.3512228,-0.0618652,0.4044655
0.807376,-0.05936701,0.1782549,-0.1840072,0.122518,0.07447421,0.2697379,-0.2269598,0.4578167
0.6562986,-0.07841309,0.1945189,-0.3353436,0.1036163,0.09054814,0.09526957,-0.3374759,0.4114211
0.5704063,-0.08378585,0.1318526,-0.4216001,0.098413,0.02766164,-0.01834494,-0.1837561,0.2833407
0.4945778,-0.09230928,0.1023063,-0.4978703,0.09007662,-0.002134957,0.1399866,-0.05407536,0.1632025
0.3068792,-0.08899894,0.05653234,-0.6860568,0.09358486,-0.04818713,0.1367593,-0.05459253,-0.02606175
0.2290048,-0.1076078,0.01820156,-0.7644303,0.07517876,-0.08682002,0.1812587,-0.09237325,-0.1685298
0.2233027,-0.164226,0.03116171,-0.7706039,0.01876327,-0.07418015,0.3342543,-0.2231971,-0.1581469
0.3045962,-0.205362,0.005427743,-0.6897166,-0.0221729,-0.1002463,0.5275154,-0.392473,-0.1735641
0.5934483,-0.2624261,0.01792414,-0.4011734,-0.07904027,-0.08808773,0.8622581,-0.5806033,-0.1842329
0.826843,-0.3049579,0.05335997,-0.1679691,-0.1213761,-0.05298954,1.133907,-0.5985862,-0.1855119
0.9296313,-0.311939,0.0781368,-0.06524498,-0.1281577,-0.02854571,1.456962,-0.3784232,-0.1985304
0.9882772,-0.2885106,0.06889629,-0.006538913,-0.104521,-0.0381116,1.619424,-0.0444282,-0.07118901
1.210605,-0.2495077,0.007487792,0.2159652,-0.06529654,-0.09983527,1.444129,0.4625619,0.1792635
1.460914,-0.2397731,-0.009116981,0.4665515,-0.0553242,-0.1167412,1.269888,0.6556028,0.3225458
1.379449,-0.258606,0.008214391,0.3854407,-0.0739015,-0.09969223,0.9975774,0.3674655,0.2193671
1.456294,-0.2814471,0.1198468,0.462689,-0.09646765,0.01168078,0.7476672,0.2913881,0.1216522
1.789028,-0.2289649,0.2578758,0.795847,-0.04368925,0.149474,0.8659186,0.2909006,0.1285684
1.861054,-0.1037375,0.2705527,0.868282,0.08185577,0.1619341,0.9888008,0.2095995,0.01988151
1.606581,0.01288086,0.3074512,0.614164,0.1988093,0.1986265,0.6642069,0.2389127,-0.04126849
1.262142,-0.01486629,0.328347,0.2699929,0.1714066,0.2193174,0.2668842,0.05649411,0.03047248
1.244731,-0.2049531,0.2786794,0.2527454,-0.01833566,0.1694364,0.2295489,-0.1425994,0.06277638
1.282155,-0.2890987,0.2500951,0.2902177,-0.1021414,0.1406217,0.4692107,-0.2434752,0.1392316
1.050995,-0.2670905,0.14929,0.05898848,-0.07979664,0.0395633,0.8890561,-0.4057115,0.2423612
0.9548637,-0.2420605,0.07283946,-0.03733095,-0.05443014,-0.03716541,1.114021,-0.4528595,0.3681829
0.8286775,-0.1481486,0.07093916,-0.1638152,0.03982029,-0.03936683,1.106214,-0.5498385,0.5773166
0.5852694,-0.05859086,0.003260077,-0.4076165,0.1297174,-0.1073656,1.169206,-0.5738151,0.6385136
0.5903479,-0.02277345,-0.006651611,-0.4030045,0.1658701,-0.1176095,1.130841,-0.4249977,0.5679614
0.6382477,-0.03270425,0.04200634,-0.3556187,0.1562629,-0.06928935,1.057938,-0.3350977,0.4901447
0.5711336,0.004543982,0.01971882,-0.4232697,0.1938147,-0.09191409,0.963509,-0.1452843,0.3229474
0.5614974,0.03753541,0.02046187,-0.4334419,0.2270809,-0.09150229,0.7558951,0.03947601,0.2178092
0.5627043,0.01077676,0.04574752,-0.4327471,0.2005592,-0.06653705,0.5526765,0.1462958,0.1823598
0.5010712,0.09247299,0.07516432,-0.494846,0.2824453,-0.03742581,0.2827194,0.2295398,0.07391496
0.5215162,0.1099368,0.1367762,-0.4747988,0.3000419,0.02389758,0.1175947,0.1406118,0.01229825
0.6435978,0.1016946,0.1279201,-0.3530269,0.291865,0.01477009,0.01560836,0.01304568,0.007617533
0.8048303,0.2088443,0.1032505,-0.1920013,0.3990012,-0.01015454,-0.2960677,-0.06708893,0.002015294
0.969262,0.1644622,0.119735,-0.02766667,0.354515,0.006090354,-0.5610566,0.01101305,0.0123826
0.9243988,0.02347626,0.04419878,-0.07251785,0.2133234,-0.06966999,-0.5639447,0.1554384,-0.03048383
0.8639903,-0.2067182,-0.05399262,-0.1328091,-0.01718392,-0.1680682,-0.473201,0.05598105,-0.1949581
1.010618,-0.5176286,-0.05508992,0.01403714,-0.3285095,-0.1693501,-0.3367055,-0.01937067,-0.4454516
1.198891,-0.6382703,0.003528081,0.2026235,-0.4496521,-0.1108877,0.05502113,0.008965333,-0.5444581
1.566173,-0.6178369,0.1039944,0.5702987,-0.4297796,-0.01054329,0.4163919,-0.005591414,-0.4270269
1.837375,-0.5603149,0.2081733,0.8419466,-0.3728512,0.09354823,0.4329494,0.07134635,-0.3811115
1.753013,-0.5088594,0.2988156,0.7580443,-0.3219974,0.1841332,0.5956611,0.1010485,-0.3590454
1.782977,-0.4294598,0.3972396,0.7884409,-0.2431876,0.282521,0.9901349,0.03579454,-0.1728147
1.792527,-0.249404,0.4303329,0.7983551,-0.06369516,0.3155859,1.114448,0.02003866,0.03293457
1.558166,-0.0625421,0.3382088,0.5642557,0.1226365,0.2234266,0.8893361,0.02393176,0.2109903
1.301392,0.02729955,0.2571457,0.3076134,0.2119793,0.1423089,0.5481744,0.02173253,0.391079
1.005729,-0.0236496,0.2872399,0.01193897,0.1605547,0.1723204,0.2116028,-0.08259922,0.6116469
0.7667331,-0.05073903,0.291905,-0.2272081,0.1330038,0.1768684,-0.05522631,-0.3182572,0.8221326
0.6095661,-0.06739951,0.2418452,-0.384652,0.1158885,0.1266513,-0.1062741,-0.528098,0.7608457
0.5328629,-0.158761,0.1998373,-0.4617328,0.02407335,0.08444192,-0.06624944,-0.5326305,0.5401821
0.60588,-0.1441326,0.1393482,-0.3891653,0.03824682,0.0237052,-0.07865633,-0.2873972,0.2825208
0.5840785,-0.1362284,0.1245373,-0.4114605,0.0456937,0.008601938,-0.03758785,-0.0472438,-0.03637677
0.4605319,-0.1516058,0.1342824,-0.5355182,0.0298562,0.01801246,-0.03457831,-0.02117082,-0.1507392
0.3482654,-0.1313872,0.09082881,-0.6482857,0.04961129,-0.02581427,-0.03180314,-0.1303874,-0.1482832
0.2835532,-0.1895261,0.07615304,-0.7134578,-0.00899476,-0.04089768,0.1535392,-0.2680705,-0.1408923
0.4125591,-0.2016852,0.08120967,-0.5848389,-0.02162391,-0.0362781,0.4155982,-0.4827054,-0.07456046
0.6194094,-0.2353442,0.06165835,-0.3782753,-0.05575389,-0.05629055,0.6824748,-0.7128382,-0.1043921
0.8225557,-0.2935667,0.06761952,-0.1752975,-0.1144445,-0.05080918,1.000571,-0.6792176,-0.0767262
0.9355549,-0.2655187,0.0899056,-0.06234166,-0.08685664,-0.02901642,1.252048,-0.455699,-0.01716705
0.8862098,-0.256219,0.107566,-0.1116064,-0.0780038,-0.01185856,1.310598,-0.1776107,-0.04710726
0.7451616,-0.0830786,0.01766099,-0.2267188,0.07978803,-0.1167224,-0.219325,-0.4807402,0.4808157
0.652112,-0.05666855,0.003102056,-0.3198762,0.1064054,-0.1323073,-0.1583316,-0.5605881,0.5366069
0.6012069,-0.09137594,-0.09100267,-0.3709739,0.07190594,-0.2274267,-0.1911567,-0.3612687,0.5139777
0.6757769,-0.1026385,-0.04456388,-0.2966578,0.06084686,-0.1819804,-0.01016341,-0.2034284,0.4144913
0.6956049,-0.08489292,-0.04042879,-0.2771232,0.0787876,-0.1788048,0.05092638,0.07614796,0.2146741
0.4868525,-0.003428996,-0.03592105,-0.486188,0.1604341,-0.1752136,-0.01788415,0.256414,0.1791903
0.3547757,0.1018286,0.04591546,-0.6185736,0.2658554,-0.09424262,-0.2394451,0.2157828,0.1578421
0.4468209,0.06793025,0.09485113,-0.5268062,0.2320926,-0.04611622,-0.7104304,0.3792586,0.0007057933
0.5990414,0.04241595,0.2303099,-0.3748063,0.2066753,0.08859103,-0.8586595,0.3839487,-0.1394114
0.6671842,0.08756039,0.2856775,-0.3068071,0.251869,0.1432614,-0.8950476,0.06541711,-0.1441969
0.7504413,0.09578185,0.1464807,-0.2236036,0.2600831,0.003415714,-1.19507,-0.1874108,-0.1036358
0.9398532,0.06746587,0.02993614,-0.03414899,0.2316946,-0.113734,-1.364477,-0.07309316,-0.2192924
1.04515,-0.1427218,0.002329776,0.07128593,0.02136294,-0.1419012,-1.340896,0.451727,-0.5193319
1.193496,-0.5485356,0.0666224,0.2198583,-0.3846648,-0.0781213,-0.953325,0.7233614,-0.8208373
1.396656,-0.6927606,0.2069044,0.4233175,-0.5291593,0.06169864,-0.4443375,0.3005659,-0.7861356
1.384674,-0.4763524,0.3439715,0.4116853,-0.3130515,0.1983518,-0.5375554,-0.3536064,-0.5200413
1.472635,-0.3595991,0.3821348,0.5000221,-0.1966066,0.236141,-0.7970644,-0.4891418,-0.4621239
1.788731,-0.3579315,0.3408573,0.8164905,-0.1952394,0.1945172,-0.7446149,-0.2064587,-0.3951338
1.884944,-0.2723368,0.3238189,0.913038,-0.1099264,0.1771484,-0.6346014,0.04729031,-0.03373951
1.65735,-0.2286652,0.2690951,0.6857011,-0.06651099,0.1221005,-0.4559188,0.4611271,0.3518061
1.300279,-0.2054817,0.2088883,0.3287766,-0.0435542,0.0615689,-0.3814641,0.5567126,0.3707716
0.9566865,-0.1411047,0.2499708,-0.01479728,0.02062663,0.1023213,-0.548062,0.2372982,0.2047883
0.7733367,-0.1304446,0.2672646,-0.198257,0.0311201,0.1192764,-0.6577374,0.1414444,0.3821345
0.6950657,-0.1343898,0.244997,-0.2767529,0.02703539,0.09665766,-0.7570017,-0.1250903,0.5475649
0.5819537,-0.1177693,0.2426745,-0.3901839,0.04354021,0.09396815,-0.7673129,-0.3919824,0.548693
0.5474496,-0.1021034,0.1849927,-0.4250765,0.05911096,0.03590071,-0.6336518,-0.2828657,0.6403625
0.5772598,-0.06618092,0.1223434,-0.3956981,0.09495473,-0.02715318,-0.6518494,-0.1996357,0.4115906
0.5510664,-0.0566063,0.1075048,-0.4223412,0.1044623,-0.04241359,-0.6607344,0.005047098,0.03266887
0.5355446,-0.07181859,0.1040736,-0.4383065,0.08918904,-0.04627977,-0.7015216,0.2190461,-0.2541973
0.486161,-0.1169729,0.1010229,-0.4881044,0.04397498,-0.04977437,-0.8094953,0.1903402,-0.4191917
0.4379274,-0.2426965,0.08538825,-0.5366999,-0.08180985,-0.06585736,-0.6023456,0.07430742,-0.2593009
0.5553043,-0.3427221,0.1061482,-0.4196101,-0.1818965,-0.04554584,-0.1284799,-0.3498964,-0.1785469
0.7754728,-0.3786993,0.1414733,-0.1996355,-0.2179282,-0.01066554,0.4470379,-0.8024348,-0.1030302
0.9706295,-0.4029774,0.1171217,-0.004570119,-0.2422448,-0.03545557,0.7195682,-0.4395472,0.005859268
1.094827,-0.3881896,0.05905668,0.1196374,-0.227469,-0.09395012,0.5658504,0.3423459,-0.006007839
1.225521,-0.3349657,-0.01636729,0.2504321,-0.1742208,-0.1697905,0.5127727,0.5773712,0.2475604
1.343774,-0.2397402,-0.05191245,0.3688609,-0.07892762,-0.2057321,0.3870444,0.5359208,0.3043126
1.319291,-0.1728222,-0.02636186,0.3446077,-0.01189539,-0.1805493,0.007994108,0.5020464,0.01867748
1.372111,-0.2342529,0.01301301,0.3976886,-0.07316575,-0.1415053,-0.2080164,0.3234257,-0.09384896
1.56831,-0.2889485,0.1237175,0.5941571,-0.1276556,-0.03108857,-0.06072217,0.2101899,-0.1214474
1.611649,-0.1878363,0.2408064,0.6377461,-0.02629194,0.08575722,0.1435654,0.1341006,-0.1286623
1.48296,-0.05297546,0.2371347,0.509258,0.1088646,0.08188383,-0.09933341,0.104355,-0.1775852
1.32454,-0.01542416,0.2108392,0.3509672,0.1467503,0.05542207,-0.4228189,0.05663147,-0.1463523
1.268869,-0.03422555,0.2150882,0.2953338,0.1283126,0.05953468,-0.5169185,-0.02513895,-0.05229514
1.191756,-0.0608179,0.1887845,0.2181555,0.1021035,0.03311964,-0.6718184,0.03962655,-0.0817253
0.941579,-0.067434,0.1492368,-0.03219179,0.09588155,-0.006517942,-0.6161595,-0.07025711,0.05489752
0.8273854,-0.06748163,0.1031618,-0.1466586,0.09623196,-0.05266327,-0.4758281,-0.182634,0.2248605
0.8318342,-0.05715604,0.04797838,-0.1425744,0.106953,-0.1078971,-0.4566119,-0.1382762,0.2603389
0.7691949,-0.002787525,0.03586512,-0.205655,0.1617079,-0.1200382,-0.3409566,-0.1383548,0.2530283
0.7231099,0.03806525,0.08326354,-0.2522418,0.2029304,-0.07264133,-0.3825661,0.003529381,0.1585734
0.5937322,0.07316661,0.1284645,-0.3821638,0.2383758,-0.02741303,-0.4275911,0.05392141,0.1487475
0.5218572,0.09305532,0.1234773,-0.4546046,0.2585726,-0.03234322,-0.4444341,0.08192071,0.1534188
0.6139953,0.05876954,0.1204169,-0.3630304,0.2245482,-0.03531731,-0.7140172,0.2864025,0.1235956
0.6527688,0.04678762,0.1385167,-0.3247972,0.2127714,-0.01710289,-0.873107,0.4131736,0.09693941
0.6965838,0.01974195,0.1117258,-0.281481,0.1858669,-0.04375143,-0.8972741,0.4292175,-0.01652971
0.7704248,-0.02524391,0.04751039,-0.2080835,0.1409523,-0.1077973,-0.9493093,0.1782171,-0.0859023
0.8072711,-0.07508891,-0.01103281,-0.1716157,0.09110537,-0.166142,-1.01503,-0.09472931,-0.1940004
0.9652618,-0.3433041,-0.02672944,-0.01393274,-0.1771843,-0.181607,-1.088915,-0.0310391,-0.3628052
1.23624,-0.7050323,-0.01337709,0.2568075,-0.5390497,-0.1679845,-0.9254132,0.278865,-0.5294718
1.319157,-0.7140605,0.00277645,0.3395462,-0.5482561,-0.151517,-0.5101645,0.5788167,-0.6773877
1.335634,-0.5504417,0.1536332,0.3558859,-0.3848285,-0.0002990845,-0.1125365,0.4080429,-0.5747461
1.531181,-0.5193848,0.3302181,0.5513174,-0.3539504,0.1766925,-0.1343026,0.1081516,-0.4035086
1.556598,-0.3239848,0.2940171,0.576614,-0.1586983,0.140936,-0.4013665,0.01993887,-0.3302358
1.588457,-0.1636234,0.2760003,0.6083208,0.001556614,0.1233908,-0.3497337,-0.1147406,-0.2965421
1.820586,-0.3374705,0.3577334,0.8402382,-0.1723519,0.2056114,-0.2410309,0.03725737,-0.2855275
1.61453,-0.3725536,0.3220998,0.6338773,-0.2074487,0.1704707,-0.1433863,0.2890564,0.02794302
1.223642,-0.284349,0.282719,0.2425677,-0.1192054,0.1315772,0.009211911,0.161844,0.4595418
1.010128,-0.2426427,0.2840449,0.02850083,-0.07740401,0.133376,-0.1017032,0.03096083,0.5718608
0.6952771,-0.06556139,0.2159695,-0.287031,0.09982889,0.06575232,-0.3397228,-0.03625853,0.5438895
0.6144905,0.02165473,0.1770557,-0.3686085,0.1872477,0.02726436,-0.7110799,-0.1050276,0.4981809
0.6667741,-0.02204381,0.1689757,-0.3172016,0.1437928,0.01958216,-0.9684737,-0.03345429,0.3982551
0.5258896,-0.02240512,0.136009,-0.4590219,0.1437045,-0.01301499,-0.8774665,0.03678453,0.2650064
0.4875954,-0.03122948,0.1020183,-0.4982834,0.1351718,-0.0466633,-0.9790162,0.1560069,0.06939094
0.4141557,-0.09341349,0.02968819,-0.5726927,0.07328921,-0.1186754,-1.137783,0.2207404,-0.1282871
0.2763149,-0.1846657,-0.01543529,-0.7114744,-0.01765812,-0.1635001,-1.085008,0.03620229,-0.1788013
0.35039,-0.2284158,0.009210549,-0.6382788,-0.06110254,-0.1385673,-0.7865161,-0.2231294,-0.1203306
0.5602337,-0.3077729,0.04225276,-0.4292226,-0.1401522,-0.1052428,-0.1834004,-0.4681011,-0.1187673
0.805169,-0.4011162,0.09394609,-0.1849608,-0.2331816,-0.05326594,0.1992134,-0.3833392,-0.1152178
0.8568229,-0.3532991,0.1379954,-0.1338562,-0.1850368,-0.008928798,0.4643046,-0.06966178,-0.08404574
0.8044505,-0.2618635,0.1312217,-0.1866509,-0.09325182,-0.01540957,0.6527623,0.1494383,0.001218076
1.088748,-0.1858649,0.03488024,0.09735019,-0.01687789,-0.1114525,0.380579,0.6853408,0.2698191
1.470122,-0.164441,-0.08451303,0.4785446,0.004947752,-0.230539,0.09273913,0.9767026,0.4132623
1.577568,-0.2294337,-0.04772631,0.5859057,-0.05961851,-0.1934307,-0.2687844,0.6612343,0.1386936
1.596802,-0.2409964,0.1003252,0.6051183,-0.07073157,-0.04503542,-0.5799521,0.5937391,-0.1623466
1.73182,-0.1768715,0.2649274,0.7401422,-0.006134099,0.1199354,-0.3010427,0.5277958,-0.15832
1.832342,-0.07473531,0.3962668,0.8406616,0.09649581,0.2516636,-0.2180534,0.4213842,-0.181158
1.655123,0.02878802,0.3854556,0.6633922,0.2005286,0.2412505,-0.5882003,0.544013,-0.3498183
1.346666,0.02581209,0.3684503,0.354805,0.1980683,0.224639,-0.8543262,0.3515183,-0.3699845
1.141193,-0.02389824,0.4025211,0.1491015,0.1488687,0.2590863,-0.976945,0.09400053,-0.2643735
1.01427,-0.03901512,0.3041053,0.02184218,0.1342476,0.1610178,-0.8615138,-0.06761034,-0.0573809
0.9257085,-0.06013103,0.1764836,-0.06715938,0.1136048,0.03370572,-0.7300122,-0.2258956,0.1608456
0.8134676,-0.02559484,0.1049428,-0.179933,0.1485851,-0.03756653,-0.6892591,-0.1724205,0.280324
0.7221107,0.04948193,0.04144382,-0.271901,0.2240705,-0.100836,-0.5714514,-0.220164,0.467363
0.7028946,0.06412189,0.05188622,-0.2917882,0.2390755,-0.09019797,-0.6188877,-0.1880657,0.5262621
0.6201468,0.08256463,0.02296851,-0.3752465,0.2578303,-0.1189473,-0.7116255,-0.01124918,0.4548382
0.5334532,0.1221595,-0.05936007,-0.4626674,0.2976743,-0.2011271,-0.8255694,0.0002286795,0.4636834
0.5481564,0.1324201,-0.05030209,-0.4486843,0.3081107,-0.1919311,-1.145482,0.2001806,0.3245731
0.6118679,0.1311488,0.0278199,-0.3856615,0.3069313,-0.1136722,-1.389396,0.4704039,0.1116207
0.6818189,0.1263119,0.1103972,-0.3163472,0.3020925,-0.03095214,-1.553838,0.5295101,-0.04351406
0.7016564,0.1201717,0.08374447,-0.2970778,0.2958477,-0.05745244,-1.735134,0.4439946,-0.1990599
0.750392,0.08284422,0.02087902,-0.2488294,0.2583055,-0.1201538,-1.942285,0.2872152,-0.3045855
0.8208876,0.01555712,0.01338956,-0.1787307,0.1906882,-0.1274644,-2.132371,0.2544397,-0.3860074
0.8654108,-0.1599131,-0.1033991,-0.1345087,0.0147709,-0.2440543,-2.019274,0.2577912,-0.4244405
1.181036,-0.6612669,-0.2454473,0.1809117,-0.4871397,-0.3858751,-1.804424,0.509185,-0.68041
1.575743,-1.11592,-0.2305478,0.5754995,-0.9424361,-0.3707072,-1.565255,0.8612724,-1.228404
1.537059,-0.9348282,-0.08351707,0.5367603,-0.7620325,-0.2233529,-1.222502,0.5070129,-1.389524
1.495806,-0.5908976,0.07707941,0.4954846,-0.4187922,-0.06236822,-1.282912,-0.03655286,-0.8953648
1.716689,-0.4900294,0.1199673,0.7163471,-0.318583,-0.01902523,-1.550965,-0.08667118,-0.3576056
1.776301,-0.3101432,0.1334081,0.7759091,-0.1393047,-0.005065502,-1.643555,0.01979248,-0.312944
1.826542,-0.2583315,0.1989606,0.826035,-0.0880398,0.06106416,-1.762185,0.2440725,-0.4027115
1.724402,-0.2689189,0.2254768,0.7236794,-0.09910878,0.0882084,-1.773246,0.5345561,-0.1580843
1.253758,-0.1108809,0.2021238,0.2526908,0.05851359,0.06552574,-1.833487,0.6185146,0.09798183
1.083472,-0.1763175,0.1685239,0.08191609,-0.007275002,0.03262996,-2.036986,0.5629814,0.1622101
1.04796,-0.2109965,0.1500497,0.04577318,-0.04224604,0.01488665,-2.076299,0.538514,0.2431559
0.8176546,-0.1562328,0.1510203,-0.1852972,0.01228259,0.01660951,-2.048717,0.5609957,0.3397872
0.7046148,-0.2605558,0.1381523,-0.29922,-0.09222082,0.004510661,-1.921146,0.5301901,0.3015919
0.5090069,-0.1854647,0.09894623,-0.4958056,-0.01725712,-0.03391289,-1.779757,0.5300518,0.1641664
0.3871819,-0.1200663,0.08678028,-0.618673,0.04806527,-0.04528535,-1.732744,0.6121396,0.0221138
0.4508422,-0.08498661,0.1325875,-0.556085,0.08311625,0.001324796,-1.642741,0.6674276,-0.1996693
0.4357038,0.05207649,0.1640338,-0.5722908,0.2201907,0.03358158,-1.684239,0.7014275,-0.3875951
0.4820912,0.02638648,0.1552077,-0.5269344,0.1945416,0.02557002,-1.700908,0.6309665,-0.4935242
0.47562,-0.0001940012,0.1489911,-0.5343714,0.1680199,0.02016827,-1.645086,0.5340503,-0.6021246
0.4546715,-0.08425794,0.1487894,-0.5561949,0.0840221,0.02077839,-1.657844,0.4962159,-0.5901566
0.5249766,-0.2427748,0.1423546,-0.4866506,-0.07442767,0.0151491,-1.432755,0.264921,-0.5593245
0.565751,-0.2780177,0.1344598,-0.4465024,-0.1096033,0.008050937,-0.9734489,-0.1052049,-0.4173168
0.7372304,-0.3226547,0.1252606,-0.2754994,-0.1541692,-0.0003624749,-0.4250445,-0.2525301,-0.09212209
0.9338168,-0.3641983,0.0544695,-0.07923125,-0.1956312,-0.07038,-0.06887204,0.0382472,0.03312153
1.072593,-0.4000783,-0.125229,0.05938345,-0.2314113,-0.2493153,-0.08877747,0.4723768,0.1641456
1.313052,-0.4230136,-0.2920324,0.2998271,-0.2542191,-0.4153584,-0.1596048,0.6089831,0.3186145
1.614928,-0.5076973,-0.2622452,0.6018124,-0.3387371,-0.3847998,-0.2125149,0.6094208,-0.0593919
1.820927,-0.6259283,-0.07427395,0.8080137,-0.4567517,-0.1960308,-0.1329808,0.6089562,-0.5775647
1.860412,-0.397954,0.1565336,0.8477514,-0.2284959,0.03561068,0.07324151,0.5970588,-0.6596923
1.889235,-0.07270108,0.3538301,0.8768326,0.09711294,0.2337764,0.05902612,0.5812016,-0.5805522
1.696944,-0.001283697,0.3337347,0.6847599,0.1689586,0.2145751,-0.2715077,0.3068069,-0.5396149
1.209559,0.01613016,0.2564722,0.1975191,0.1868618,0.1382177,-0.7658719,-0.0674269,-0.4660576
1.023316,-0.01112939,0.3187346,0.01132952,0.1601384,0.2013832,-0.8551142,-0.3114026,-0.3219224
1.076247,-0.1089108,0.2409983,0.06421872,0.06292681,0.1245369,-0.5718177,-0.5356371,-0.02982866
1.000723,-0.1303817,0.1172922,-0.01143744,0.04204958,0.001699002,-0.4553366,-0.5323185,0.1871634
0.9511938,-0.07506871,0.1028053,-0.06118148,0.09797316,-0.01194586,-0.2975098,-0.3644485,0.2049099
0.8995165,-0.02923158,0.01265366,-0.1131493,0.1444307,-0.1012821,-0.1980172,-0.3411567,0.2108523
0.7755029,-0.01031205,-0.02177283,-0.2375175,0.1639721,-0.1349171,-0.2574101,-0.2800533,0.070226
0.6483799,-0.03824169,-0.01367623,-0.365044,0.1366565,-0.1260477,-0.122501,-0.2227312,-0.08361533
0.4831654,-0.08687188,-0.05287331,-0.5306904,0.0886241,-0.1644849,-0.02379493,-0.2378063,0.004723335
0.386345,-0.09421519,-0.02146772,-0.6279451,0.08185588,-0.1323259,-0.01714176,-0.04314584,0.05572915
0.4525492,-0.1016878,0.008406479,-0.5621477,0.07493104,-0.1016994,0.01710691,0.1311604,0.02990977
0.5840467,-0.09161144,0.05078879,-0.431001,0.08552432,-0.05856168,-0.03650194,0.1002898,0.01197259
0.725739,-0.0355363,0.08272599,-0.2895817,0.1420817,-0.02586426,-0.04926503,-0.004569485,-0.04093326
0.8275269,-0.03869574,0.02739807,-0.1879751,0.1393652,-0.08042673,-0.1554477,-0.212748,-0.05829899
0.8982183,-0.2368288,-0.04116773,-0.1173665,-0.05836815,-0.1482209,-0.4460481,-0.2463692,-0.1921896
1.074967,-0.5171441,-0.1078347,0.05939865,-0.3383253,-0.2141068,-0.5583773,-0.07982006,-0.5046147
1.245624,-0.5212564,-0.01255858,0.230164,-0.3421098,-0.1180345,-0.331553,-0.03675096,-0.6992192
1.315206,-0.3676335,0.2019749,0.2999334,-0.1881736,0.09731363,-0.03608651,-0.1990259,-0.6580899
1.479845,-0.3809655,0.2531301,0.4648175,-0.2011927,0.1492992,-0.00998483,-0.5497445,-0.570494
1.668743,-0.4424343,0.2611415,0.6539956,-0.2623386,0.1581483,-0.06756438,-0.7744209,-0.5252133
1.766677,-0.4686558,0.3088296,0.7522109,-0.2882165,0.2066706,0.03928226,-0.6723696,-0.44085
1.740482,-0.3825418,0.2868788,0.7262627,-0.2017275,0.1855395,0.2370467,-0.2445448,-0.1583554
1.531568,-0.1872344,0.2560265,0.5175273,-0.006005826,0.1554812,0.3984506,0.2977568,0.3137398
1.379389,-0.1360134,0.2392129,0.3654312,0.04567034,0.139427,0.136832,0.3211251,0.530969
1.168397,-0.1042091,0.2211761,0.1544115,0.07796653,0.1221078,-0.3637192,0.009381871,0.4761779
0.7564128,0.001882393,0.2130747,-0.2577154,0.1845791,0.1146763,-0.5294112,-0.1010733,0.543491
0.6032454,-0.02901741,0.2089931,-0.4111296,0.1542195,0.1112124,-0.5617887,-0.2274076,0.5706618
0.6793102,-0.1170913,0.2145246,-0.335393,0.06669474,0.1173055,-0.511357,-0.3265027,0.5336028
0.6216636,-0.1592186,0.1910399,-0.3934239,0.02511767,0.09432325,-0.3102908,-0.2112751,0.5647048
0.5545,-0.1769647,0.1375737,-0.461003,0.007918522,0.0412981,-0.2664921,-0.1112268,0.3943439
0.5557078,-0.1486807,0.09731732,-0.4602169,0.03674353,0.001421157,-0.2786644,-0.04698269,0.05520933
0.4318447,-0.139025,0.07035606,-0.5844821,0.04693207,-0.02522004,-0.2934046,0.03097593,-0.1969597
0.3322953,-0.1789611,0.0251785,-0.6843868,0.007517858,-0.07013285,-0.3080738,-0.03906411,-0.2500542
0.4018397,-0.2129528,-0.03349059,-0.6151215,-0.02596448,-0.1285865,0.0093105,-0.2759296,-0.1570061
0.4276305,-0.2651295,-0.01787989,-0.5895061,-0.07764437,-0.1128021,0.5236013,-0.4468827,-0.1488199
0.5847294,-0.4046124,0.02504478,-0.432455,-0.21664,-0.06973713,0.9438852,-0.3161836,-0.1684113
0.8392859,-0.5332586,-0.01275919,-0.1778033,-0.3448013,-0.1074272,1.374706,-0.05059078,-0.05209549
0.8981886,-0.496201,-0.06282795,-0.1186565,-0.3072486,-0.1574017,1.675063,0.2170237,0.2094229
1.097021,-0.361166,-0.09598439,0.08056536,-0.1716955,-0.1904756,1.461524,0.5792652,0.492551
1.407071,-0.2274116,-0.1018525,0.3911383,-0.03739143,-0.1962634,0.9948242,0.5966194,0.465654
1.527972,-0.137194,-0.03245386,0.5126727,0.05340958,-0.1267775,0.7295357,0.2984197,0.2323352
1.683427,-0.1683459,0.1199825,0.6688387,0.02287124,0.02575955,0.5971513,0.2645391,0.1031709
1.784556,-0.1590923,0.3199444,0.7707195,0.03276319,0.2258362,0.6429898,0.1386521,-0.003719777
1.556015,-0.004012119,0.3802104,0.5429311,0.1885005,0.2862237,0.5920569,-0.09899382,-0.09920006
1.314701,0.05038387,0.3429268,0.3023361,0.2435631,0.2490558,0.1662536,-0.06832878,-0.1722656
1.327413,-0.01234113,0.3658603,0.3157108,0.1815019,0.272086,-0.01681207,-0.1797343,-0.1077111
1.336804,-0.07315764,0.2936869,0.3256939,0.1213347,0.1999779,0.125531,-0.3384177,0.1505843
1.183808,-0.134506,0.1860038,0.1732065,0.06061249,0.0923195,0.2749262,-0.2490841,0.2646498
0.9572508,-0.1315735,0.147369,-0.05293281,0.06414283,0.05366404,0.4486205,-0.2214268,0.3568815
0.754206,-0.09867518,0.07050513,-0.2556466,0.0976074,-0.02326652,0.5596932,-0.2971839,0.4833629
0.6097591,-0.05900739,0.0311185,-0.3998371,0.137806,-0.06276314,0.6480074,-0.3497324,0.3996727
0.4975599,-0.01616539,0.02092334,-0.5118333,0.1811385,-0.07310634,0.6522909,-0.3978884,0.4070515
0.4761456,-0.04022515,-0.02427598,-0.5330721,0.1575227,-0.118485,0.578508,-0.3904927,0.4326841
0.4998356,-0.08776575,-0.04744513,-0.5092064,0.1103734,-0.1418571,0.4603036,-0.1675925,0.3312107
0.464816,-0.1298027,-0.02744144,-0.5440236,0.06867109,-0.1220713,0.2491438,0.1946462,0.2813728
0.4755356,-0.1182706,0.04360691,-0.5330502,0.08047946,-0.05124797,0.1847105,0.311852,0.09530631
0.5712798,0.007118761,0.09381581,-0.4369782,0.2060851,-0.001265746,0.1662601,0.05058871,-0.02233316
0.6810632,0.1378591,0.07877194,-0.3267748,0.3369775,-0.01653532,-0.08344408,-0.2200558,0.06731039
0.7639572,0.1290711,0.0134833,-0.2433569,0.3282684,-0.08204695,-0.4364916,-0.2367893,0.09338469
0.7746689,-0.03370926,-0.08906115,-0.2320109,0.1654836,-0.1848081,-0.4985538,-0.2499865,0.1021647
0.7737561,-0.2885144,-0.1361542,-0.2321758,-0.08941449,-0.2321048,-0.2930747,-0.1646695,-0.03970456
0.8679264,-0.5630699,-0.06358231,-0.1371431,-0.3641459,-0.1597141,-0.1247973,0.07039297,-0.3525141
1.125887,-0.634875,0.06737032,0.1217913,-0.436193,-0.02891243,0.1979769,-0.01961207,-0.5896058
1.524745,-0.4641516,0.1532252,0.5217237,-0.2657542,0.05682464,0.3194634,-0.1176592,-0.7384859
1.823094,-0.3764368,0.2223892,0.8212189,-0.1783458,0.1259017,0.0763139,0.03118932,-0.693475
1.91329,-0.4079197,0.3033278,0.9125917,-0.2101418,0.2067775,0.093939,0.1151078,-0.5173275
1.90765,-0.3487533,0.3903855,0.9081126,-0.1512835,0.2937862,0.101048,0.3654259,-0.4038787
1.681729,-0.1534013,0.487174,0.683288,0.04377373,0.3905257,0.008267099,0.6496242,-0.08414008
1.214809,0.1032277,0.3984569,0.2173642,0.3001227,0.3017431,-0.1408229,0.6606172,0.4453217
0.9376772,0.2308169,0.2200566,-0.0588899,0.4274377,0.1232462,-0.8134538,0.5208658,0.6683244
0.9511056,0.1648806,0.2250646,-0.04470341,0.3612167,0.1281174,-1.410521,0.2038597,0.6054652
0.875243,-0.01461104,0.2083066,-0.1199197,0.1814131,0.1111781,-1.400871,-0.05677118,0.5978742
0.6877184,-0.2373632,0.1021359,-0.3068976,-0.04168846,0.004779942,-1.27192,-0.105017,0.5552767
0.5642077,-0.2873204,0.04567187,-0.4299443,-0.09203324,-0.05195645,-1.209315,0.09971788,0.370068
0.4541171,-0.1952757,-0.002069477,-0.5396304,-0.0004090778,-0.1000102,-0.9970433,0.5625565,0.05640248
0.3937483,-0.1886353,0.01395654,-0.5996263,0.005783295,-0.08432953,-0.8501936,0.6808401,-0.3606085
0.3974927,-0.1366549,0.05131289,-0.5955106,0.05729168,-0.04734381,-0.9626308,0.4740599,-0.5648949
0.3829157,-0.09889449,0.02266585,-0.6096884,0.09455726,-0.07638025,-0.8652768,0.2873732,-0.4337049
0.4287554,-0.1508718,0.02760857,-0.5633938,0.04206197,-0.07183988,-0.6222852,0.005713429,-0.3655169
0.5840602,-0.102883,0.05843596,-0.4075544,0.08950932,-0.0414223,-0.4325071,-0.003315674,-0.4278366
0.7715142,-0.1935071,0.1240779,-0.2194695,-0.001679876,0.02380657,0.0755878,0.1632863,-0.3730202
0.8497971,-0.3416003,0.2652318,-0.1404512,-0.1503594,0.1645452,0.5904127,0.1260996,-0.301095
0.7762178,-0.2601051,0.278306,-0.2131892,-0.06946578,0.1771988,0.644441,0.2563745,-0.1140983
0.8533713,-0.2721553,0.06146804,-0.1350896,-0.08212535,-0.04007015,0.3663637,0.5709753,0.4542459
1.244961,-0.3817631,-0.1653916,0.2575466,-0.1923429,-0.2673712,0.05339985,0.7407969,0.7711288
1.610687,-0.4218941,-0.2200992,0.6244057,-0.2330751,-0.3225218,-0.2801119,0.6441742,0.1469997
1.655762,-0.4327138,-0.1628553,0.6706681,-0.244476,-0.2657076,-0.532607,0.4230672,-0.4977697
1.653146,-0.3720054,-0.02786525,0.6692574,-0.1843171,-0.13112,-0.2724151,0.2358297,-0.3124955
1.797138,-0.2953787,0.2390716,0.8144328,-0.1081984,0.1354497,-0.07166161,0.01222569,-0.2966856
1.655474,-0.1890155,0.3859957,0.6738901,-0.002296112,0.2820403,-0.3543989,-0.00390639,-0.6227025
1.429018,-0.1581482,0.2899987,0.4484598,0.02815834,0.1857334,-0.4251178,-0.04583221,-0.437113
1.506523,-0.2310928,0.2519741,0.5268679,-0.04515286,0.1474108,-0.2676885,-0.3566092,-0.3919873
1.402896,-0.1959517,0.2102032,0.4240017,-0.01033415,0.1053448,-0.1788445,-0.3011921,-0.5185031
1.146565,-0.1528017,0.05822689,0.1682764,0.03253614,-0.04692897,-0.1366579,-0.2762955,-0.1631464
0.9304312,-0.1065668,0.01154369,-0.0474129,0.07853104,-0.09391239,-0.1095505,-0.5256171,0.1014587
0.7373035,-0.01315061,0.005628238,-0.2402501,0.1717413,-0.1001271,-0.09256784,-0.4360751,0.234814
0.7540876,-0.003618638,-0.0227517,-0.2233132,0.1810936,-0.1287998,-0.1835637,-0.386299,0.3061485
0.6728598,0.02396235,-0.00123712,-0.3045049,0.2085108,-0.1075653,-0.2926372,-0.2832563,0.2488493
0.5504412,0.05358465,0.01222263,-0.4269815,0.2379745,-0.09436738,-0.4403313,-0.02710544,0.3391574
0.5390149,0.03975801,0.03838328,-0.4385342,0.2239831,-0.06844566,-0.513123,-0.0281462,0.2471304
0.4458868,0.06735366,0.07136984,-0.5318297,0.2513969,-0.03567209,-0.3380256,0.04368626,0.1885927
0.4623049,0.0591783,0.0582622,-0.5155917,0.2430121,-0.04896516,-0.2660944,0.09394416,0.3038209
0.4614716,0.04222799,0.07273811,-0.5165901,0.2258147,-0.03464628,-0.2747678,0.2371412,0.256606
0.4669099,0.02743669,0.1526078,-0.5112757,0.2107302,0.04509467,-0.1263414,0.5394564,0.2481575
0.6209027,-0.0147553,0.198778,-0.3573427,0.1681918,0.09116229,0.06462465,0.43759,0.1781808
0.7255866,0.03260594,0.116015,-0.2526373,0.2151481,0.0083188,0.1372056,0.2492016,0.1414101
0.8893578,0.09042251,-0.02037627,-0.08875355,0.272496,-0.1281338,-0.1147757,0.1120939,0.1690941
0.9183747,0.04061197,-0.08360421,-0.05953055,0.2221471,-0.1914019,-0.5104953,0.03185395,0.002237946
0.8896604,-0.1336405,-0.1447904,-0.08794773,0.04728173,-0.252601,-0.776585,0.2641326,-0.2239678
1.261232,-0.4845761,-0.2481333,0.284006,-0.3043391,-0.3559197,-0.9343682,0.444747,-0.6586171
1.631213,-0.7965276,-0.2328479,0.6544402,-0.6170336,-0.3405604,-0.9191853,0.4659586,-1.036122
1.699907,-0.8190518,-0.1093042,0.7236288,-0.6403307,-0.2168807,-0.850444,0.3218939,-0.945276
1.700278,-0.7365868,0.05618623,0.7244989,-0.5586342,-0.05118333,-0.7681915,-0.1183884,-0.6238251
1.751504,-0.7081416,0.2661914,0.7761891,-0.5309208,0.1591002,-0.4650819,-0.4942844,-0.2778051
1.807468,-0.6208215,0.287842,0.8325455,-0.4442684,0.1810927,-0.09851938,-0.321805,-0.1805233
1.729054,-0.4584508,0.2151354,0.754414,-0.2824796,0.1087793,0.1271182,0.1143031,-0.1904165
1.525655,-0.214979,0.2921888,0.5511564,-0.03949113,0.1862643,0.09392683,0.1709014,-0.08448851
1.251023,0.0136031,0.2478942,0.2765027,0.1887085,0.142428,-0.3407485,0.1459901,-0.1029735
1.135664,0.01487938,0.1519634,0.1609474,0.1896946,0.04697177,-0.9075423,0.2207557,-0.0436552
1.135446,-0.07520156,0.195092,0.1603604,0.09940198,0.09058313,-1.206226,0.1607861,0.1420498
0.8012689,-0.1617715,0.1671218,-0.1743534,0.01268696,0.063098,-1.101119,0.09723627,0.2655547
0.49547,-0.2665529,0.1290251,-0.4808395,-0.09218014,0.02548377,-0.9143348,-0.07148945,0.4101797
0.4853819,-0.2202136,0.07246502,-0.4917381,-0.04587003,-0.03059967,-0.9567378,-0.1375668,0.3477274
0.4329466,-0.1443189,-0.005382063,-0.5450725,0.03005025,-0.1079765,-0.9053269,-0.03307168,0.1502873
0.4320223,-0.1342652,0.05389527,-0.546949,0.04018102,-0.04823317,-0.7591102,-0.03319253,0.01961233
0.4491309,-0.06587209,0.07953205,-0.5308114,0.1086969,-0.02213236,-0.6600686,0.1093245,-0.2182959
0.4248023,-0.05390219,0.09339334,-0.5560979,0.1208277,-0.007807995,-0.529866,0.211858,-0.3917696
0.4379064,-0.1144151,0.1561583,-0.5439088,0.06050565,0.05541842,-0.4915792,0.1365079,-0.4840923
0.4079278,-0.1897469,0.1405758,-0.5747317,-0.01461211,0.04029354,-0.2110229,0.05474993,-0.5315601
0.424809,-0.2879755,0.1474786,-0.558598,-0.1126069,0.04764714,0.3164437,-0.2287193,-0.3906102
0.4770076,-0.3311698,0.150625,-0.5070265,-0.1555465,0.0512343,0.8141549,-0.5925513,-0.2299946
0.625062,-0.3633477,0.06799185,-0.3594591,-0.1874445,-0.03097056,1.276212,-0.731141,-0.05013792
0.8879371,-0.4048479,0.005243157,-0.09691881,-0.2286334,-0.0933038,1.369586,-0.3681067,0.02576365
0.9952166,-0.4144465,0.0161565,0.01018002,-0.2378819,-0.08198543,1.39075,0.2406737,0.002816478
1.056096,-0.4161349,0.01134451,0.07102555,-0.2391732,-0.08639904,1.477062,0.4897246,0.1625257
1.23275,-0.3763815,-0.06602258,0.2477799,-0.1989684,-0.1633701,1.280484,0.5560834,0.1849203
1.333615,-0.2761433,-0.05489889,0.3488606,-0.09821902,-0.1518472,1.013559,0.4405032,-0.05966655
1.405413,-0.1482155,0.04698636,0.4209662,0.03028124,-0.04955406,0.6764718,0.1407659,-0.2770081
1.668392,-0.1010835,0.104212,0.6843151,0.07804293,0.008091391,0.5501325,0.169634,-0.2793332
1.755102,-0.148036,0.2238293,0.771425,0.03176987,0.1281394,0.6957789,0.2231721,-0.2200919
1.387342,-0.1292484,0.3889434,0.404057,0.05127847,0.2936888,0.6213032,0.03788253,-0.3284522
1.156393,-0.1066169,0.415228,0.1734638,0.07466502,0.3204016,0.5883258,-0.09111194,-0.2452028
1.294141,-0.1746518,0.3475482,0.3115139,0.007411909,0.2531279,0.6548579,-0.2741618,-0.07345801
1.34143,-0.1984385,0.2653598,0.3590415,-0.01557208,0.1713098,0.6957041,-0.4183765,-0.003361212
1.115972,-0.1301255,0.1244606,0.1337462,0.05356012,0.0307362,0.7895744,-0.4177351,0.252332
0.853503,-0.04020764,0.02788305,-0.1286404,0.1443085,-0.06556309,0.7539737,-0.5644782,0.4141443
0.7192906,-0.01522615,0.03288953,-0.2628466,0.1701239,-0.06032316,0.7220871,-0.8062452,0.5168574
0.6395397,-0.05763991,0.00518696,-0.3426528,0.1285377,-0.08783164,0.7298049,-0.8577928,0.6070005
0.6387418,-0.08152369,-0.009811728,-0.3435482,0.1054659,-0.1026693,0.7266096,-0.7198757,0.4670645
0.6308587,-0.1015878,0.008103571,-0.3515504,0.08619093,-0.0846195,0.8113322,-0.6001851,0.4102705
0.5238686,-0.1027859,-0.007654806,-0.4586606,0.08575358,-0.1002635,0.8392331,-0.4166516,0.3390534
0.4653316,-0.04217444,0.04162632,-0.5172972,0.1470923,-0.05088232,0.828603,-0.1035519,0.2416875
0.4513702,0.02788575,0.1165073,-0.5313142,0.2178404,0.02408837,0.7974989,0.09302946,0.2616324
0.5299707,0.09262475,0.1330935,-0.4527022,0.2832193,0.04075543,0.6971771,0.1518363,0.1794338
0.7113421,0.1402473,0.0983451,-0.2712331,0.3314228,0.006078403,0.4980628,0.07831451,0.1520046
0.8429122,0.1566169,0.006801971,-0.139467,0.3483016,-0.0854028,0.1252115,-0.02124399,0.1297766
0.9140813,0.08574323,-0.03491338,-0.06800027,0.2778523,-0.1270631,-0.13862,-0.003830845,0.0008218001
1.029246,-0.2325564,0.001935545,0.04756116,-0.04011683,-0.0901609,-0.1722018,-0.01559393,-0.1735718
1.298889,-0.666522,0.07785066,0.317691,-0.4738435,-0.01418956,-0.1167808,0.04716865,-0.4394583
1.447519,-0.7714871,0.1633693,0.4668795,-0.5786435,0.07139034,0.1801419,0.1075364,-0.4639516
1.36068,-0.5692107,0.1842453,0.3806478,-0.3762478,0.09233086,0.5509794,-0.1592101,-0.3415108
1.427431,-0.3965836,0.2303972,0.4480269,-0.2035214,0.1385463,0.4751598,-0.5457471,-0.3732886
1.574816,-0.2389339,0.3267299,0.5960347,-0.04577582,0.2349349,0.1570685,-0.6588073,-0.328549
1.693956,-0.2927862,0.3339862,0.7157653,-0.09952803,0.2422306,0.1231496,-0.4122809,-0.2447454
1.84477,-0.5053297,0.3104855,0.8671021,-0.3119614,0.2187422,0.3308312,-0.06260497,-0.009791713
1.613705,-0.3237788,0.3078575,0.6364587,-0.1302825,0.2160896,0.6644815,0.1345958,0.4634466
1.078185,-0.1323691,0.2337242,0.1012299,0.06128037,0.1418866,0.7583734,0.115042,0.5602005
0.8156119,-0.1387099,0.1739842,-0.1611922,0.05511864,0.08202644,0.2621243,0.01635672,0.3242954
0.7192585,-0.003622143,0.178149,-0.2575259,0.1904063,0.08601835,-0.2655833,-0.04925333,0.3096474
0.5693726,-0.07147841,0.1668686,-0.4075041,0.1227628,0.07451193,-0.3756289,-0.3175108,0.3632064
0.5027898,-0.1676393,0.1828791,-0.474266,0.0268195,0.0902435,-0.2156359,-0.5332358,0.3846719
0.5133138,-0.10686,0.1552581,-0.4639792,0.08781549,0.06229127,-0.07161012,-0.347678,0.4360178
0.5303448,-0.1488614,0.09288233,-0.4472151,0.04602609,-0.0004668951,-0.006114053,-0.1840957,0.2796432
0.5047858,-0.09581271,0.1080136,-0.473044,0.09927835,0.01423375,0.09452417,-0.08697755,-0.02703427
0.4479029,-0.1152747,0.07612278,-0.5301746,0.08000775,-0.01813179,0.07001758,0.04714242,-0.232009
0.4105841,-0.2237367,0.04294164,-0.5676937,-0.02827822,-0.05182684,0.2106693,-0.04177716,-0.2736538
0.411843,-0.2400516,0.06445753,-0.566563,-0.04443328,-0.03085832,0.6994502,-0.278983,-0.2176157
0.5696516,-0.3439055,0.03895567,-0.4087872,-0.1481409,-0.05693502,1.115911,-0.472125,-0.1896098
0.8288408,-0.40976,0.01479252,-0.1495187,-0.2138568,-0.08169433,1.442815,-0.3814548,-0.1092668
1.025286,-0.4647899,-0.03836738,0.04712414,-0.2687465,-0.1354648,1.626953,-0.04104276,0.1122227
1.150199,-0.4917507,-0.1019274,0.1723464,-0.295554,-0.1996411,1.694104,0.2524622,0.3173881
1.263384,-0.3628635,-0.07024224,0.2859389,-0.1664881,-0.168568,1.640793,0.4474281,0.3233232
1.419294,-0.2749603,-0.00491983,0.4423347,-0.07837221,-0.1038431,1.211188,0.2648501,0.06920678
1.543377,-0.207442,0.06902859,0.5669555,-0.01060348,-0.03047045,0.9163342,-0.003618067,-0.1633154
1.710899,-0.1259392,0.2391999,0.7350352,0.07118638,0.1391496,1.003094,0.1798673,-0.107493
1.902537,0.007325133,0.4421365,0.9272149,0.204769,0.3415557,0.841808,0.2153806,-0.09858949
1.782109,0.1354112,0.4378324,0.8072706,0.3331941,0.3367303,0.37104,0.06234605,-0.267049
1.513143,0.03501813,0.3089606,0.5386924,0.2331458,0.2073319,0.1130048,0.05645985,-0.2297141
1.368332,-0.07757174,0.2876548,0.3941439,0.1208922,0.1854822,0.09809267,-0.2003324,-0.07693259
1.187333,-0.1264739,0.237467,0.2132651,0.0723079,0.1347252,0.2281957,-0.4182803,0.04353411
1.03565,-0.2438739,0.1288855,0.06155523,-0.04479701,0.02554475,0.6097322,-0.3771287,0.2582903
0.9419654,-0.2638887,0.07489568,-0.03229973,-0.06453965,-0.0290738,0.8616537,-0.4499628,0.4105618
0.7288908,-0.1855223,0.03131987,-0.2456786,0.01407859,-0.07330473,0.993482,-0.5528665,0.5360697
0.5833939,-0.1224298,0.028168,-0.3915952,0.07740404,-0.07713205,1.223132,-0.5959226,0.6194624
0.55149,-0.06217611,0.03199362,-0.4240096,0.1378703,-0.07399532,1.223974,-0.5849985,0.4988333
0.4541761,-0.03547702,-0.002015844,-0.5218959,0.1647571,-0.1087001,1.221011,-0.4582301,0.4414219
0.409857,-0.04897091,-0.01783022,-0.5668188,0.1514202,-0.1252091,1.250803,-0.2387025,0.4334743
0.4155628,-0.03923897,-0.02565378,-0.5617168,0.161272,-0.1337188,1.109936,0.007643109,0.3354931
0.4454113,-0.01517479,0.007968323,-0.5324419,0.185413,-0.1007668,1.018115,0.16667,0.2318845
0.5673812,0.009453911,0.03976673,-0.4109885,0.2100694,-0.0696159,0.8558594,0.139318,0.07421533
0.6674893,0.05703513,0.0007183835,-0.3113185,0.2576223,-0.1092842,0.6297725,-0.08490982,-0.02389513
0.7536275,0.02308729,-0.08947394,-0.2255258,0.2235826,-0.2000638,0.2341108,-0.2823142,-0.06599308
0.8981393,-0.1940791,-0.1499785,-0.08125914,0.006254992,-0.2611157,-0.3282819,-0.2918302,-0.2368435
1.197238,-0.5155821,0.06711225,0.2176946,-0.3154773,-0.04452371,-0.3662913,-0.1853068,-0.5084371
1.569776,-0.6597747,0.3798696,0.5901764,-0.4599541,0.2677867,0.1201746,-0.1070783,-0.6670485
1.701764,-0.5098926,0.3986064,0.7221707,-0.3103894,0.2861214,0.4446601,-0.1700651,-0.6013624
1.776575,-0.4364456,0.3851433,0.7970143,-0.2372712,0.2722866,0.2468153,-0.2690111,-0.56307
1.964871,-0.5276012,0.4776656,0.985327,-0.3287496,0.3644517,0.07020834,-0.3360742,-0.5049585
1.93342,-0.4854319,0.4392321,0.9538326,-0.2868819,0.325659,0.4134447,-0.2654663,-0.1802643
1.589553,-0.356318,0.3126929,0.6098207,-0.1580346,0.1987434,0.5798139,0.04398685,0.2079321
1.160303,-0.2201931,0.1907542,0.1802936,-0.02213223,0.07640041,0.4106461,0.2384885,0.4583938
0.8571974,-0.104436,0.1752881,-0.1232317,0.09344863,0.0604973,0.3474087,-0.01837179,0.5833188
0.6895381,-0.09215574,0.2364369,-0.2914444,0.1055949,0.1211755,0.2184553,-0.4177918,0.687011
0.6185737,-0.08948711,0.1781549,-0.3630756,0.1081647,0.06238823,0.0812373,-0.4669431,0.7209371
0.6287579,-0.09848941,0.1638838,-0.3536459,0.09909104,0.04757716,0.08751777,-0.4025515,0.6273524
0.5257629,-0.1089134,0.1828889,-0.4574561,0.08861624,0.06600826,0.1410382,-0.3714575,0.5127202
0.4064346,-0.08572117,0.09764684,-0.5776315,0.1117716,-0.01984048,0.1693949,-0.1437731,0.2431288
0.3555365,-0.1268336,0.09181451,-0.6293781,0.07063051,-0.026309,0.1065624,-0.1108746,-0.06022265
0.2284449,-0.1949612,0.04938526,-0.7572855,0.002477823,-0.06939921,0.03786395,-0.1854116,-0.1240708
0.269514,-0.2832753,-0.01257408,-0.7169647,-0.08585972,-0.1320378,0.09416241,-0.1597365,-0.1301803
0.3596631,-0.3293218,0.03607927,-0.6274625,-0.1319259,-0.08407426,0.5025615,-0.4915568,-0.1421575
0.3986147,-0.319278,0.002391418,-0.5890275,-0.1218932,-0.1184544,1.152526,-0.7604677,-0.128646
0.709397,-0.4149197,-0.01763807,-0.2786093,-0.2175314,-0.1391708,1.473544,-0.5434097,-0.1197298
0.9047786,-0.451194,-0.02912126,-0.08342819,-0.2537795,-0.1513277,1.577592,-0.317581,0.01981699
0.9923225,-0.3951117,-0.1535539,0.004078421,-0.1976386,-0.2764117,1.761722,-0.1980168,0.3160612
1.357746,-0.3859397,-0.218626,0.3696169,-0.1883671,-0.3421013,1.677875,0.09702784,0.5563297
1.533448,-0.336056,-0.163641,0.5455644,-0.138336,-0.2876859,1.462305,0.3090322,0.4958106
1.450067,-0.3063575,-0.01549354,0.4625293,-0.108438,-0.1400472,1.400996,0.1502527,0.2174083
1.562225,-0.2817485,0.2261508,0.5750992,-0.08357501,0.1011561,1.187347,0.1320434,0.005604729
1.786635,-0.2097592,0.4766985,0.7999523,-0.01127725,0.3513272,1.030232,0.1345018,-0.05060071
1.785525,-0.1020701,0.4618742,0.7992778,0.09677188,0.3361768,0.8726207,-0.1645671,-0.1136049
1.641686,0.05114422,0.3019134,0.6558283,0.2503903,0.1759226,0.2687343,-0.2250372,-0.289821
1.495801,0.006941754,0.3102254,0.5102526,0.2066237,0.1839591,-0.00924839,-0.2424964,-0.238087
1.258302,-0.1413336,0.1989348,0.272957,0.05880278,0.07240075,0.2837781,-0.4314006,0.01759939
1.133679,-0.1886461,0.119847,0.1484192,0.01195372,-0.00695306,0.5062653,-0.4493612,0.1052801
1.072571,-0.2788817,0.1795459,0.08727397,-0.07781353,0.05247942,0.8291632,-0.3911048,0.2426178
0.874678,-0.2501097,0.01161766,-0.1107749,-0.04856865,-0.1157154,1.149014,-0.3520708,0.3760112
0.7599296,-0.1280402,-0.0148622,-0.225788,0.0739784,-0.1424592,1.188137,-0.3562492,0.3573228
0.6800138,-0.07222851,0.03991699,-0.3060607,0.13027,-0.08793549,1.199468,-0.2941591,0.37996
0.5808482,0.05994389,-0.04491958,-0.4056541,0.2629177,-0.1730127,1.112282,-0.157834,0.3048281
0.5552807,0.09800755,0.0432946,-0.431696,0.3014412,-0.08501811,0.9082151,-0.1153597,0.2430364
0.4938778,0.06237187,0.05417095,-0.4935939,0.2662361,-0.07433533,0.7346146,-0.03361054,0.2566868
0.4614598,0.1002419,0.03668293,-0.5265007,0.3044939,-0.09198739,0.4853387,0.1155537,0.1811753
0.5695363,0.07456401,0.1345168,-0.4188806,0.2791482,0.005713939,0.2713172,0.1868918,0.1501827
0.7126278,0.09016463,0.1083148,-0.276191,0.2950136,-0.02058858,0.02443347,0.02780389,0.08926587
0.7511592,0.09844868,0.005102682,-0.2379914,0.3034842,-0.1238698,-0.5351512,-0.1816912,0.02436413
0.7427073,-0.04609107,-0.1552946,-0.2466951,0.1590434,-0.2843021,-0.896402,-0.136496,-0.01744797
0.8042678,-0.33633,-0.1353039,-0.1852989,-0.1311879,-0.264305,-0.6776916,0.004557895,-0.2591044
0.9885358,-0.6840481,0.05259426,-0.00110402,-0.4789827,-0.07635021,-0.254408,0.2122534,-0.5756446
1.373053,-0.7187062,0.1295498,0.383428,-0.5137812,0.0007169313,0.1625897,0.3807308,-0.689817
0.5530795,-0.09424467,0.2722274,-0.4236314,0.04425416,0.1246092,-0.06586423,-0.2559938,0.6995965
0.4620284,-0.1101089,0.227249,-0.5144818,0.0275552,0.07838483,-0.03344842,-0.7664545,0.7026586
0.4623742,-0.1511063,0.1809292,-0.5139976,-0.01423097,0.03084329,0.1487765,-0.8003067,0.7451816
0.5300194,-0.1408613,0.1254985,-0.4462465,-0.004730447,-0.02578632,0.2058423,-0.534023,0.5319714
0.5842139,-0.1132097,0.111218,-0.3919523,0.02221985,-0.04124155,0.1953745,-0.211512,0.232428
0.6029094,-0.107709,0.1202262,-0.3731409,0.02706078,-0.03338104,0.2142686,0.1250848,-0.03363154
0.5787714,-0.1222212,0.09312289,-0.3971282,0.01192812,-0.06160197,0.01536301,0.296436,-0.4251498
0.4722625,-0.1922018,0.08207464,-0.5034339,-0.05863528,-0.07373418,0.05539795,0.2674604,-0.4414003
0.4612831,-0.2680036,0.0965547,-0.5141386,-0.1349818,-0.06030072,0.4192058,-0.2533542,-0.3205192
0.5451181,-0.282404,0.1378186,-0.4299385,-0.1498854,-0.02004282,1.071606,-0.8378409,-0.2951756
0.6671701,-0.2545411,0.1841001,-0.3074151,-0.1224792,0.02527506,1.510122,-0.4457893,-0.2103529
0.8414094,-0.1864196,0.1715532,-0.1325885,-0.05476357,0.01180659,1.258867,0.2177385,-0.1862481
0.9596342,-0.1245925,0.1075163,-0.01365927,0.006710424,-0.05311067,1.05792,0.4810093,-0.0898451
1.163862,-0.2094273,0.04610497,0.1913829,-0.07842556,-0.1153601,0.851628,0.8148265,-0.07817894
1.323188,-0.3397506,0.0683088,0.3516194,-0.2089978,-0.09394936,0.5964465,0.4685383,-0.1577603
1.291971,-0.3172798,0.1385166,0.3213855,-0.1867202,-0.024486,0.916332,-0.1997622,-0.2202435
1.520123,-0.2785341,0.1649564,0.5505686,-0.1481063,0.001259335,1.275418,0.153144,-0.3367447
1.820416,-0.1698946,0.20776,0.8519089,-0.03953325,0.04341771,1.171417,0.2800391,-0.4068133
1.607057,0.1889805,0.3138276,0.6395766,0.319339,0.1488858,0.7292466,-0.08862905,-0.540623
1.249368,0.3911609,0.3924689,0.2828576,0.5215677,0.2269664,-0.05802664,0.01426113,-0.5382339
1.19174,0.2218143,0.3615854,0.2261193,0.3522984,0.1955509,-0.588371,-0.2081107,-0.2880162
1.20629,0.02849438,0.2938705,0.2414682,0.1590624,0.127322,-0.3634147,-0.5235598,0.03156078
1.18575,-0.09342083,0.2348194,0.2216268,0.03722366,0.06776709,-0.09719341,-0.4887844,0.2841418
1.055232,-0.1523617,0.1245406,0.09170197,-0.02165392,-0.04300959,-0.03056551,-0.6309221,0.3058855
0.7843794,-0.0695212,0.04926587,-0.178663,0.06123586,-0.1187759,0.2023182,-0.7658719,0.5206549
0.6970692,-0.01558015,0.02979353,-0.2655834,0.1152112,-0.138729,0.2458455,-0.8788752,0.7493032
0.73355,-0.05859663,-0.01376743,-0.2287948,0.07221137,-0.1827529,0.167487,-0.7796671,0.5522755
0.7163624,-0.04121706,0.0159673,-0.2457392,0.08958653,-0.1534553,0.2345467,-0.400414,0.3556014
0.6958256,-0.00259151,0.1067314,-0.2660808,0.1281835,-0.06309558,0.240157,-0.09272883,0.109169
0.5861277,0.04055753,0.1396426,-0.3756147,0.1712757,-0.03055147,0.232177,0.1432187,-0.06744068
0.5007719,0.101969,0.09318716,-0.460819,0.2325966,-0.0773353,-0.07837885,0.0951365,0.08813056
0.5749335,0.04988331,0.02122522,-0.3864975,0.1803793,-0.1495853,-0.6948605,0.07990995,0.08611819
0.6960327,-0.02923533,0.06404418,-0.2652104,0.1010818,-0.1070109,-0.9131066,0.1801891,-0.1057094
0.7343771,-0.04788146,0.1042711,-0.2266356,0.08220587,-0.06698166,-0.7732508,-0.01951441,-0.2513077
0.7338679,-0.08270547,0.01391898,-0.2268623,0.04710046,-0.1574822,-0.7491886,-0.1260786,-0.3605146
0.8861783,-0.2142939,-0.03148807,-0.0742107,-0.08481906,-0.202985,-0.7977318,-0.07548657,-0.4471125
1.19995,-0.4959406,-0.01616582,0.239961,-0.3668395,-0.187701,-0.6686743,0.2396436,-0.6448744
1.479776,-0.6190702,0.09378224,0.5202366,-0.4903696,-0.07772857,-0.4350744,0.6674512,-0.7744912
1.521558,-0.4437721,0.2958032,0.5624938,-0.3154768,0.1243804,-0.2075638,0.3213703,-0.6144807
1.520556,-0.3478734,0.34495,0.5619636,-0.2199671,0.1736731,-0.06779675,-0.1762655,-0.4030921
1.742731,-0.3503163,0.3054969,0.7845753,-0.222768,0.1344132,-0.0601397,-0.1406645,-0.2896633
1.857316,-0.2419874,0.3260924,0.8995286,-0.114756,0.1552374,0.1412486,-0.05816711,-0.2090552
1.642679,-0.1431095,0.3257912,0.6851551,-0.01614802,0.1551894,0.379899,0.1144458,0.09827962
1.325219,-0.1291125,0.2878159,0.3678219,-0.002372584,0.1174818,0.4594793,0.2908373,0.6272604
1.128675,-0.1282329,0.2667781,0.1712497,-0.001667921,0.09671732,0.5072104,0.1931356,0.6984392
1.011552,-0.1463257,0.2857957,0.05394136,-0.01989184,0.1160071,0.2886693,0.01849607,0.5929435
0.8030478,-0.1533705,0.2989578,-0.1549006,-0.02702587,0.1294336,0.1691511,-0.2323176,0.9485974
0.659288,-0.1348707,0.2730157,-0.2991353,-0.008575451,0.1037421,0.2653263,-0.5358434,1.091332
0.5996451,-0.1362392,0.2010983,-0.3593683,-0.009955301,0.0320562,0.1839622,-0.6939508,0.9923103
0.4598892,-0.1132301,0.1109829,-0.4998025,0.01307823,-0.05784898,0.1625396,-0.6754926,0.9877667
0.4586113,-0.0889685,0.1009999,-0.5018169,0.03739714,-0.06764191,0.1284773,-0.4436708,0.6604928
0.5637456,-0.07532726,0.1246612,-0.3974467,0.05112472,-0.04380727,0.01178085,-0.03156133,0.2193724
0.5256721,-0.02904863,0.0920259,-0.4362845,0.09751398,-0.07628207,-0.1700849,0.2435143,-0.1883522
0.5175959,-0.05280159,0.08623151,-0.4451007,0.07389029,-0.08192512,-0.4219585,0.2188989,-0.4827291
0.5692974,-0.1335075,0.1310568,-0.3940925,-0.006672988,-0.03695378,-0.2953235,0.1192058,-0.3761552
0.5895218,-0.1742618,0.1706446,-0.3744948,-0.04727438,0.002777544,0.1305049,-0.1626626,-0.2714904
0.6903456,-0.171975,0.2082541,-0.2742146,-0.04482467,0.04052868,0.5567697,-0.5360721,-0.2226929
0.7557865,-0.1423908,0.2075036,-0.2092223,-0.01506678,0.03991698,0.6951895,-0.2943865,-0.1486295
0.7799557,-0.1337563,0.2141015,-0.1853995,-0.006247579,0.04664861,0.4719994,0.07736599,-0.2189493
0.8274307,-0.09935281,0.2804506,-0.1381648,0.02835091,0.1131238,0.3793198,-0.05309866,-0.147722
0.8700226,-0.09409738,0.2532524,-0.09570591,0.0338097,0.08604049,0.183497,0.1386569,0.1514685
1.176379,-0.2421677,0.09761895,0.2106214,-0.1140505,-0.06949272,-0.2199725,0.4651461,0.5613568
1.446726,-0.3768681,-0.0298603,0.4810318,-0.2485319,-0.1968852,-0.320908,0.205407,0.6578619
1.255203,-0.385605,0.01089534,0.2896431,-0.257034,-0.1560501,-0.2111686,-0.01463863,0.06438913
1.159678,-0.3782969,0.168639,0.1942999,-0.2494649,0.001773528,0.0740169,0.003779571,-0.4409293
1.409434,-0.3718618,0.2347595,0.4442671,-0.242732,0.06797787,0.4636334,0.07579041,-0.3317753
1.556178,-0.2138841,0.2510002,0.5912289,-0.08441175,0.08430505,0.4853342,0.2548937,-0.2285502
1.473367,0.08266994,0.2966906,0.5086178,0.2125322,0.1300802,0.005467678,0.2105915,-0.3889219
1.330116,0.20685,0.3102179,0.365523,0.3371417,0.1436849,-0.6164254,0.0409894,-0.3896815
1.166181,0.1112717,0.306548,0.2016814,0.2420169,0.1400788,-0.8505672,-0.06156608,-0.1870765
1.039924,0.02388052,0.2676385,0.07544447,0.1550866,0.1012131,-0.7370398,-0.2272291,0.0395182
1.047975,-0.04515478,0.2003656,0.08343924,0.08650732,0.03395978,-0.6060796,-0.2807672,0.2858155
1.031901,-0.1073952,0.1112644,0.06723321,0.02471081,-0.05514776,-0.4474023,-0.1844311,0.3191081
0.942232,-0.03890302,0.04755518,-0.02264121,0.09363066,-0.1188868,-0.3815072,-0.08183349,0.2209722
0.8715739,0.07628663,0.07522835,-0.0935722,0.2092276,-0.09126121,-0.4213489,-0.04493243,0.2049294
0.7796323,0.1009622,0.08424297,-0.185846,0.2342829,-0.08230573,-0.4052219,-0.02854598,0.08554807
0.6874685,0.1312532,0.0819,-0.2783886,0.264916,-0.08471367,-0.469258,0.04499973,0.02536635
0.5849213,0.1471333,0.09770918,-0.3813447,0.2810898,-0.06897043,-0.6760524,0.0377081,0.1147756
0.5568373,0.08567653,0.05811055,-0.4098479,0.2198673,-0.1086315,-0.9499403,0.1090618,0.1748143
0.6599712,0.009360241,0.03378606,-0.3071224,0.1437173,-0.1330102,-1.175673,0.3761785,0.1923689
0.7283807,-0.04741982,0.09571744,-0.2390924,0.08703069,-0.07111962,-1.197824,0.4892734,0.05186359
0.7940444,-0.00222183,0.1674198,-0.173766,0.1322474,0.0005590889,-1.177211,0.3621147,-0.1534925
0.8722404,0.03613145,0.1309574,-0.09585652,0.170544,-0.03590854,-1.209021,0.2069618,-0.2085261
0.901964,-0.05657687,0.02895207,-0.06636452,0.0777021,-0.1378999,-1.181489,0.2227227,-0.1868084
0.9434301,-0.2218743,-0.0700673,-0.02507405,-0.08780487,-0.2368827,-1.208538,0.3156461,-0.299063
1.015927,-0.4793725,-0.1271559,0.04730218,-0.3455811,-0.2939045,-1.223409,0.3313788,-0.5168338
1.202327,-0.6417561,-0.04511179,0.2336299,-0.5082944,-0.2117532,-1.090486,0.3237796,-0.5668723
1.463481,-0.6149296,0.08606868,0.4947502,-0.4818244,-0.08041647,-0.8887076,0.1690103,-0.5099642
1.617527,-0.6026206,0.1799988,0.648778,-0.4698713,0.01372235,-0.5587386,-0.03607807,-0.4390043
1.653479,-0.5543572,0.237784,0.6846995,-0.4219378,0.0717666,-0.253021,-0.06765282,-0.3107954
1.76596,-0.451665,0.2634131,0.7971041,-0.3195283,0.09769879,-0.2700564,0.07163254,-0.3039573
1.896129,-0.4013306,0.3168675,0.9271145,-0.2694127,0.1514922,-0.4334603,0.4163122,-0.338954
1.59467,-0.2581961,0.3204506,0.6253817,-0.1264222,0.1554402,-0.4476999,0.6868741,-0.2182073
1.206698,-0.04117402,0.3214856,0.2369897,0.09053459,0.1568556,-0.4753872,0.5804085,-0.04810165
1.153005,0.00172194,0.317501,0.1827217,0.1334402,0.1532568,-0.8275559,0.3653068,0.1381634
0.864595,0.00768024,0.1663365,-0.106419,0.1394731,0.002474878,-1.417494,0.3056938,0.372729
0.5946183,0.05558051,0.1075541,-0.3772686,0.187501,-0.05593259,-1.733912,0.1983287,0.5400692
0.7415847,-0.1070276,0.1909073,-0.2312951,0.02506186,0.02778742,-1.506352,0.07747742,0.5702914
0.6999718,-0.2514302,0.2087902,-0.2739952,-0.1191379,0.04602861,-1.27929,0.154873,0.5402438
0.5982558,-0.1881421,0.1545033,-0.3768683,-0.05561547,-0.007909732,-1.243123,0.2321069,0.4646513
0.6459429,-0.1529878,0.07507788,-0.3303835,-0.02019465,-0.086997,-1.151614,0.39539,0.254584
0.5557559,-0.1218703,0.088961,-0.4217934,0.01122054,-0.07278428,-1.359933,0.64734,0.001147091
0.5462384,-0.124777,0.1169371,-0.4325299,0.00864018,-0.04448403,-1.540751,0.6743291,-0.1486685
0.5720185,-0.1715232,0.1170217,-0.4079403,-0.03775415,-0.04407798,-1.199252,0.532344,-0.2271283
0.5493352,-0.1568969,0.1732278,-0.4317629,-0.02275244,0.01244816,-0.7866282,0.2652764,-0.2484066
0.69861,-0.2065219,0.1591641,-0.2835556,-0.07197985,-0.001296737,-0.4297096,0.1298626,-0.2786259
0.7927662,-0.2468492,0.1833886,-0.19038,-0.1118872,0.02324446,-0.1356062,0.202118,-0.3998964
0.7387044,-0.1882044,0.3070547,-0.2453254,-0.05279873,0.147223,0.06657621,0.1038921,-0.519633
0.7341547,-0.1115335,0.324649,-0.2506545,0.02433994,0.1651206,0.1750403,0.02462816,-0.4870624
0.9333893,-0.08100015,0.1864867,-0.05208941,0.05536321,0.02724591,-0.03392935,0.268235,-0.1307543
1.37157,-0.2565571,-0.0004654606,0.3855305,-0.1196851,-0.1594376,-0.2625946,0.6538341,0.1730962
1.644046,-0.5486259,-0.01802693,0.6575395,-0.4112256,-0.1767462,-0.3110077,0.7142454,-0.2032237
1.514168,-0.6297847,0.05529386,0.5272579,-0.4918262,-0.1031808,-0.322653,0.3086265,-0.6320325
1.42156,-0.4110182,0.07729137,0.4342806,-0.2724553,-0.08094009,-0.2792596,0.0144461,-0.4416685
1.638366,-0.1719347,0.2058395,0.6507208,-0.03270841,0.04785378,-0.3151512,0.1711973,-0.3722778
1.724679,-0.1316105,0.3417128,0.7366437,0.008340872,0.1839744,-0.4979596,0.3187958,-0.5788608
1.525415,-0.1342643,0.36953,0.5369355,0.006469663,0.2120347,-0.7460956,0.1267774,-0.5632077
1.330238,-0.1487552,0.3606808,0.341233,-0.007187352,0.2034145,-0.8492693,-0.05788725,-0.6078894
1.129528,-0.2359738,0.2846255,0.1399029,-0.09352646,0.1275644,-0.685814,-0.178466,-0.5815258
1.036102,-0.2497884,0.1924359,0.04575659,-0.1064189,0.03554957,-0.4778758,-0.2688891,-0.324441
0.9976063,-0.1565179,0.1114219,0.006443507,-0.01218533,-0.04532276,-0.3066784,-0.1738362,-0.204283
0.8129667,-0.02254427,0.04110231,-0.1791015,0.1227889,-0.1155314,-0.2741259,-0.2802181,0.009473087
0.6962131,0.0968556,0.02250475,-0.2968349,0.2432183,-0.1340433,-0.4271582,-0.4570935,0.2619703
0.6249782,0.1482241,0.001822259,-0.3691044,0.2956315,-0.1546575,-0.5204215,-0.4561744,0.3303175
0.5528213,0.1422945,-0.01142719,-0.4423269,0.2907447,-0.1678477,-0.6120342,-0.5217974,0.4053092
0.5511223,0.06859163,-0.01744903,-0.4450968,0.2180657,-0.1738105,-0.6844468,-0.3994806,0.3819222
0.5293759,-0.0133234,-0.03366386,-0.4678937,0.1371415,-0.1899579,-0.574824,-0.1929801,0.34904
0.5329344,0.003622452,-0.036443,-0.4653402,0.1550351,-0.1926525,-0.5310107,0.03142546,0.3112883
0.5875207,0.05126821,-0.06933411,-0.4116904,0.2035776,-0.2254336,-0.640383,0.5073866,0.1173626
0.6733556,0.06211648,-0.05670129,-0.3267038,0.2152638,-0.2126567,-0.8509374,0.8223174,-0.06972969
0.7010904,0.07139085,0.05689058,-0.2997139,0.2253086,-0.09887922,-1.12801,0.8247975,-0.3154331
0.6444265,0.06629624,0.1799859,-0.3570079,0.2209085,0.02444705,-1.219616,0.5575774,-0.529683
0.6538078,0.03677704,0.2100668,-0.3481312,0.1920002,0.05480286,-1.230208,0.1106819,-0.508598
0.7801536,-0.09303163,0.07170133,-0.2221554,0.06271334,-0.08324812,-1.327059,-0.03398419,-0.4333945
1.102232,-0.4322876,-0.03444507,0.09969172,-0.2761094,-0.1890426,-1.237445,0.1993503,-0.4493957
1.460889,-0.7339067,0.03456751,0.4582487,-0.577372,-0.1196386,-0.886073,0.3453427,-0.5590212
1.533522,-0.6935828,0.08785609,0.5308898,-0.5367442,-0.06591611,-0.6001757,0.1394591,-0.6572793
1.511896,-0.5515901,0.1309644,0.5093497,-0.3944711,-0.02233072,-0.6469916,-0.05305381,-0.6200321
1.661008,-0.5572973,0.255049,0.6585926,-0.3998965,0.1022714,-0.7650525,-0.07042666,-0.5597846
1.815969,-0.5337016,0.3411141,0.8136943,-0.375997,0.1888879,-0.6249467,-0.03074153,-0.5760426
1.771048,-0.393618,0.3666103,0.7688852,-0.2355708,0.2149585,-0.43269,0.2867342,-0.4419407
1.476646,-0.1979339,0.3882273,0.4745315,-0.0394947,0.2371596,-0.2812314,0.5744182,-0.1557322
1.117315,-0.04670499,0.3641793,0.1151589,0.1121782,0.2136918,-0.2928938,0.4300246,-0.02372204
1.067482,-0.01548244,0.3395707,0.0651836,0.1438908,0.1896469,-0.6518417,0.1766552,0.05294602
1.146642,0.0003285005,0.351148,0.1441021,0.1602275,0.2017604,-0.8514204,-0.03727529,0.2239023
0.9348419,-0.06599834,0.2948211,-0.06803604,0.0944509,0.1459327,-0.7511927,-0.2385532,0.3980343
0.6719069,-0.1722352,0.2032872,-0.3313971,-0.01122035,0.05485413,-0.7046684,-0.3691737,0.5682011
0.5340079,-0.114852,0.1379713,-0.4697929,0.04673817,-0.0100535,-0.6892055,-0.4703313,0.641908
0.4359311,-0.1000985,0.07594722,-0.568411,0.06207284,-0.07171548,-0.7011083,-0.4319157,0.5139812
0.4467769,-0.1526376,0.06967258,-0.5581206,0.01011649,-0.07767003,-0.6620013,-0.2859519,0.3551707
0.4899291,-0.1404437,0.110394,-0.5155072,0.02289129,-0.0366652,-0.5577107,-0.1136731,0.2701861
0.5399821,-0.1670954,0.1441344,-0.4659486,-0.003183802,-0.002673389,-0.4823266,0.1861303,0.03559339
0.5787533,-0.1654461,0.1587396,-0.4276039,-0.0009640383,0.01215381,-0.4628934,0.3974046,-0.3304428
0.502842,-0.1464455,0.1392301,-0.5038538,0.01859957,-0.007161229,-0.4767548,0.4100935,-0.5403704
0.4103202,-0.1684496,0.118062,-0.5966068,-0.002850096,-0.028161,-0.2417989,0.2330282,-0.5143052
0.4103073,-0.1962201,0.1273881,-0.5967227,-0.03007583,-0.01869043,0.1797017,-0.3060838,-0.3207637
0.5901232,-0.3027457,0.1383425,-0.4168617,-0.1360658,-0.007613138,0.6256605,-0.7214297,-0.170072
0.8663231,-0.3932009,0.1341091,-0.140455,-0.2259905,-0.01174314,0.973115,-0.309915,-0.1020958
1.090152,-0.3581492,0.1050187,0.08374419,-0.1904061,-0.04074796,0.9619785,0.5725254,0.1185299
1.381484,-0.3197354,0.0056419,0.375598,-0.1514492,-0.1400537,0.799671,0.938995,0.3951634
1.541929,-0.3354815,-0.04562092,0.5366937,-0.1666348,-0.1912545,0.5452023,0.6179556,0.3612757
1.461765,-0.3311881,0.09033666,0.457275,-0.1617579,-0.05523639,0.373493,0.2087852,0.08317266
1.662985,-0.3094995,0.2454137,0.6593023,-0.1394578,0.09990471,0.5716782,0.05629883,-0.1042049
1.904837,-0.2439615,0.331358,0.9019845,-0.07327674,0.1859153,0.7137571,0.1018215,-0.2103342
1.564072,-0.06135092,0.3727616,0.5620316,0.1100089,0.2273805,0.6088207,0.01392983,-0.2786064
1.200262,0.05695765,0.2997891,0.1989825,0.2290192,0.1544553,0.2241269,-0.2221434,-0.3245524
1.257879,0.006002437,0.2615621,0.2572868,0.1787812,0.1162531,-0.2419188,-0.3284825,-0.2712103
1.27649,-0.04848824,0.2623708,0.2765024,0.1250107,0.1170579,-0.1607783,-0.3845505,-0.02132335
1.092638,-0.09384494,0.1451318,0.09316264,0.08036704,-0.0002168568,0.1132979,-0.4310014,0.0627324
0.8519985,-0.1407683,0.08013883,-0.1470578,0.03414291,-0.06527769,0.1764756,-0.4218,0.1399239
0.6508922,-0.09050742,0.07570726,-0.3478322,0.08508462,-0.0698058,0.4261473,-0.4672596,0.3971785
0.5895355,-0.01042837,0.04126987,-0.4089268,0.1658218,-0.1043627,0.6287226,-0.5752284,0.3887524
0.5919262,0.003141718,0.03439575,-0.4063214,0.1800208,-0.1113729,0.5909518,-0.5793292,0.3193027
0.5678795,0.03376976,-0.02784709,-0.4301769,0.2112403,-0.173761,0.6301694,-0.4367376,0.3062902
0.5384814,0.07979941,-0.09783382,-0.4593844,0.2578149,-0.2438934,0.5073481,-0.228207,0.2425099
0.5114131,0.06368089,-0.09587299,-0.4862403,0.2421849,-0.2420677,0.2169411,0.03880131,0.2763592
0.5040817,0.04084078,-0.04264868,-0.4933153,0.219767,-0.1889568,0.02288448,0.1917238,0.2040077
0.5107164,0.02754811,0.09418603,-0.486359,0.2068222,-0.05220467,-0.1414978,0.1525229,0.09969536
0.5596604,0.02491118,0.1938675,-0.4370091,0.2044519,0.04742884,-0.247018,0.04032931,0.08136682
0.708833,0.03727299,0.1060485,-0.2873305,0.2169935,-0.04040417,-0.4708134,-0.06832041,0.03929896
0.8364088,-0.01214438,-0.04625926,-0.159139,0.1676644,-0.1926931,-0.7242928,-0.02986543,-0.004274752
0.8879263,-0.2094923,-0.0525463,-0.1068936,-0.02968888,-0.1989253,-0.7072851,0.08394617,-0.212689
1.032754,-0.5577123,-0.002954428,0.0387709,-0.3780028,-0.1492367,-0.5561687,0.1262383,-0.5116318
1.293883,-0.7329409,0.09239142,0.3008351,-0.5533967,-0.05374704,-0.2385387,0.09038666,-0.5963859
1.509165,-0.5789731,0.3103925,0.5171331,-0.3996393,0.1644452,0.1316387,-0.0979281,-0.5028706
1.613723,-0.4567861,0.3837825,0.6227576,-0.2776812,0.2380669,0.2099192,-0.4195226,-0.4343605
1.720588,-0.4016397,0.365015,0.7307057,-0.2227622,0.2195595,0.1534152,-0.5943565,-0.3064505
1.846748,-0.2791254,0.355945,0.8579255,-0.1004602,0.2107637,0.2385676,-0.2659937,-0.01142271
1.800258,-0.2290249,0.2190188,0.8124306,-0.05054902,0.07411372,0.238772,0.2476854,0.2603481
1.470312,-0.2000958,0.1916217,0.4833772,-0.02178306,0.04698685,0.09590663,0.3180097,0.4562646
1.035538,-0.1823953,0.24584,0.04936677,-0.004218893,0.1014646,0.002041008,0.163002,0.4885881
0.8130068,-0.2059657,0.2133616,-0.1725365,-0.02789927,0.06923112,-0.2296742,0.0735305,0.4266164
0.7364568,-0.1568589,0.2319354,-0.2485852,0.02112273,0.08803164,-0.330391,-0.1102891,0.5152429
0.5827709,-0.142963,0.2193801,-0.4018784,0.03495757,0.07568129,-0.2250539,-0.3434416,0.5556625
0.5051694,-0.1410103,0.1584531,-0.4791719,0.03687014,0.01493487,-0.2834899,-0.4556025,0.5676858
0.508779,-0.0714417,0.1253065,-0.4753124,0.1064159,-0.01805662,-0.2405726,-0.3616514,0.5430123
0.4733062,-0.05621413,0.09482327,-0.5105652,0.121633,-0.04840871,-0.2232196,-0.1963363,0.2719697
0.4623765,-0.04594906,0.08214386,-0.5212778,0.1318935,-0.0609781,-0.3230933,-0.06091496,-0.008482008
0.3833103,-0.08551294,0.03938102,-0.6001033,0.09232444,-0.1036479,-0.2876468,0.09592245,-0.2292045
0.2966709,-0.2014475,0.02197311,-0.6864512,-0.0236209,-0.1209744,-0.1572695,0.03346001,-0.3249133
0.354781,-0.2440647,0.04955354,-0.6279711,-0.06625564,-0.09331838,0.2662567,-0.3834363,-0.2810822
0.5307209,-0.2740942,0.04347927,-0.4515572,-0.0963073,-0.09931709,0.7005752,-0.7169568,-0.3219922
0.8296628,-0.3300252,0.0290121,-0.1520197,-0.1522604,-0.1137037,0.8330538,-0.4005193,-0.2468757
0.9872676,-0.3566187,-0.05928337,0.006307318,-0.1788694,-0.2019082,0.8979041,0.2042625,-0.008564482
1.018571,-0.3521366,-0.1409841,0.03845408,-0.1743885,-0.2835,0.8589164,0.4844905,0.2277975
1.346161,-0.3285863,-0.04067226,0.3669947,-0.1508174,-0.1830515,0.753042,0.765095,0.241669
1.658305,-0.3111294,0.06588567,0.6801753,-0.133311,-0.07632079,0.6315015,0.7307261,-0.1639099
1.570797,-0.2878063,0.07867606,0.5937542,-0.1099046,-0.06331731,0.4957492,0.3487506,-0.4363334
1.466298,-0.1847221,0.2074893,0.4903576,-0.00670027,0.0657493,0.4170432,0.4615258,-0.3225124
1.535521,0.06245023,0.4306479,0.5606648,0.2406276,0.2891964,0.05561184,0.3901057,-0.2724538
1.480217,0.1960765,0.4689737,0.5063973,0.3744357,0.3278341,-0.5404261,0.1231613,-0.3061973
1.375724,0.01962562,0.3683567,0.4028674,0.1981771,0.2275358,-0.5765947,0.1467974,-0.1689487
1.365933,-0.1485508,0.3347031,0.3939459,0.0301896,0.1941926,-0.2740853,-0.192478,0.01272438
1.213216,-0.1679957,0.2611602,0.2419877,0.01092291,0.1209406,-0.2781703,-0.3016019,0.004669688
1.035927,-0.1706402,0.1273175,0.0653377,0.008444028,-0.01263786,-0.06371219,-0.2333825,0.12023
0.9184864,-0.1377956,0.06466221,-0.05158405,0.04144147,-0.07505703,0.2231948,-0.4674186,0.4102414
0.7920916,-0.06852523,0.01524968,-0.1775743,0.1108505,-0.1242585,0.1364534,-0.326253,0.4518109
0.7460892,-0.008922153,-0.02521975,-0.2232737,0.1705747,-0.1645356,0.1237582,-0.3092726,0.3942598
0.6052745,0.01889671,-0.02523192,-0.3638698,0.1984911,-0.1643663,0.04771971,-0.3722213,0.3998843
0.5392373,0.02105759,-0.04047367,-0.429752,0.2007181,-0.1794288,-0.01977988,-0.1044122,0.4025088
0.6108169,0.04575233,-0.03907472,-0.3580578,0.2254394,-0.1778443,0.04315853,-0.01901884,0.4504676
0.584234,0.08532945,-0.01817528,-0.3845437,0.2649952,-0.1567449,-0.1573313,0.1610827,0.494398
0.6706382,0.09041115,0.01013438,-0.2980402,0.2699986,-0.1282141,-0.3584079,0.371919,0.5074665
0.781321,0.0797706,0.08788538,-0.1872392,0.2592137,-0.05021595,-0.4571825,0.4018977,0.4675251
0.8579209,0.08629136,0.1444515,-0.1104916,0.2655155,0.006625274,-0.5211349,0.419509,0.378573
0.9310611,0.09215632,0.1342305,-0.03716868,0.2710793,-0.003293781,-0.6808668,0.3513891,0.1874149
0.8167641,0.0937596,0.1264376,-0.1512459,0.2722923,-0.01076046,-1.002449,0.3481531,-0.05103598
0.7416286,0.06551317,0.1247791,-0.2261221,0.24356,-0.0120706,-0.9405641,0.24661,-0.1103179
0.7865115,-0.08795581,0.06931244,-0.1809354,0.08950572,-0.06716861,-0.8207908,0.200616,-0.2071028
0.9883427,-0.408662,-0.05508549,0.02124906,-0.2318832,-0.1911772,-0.9302168,0.5006507,-0.5403186
1.369436,-0.7182056,-0.1427694,0.4027424,-0.5421932,-0.2784467,-0.8734277,0.6948056,-0.8263063
1.506183,-0.7569236,-0.08319314,0.539921,-0.5817352,-0.218423,-0.9351762,0.5402689,-0.8860231
1.41403,-0.5898816,0.0345032,0.4482065,-0.4155421,-0.1002384,-1.036981,0.1049137,-0.8594779
1.506711,-0.4975963,0.09197978,0.5413057,-0.3241019,-0.04222874,-1.062001,-0.1804684,-0.8186186
1.798081,-0.503401,0.1259385,0.8330466,-0.3307254,-0.007692653,-1.27735,0.001033511,-0.6896841
1.908562,-0.4222094,0.1847824,0.9438176,-0.2503091,0.05176942,-1.305521,0.2800778,-0.5980858
1.634425,-0.252326,0.2268206,0.669853,-0.08114475,0.09446076,-1.071163,0.3584383,-0.3785469
1.32987,-0.1277391,0.1733375,0.3653211,0.04278568,0.04165834,-0.9941037,0.3332936,0.1061337
1.331441,-0.05913124,0.09649227,0.3667491,0.1107984,-0.03448524,-1.328838,0.4728322,0.2395524
1.328876,-0.1122784,0.1134173,0.3638653,0.0571118,-0.01684173,-1.84507,0.5951108,0.1065104
1.002829,-0.2692714,0.1396177,0.0373219,-0.1003703,0.01009161,-1.864632,0.3689477,0.3081383
0.7181275,-0.3052211,0.139013,-0.2480482,-0.1367601,0.01023132,-1.573762,0.04764746,0.544155
0.6683876,-0.2797525,0.1115672,-0.2986111,-0.1116801,-0.01646155,-1.447783,0.003851119,0.5557027
0.6229969,-0.2694797,0.03726249,-0.3449532,-0.1017408,-0.09000678,-1.350826,0.1865262,0.4196334
0.5907715,-0.2052938,0.04428731,-0.3782297,-0.03783126,-0.08221606,-1.334995,0.3524358,0.1678807
0.5647001,-0.1891965,0.1119884,-0.4054235,-0.02195304,-0.01374165,-1.222138,0.524838,-0.02879232
0.4696611,-0.1784682,0.1546555,-0.5016273,-0.01138805,0.02970578,-0.9499494,0.6092889,-0.1989459
0.3756025,-0.1158331,0.1871513,-0.5968629,0.05113633,0.06298611,-0.8934444,0.5720428,-0.3669608
0.3285854,-0.04530855,0.1847435,-0.6450371,0.1215979,0.06136241,-0.8439503,0.5645669,-0.4299369
0.30108,0.04562232,0.1888331,-0.6736463,0.2125055,0.06623059,-0.7065303,0.4287934,-0.5016923
0.3603335,0.08878196,0.1869061,-0.6154108,0.2556704,0.06507171,-0.7180014,0.2693005,-0.6694041
0.528201,0.09373805,0.169825,-0.448447,0.2606466,0.04874345,-0.7636086,0.1755275,-0.8438716
0.6304154,0.03531995,0.1726625,-0.3470006,0.2022497,0.05231486,-0.7369509,0.05618731,-0.8536264
0.6959718,-0.112661,0.1515701,-0.2820631,0.05428002,0.03193403,-0.5422406,-0.05068097,-0.6421197
0.7554479,-0.2425498,0.1406787,-0.2230495,-0.07561311,0.02172953,-0.1286459,-0.2522418,-0.348304
0.7696413,-0.3826231,0.05665525,-0.2091587,-0.2157045,-0.0616328,0.2329979,-0.3025497,-0.07523064
0.9629883,-0.5578943,-0.1852772,-0.0159551,-0.3909988,-0.3029273,0.3737992,-0.09606232,0.1494028
1.382442,-0.7291286,-0.3305378,0.4035061,-0.5622448,-0.4475634,0.5639462,0.2175949,0.2956232
1.749775,-0.7953194,-0.2290977,0.7709766,-0.628413,-0.3454957,0.8320508,0.5597947,0.2595757
1.790443,-0.6849911,-0.1074263,0.8118733,-0.5180013,-0.223177,0.8984777,0.3808684,0.1086461
1.712975,-0.4715084,-0.02979905,0.7346795,-0.3043513,-0.1448711,0.8537162,0.04614906,-0.02663044
1.802545,-0.1628582,0.1823127,0.8245272,0.004563447,0.06795553,0.6585061,0.1689858,-0.2353435
1.744628,0.01815501,0.3168458,0.7668475,0.1859387,0.2032368,0.3294302,0.06883689,-0.2404287
1.579661,-0.05025232,0.2752888,0.602041,0.1179804,0.1624513,0.05255635,-0.1207817,-0.0606319
1.550524,-0.1330356,0.301797,0.5729585,0.03571928,0.1897419,-0.232289,-0.1364143,-0.1556739
1.414763,-0.2583037,0.2220138,0.437121,-0.08896378,0.1107401,-0.09134452,-0.481794,-0.2088526
1.200609,-0.3083121,0.07347763,0.2227469,-0.1383293,-0.03702423,0.2344193,-0.6554824,-0.1605475
1.031517,-0.2163483,0.06188808,0.05328305,-0.04566623,-0.04785534,0.1846053,-0.6297745,-0.1058546
0.8975593,-0.2417847,0.02945711,-0.08119274,-0.07034848,-0.07954092,0.3792919,-0.7984325,0.2103648
0.8137653,-0.1945656,0.02712444,-0.165639,-0.022323,-0.08113911,0.5050074,-0.7699987,0.3771384
0.6743143,-0.09627863,0.02078138,-0.3058585,0.07681816,-0.08675584,0.3096355,-0.8175077,0.4944027
0.5929129,-0.1438733,-0.02763041,-0.388122,0.03011876,-0.1344462,0.4231732,-0.9256792,0.7423739
0.604768,-0.1184218,-0.01356744,-0.3771964,0.05649903,-0.1196628,0.4572133,-0.7250356,0.7001873
0.568228,-0.0729899,-0.02936126,-0.4147065,0.1028854,-0.1347327,0.5033142,-0.5263521,0.6361201
0.5739308,-0.03734077,0.001916623,-0.4099883,0.1395058,-0.1027231,0.6972305,-0.2243447,0.5375783
0.5601144,0.03646911,0.0498344,-0.4247788,0.2142937,-0.05406285,0.6366671,0.1035707,0.2866097
0.4435888,0.05813318,0.02387411,-0.5422439,0.2369303,-0.07926817,0.5807492,0.1867072,0.2048272
0.3867615,0.09500047,0.04098166,-0.5999508,0.2747508,-0.06139254,0.3972218,0.3168116,0.1590948
0.4947079,0.065901,0.07825093,-0.492798,0.2465712,-0.02334189,0.1956062,0.5310158,0.1039904
0.7027028,0.01292331,0.1276759,-0.2854882,0.1944671,0.02687662,0.3144854,0.574211,0.05864824
0.8021492,0.03588204,0.1217643,-0.1866043,0.2182425,0.02176788,0.2753977,0.2808596,-0.09208333
0.812185,-0.02000606,6.276188e-05,-0.1770024,0.1631052,-0.0991246,-0.1093226,-0.08457146,-0.3306599
0.9813582,-0.2170939,-0.07823859,-0.008133667,-0.0333033,-0.1766108,-0.4611767,-0.1501276,-0.5940127
1.316584,-0.5450357,-0.01155078,0.326911,-0.3606354,-0.1090985,-0.341154,-0.04741087,-0.7226804
1.56505,-0.6771747,0.09348474,0.5753032,-0.4922214,-0.00322602,0.02459597,0.01356741,-0.6828771
1.551041,-0.472742,0.1055371,0.5612967,-0.287271,0.009675936,0.09763683,-0.03770712,-0.6296389
1.513189,-0.4002393,0.182576,0.5234926,-0.2142661,0.08757384,-0.07672621,-0.1218577,-0.7780961
1.627116,-0.4691105,0.3097041,0.6374805,-0.2826361,0.215564,-0.2211637,-0.1536326,-0.8300827
1.749428,-0.4224858,0.2811462,0.7598328,-0.2354996,0.1878614,0.1467264,-0.09609068,-0.2999868
1.833181,-0.342453,0.2743798,0.8435725,-0.154934,0.1819324,0.7066097,0.1242017,0.3069284
1.590766,-0.2386342,0.2740188,0.6010553,-0.05055478,0.1823801,0.5742645,0.3157022,0.3645754
1.095617,-0.1203217,0.1580214,0.105688,0.06834734,0.06715367,0.007107543,0.293941,0.1761449
0.9709069,-0.08610361,0.1397821,-0.01936718,0.1031804,0.04964212,-0.5094645,0.1617515,0.2418523
0.911389,-0.1422231,0.2034844,-0.07935057,0.04769456,0.1140259,-0.6005909,-0.00935484,0.4200927
0.6431255,-0.1983181,0.2125167,-0.348187,-0.007754643,0.1236904,-0.2820449,-0.3051922,0.5617593
0.5743131,-0.1905435,0.1743485,-0.4176593,0.0006738618,0.08610158,-0.2193664,-0.517912,0.7536271
0.530113,-0.1660703,0.1002881,-0.4625797,0.02580629,0.01256505,-0.1331111,-0.4214554,0.6801803
0.4742598,-0.1407739,0.05878681,-0.5191848,0.05176437,-0.0284677,0.07827794,-0.3229289,0.4549964
0.5257092,-0.1150897,0.05149842,-0.4684896,0.07810853,-0.03534024,0.02223262,-0.1806783,0.2337847
0.4708481,-0.1287621,0.04754054,-0.5240796,0.0650898,-0.03893088,0.0473886,0.07925727,-0.1616813
0.4450858,-0.1990937,0.06392567,-0.5505193,-0.004598973,-0.02222279,0.08135405,0.162484,-0.3644153
0.4515942,-0.2955875,0.07814365,-0.5446114,-0.1004627,-0.007722371,0.2363777,0.07429186,-0.3546253
0.4443156,-0.3117044,0.09860513,-0.5523891,-0.1159607,0.01298397,0.8779191,-0.4809295,-0.2215022
0.5819892,-0.2783524,0.1208191,-0.415092,-0.0819973,0.0354071,1.540902,-1.108516,-0.02255554
0.7355757,-0.3023703,0.138324,-0.2617432,-0.1054071,0.05308621,1.857224,-0.7999278,-0.09087473
0.8435861,-0.3179035,0.135958,-0.1538236,-0.1203318,0.05085939,1.806355,-0.2417338,-0.04516224
1.036549,-0.3311998,0.02057781,0.03919576,-0.1330152,-0.06441624,1.642209,0.03429052,0.2580896
1.375325,-0.3632059,-0.1113732,0.3781657,-0.1643993,-0.196294,1.394819,0.4943998,0.5029237
1.558972,-0.3446182,-0.08089472,0.5621226,-0.1451754,-0.1657655,1.046061,0.4628862,0.5277412
1.423209,-0.3338815,0.02786932,0.4267559,-0.1337833,-0.05696556,1.047279,-0.02832677,0.1807894
1.449148,-0.3269741,0.1125808,0.4531454,-0.1261973,0.02777411,1.156866,-0.02591752,-0.05259173
1.639156,-0.2686447,0.1932571,0.6436273,-0.06716323,0.1084723,1.102247,0.1061162,0.0265807
1.655755,-0.1772277,0.2480768,0.660694,0.02498517,0.1633046,0.967198,0.1486577,-0.05957312
1.513821,-0.04782092,0.2597919,0.5191879,0.1551467,0.1750173,0.6383764,-0.01584969,-0.2327006
1.240849,-0.005811634,0.2150983,0.2465768,0.197926,0.130299,0.4177659,-0.4447994,-0.154718
1.125642,-0.1290739,0.1393996,0.1316491,0.07543842,0.05454796,0.4309083,-0.4600788,0.02553349
1.153078,-0.251533,0.1286316,0.1592749,-0.04624989,0.04369701,0.645445,-0.530274,0.08851283
1.01577,-0.2515852,0.1053389,0.02206639,-0.04553851,0.02029027,0.981104,-0.676907,0.2135736
0.8832574,-0.1874569,0.01955908,-0.1104341,0.01934579,-0.06563323,1.041537,-0.4689003,0.3334123
0.7394192,-0.1442663,0.006472732,-0.2543394,0.06328358,-0.07888922,1.050194,-0.5245558,0.3178705
0.6069283,-0.09142614,0.02624657,-0.3869611,0.1168587,-0.05930561,1.21743,-0.4180642,0.3254224
0.608733,-0.02553351,0.03199271,-0.3853304,0.1834682,-0.05376481,1.233413,-0.1498141,0.2328412
0.5139806,0.02496172,0.05372191,-0.4802765,0.2346538,-0.0322515,1.156371,-0.1987576,0.1492089
0.4439779,0.08727041,0.04126378,-0.550468,0.2976155,-0.04493238,1.03596,-0.07024708,0.1949872
0.4974286,0.1007761,0.04265938,-0.4971754,0.3117245,-0.04376317,0.7224619,0.1196891,0.1751603
0.5363386,0.0645636,0.08812382,-0.4583682,0.2760523,0.001474057,0.4450855,0.3032073,0.1448029
0.6393858,0.05246427,0.1169692,-0.3553478,0.2644184,0.03009296,0.3582819,0.3189488,0.09339325
0.7328785,0.04638891,0.07019198,-0.261791,0.2587236,-0.01690957,0.1761083,-0.02812069,0.01694898
0.7864379,-0.01880084,-0.05520094,-0.2080668,0.1938215,-0.1425255,-0.1396848,-0.2305211,-0.09341362
0.9205626,-0.2665004,-0.1160439,-0.07367262,-0.0536874,-0.2035845,-0.301179,-0.261125,-0.2868894
1.195683,-0.6025974,-0.02704256,0.2018197,-0.3896861,-0.1147847,-0.2089139,-0.1332609,-0.3940169
1.550024,-0.6668028,0.1087463,0.5566205,-0.4538689,0.02082367,0.05700964,-0.02094029,-0.3739134
1.729446,-0.4761451,0.1720497,0.7365655,-0.2632406,0.08396924,0.268811,-0.1176296,-0.2930926
1.754522,-0.4079525,0.2094367,0.7621899,-0.1951076,0.1212177,0.1887615,-0.109777,-0.2134311
1.824859,-0.4724076,0.275204,0.8330589,-0.2596369,0.1868593,0.07889849,-0.1216502,-0.1372996
1.853813,-0.447148,0.2820144,0.8624871,-0.2344528,0.1935487,0.2868805,-0.04650463,-0.08653777
1.610404,-0.3392569,0.2520533,0.6194558,-0.1266266,0.1634621,0.5463838,0.1906688,0.03712375
1.138166,-0.1952669,0.2395131,0.1474697,0.01731733,0.1507833,0.6988259,0.2506039,0.3473319
0.8617662,-0.07575789,0.2255211,-0.1288146,0.1368003,0.1366329,0.7335119,0.2220972,0.3923446
0.8124805,-0.02390179,0.2271931,-0.1781152,0.1886457,0.138121,0.3827887,0.0700206,0.2783069
0.7038886,-0.007241355,0.2237658,-0.2868359,0.2053021,0.1344793,-0.01834887,-0.2105845,0.4546192
0.6084925,-0.07822975,0.2021251,-0.3824539,0.1343063,0.1125899,-0.07650533,-0.4292813,0.5748816
0.5647875,-0.1702612,0.1402277,-0.4264494,0.04225633,0.0504066,-0.07808306,-0.4735145,0.6134765
0.5664793,-0.1846158,0.0734078,-0.4250911,0.0278681,-0.01673683,-0.1367276,-0.2177,0.5955837
0.5764196,-0.156472,0.09076877,-0.4155013,0.05596172,0.0002651385,-0.09743195,0.1207298,0.3072014
0.4264737,-0.1282169,0.08755898,-0.56579,0.084149,-0.003335505,-0.03390181,0.3093359,-0.1219169
0.2579373,-0.1793754,0.02775665,-0.7346346,0.03290331,-0.06355657,-0.1527351,0.3558015,-0.5174198
0.2075085,-0.2404172,0.03056959,-0.7853056,-0.02824564,-0.0611854,-0.170589,0.1920761,-0.4790243
0.276033,-0.2627888,0.05046236,-0.716924,-0.05074312,-0.04175184,0.3376025,-0.3672568,-0.2050707
0.59775,-0.3929585,0.04773606,-0.3952208,-0.1810532,-0.04494958,1.036644,-0.8810106,-0.1909731
0.9793896,-0.5332186,0.06784986,-0.01344882,-0.3214598,-0.02531503,1.390112,-0.4341779,-0.1114201
1.034612,-0.5008894,0.04988727,0.04205375,-0.2892708,-0.04376088,1.450499,0.3229077,0.1022785
1.073114,-0.4263215,-0.03823938,0.08097286,-0.2148223,-0.1323707,1.545952,0.4438172,0.3371602
1.413295,-0.3895538,-0.1124823,0.4216931,-0.1781412,-0.2070905,1.547285,0.5430973,0.3963594
1.544346,-0.2694755,-0.05885253,0.5533805,-0.05810945,-0.1539227,1.342199,0.5118636,0.08313843
1.611046,-0.1866221,0.1574886,0.6207828,0.02474085,0.06197922,1.153174,0.1807223,-0.1046245
1.90251,-0.1619126,0.3325003,0.9129763,0.04948884,0.2365754,0.9048547,0.2522469,-0.1563939
1.776213,-0.004001615,0.3225828,0.7873939,0.2074744,0.2262593,0.667749,0.05153921,-0.2179857
1.522306,0.06009439,0.3042535,0.5341447,0.2716714,0.2075375,0.4459743,-0.4508723,-0.1675108
1.474932,-0.03093309,0.3221206,0.4873401,0.1807583,0.2250075,0.1946229,-0.3508889,-0.1425594
1.320522,-0.08391877,0.261834,0.3333888,0.1278883,0.1643096,0.2925895,-0.3406385,0.01058755
1.286149,-0.1581704,0.2106372,0.2993497,0.05374515,0.11268,0.4799282,-0.4760378,0.1001465
1.112568,-0.1811786,0.1804321,0.1259695,0.03083343,0.08201597,0.5911504,-0.3433823,0.1581047
0.8524074,-0.1567565,0.1045469,-0.1341242,0.05533791,0.00564386,0.8830149,-0.3999359,0.4467642
0.835695,-0.1255779,0.07852425,-0.1508944,0.08658304,-0.02089241,0.9708254,-0.414589,0.4645375
0.7026323,-0.03715355,0.07006309,-0.2841242,0.1750549,-0.0298907,0.93716,-0.3303705,0.387814
0.6355367,-0.007239725,0.04628738,-0.3514759,0.2049918,-0.05422254,1.02412,-0.3129978,0.4385761
0.5800953,0.004050548,0.05927117,-0.4072395,0.216273,-0.04180897,0.9512084,-0.1307262,0.3783692
0.4357251,0.04969442,0.02741901,-0.5519723,0.2618671,-0.07424031,0.7618017,0.02939142,0.4056117
0.4939776,0.06524398,0.006951415,-0.4940949,0.277317,-0.09529061,0.448707,0.1557453,0.3929953
0.5206114,0.03355388,0.06007503,-0.4678206,0.2454676,-0.04274752,0.1796146,0.2190623,0.286512
0.6114407,-0.003706203,0.06742768,-0.377311,0.2079804,-0.03596844,0.09941786,-0.07567362,0.1561124
0.7358248,-0.01365663,-0.03926262,-0.2531874,0.1977287,-0.1432212,-0.1895217,-0.4073542,-0.02781106
0.7457232,-0.1707333,-0.1566258,-0.2434773,0.0402731,-0.2611295,-0.4453133,-0.3916183,-0.1108357
0.9094343,-0.4313876,-0.0839626,-0.07987436,-0.2208357,-0.1889848,-0.2532082,-0.1524547,-0.2875745
1.118823,-0.5384767,0.06821399,0.1294881,-0.3284437,-0.03729047,0.1027594,0.1363277,-0.5063519
1.368538,-0.5073268,0.1415371,0.3792501,-0.2978587,0.03559102,0.3171515,0.3201265,-0.5444855
1.515028,-0.3706721,0.2393707,0.5258433,-0.1617954,0.1330223,0.2040925,0.1920879,-0.5733274
1.487924,-0.2420301,0.320082,0.4988724,-0.03375672,0.2133645,-0.08821894,-0.1258599,-0.5632994
1.704794,-0.3946285,0.3440873,0.7158758,-0.1869608,0.2370239,-0.06761611,-0.297457,-0.4748154
1.868907,-0.5822986,0.3465047,0.8800896,-0.3752293,0.239107,0.3231698,-0.2123542,-0.3549447
1.656954,-0.4015633,0.3171911,0.6681688,-0.1950718,0.2094585,0.7144639,0.0760552,-0.04809683
1.299114,-0.1581946,0.2631088,0.3102599,0.04775179,0.1550307,0.7120886,0.2521016,0.400313
0.935632,-0.02633634,0.1828298,-0.05340819,0.179101,0.07438815,0.2868744,0.1105218,0.6003745
0.6447868,0.03619108,0.07517143,-0.3274926,0.2521728,0.1075497,-0.492064,-0.06323755,0.6500223
0.5421503,-0.08954756,0.09977297,-0.4306688,0.1266269,0.1321784,-0.4352461,-0.002894711,0.4976641
0.5386538,-0.05121046,0.04329897,-0.4347792,0.1651797,0.07571615,-0.4149995,0.09073336,0.3007774
0.4652427,-0.06738052,0.01249495,-0.5088494,0.149238,0.04490439,-0.6197503,0.2297187,0.01148323
0.4491869,-0.1780098,-0.03926583,-0.5255798,0.03884097,-0.006885262,-0.7766482,0.3632566,-0.292584
0.4151994,-0.2320034,-0.04114683,-0.560228,-0.01492204,-0.008815851,-0.7540613,0.2818958,-0.2702009
0.3797616,-0.299656,-0.0272983,-0.5962838,-0.08234718,0.004964009,-0.506128,0.08549843,-0.1909542
0.4616416,-0.3154207,-0.05007138,-0.5149512,-0.09788567,-0.017895,-0.04397407,-0.2375648,-0.2786756
0.5358426,-0.3845555,-0.04202512,-0.4412028,-0.1667912,-0.0099501,0.1948892,-0.3809399,-0.2670615
0.6878113,-0.4361697,-0.05864833,-0.2895733,-0.2181671,-0.02668801,0.4764178,-0.20266,-0.2107689
0.8830066,-0.4209226,-0.1171046,-0.09459296,-0.2026644,-0.08526959,0.8444461,-0.06212915,-0.06994019
0.939015,-0.4944414,-0.2051471,-0.03867327,-0.2759013,-0.1734438,0.6723876,0.1047112,0.224897
1.150882,-0.467255,-0.3303441,0.1732254,-0.2483973,-0.2987706,0.4802293,0.2354163,0.291031
1.558134,-0.4632293,-0.4412624,0.5806154,-0.2440084,-0.4098044,0.3503402,0.3125782,0.07724667
1.624948,-0.5358641,-0.392073,0.647647,-0.3162257,-0.3607,0.156302,0.4987709,-0.1078951
1.587137,-0.4719936,-0.1449729,0.6100983,-0.251874,-0.1136385,0.7156267,0.5910791,-0.1955826
1.838963,-0.3914141,0.01649323,0.8621932,-0.1707423,0.04784361,1.247087,0.6517293,-0.2453992
1.749855,-0.1757484,-0.008228717,0.7733216,0.04555012,0.02319163,0.6981352,0.4750664,-0.2737844
1.416416,0.04568764,-0.00638054,0.4400497,0.2676825,0.02515884,-0.0520651,-0.06852707,-0.2683423
1.3443,-0.04251335,0.04782136,0.3680059,0.1802344,0.07952321,-0.2692764,-0.354812,-0.1615821
1.20828,-0.1482862,0.04472673,0.231946,0.0752554,0.07662822,-0.06205477,-0.5373857,0.04772009
1.082936,-0.1745067,0.03153183,0.1064448,0.04985748,0.06366327,0.2890613,-0.7037128,0.2131818
0.9145257,-0.2223129,0.044331,-0.06224102,0.002894779,0.07671618,0.4290442,-0.5823641,0.3414029
0.6637432,-0.1820231,-0.03981271,-0.3134075,0.04404332,-0.007155623,0.4233091,-0.6332791,0.4202588
0.6938367,-0.1352136,-0.1319983,-0.2837891,0.09172148,-0.09905433,0.4520615,-0.5096128,0.287058
0.6886908,-0.1362586,-0.09843198,-0.2894798,0.09154878,-0.06518597,0.4527036,-0.02116157,0.1208521
0.6299532,-0.0769118,-0.04987131,-0.3488097,0.151764,-0.01630677,0.4514369,0.1636976,0.06719034
0.5911594,0.008668504,-0.01408317,-0.3882218,0.2382,0.01981643,0.3095859,0.2190766,0.06075485
0.4264967,0.0692634,-0.01901193,-0.5535052,0.2996263,0.01523739,-0.08775644,0.2673131,0.147243
0.4484425,0.05094795,-0.04285805,-0.5321571,0.2821043,-0.008246884,-0.4334329,0.2514431,0.1846072
0.5538018,-0.05384765,-0.02885794,-0.427346,0.1780507,0.006125017,-0.4993128,0.1511776,0.1253844
0.6546199,-0.08270858,-0.09472421,-0.3270045,0.1498704,-0.05936092,-0.6338987,-0.1333225,0.05929414
0.822499,-0.1500112,-0.195546,-0.1595152,0.08318078,-0.1597934,-1.165046,-0.1449442,-0.06291076
1.01012,-0.4181469,-0.1985745,0.02780983,-0.1844106,-0.16242,-1.360796,0.05514073,-0.221474
1.338742,-0.654104,-0.07090611,0.3562252,-0.4198851,-0.03433245,-0.7845214,0.1201777,-0.396149
1.553038,-0.6592753,0.04830257,0.5703885,-0.4246183,0.08531465,-0.3653307,0.1205603,-0.3891371
1.714428,-0.5438615,-0.04513086,0.7316918,-0.3087894,-0.007663609,-0.5261475,0.07335912,-0.2325212
1.991684,-0.543693,-0.1169921,1.00887,-0.3082093,-0.0790562,-0.5886885,0.09146002,-0.2203582
1.958097,-0.5727058,0.02226015,0.9751709,-0.3367981,0.06067676,-0.1944333,0.01967362,-0.1164548
1.706032,-0.5041682,0.1005698,0.7229132,-0.2678101,0.1394764,0.1308191,-0.07286941,0.08351591
1.435364,-0.4014677,0.04995421,0.4519363,-0.1646208,0.08935412,0.1725872,0.1218996,0.2169786
1.06759,-0.1759107,0.03944958,0.08371657,0.06146912,0.07933923,0.1349514,0.2408754,0.4108946
0.8939213,-0.02460379,0.05494667,-0.09053704,0.2133508,0.09531662,-0.1052302,0.08727641,0.4309751
0.8664116,-0.05712712,0.04812396,-0.1187617,0.1814341,0.08895961,-0.3374619,-0.05157769,0.3738311
0.7243512,-0.05073292,0.05722461,-0.2616504,0.1884535,0.09850643,-0.4283045,0.001001838,0.4289947
0.6194928,-0.06305522,0.06225972,-0.3674296,0.1767623,0.1039635,-0.4438346,0.1338419,0.3522754
0.5239093,-0.05356209,0.037726,-0.4640013,0.1868808,0.07982301,-0.4268716,0.2489277,0.2764683
0.3727262,-0.006490671,0.01453552,-0.6162107,0.2345608,0.05699359,-0.624442,0.3440035,0.1808436
0.3048557,-0.02979674,-0.002810112,-0.6851121,0.2118354,0.03997459,-0.792126,0.231251,-0.02510538
0.3217546,-0.0924262,-0.03275508,-0.6692133,0.1497483,0.01032097,-0.8216584,0.1037053,-0.1010114
0.3692014,-0.2219936,-0.0674626,-0.6227009,0.02067766,-0.02412992,-0.7450029,0.03817684,-0.1195427
0.4101586,-0.3213075,-0.06000147,-0.5825815,-0.07818732,-0.01644492,-0.4976575,-0.3259151,-0.178049
0.5561741,-0.4041217,-0.02245887,-0.4372815,-0.1605971,0.02129111,-0.2502038,-0.5958366,-0.2608491
0.8045033,-0.4962405,-0.01471985,-0.1895273,-0.2523475,0.0291947,0.3264284,-0.4135053,-0.2374753
0.9103657,-0.4444218,-0.03994208,-0.08409176,-0.2001853,0.004108915,0.9054496,-0.2536837,0.01056462
0.9738868,-0.4179045,-0.1590751,-0.02085062,-0.1733374,-0.1149142,0.7623494,-0.2527478,0.3233836
1.231638,-0.4661612,-0.3361224,0.2367595,-0.2212662,-0.2918726,0.4105228,-0.03030008,0.513025
1.471374,-0.4678317,-0.3518038,0.4764761,-0.2226019,-0.3074749,0.2053944,0.2214701,0.2231408
1.351425,-0.526972,-0.2646704,0.3566057,-0.2813901,-0.2202582,0.08212738,0.07181991,-0.3106366
1.250875,-0.5306736,-0.2454377,0.2562052,-0.2847119,-0.2009249,0.3087947,-0.02962152,-0.4695788
1.584648,-0.3190862,-0.1725482,0.5901748,-0.07270688,-0.1279083,0.5560503,0.2260329,-0.4388297
1.784009,-0.027646,-0.0395853,0.7897506,0.219192,0.005213899,0.3376212,0.3386016,-0.3645317
1.592878,0.09112339,-0.01516378,0.5988185,0.3384538,0.02982752,0.02190405,0.1658165,-0.246199
1.407496,-0.03683946,-0.03839705,0.4135884,0.2110016,0.006816369,-0.2555659,0.01487915,-0.09363317
1.258766,-0.1481475,-0.003006413,0.2649389,0.100207,0.04245533,-0.4809266,-0.03249728,0.1406228
1.065002,-0.1814207,0.01810322,0.07117103,0.06743984,0.06383535,-0.2878512,-0.1152449,0.1902407
0.8861625,-0.2318706,-0.02150055,-0.1077585,0.01748292,0.02451943,-0.04621368,-0.153529,0.1882357
0.7972108,-0.1624314,-0.07001717,-0.1968796,0.0873989,-0.02369576,0.09253564,-0.06977435,0.2273943
0.7846722,-0.06863728,-0.09274129,-0.2096541,0.1816498,-0.04610682,0.2546501,0.001361942,0.1475043
0.8051557,-0.01299578,-0.09240657,-0.1894578,0.2377213,-0.04544762,0.1278867,0.2258998,0.08810324
0.8186491,0.1143471,-0.08899336,-0.176288,0.3654572,-0.04169804,-0.02689809,0.5635603,0.06063139
0.733352,0.128913,-0.07362768,-0.2619318,0.3803656,-0.02598371,-0.2709723,0.6815602,0.179569
0.6121577,0.08476146,-0.03463168,-0.3834808,0.3364905,0.01337286,-0.7189798,0.6820114,0.3701333
0.5252877,0.1112935,-0.01459247,-0.4706953,0.3632184,0.03378302,-0.8605622,0.6449705,0.372893
0.5463784,0.05351,0.005360318,-0.4499178,0.3055375,0.05411426,-0.9251811,0.5717662,0.306255
0.7138033,0.03153729,0.05294082,-0.2827539,0.2835636,0.1020767,-1.066522,0.4944616,0.203569
0.8514795,0.05783252,0.06061348,-0.1452714,0.3097458,0.1101295,-1.168131,0.3363171,0.1161908
0.8677147,-0.01133323,-0.01154565,-0.1291551,0.2403486,0.03834322,-1.427668,0.2678071,0.1063945
0.8000363,-0.1028147,-0.1281085,-0.1968742,0.148513,-0.07785774,-1.591238,0.2788032,0.09394426
0.7920956,-0.2902322,-0.1700193,-0.2047744,-0.03938081,-0.1194169,-1.56503,0.2414404,0.008510733
0.8863197,-0.5133913,-0.1223393,-0.1104253,-0.26313,-0.07139172,-1.508917,0.3211714,-0.2714448
1.027868,-0.6470321,-0.08163915,0.03133325,-0.3974573,-0.03034897,-1.238989,0.3644474,-0.6549718
1.292324,-0.7044673,-0.01012036,0.2960791,-0.4556508,0.04151163,-0.8813401,0.1345619,-0.7988552
1.589523,-0.5649994,0.02404992,0.5936312,-0.3169853,0.07602176,-0.8397112,-0.03158994,-0.4972786
1.86282,-0.4376674,-0.01866359,0.8673157,-0.1904756,0.03364308,-0.9150031,0.2736681,-0.2031517
1.983273,-0.4328027,0.01279993,0.9881512,-0.1864356,0.06543304,-0.8336505,0.7075538,-0.2568403
1.78222,-0.289919,0.06320288,0.7874288,-0.04436678,0.1161506,-0.9100304,0.7980622,-0.149504
1.469331,-0.1103596,0.0845399,0.4747805,0.1343938,0.1377857,-1.081845,0.80585,0.157809
1.062904,0.0008088908,0.09305897,0.06847777,0.2447785,0.1465806,-1.278073,0.7649047,0.3965529
0.7654761,0.03602431,0.04580566,-0.2289486,0.2792174,0.09957465,-1.757956,0.5005992,0.6765359
0.8253624,-0.020244,0.03365318,-0.1691731,0.2221688,0.08763633,-2.139278,0.3399765,0.8346114
0.7971962,-0.103935,0.04315628,-0.1975454,0.1376842,0.09731699,-2.167841,0.3155852,0.8601525
0.7034309,-0.2431267,0.02379985,-0.2915943,-0.002320122,0.07809897,-1.862745,0.3181203,0.8156959
0.7149382,-0.2649919,0.007791241,-0.2804292,-0.02501725,0.06218773,-1.423531,0.3681061,0.6201499
0.5800083,-0.1644606,-0.03837989,-0.4157398,0.07466569,0.01607217,-1.391284,0.3624139,0.3886689
0.5257869,-0.1594993,-0.07461463,-0.4703581,0.07876415,-0.02014777,-1.49053,0.4335021,0.06239301
0.5400805,-0.1811877,-0.08350756,-0.4564534,0.05619883,-0.02906391,-1.407919,0.4920016,-0.1336649
0.3979254,-0.2134774,-0.08647905,-0.5989645,0.02301818,-0.03209273,-1.312739,0.2740109,-0.01387626
0.3544614,-0.2878769,-0.06724718,-0.6427253,-0.05228446,-0.01294828,-1.107193,-0.182798,0.004212539
0.4879192,-0.4058024,-0.03068019,-0.5094785,-0.1711207,0.02350453,-0.7205048,-0.5510226,-0.05807523
0.8158164,-0.5465544,0.02743752,-0.1816847,-0.3127817,0.08148304,0.026998,-0.1538184,-0.08453384
1.125459,-0.5333692,0.05476064,0.1279709,-0.3004899,0.1086415,0.7254932,0.7358109,-0.2772728
0.9296085,-0.2796871,0.08923768,-0.06775276,-0.04767078,0.1429259,0.5962809,1.00166,-0.5159898
0.5877981,0.07396075,0.146335,-0.4093297,0.3051513,0.1997985,0.1268398,0.4671467,-0.4985023
0.6554806,0.1095967,0.02678333,-0.3413044,0.3399929,0.07998525,-0.1443107,-0.1672401,-0.008493452
1.019594,-0.3260601,-0.2524983,0.02326717,-0.09643828,-0.1995966,-0.319555,-0.09937612,0.4611281
1.446509,-0.7701083,-0.4034784,0.4507512,-0.5412435,-0.3509087,-0.1798787,0.4305761,0.1151331
