accx,accy,accz,body_accx,body_accy,body_accz,body_gyrox,body_gyroy,body_gyroz
0.9638116,-0.2382863,-0.5311934,0.04361163,-0.004514025,-0.2120044,-0.09214456,0.04336452,0.06125029
0.9855932,-0.3647313,-0.5792606,0.06504329,-0.1313312,-0.2611871,-0.08204077,0.1562237,0.2431819
1.053044,-0.5326911,-0.583176,0.1321637,-0.2996813,-0.2661526,0.1151911,0.2107323,0.3804917
1.187,-0.6640613,-0.5706888,0.2658022,-0.4314464,-0.254639,0.2711305,0.4594405,0.352402
1.324301,-0.664053,-0.4533289,0.4027883,-0.4318185,-0.1381663,0.3955536,0.8041533,0.1566974
1.450021,-0.6706579,-0.2343813,0.528179,-0.4387677,0.07998562,0.3559922,0.7792205,-0.2186716
1.438421,-0.6679171,-0.1033,0.5162149,-0.4363145,0.2103595,0.2251453,0.3139442,-0.7172179
1.313812,-0.5247538,-0.1645171,0.3911842,-0.2933636,0.1485132,0.1655029,-0.167404,-1.05818
1.206395,-0.3934851,-0.2507827,0.2832713,-0.162219,0.06168469,0.09215954,0.03202664,-1.060346
1.014952,-0.2745619,-0.2115676,0.09124692,-0.04332601,0.1003939,0.01667162,0.3094729,-0.9235144
0.8081257,-0.170831,-0.1456595,-0.1162462,0.06046757,0.1658451,-0.07165892,0.04872946,-0.7577386
0.6993546,-0.213804,-0.05953627,-0.2257621,0.0176437,0.2515511,-0.1240755,0.0001433663,-0.4182174
0.6123524,-0.2220385,0.02502819,-0.3135711,0.009636823,0.3357253,-0.06959575,-0.0277782,-0.0802024
0.612138,-0.182919,-0.02149555,-0.3146347,0.04905493,0.288823,-0.001895686,-0.2253632,-0.05292181
0.6222343,-0.1910961,-0.04844251,-0.3054087,0.04123997,0.2614941,0.07248295,-0.2499449,-0.1063402
0.555841,-0.1278792,-0.07464692,-0.3726731,0.1048743,0.2348913,0.008097894,-0.5581761,-0.08388853
0.5696813,-0.09829682,-0.163647,-0.3596849,0.1349203,0.1454662,-0.2089067,-0.7931534,-0.220137
0.60585,-0.1428733,-0.1471891,-0.3243301,0.09084357,0.1614655,-0.3647381,-0.7167739,-0.4448372
0.6514489,-0.1860544,-0.1368684,-0.2794899,0.04818886,0.1712891,-0.5298555,-0.8283833,-0.6099118
0.7754252,-0.2687366,-0.1577159,-0.1562039,-0.03394683,0.1499019,-0.5603865,-0.9106683,-0.6662032
0.898528,-0.3008131,-0.1843486,-0.03371565,-0.06546023,0.1226834,-0.3162617,-0.964726,-0.5801437
1.023836,-0.2491385,-0.3022217,0.0910547,-0.01320706,0.004176756,-0.1085185,-0.8253531,-0.5332111
1.053141,-0.1759504,-0.354413,0.1198941,0.06057393,-0.0486935,-0.1050227,-0.3287293,-0.5537738
0.9864499,-0.1013738,-0.3012378,0.05280141,0.1357535,0.003762453,-0.2074097,0.0490794,-0.5990403
0.9546011,-0.06232582,-0.216722,0.02060716,0.1754075,0.08752392,-0.2618483,0.2042691,-0.7122305
0.9181557,-0.1005062,-0.1605665,-0.01613281,0.1378268,0.1428922,-0.3031794,-0.03335795,-0.7022284
0.9533267,-0.2753977,-0.2373289,0.01879129,-0.03647901,0.06530933,-0.3026525,-0.5412618,-0.3823882
1.097465,-0.4474369,-0.4587462,0.1627263,-0.207949,-0.1569606,-0.1218993,-0.9362995,0.2362449
1.207854,-0.3957079,-0.774175,0.2729478,-0.1556629,-0.4732656,0.05343776,-1.084741,0.7851171
1.21461,-0.3073769,-0.927812,0.2795592,-0.06677957,-0.6277826,0.1133353,-0.7270123,0.8316638
1.269837,-0.3541117,-0.7746172,0.3346498,-0.1129618,-0.4754433,0.03359873,-0.4361519,0.694928
1.506758,-0.3235741,-0.6442216,0.5714251,-0.0818679,-0.3458515,-0.04878974,-0.5009849,0.6840059
1.600539,-0.2782365,-0.6841795,0.665029,-0.03596754,-0.3865407,0.1197962,-0.3383172,0.4559232
1.446609,-0.3042181,-0.6396674,0.510862,-0.06137861,-0.3426712,0.2282731,0.03646979,-0.01504327
1.33519,-0.2157858,-0.5234567,0.3991241,0.02763222,-0.2270013,0.1479597,0.6444745,-0.4429925
1.231734,-0.1923584,-0.4883277,0.2952497,0.0516444,-0.1923024,0.1405514,1.072325,-0.622502
1.064132,-0.2174737,-0.4320095,0.1271201,0.02711678,-0.1362993,0.1770879,0.7561397,-0.4387854
0.7951985,-0.0871838,-0.3535035,-0.1424506,0.1579928,-0.05799256,0.1854971,0.4166477,-0.2250014
0.5748689,-0.02430251,-0.3295791,-0.3635159,0.2214518,-0.03415444,0.1459815,0.2709104,-0.08741047
0.6582025,-0.001992707,-0.3004379,-0.280997,0.2443207,-0.004991603,0.1210596,-0.1084789,0.1779525
0.6762548,0.09727518,-0.2116434,-0.2638151,0.3441168,0.08392495,0.147208,-0.4365854,0.3626037
0.6012971,0.1279343,-0.1546114,-0.3396776,0.3752588,0.1411698,0.1727414,-0.5852084,0.4634964
0.7670137,-0.02180293,-0.2290621,-0.1748806,0.225944,0.06701055,0.2544973,-0.5097016,0.5624441
0.8379966,-0.2441894,-0.2904838,-0.104816,0.003909006,0.005948065,0.3738773,-0.2314771,0.6345582
0.7734176,-0.266863,-0.3043092,-0.170301,-0.01848672,-0.007458803,0.4313104,-0.07321409,0.7555932
0.7930658,-0.2196008,-0.3199599,-0.1515375,0.02898291,-0.02263714,0.4405297,0.1975606,0.7034988
0.8041216,-0.213226,-0.2933874,-0.1413364,0.03549895,0.00445671,0.518084,0.5034493,0.6240797
0.8386957,-0.1184603,-0.3241966,-0.1075793,0.130342,-0.02578654,0.5797086,0.5728417,0.6325626
0.8593352,-0.1022085,-0.3432914,-0.08771326,0.1466075,-0.04427464,0.4932506,0.7186861,0.4764699
0.8923693,-0.1669424,-0.2979376,-0.05540507,0.08182196,0.001723287,0.3744297,0.808781,0.3932129
0.9621951,-0.1791651,-0.2841031,0.01374424,0.06948159,0.01623558,0.2287135,0.824009,0.275574
0.9423306,-0.1565094,-0.2467214,-0.00674775,0.09195416,0.0543242,0.1066676,0.7282907,0.03970417
0.9344296,-0.107229,-0.2404357,-0.01522858,0.1409866,0.06134012,0.06072645,0.3097579,0.006410835
0.9497274,-0.1043728,-0.2874039,-0.0004645241,0.1435297,0.01511924,-0.05291414,0.1037614,-0.004287196
0.9461377,-0.1525724,-0.3356352,-0.004543478,0.09495057,-0.03235256,-0.144207,0.1394937,0.01103866
0.9683041,-0.2224374,-0.3919276,0.01717649,0.02463987,-0.08787572,-0.1425624,0.1470847,0.1168942
0.9595354,-0.3037801,-0.4238069,0.008001872,-0.05721163,-0.1189759,-0.09172148,0.2309042,0.1834341
0.9508581,-0.3628947,-0.4694156,-0.001043033,-0.1168913,-0.163793,0.01123075,0.3282162,0.229834
0.9809273,-0.4175404,-0.4966375,0.02869454,-0.1721483,-0.1902068,0.05673279,0.4434507,0.198137
1.13543,-0.5075946,-0.45838,0.182898,-0.2628476,-0.1511196,0.08368876,0.4718748,0.2260608
1.469349,-0.7185617,-0.3457778,0.5165422,-0.4744769,-0.0376617,0.2285915,0.6168174,0.2183968
1.658117,-0.8663117,-0.1957799,0.7050389,-0.622884,0.1132175,0.3728014,0.8172087,-0.1903603
1.486606,-0.6615989,-0.2069144,0.5332334,-0.4187958,0.1029845,0.2637584,0.487455,-0.8514958
1.267708,-0.3637804,-0.2971127,0.3139912,-0.1215462,0.01370016,0.07769118,0.2106898,-1.229474
1.124986,-0.2061349,-0.2774105,0.1708563,0.03559775,0.03432202,0.09034588,0.5234671,-1.086453
0.8530934,-0.06741413,-0.2075658,-0.1015223,0.1738842,0.1050869,-0.01999665,0.6658066,-0.832895
0.6750666,-0.05275423,-0.0775158,-0.280104,0.1881688,0.2360506,-0.2436813,0.2355575,-0.4794556
0.7100369,-0.1709657,0.02867162,-0.245743,0.06962998,0.3431344,-0.2287984,-0.2090917,0.07556619
0.6948477,-0.2142149,0.01302649,-0.2615777,0.02609274,0.328353,-0.1179157,-0.2811405,0.2030675
0.7022066,-0.232577,-0.000194247,-0.2548828,0.007476492,0.3159468,-0.02196971,-0.3294791,0.09584106
0.7330621,-0.2551933,-0.02683581,-0.2246936,-0.01536265,0.2900553,-0.00203013,-0.5464261,0.1857698
0.6941652,-0.1872531,-0.1270261,-0.2642445,0.05238392,0.1905382,-0.05902352,-0.6652916,0.1304893
0.6785546,-0.09171131,-0.2245796,-0.280483,0.147758,0.09357301,-0.1018233,-0.5926046,0.003481356
0.6479286,-0.08427276,-0.2607123,-0.3116969,0.1550485,0.0579402,-0.2932647,-0.4210624,-0.1955707
0.651036,-0.1585943,-0.2003631,-0.3091235,0.08059096,0.1187012,-0.4823667,-0.2892211,-0.5164154
0.6956346,-0.2284583,-0.1019596,-0.2649921,0.01059681,0.2174283,-0.4453141,-0.3767824,-0.6241819
0.7299282,-0.2797599,-0.07172932,-0.2310877,-0.04083162,0.2478909,-0.3996607,-0.5906845,-0.6288208
0.8296332,-0.2654575,-0.1664011,-0.131686,-0.02665235,0.1533554,-0.4330171,-0.6086934,-0.6173006
0.897126,-0.1799177,-0.3068655,-0.06440703,0.05876887,0.01292861,-0.4720411,-0.4567813,-0.5715921
0.8905347,-0.126815,-0.3046375,-0.07112274,0.1117565,0.01509781,-0.5359638,-0.34357,-0.5946092
0.8640499,-0.06617004,-0.235451,-0.09764459,0.1722857,0.08413401,-0.5998601,-0.3703656,-0.5539977
0.8173992,-0.04116858,-0.2201942,-0.1442467,0.1971639,0.09915347,-0.6177529,-0.5601159,-0.4684415
0.8342114,-0.1363863,-0.1708385,-0.1273006,0.1018079,0.1481872,-0.5884693,-0.775072,-0.335818
0.9151617,-0.2846983,-0.1429628,-0.04613143,-0.04666262,0.1756568,-0.4159575,-0.9943726,-0.09755486
1.028604,-0.4273272,-0.2016377,0.06761226,-0.1894695,0.1164914,-0.08618236,-1.092982,0.1943922
1.165517,-0.4631818,-0.376747,0.2049,-0.2255144,-0.05919175,0.1536694,-0.9381612,0.5723453
1.26943,-0.4443303,-0.6828566,0.3092494,-0.2068541,-0.3659508,0.1783416,-0.5806847,0.7524138
1.326566,-0.4173159,-0.8240878,0.3668643,-0.1800207,-0.5078888,0.09953743,0.0513237,0.6827025
1.349794,-0.2873499,-0.7145459,0.390592,-0.05021643,-0.3990853,0.06907879,0.3341067,0.775305
1.38624,-0.1757763,-0.6874569,0.4275366,0.06121916,-0.3727397,0.1218816,-0.1892852,0.8610328
1.426703,-0.1281644,-0.7225343,0.468475,0.1087156,-0.4085421,0.1215507,-0.6131457,0.599376
1.435649,-0.09681231,-0.5952193,0.47785,0.1399697,-0.2819136,-0.006779305,-0.4515037,0.09193038
1.405926,-0.1632891,-0.4808771,0.4484878,0.07340558,-0.1682034,-0.1312892,0.04859333,-0.4253143
1.256635,-0.2558689,-0.5006186,0.2994712,-0.01925599,-0.1885122,-0.09075033,0.6990226,-0.5844478
1.024351,-0.2413264,-0.4466734,0.0673626,-0.004791807,-0.135063,-0.00923759,0.9853159,-0.4052179
0.8201884,-0.157782,-0.3171706,-0.1367271,0.07867706,-0.005981417,-0.03444234,0.8434563,-0.3053132
0.6723752,-0.04689632,-0.2808135,-0.2845604,0.1894875,0.03002874,-0.06427027,0.6501989,-0.1057261
0.6014974,0.1020518,-0.2659481,-0.3555346,0.3383536,0.04461715,-0.1104505,0.1453907,0.3135777
0.607125,0.1568891,-0.1885603,-0.3500584,0.3930895,0.1217915,-0.1432095,-0.4721853,0.6003137
0.6870813,0.08966675,-0.1816103,-0.2702871,0.3257305,0.1285831,-0.07607717,-0.5457838,0.8551995
0.793768,0.03814806,-0.264037,-0.1638005,0.2740251,0.04604411,-0.04603906,-0.4200496,1.102859
0.890248,-0.04085458,-0.3294386,-0.06752296,0.1947744,-0.0194306,-0.06440671,-0.2858464,1.15687
0.9328367,-0.1202622,-0.3773825,-0.02513197,0.1150506,-0.06741205,-0.09669214,0.085412,1.114921
0.9072198,-0.1428882,-0.3866667,-0.0509386,0.09203773,-0.07669897,-0.1664794,0.3764674,1.000666
0.9210914,-0.1797282,-0.3803238,-0.03724648,0.0547407,-0.07032287,-0.1893551,0.5662467,0.8310159
0.9012243,-0.1627709,-0.3815949,-0.05728086,0.07117312,-0.07152401,-0.2215325,0.8135237,0.6174759
0.8233558,-0.1073629,-0.3246574,-0.1353019,0.125991,-0.01447928,-0.348942,0.9292069,0.5017354
0.7974159,-0.09441736,-0.2550808,-0.1613752,0.1382824,0.0552406,-0.5237575,0.9003397,0.567193
0.7854571,-0.08670643,-0.2185133,-0.173442,0.1452751,0.09198347,-0.6661579,0.8560364,0.5803715
0.8177926,-0.08241677,-0.2269751,-0.1411825,0.1487819,0.08372314,-0.7162447,0.771337,0.6288065
0.8629917,-0.05483583,-0.2570992,-0.09602182,0.1755143,0.05381994,-0.740856,0.598433,0.7153633
0.8951667,-0.03161025,-0.2579224,-0.06384394,0.1978244,0.05323148,-0.7904358,0.4421402,0.7261046
0.9445765,-0.05110248,-0.2917627,-0.01438898,0.1773477,0.01963542,-0.840907,0.2858572,0.8227453
0.9327697,-0.06336735,-0.3421042,-0.02610929,0.1640277,-0.03045531,-0.8812218,0.06175072,0.9041386
0.9405834,-0.09990458,-0.3702254,-0.01816959,0.1263639,-0.05832008,-0.8915959,-0.02600273,0.9056584
0.9593149,-0.1508126,-0.3948229,0.0007250125,0.07425903,-0.0826546,-0.9124421,0.06578603,0.8784565
0.9092013,-0.217316,-0.4322988,-0.04919051,0.006491773,-0.1198583,-0.9527724,0.1230715,0.8239351
0.8824877,-0.3374837,-0.5111359,-0.07567277,-0.1150001,-0.1984099,-0.9601518,0.1612426,0.8156379
0.8788726,-0.4160658,-0.5227003,-0.07902327,-0.1949557,-0.2096692,-0.9528131,0.33932,0.7954013
0.9977873,-0.5647372,-0.4971116,0.04018916,-0.3450344,-0.1837483,-0.8453662,0.7202124,0.7857172
1.410789,-0.9378986,-0.4974745,0.4535171,-0.7196149,-0.1837445,-0.4268818,1.300648,0.6301032
1.802301,-1.149772,-0.3918015,0.8453653,-0.9328866,-0.07766495,-0.03181867,1.71897,-0.1879295
1.662951,-0.8479261,-0.3248458,0.7063308,-0.6323772,-0.01026047,-0.3257302,1.638472,-1.428178
1.303789,-0.428968,-0.3667802,0.3474292,-0.2146587,-0.05170507,-0.7872907,1.525268,-1.844006
1.113666,-0.192868,-0.3212268,0.1574877,0.0203174,-0.005623341,-0.7849359,1.593129,-1.311636
0.7693036,0.1142397,-0.2350807,-0.18678,0.3264172,0.081086,-1.146463,1.324203,-0.9933422
0.6007316,0.2691024,-0.1848014,-0.3553378,0.4803741,0.1319573,-1.7457,0.8526438,-0.6812704
0.7860582,0.03462326,-0.1352393,-0.1700607,0.2450687,0.1821314,-1.682321,0.5270302,-0.005689349
0.7440814,-0.1626547,-0.09201194,-0.2121334,0.04702441,0.2259795,-1.552743,0.1712519,0.402152
0.7267769,-0.2243533,-0.1487928,-0.2295654,-0.01539178,0.1698158,-1.57829,0.02559138,0.7304718
0.7579581,-0.2525199,-0.2969729,-0.1985296,-0.04423056,0.02223905,-1.458136,0.1582351,0.9810466
0.6318223,-0.2651943,-0.317805,-0.3248153,-0.05753204,0.001990587,-1.438252,0.06272744,0.9696352
0.7119537,-0.3886043,-0.2464658,-0.2448244,-0.1815223,0.07389141,-1.36435,-0.1106448,0.8776763
0.7855322,-0.4604157,-0.2100161,-0.1713638,-0.2538624,0.1108785,-1.282544,-0.1408929,0.4619116
0.8090869,-0.4542669,-0.1684654,-0.1478948,-0.2481827,0.1529382,-1.292905,-0.2457334,0.06239534
0.9577015,-0.4552848,-0.1666433,0.0006720008,-0.2496005,0.1552349,-1.185883,-0.3045154,-0.1749596
1.036973,-0.3745959,-0.1618735,0.07993457,-0.169234,0.1604384,-1.090914,-0.18661,-0.432549
1.04591,-0.3313271,-0.1576236,0.0888978,-0.1262043,0.1650746,-0.9996797,0.0906472,-0.460287
0.9084784,-0.2733669,-0.2365773,-0.04847897,-0.06839742,0.08645446,-0.9303394,0.4811418,-0.47848
0.7389507,-0.1374479,-0.2850856,-0.2179245,0.06745253,0.03822376,-0.979171,0.7120677,-0.4621153
0.6863666,-0.109152,-0.2553623,-0.2703951,0.09575793,0.06816793,-1.023604,0.6285688,-0.3398136
0.6510056,-0.1169721,-0.1712105,-0.3056024,0.0880169,0.1524839,-1.063223,0.2542981,-0.2089872
0.6503092,-0.07946871,-0.03652703,-0.3060934,0.1256589,0.2872722,-1.064465,-0.2909894,0.002944
0.6346057,-0.08074108,0.04497382,-0.3215287,0.1245744,0.3688112,-1.032834,-0.6256123,0.03414413
0.7022718,-0.112646,0.003157603,-0.2535209,0.09289646,0.3269553,-1.050591,-0.5935196,0.02503833
0.8247568,-0.114915,-0.06984856,-0.1306133,0.09088461,0.2538204,-1.076942,-0.539916,0.03528198
0.835882,-0.1085196,-0.1136602,-0.1189812,0.09755921,0.209783,-1.099465,-0.6110288,-0.02001946
0.8073112,-0.1296332,-0.3062372,-0.1469608,0.07674,0.01687951,-1.126632,-0.7893979,0.1731871
0.7636207,-0.1333079,-0.6785449,-0.1899766,0.0733684,-0.3558508,-1.230699,-1.216218,0.6833323
0.9497993,-0.1270641,-0.9433325,-0.003040136,0.07991848,-0.6211398,-1.324183,-1.693632,1.58069
1.42327,-0.1691078,-1.041895,0.4712655,0.03817965,-0.7202526,-1.052218,-1.971848,2.120261
1.794746,-0.4049939,-1.187348,0.8436308,-0.1974055,-0.8662638,-0.6258561,-1.739459,1.364927
1.88374,-0.741968,-1.269419,0.9335327,-0.5340768,-0.9488607,-0.5878371,-0.2768974,0.1955747
1.798411,-0.7098043,-1.094379,0.8490818,-0.5015925,-0.774269,-0.700094,1.917699,-0.4147831
1.515331,-0.4425461,-0.8308894,0.5668072,-0.2339752,-0.5111122,-0.6818042,2.823929,-0.6438708
0.8578708,-0.3741671,-0.4404208,-0.08995072,-0.1651835,-0.1208368,-0.7316524,2.103827,-0.6126208
0.4735111,-0.3218225,-0.06441917,-0.4737168,-0.1123661,0.2551171,-0.7512149,1.311173,-0.3074335
0.6455559,-0.1463827,-0.09544018,-0.3011718,0.06360761,0.2241827,-0.7584263,0.3045067,0.04018048
0.6062512,0.03648258,-0.1753465,-0.3400465,0.2470622,0.1444779,-0.9295795,-1.064037,0.1201473
0.5541144,0.1291172,-0.1360189,-0.3918015,0.3403286,0.1841032,-0.9936826,-1.550609,0.007506305
0.6370105,0.07113379,-0.2495495,-0.3085515,0.2830009,0.07095016,-0.8206817,-1.693079,0.1732935
0.5993075,-0.01300375,-0.4109782,-0.3459092,0.1995246,-0.09003296,-0.5789633,-1.678338,0.5622006
0.7369229,-0.1078026,-0.5381785,-0.2079411,0.105378,-0.2167255,-0.3505498,-1.136992,0.8959588
0.8598265,-0.166394,-0.5823345,-0.08466552,0.04742082,-0.2603101,-0.1851413,-0.7049087,1.093167
0.9232113,-0.1103895,-0.565381,-0.02088376,0.1040361,-0.2427164,-0.1444427,0.1841492,0.9511488
0.981151,-0.142565,-0.5209642,0.0374779,0.07244384,-0.197585,-0.2277027,0.710338,0.8184028
0.8766094,-0.1998131,-0.4234404,-0.06661892,0.0157481,-0.09926876,-0.2627408,0.2877755,0.7647898
0.8660202,-0.1935348,-0.4075849,-0.07674214,0.02254605,-0.08254286,-0.1841737,0.4919783,0.4625187
0.8470365,-0.2282774,-0.3960049,-0.09523847,-0.01170983,-0.07001737,-0.1122606,0.6353943,0.298202
0.7746328,-0.1834475,-0.3398907,-0.1671314,0.03357451,-0.01288682,-0.04008413,0.3968403,0.2388817
0.7774036,-0.1016159,-0.3427603,-0.1638229,0.1158279,-0.0146751,0.04509115,0.4926551,0.1849442
0.7140887,-0.07219316,-0.333609,-0.2265681,0.1456373,-0.004384082,0.08016024,0.466866,0.2869077
0.6716646,-0.0725365,-0.3036088,-0.2683841,0.1456409,0.02680715,0.01565051,0.4912389,0.3105795
0.651678,-0.1527972,-0.2719727,-0.2877161,0.06568232,0.05967798,-0.04714984,0.3999986,0.3996348
0.6574574,-0.2384416,-0.2249074,-0.2812266,-0.0197071,0.1080126,0.08489276,0.1111077,0.4883144
0.7359127,-0.2769979,-0.2146231,-0.2019978,-0.05805433,0.1195907,0.3344257,-0.03145526,0.4329684
0.8111326,-0.2623877,-0.2576754,-0.1259356,-0.04327691,0.07784626,0.5604609,-0.146313,0.3883048
0.9140752,-0.2438854,-0.3037268,-0.02208108,-0.02464432,0.03310734,0.7216764,-0.02370063,0.2280604
0.9746427,-0.2749627,-0.318612,0.03946459,-0.0556239,0.01953208,0.7810465,0.1609277,0.1383173
0.9942506,-0.2647014,-0.3317981,0.06010929,-0.04529327,0.00764867,0.8250899,0.2558786,0.1550379
0.9946986,-0.259894,-0.3979382,0.06164354,-0.04044066,-0.05719964,0.8169585,0.3492157,0.0951954
0.9419084,-0.2971042,-0.5582397,0.009979791,-0.07762564,-0.2162205,0.6421272,0.3209355,0.09806625
0.9182732,-0.3766138,-0.7077716,-0.01249647,-0.157125,-0.3644783,0.4257091,0.4630951,0.09067998
0.9140697,-0.5334099,-0.7144977,-0.01551422,-0.3139179,-0.3699255,0.3558694,0.6786504,0.1096939
1.039032,-0.6588506,-0.6729714,0.110655,-0.4393497,-0.327102,0.4746911,0.7860649,0.2471384
1.405081,-0.9103388,-0.6500105,0.4779221,-0.6908035,-0.3028126,0.6832908,1.150009,0.2370779
1.690827,-1.174014,-0.584663,0.7648784,-0.9543909,-0.2360948,0.8279006,1.315343,-0.2887199
1.500512,-0.8154073,-0.4502945,0.5757331,-0.5956082,-0.1003082,0.6647892,0.4532646,-1.139261
1.200931,-0.3139413,-0.2886844,0.2772504,-0.09385008,0.06276871,0.3765908,-0.4379998,-1.433742
1.256393,-0.4036562,-0.285833,0.3337189,-0.1831452,0.06712979,0.4095178,-0.13712,-1.27931
1.108687,-0.3524512,-0.3278437,0.1869143,-0.1313934,0.02666256,0.3535553,0.1121194,-1.244287
0.7969831,-0.03889526,-0.1807717,-0.1240004,0.1828315,0.1753016,0.1471398,-0.2397297,-0.9066033
0.8780705,-0.1681572,-0.1191937,-0.0422317,0.05434971,0.2384584,0.2995273,-0.08959775,-0.4231132
0.8497493,-0.2778551,-0.08572691,-0.06997148,-0.05447054,0.2735005,0.3962831,0.04792492,-0.279392
0.7096944,-0.201957,0.0317988,-0.2095349,0.02239188,0.3925806,0.3777872,-0.07284615,-0.2308118
0.7641736,-0.2937693,-0.06925325,-0.1546424,-0.06837752,0.2930428,0.4513253,0.05480717,-0.1682467
0.6742005,-0.2284584,-0.1297894,-0.2442665,-0.001952464,0.2339631,0.3125043,-0.06542515,-0.03589152
0.5673973,-0.1321931,-0.1116231,-0.3507702,0.09549061,0.2535138,0.2065588,-0.2383121,0.07101006
0.5644995,-0.1655573,-0.1776119,-0.3534003,0.0633581,0.1888263,0.1656966,-0.4458423,-0.06642853
0.5811218,-0.1334487,-0.1058457,-0.3365231,0.09674142,0.2618014,-0.002961533,-0.9053405,-0.3434732
0.6949521,-0.2019259,-0.1011634,-0.2224335,0.0295714,0.2675915,-0.1763947,-0.9927701,-0.7356521
0.7862527,-0.2827207,-0.1346958,-0.1308563,-0.04989221,0.2350572,-0.3171777,-0.9744845,-1.021618
0.8322201,-0.2773183,-0.1389647,-0.08458747,-0.04313999,0.2316689,-0.2129749,-0.9848843,-1.019534
0.8368743,-0.2515827,-0.304234,-0.07960346,-0.01603923,0.06715777,-0.1029233,-0.7355821,-1.000847
0.7881942,-0.164615,-0.3682256,-0.1279236,0.07230514,0.003801264,-0.2178826,-0.4358828,-0.9547921
0.7701635,-0.1326488,-0.338658,-0.1455616,0.1056534,0.03388497,-0.243537,-0.07346335,-0.8133549
0.7378278,-0.1076581,-0.2758786,-0.1774686,0.1320232,0.0970671,-0.2592172,0.008919503,-0.7061757
0.7250959,-0.08363053,-0.1323754,-0.1897312,0.1574172,0.2408626,-0.2034217,-0.2686063,-0.5782775
0.7561908,-0.1519601,-0.1205791,-0.1581216,0.09043177,0.2528396,-0.04683145,-0.6232364,-0.3892747
0.828408,-0.2561839,-0.2112888,-0.08534054,-0.01247787,0.1621952,-0.03783957,-1.102423,-0.04195061
1.043194,-0.4244857,-0.4155211,0.1300583,-0.1794982,-0.04208802,0.09383108,-1.36775,0.4986823
1.24601,-0.4969219,-0.7282698,0.3335292,-0.250682,-0.3549972,0.2778225,-1.22654,0.8124781
1.286119,-0.4182155,-0.9099178,0.3743189,-0.1707443,-0.5368965,0.1992944,-0.8459979,0.7489872
1.405985,-0.3827965,-0.8846084,0.4948711,-0.1341064,-0.5119014,0.1943639,-0.2677452,0.6540464
1.641638,-0.3239547,-0.8204115,0.7311888,-0.07405285,-0.4480505,0.361791,0.2938459,0.531319
1.620743,-0.2391074,-0.8223366,0.7109059,0.01200152,-0.4503254,0.42629,0.3310365,0.2257041
1.40627,-0.2084385,-0.68722,0.4969607,0.04387143,-0.3155384,0.3888205,0.234393,-0.2412942
1.256012,-0.1726468,-0.4858496,0.3471212,0.08085427,-0.1144594,0.3243825,0.633502,-0.6877016
1.055699,-0.1513272,-0.4485812,0.1471008,0.1033494,-0.07743456,0.2675395,0.6220791,-0.717727
0.8789692,-0.1629478,-0.4412996,-0.02946584,0.09288219,-0.07034516,0.2412381,0.2648584,-0.4876174
0.7076145,-0.1765817,-0.4059072,-0.2007808,0.08037299,-0.03509305,0.2866057,0.1954755,-0.3405988
0.5777457,-0.1505898,-0.3829757,-0.330719,0.1074555,-0.01225079,0.3918995,-0.06728672,-0.08870344
0.6816062,-0.05124826,-0.3327925,-0.227017,0.2078472,0.037892,0.3943889,-0.1092479,0.1039925
0.6289728,0.03594346,-0.2291925,-0.2798772,0.2960403,0.1414959,0.406927,-0.1743088,0.1705226
0.5696784,0.005432317,-0.1913796,-0.339447,0.2664703,0.1793489,0.5625407,-0.531009,0.3767144
0.7520426,-0.08992539,-0.2488455,-0.157388,0.1719821,0.1219497,0.665699,-0.4151701,0.5140872
0.7699236,-0.1363692,-0.2181705,-0.1398267,0.1263276,0.152708,0.7078057,-0.2751135,0.6370049
0.8134544,-0.1348432,-0.2304775,-0.09661957,0.1285582,0.1404919,0.7843895,-0.1202581,0.8000811
0.8406953,-0.08942167,-0.3550929,-0.06969919,0.1745966,0.01596793,0.8660269,0.1612585,0.7476276
0.7704521,-0.03685923,-0.4175726,-0.1402541,0.2276847,-0.04642389,0.8398433,0.2678962,0.6279994
0.8591551,-0.07420967,-0.4088568,-0.05184852,0.1907641,-0.03762398,0.6752827,0.5885305,0.477433
0.8234562,-0.1373078,-0.333504,-0.08782628,0.1279956,0.0378107,0.5504242,0.8009422,0.3366672
0.8122812,-0.2044165,-0.2950198,-0.09925789,0.06111489,0.07637414,0.5035515,0.8671318,0.2649674
0.8878447,-0.2760819,-0.2818833,-0.02392543,-0.01042245,0.08958467,0.492892,0.9652777,0.06708295
0.8428969,-0.2543191,-0.2349181,-0.06907664,0.01137357,0.1366147,0.4629229,0.8063275,-0.06969507
0.9066749,-0.2227488,-0.2366789,-0.005473387,0.04288834,0.1349041,0.4148071,0.6549659,-0.08434803
0.9343556,-0.1933067,-0.2283496,0.02206113,0.0721914,0.1432631,0.4343459,0.3655957,-0.114266
0.9109617,-0.1290668,-0.288,-0.001451907,0.136212,0.08361673,0.3836194,-0.04390912,-0.06534069
0.9349899,-0.1565093,-0.4091933,0.02248189,0.1084713,-0.0376016,0.2655954,-0.1652011,-0.01185518
0.9011199,-0.2232429,-0.4675295,-0.01145958,0.04136158,-0.0959907,0.1666777,-0.195171,0.04839096
0.9803388,-0.3583727,-0.535252,0.0677086,-0.09421849,-0.1637889,0.08983071,-0.186705,0.1028125
1.276336,-0.7863042,-0.6138308,0.3636708,-0.5226644,-0.2424574,0.2098833,-0.01287178,0.08386709
1.69882,-1.257436,-0.6466867,0.7861215,-0.9943501,-0.2754055,0.6733266,0.43881,-0.00209199
1.803212,-1.22583,-0.4372597,0.8904525,-0.9632976,-0.0660613,1.183174,0.8728062,-0.5568712
1.5346,-0.7803683,-0.1702133,0.6217168,-0.5183425,0.2009182,1.018888,0.7152177,-1.427227
1.345439,-0.3961188,-0.27089,0.4323352,-0.1345188,0.1001881,0.6627311,0.295523,-1.608735
1.051142,-0.147498,-0.3716045,0.1377027,0.1137705,-0.0005727254,0.8217811,0.1307578,-1.137535
0.7655977,-0.0258505,-0.2777291,-0.1482977,0.2351769,0.0932594,0.5768166,0.09084207,-0.753355
0.7897657,-0.02990934,-0.2246268,-0.1246974,0.2309542,0.1463179,0.148331,0.03884,-0.3347185
0.7611803,-0.07746903,-0.07446268,-0.1539475,0.1832918,0.2964313,0.2430358,0.01999715,0.06380403
0.702162,-0.2095751,0.06916071,-0.2137108,0.05113,0.4399856,0.2191717,-0.07731404,0.03677073
0.7166531,-0.2579241,0.03777876,-0.2000278,0.002763113,0.4085001,0.1938938,-0.2626868,-0.001584395
0.6538117,-0.1646819,0.00807632,-0.2637231,0.09601963,0.3786415,0.2092033,-0.4355608,0.1106972
0.623855,-0.1063813,-0.03151194,-0.2945614,0.1543613,0.3388285,0.05280616,-0.714032,0.07679029
0.6463181,-0.07554486,-0.10905,-0.2729896,0.1852571,0.2609844,-0.04305602,-0.885957,-0.04775036
0.7182637,-0.1204979,-0.1448944,-0.2019276,0.1403724,0.2247441,-0.2951537,-0.8076129,-0.3671487
0.8203473,-0.1848517,-0.1941287,-0.1007062,0.07608734,0.1750189,-0.5041194,-0.6926623,-0.7812415
0.8270616,-0.2022686,-0.2308362,-0.09482407,0.05873337,0.1377233,-0.5218457,-0.5982583,-1.005845
0.8072162,-0.2314401,-0.2664527,-0.1154654,0.02961572,0.101422,-0.4789398,-0.8712846,-1.017184
0.8390396,-0.2054349,-0.3606142,-0.08439692,0.05566362,0.00648224,-0.361973,-1.137143,-0.7385355
0.921754,-0.188386,-0.3737108,-0.002392827,0.07274211,-0.007480168,-0.4308354,-0.4986089,-0.4139707
1.002291,-0.1772182,-0.311326,0.07747934,0.08392417,0.05395907,-0.4599739,0.2876992,-0.3475859
0.9705095,-0.1090969,-0.2475093,0.04507493,0.1520411,0.116757,-0.414192,0.2610488,-0.3741768
0.860229,-0.08489464,-0.1706488,-0.06578888,0.1762155,0.1925293,-0.4965745,-0.1889893,-0.2865512
0.7761487,-0.09632666,-0.2097431,-0.1504136,0.164726,0.152278,-0.5318835,-0.6415063,-0.1634899
0.7708276,-0.1100879,-0.3051831,-0.1562368,0.1508714,0.05561255,-0.6687413,-0.9573386,-0.1257285
0.8569014,-0.1523682,-0.3192534,-0.07061753,0.1084568,0.04025123,-0.7355576,-0.9716501,-0.06095086
0.9354517,-0.2747423,-0.368419,0.007528968,-0.01409528,-0.01026551,-0.5767716,-0.9387256,0.05333513
0.9472063,-0.3809245,-0.5315706,0.01892985,-0.1204974,-0.1748201,-0.4870432,-1.080099,0.3209693
1.04332,-0.3265594,-0.7416748,0.1147369,-0.0663882,-0.3863657,-0.4478866,-1.088602,0.8183319
1.258352,-0.2974939,-0.7919861,0.3295012,-0.0376073,-0.4381363,-0.4474365,-0.838709,1.068925
1.500408,-0.365917,-0.7146285,0.5713145,-0.1063375,-0.3622313,-0.3978131,-0.5158335,1.024771
1.717722,-0.356204,-0.8049979,0.788386,-0.0969476,-0.454022,-0.1344129,-0.2640126,0.9781277
1.695192,-0.2463819,-0.9121574,0.765581,0.01254148,-0.5625478,0.1290001,0.08551163,0.4559972
1.476609,-0.09452483,-0.8542051,0.5466577,0.1640585,-0.5058816,0.09533336,0.8237874,-0.4062769
1.257676,-0.03769783,-0.6768472,0.3272894,0.2205356,-0.3297064,-0.05660124,1.545613,-0.5483913
0.9044724,-0.129101,-0.3797461,-0.02645519,0.128766,-0.03366869,-0.03112116,1.682608,-0.3200032
0.620123,-0.1596059,-0.2613954,-0.3114512,0.09787192,0.08374188,-0.1202703,1.213174,-0.3192037
0.5957215,-0.06158535,-0.3246006,-0.3365884,0.1954763,0.01971457,-0.2903342,0.6193205,0.03463463
0.5511017,0.04434572,-0.280816,-0.3820094,0.3009586,0.06278649,-0.2824362,0.230848,0.3126168
0.5286014,0.0907454,-0.2681582,-0.4053509,0.3468683,0.07483229,-0.3430029,-0.4104809,0.2790872
0.6351976,0.0211254,-0.2754458,-0.2996112,0.2767057,0.06702477,-0.3003547,-1.110335,0.5060629
0.8008827,-0.0950028,-0.265831,-0.1347777,0.1599726,0.07620265,-0.07716962,-1.255377,0.6370786
1.01012,-0.1492103,-0.3726016,0.07362565,0.1050926,-0.03092969,0.0715823,-1.096387,0.9316986
1.105293,-0.1565182,-0.4749663,0.167985,0.09704401,-0.1335859,0.1867129,-0.5961897,1.231734
1.082488,-0.1141362,-0.5076911,0.1443836,0.1386181,-0.1665325,0.1380522,0.2881277,0.8637314
1.048237,-0.07409844,-0.4569064,0.1093454,0.1777815,-0.1158976,0.05718343,0.8928977,0.6098698
0.9702094,-0.07660688,-0.3573092,0.030537,0.1743316,-0.01637654,0.08526184,0.961258,0.4935708
0.8766605,-0.06734058,-0.2869151,-0.06378887,0.1825879,0.0540132,-0.02084013,0.8907235,0.3336932
0.8140208,-0.06202042,-0.2057783,-0.1271989,0.186828,0.1352113,-0.1128855,0.7737402,0.4850603
0.783442,-0.04274591,-0.2399669,-0.1585353,0.2049508,0.1011406,-0.1074923,0.5636163,0.5561423
0.7461233,0.01038685,-0.3212408,-0.1965904,0.2568582,0.02003167,-0.1343127,0.6316365,0.6691577
0.7060247,0.02322855,-0.2795423,-0.2373946,0.2683977,0.06193473,-0.2181564,0.7738149,0.8675379
0.6802005,-0.02918115,-0.282281,-0.2638827,0.2146052,0.05943424,-0.4105912,0.6835131,0.8966439
0.6599253,-0.1120712,-0.2768676,-0.2847685,0.1302497,0.06511326,-0.5214446,0.5978027,0.9583805
0.728853,-0.1669288,-0.2169528,-0.2163869,0.07384476,0.125315,-0.4734742,0.4055988,0.9574448
0.8232693,-0.1788346,-0.2501664,-0.122443,0.06031457,0.09240252,-0.3992026,0.2177251,0.8750711
0.8528839,-0.1939513,-0.2666129,-0.09322225,0.04350261,0.07626437,-0.2890336,0.1448701,0.770124
0.9546354,-0.1941707,-0.2646842,0.00821485,0.04152403,0.07850268,-0.2409214,0.08854604,0.6427549
1.097694,-0.1515235,-0.3071048,0.1510353,0.08235514,0.03638819,-0.2670789,0.2311522,0.6105659
1.112938,-0.1190336,-0.2963003,0.1661079,0.1129777,0.04749173,-0.2920788,0.28987,0.6013083
1.104331,-0.1052479,-0.2728304,0.1573861,0.1248489,0.07125071,-0.375632,0.2525823,0.5814393
1.193695,-0.07848554,-0.2754241,0.2466783,0.1496519,0.06893307,-0.4225483,0.3469053,0.4971727
1.202424,-0.08135165,-0.2812364,0.255366,0.1447835,0.06338056,-0.4393318,0.2949435,0.3197494
1.091924,-0.1119563,-0.3024908,0.1448402,0.1121348,0.0423669,-0.5774626,0.07056202,0.2039187
0.9897219,-0.1312272,-0.3817688,0.04261839,0.09078026,-0.03669104,-0.7888572,-0.4190089,0.30436
0.9236884,-0.2362109,-0.671357,-0.02343525,-0.01632278,-0.3260773,-1.006472,-0.591076,0.7770459
1.138734,-0.5598775,-1.005684,0.1915875,-0.3421361,-0.6602086,-1.056927,0.5788371,1.213837
1.557151,-0.9206098,-0.9542449,0.6099721,-0.7050236,-0.6085574,-0.8762639,1.809481,0.7972616
1.697241,-0.9203265,-0.7397231,0.7500006,-0.7068726,-0.3937789,-0.7873529,1.663184,-0.2154574
1.648228,-0.7092198,-0.6838177,0.7008676,-0.4978384,-0.3375508,-0.8373419,1.49089,-0.9226338
1.606607,-0.5957418,-0.5618828,0.6590353,-0.3863415,-0.2152132,-0.8263463,1.734719,-1.095003
1.393309,-0.3206427,-0.4697935,0.4454088,-0.1131106,-0.1226343,-0.8383564,1.287879,-0.7589689
1.025881,-0.02384486,-0.4504558,0.07751793,0.1819403,-0.1027181,-1.038562,1.069152,-0.2895444
0.8155849,-0.05606015,-0.3516141,-0.1333783,0.1480955,-0.003211433,-1.339731,1.306301,-0.00997069
0.7624201,-0.1435667,-0.3836115,-0.1872689,0.05906699,-0.03446241,-1.487025,1.096852,0.3576201
0.6149229,-0.2196156,-0.3420577,-0.335599,-0.01840532,0.007912753,-1.481878,1.036874,0.5956856
0.5499547,-0.3014299,-0.2142064,-0.4014832,-0.1015486,0.1366521,-1.350015,0.821267,0.7510218
0.5596841,-0.2331428,-0.2973023,-0.3927267,-0.03449719,0.05450092,-1.056169,0.4333306,1.093223
0.4759034,-0.2072334,-0.2953825,-0.4775095,-0.00973075,0.05741127,-0.9140266,0.4213484,1.205751
0.5301752,-0.3225742,-0.2580068,-0.4242422,-0.1261231,0.09581354,-0.8986031,0.1278514,1.153745
0.6185551,-0.4730205,-0.2485305,-0.336844,-0.2775286,0.106343,-0.7247882,-0.07218945,0.9109319
0.691253,-0.5865258,-0.1112545,-0.2650845,-0.3918945,0.2446882,-0.5530461,-0.1225341,0.3107558
0.8128339,-0.6026872,-0.09570374,-0.1443838,-0.4088062,0.261311,-0.4460343,-0.3821773,-0.2820553
0.7806629,-0.5666597,-0.1334221,-0.1773676,-0.373405,0.2246523,-0.4059622,-0.3620482,-0.6948913
0.7635521,-0.5006473,-0.1328578,-0.195217,-0.3078826,0.2262496,-0.4238227,-0.1297082,-0.8906807
0.7667021,-0.3769254,-0.1730582,-0.1927257,-0.1845059,0.1870429,-0.3481215,0.2006953,-1.063443
0.6724935,-0.2299438,-0.1699742,-0.2875063,-0.0377219,0.1910708,-0.3182478,0.2211466,-1.193121
0.6259625,-0.1415105,-0.135529,-0.3345149,0.0506569,0.226401,-0.3286334,-0.06330518,-1.156439
0.5743596,-0.06854894,-0.08089962,-0.3864904,0.123697,0.281847,-0.2962947,-0.2337407,-1.194897
0.6011781,0.01214909,-0.0845871,-0.3599283,0.2045925,0.2788978,-0.3598582,-0.6139796,-1.17856
0.710668,-0.0120569,-0.1264579,-0.2505681,0.1806857,0.2376768,-0.4323538,-0.9116812,-1.108389
0.7844268,-0.03839787,-0.1387948,-0.1768055,0.1547282,0.2258924,-0.4957687,-0.9317204,-1.048404
0.9162289,-0.02317438,-0.2027778,-0.044865,0.1704034,0.1623584,-0.5550783,-0.8201221,-0.8905677
0.9877417,-0.03581017,-0.2602456,0.02691627,0.1582728,0.1052328,-0.5159945,-0.5362977,-0.8073311
0.952592,-0.0131523,-0.3171706,-0.007843363,0.1814757,0.04854281,-0.5012025,-0.3966141,-0.7076951
0.9011573,-0.07376522,-0.3833995,-0.05877608,0.1214347,-0.01755483,-0.5745978,-0.3588089,-0.4666362
0.8406775,-0.2259226,-0.466301,-0.1186496,-0.03013415,-0.1004223,-0.7444347,-0.5949696,-0.004591579
0.9052589,-0.3063478,-0.7368146,-0.05336304,-0.1099591,-0.3709878,-0.8801585,-1.177618,0.7543728
1.012567,-0.3333986,-1.012259,0.05474296,-0.1363977,-0.6465504,-0.7179258,-1.415725,1.36075
1.079481,-0.3849765,-0.9803667,0.1225395,-0.1873477,-0.6148128,-0.5204834,-1.241674,1.420853
1.354294,-0.5634306,-0.7820265,0.3983055,-0.365152,-0.4166315,-0.5598939,-1.01271,1.055191
1.723638,-0.7862764,-0.7064954,0.7686486,-0.5873138,-0.3412363,-0.3634016,-0.7788521,0.5830062
1.805351,-0.8254517,-0.8412786,0.8513731,-0.6257517,-0.4761121,0.2198008,-0.3539543,0.1255572
1.668334,-0.6225346,-0.9816903,0.715336,-0.4220213,-0.6165534,0.5792303,0.4473338,-0.3818676
1.486075,-0.3560044,-0.8610008,0.5339893,-0.1545843,-0.4958085,0.5539777,1.326647,-0.834088
1.13993,-0.2086984,-0.6058726,0.1886571,-0.006272165,-0.2405201,0.485343,1.524393,-1.02909
0.7784801,-0.08354453,-0.422559,-0.1720895,0.1199822,-0.05693081,0.4887555,0.8973031,-0.9661626
0.7198056,-0.04043313,-0.2971406,-0.2301678,0.1642765,0.06887792,0.4872956,0.2885743,-0.8638772
0.6819621,-0.09341905,-0.2518865,-0.2675072,0.1125403,0.1146284,0.5049919,-0.1837195,-0.7096108
0.518201,-0.03063004,-0.2285573,-0.4308376,0.1766304,0.1385467,0.6110333,-0.6979393,-0.4330935
0.5746057,-0.02684786,-0.2514437,-0.374054,0.1817499,0.1163278,0.6890459,-0.8955448,-0.1551489
0.6579928,-0.06516844,-0.3431909,-0.290318,0.144788,0.02531311,0.7904588,-0.9416199,0.192331
0.6462467,-0.01692338,-0.3339024,-0.3017264,0.1943991,0.03538859,0.9550885,-0.6932505,0.4515732
0.7309137,-0.04654965,-0.3130381,-0.2167176,0.1661331,0.05708586,0.9760128,-0.2248061,0.4553636
0.7033239,-0.03589793,-0.2973697,-0.2439494,0.178127,0.07362514,0.9500667,-0.09302073,0.4311227
0.6671554,-0.01147529,-0.2569369,-0.2797329,0.2038621,0.1149582,0.9542995,-0.02442499,0.411996
0.6935324,-0.09258729,-0.2837331,-0.2529341,0.1240222,0.08908248,0.9366428,-0.1317181,0.3981303
0.6304573,-0.1578073,-0.2646004,-0.3155404,0.06002551,0.1091465,0.9471389,-0.3570375,0.3904506
0.7321848,-0.2122135,-0.2979642,-0.2132876,0.006789067,0.07671677,0.9918938,-0.1302172,0.3708004
0.8938579,-0.2078478,-0.388638,-0.05102595,0.01226944,-0.01302721,1.142134,0.2636723,0.3794704
0.9406558,-0.1931288,-0.3759214,-0.00357536,0.0280481,0.0006107405,1.236739,0.6934062,0.2425797
0.9752037,-0.2404253,-0.3523381,0.03168516,-0.01824345,0.02510471,1.113234,1.018988,0.02790482
0.9426862,-0.2382171,-0.322059,-6.63163e-05,-0.01508378,0.05628122,0.9828246,0.9133196,-0.108904
0.9233135,-0.2160986,-0.3290661,-0.01862599,0.007934249,0.05015492,0.9332507,0.6996441,-0.2325472
0.8996993,-0.1628803,-0.3619128,-0.04138543,0.06200126,0.01816889,0.8637413,0.4250378,-0.2761283
0.8529875,-0.08614694,-0.3772233,-0.08720446,0.1395319,0.003696263,0.7308287,0.06871591,-0.2334116
0.8924763,-0.100352,-0.4813163,-0.04678694,0.1260694,-0.09958247,0.5614001,-0.01264945,-0.1446441
0.9583152,-0.2492293,-0.5636681,0.02001404,-0.02212362,-0.1811411,0.4419649,0.04239627,0.02071361
1.057726,-0.4995018,-0.5803203,0.1204153,-0.2717688,-0.1970151,0.5281628,0.05366876,0.1976823
1.158947,-0.6174322,-0.6173827,0.2226472,-0.3891191,-0.233306,0.7046645,0.2106361,0.2356082
1.259486,-0.5849232,-0.5956535,0.3242036,-0.3560601,-0.2108028,0.709522,0.4975962,0.08707089
1.386605,-0.5997353,-0.4014898,0.4523302,-0.3703331,-0.0158549,0.696993,0.6425021,-0.1979934
1.377365,-0.5943263,-0.1605247,0.4440651,-0.3643775,0.2259063,0.7073388,0.457165,-0.6348677
1.283206,-0.549782,-0.1654368,0.3508265,-0.3192629,0.2217949,0.6311101,0.1882275,-1.014017
1.215889,-0.4844252,-0.2459579,0.2843577,-0.2532978,0.142067,0.5509829,0.1151658,-1.118459
1.116845,-0.3310405,-0.1703998,0.1860765,-0.09925731,0.2183995,0.4447107,0.1839449,-1.059598
1.007048,-0.179285,-0.1213969,0.07694707,0.05320482,0.2681469,0.367497,0.2369747,-0.8832704
0.8858064,-0.1253009,-0.06787668,-0.0437217,0.1079425,0.3223695,0.2840767,0.01545229,-0.6214416
0.7836583,-0.1744026,-0.008453057,-0.1453882,0.05963307,0.3824392,0.2090469,-0.3396545,-0.4098341
0.7500918,-0.238693,-0.07460676,-0.1785545,-0.003834877,0.3168602,0.3340732,-0.5380363,-0.2960083
0.7222707,-0.234765,-0.1173516,-0.2060441,0.0009395345,0.2746049,0.4572063,-0.7218429,-0.1838121
0.7061394,-0.2302597,-0.1486992,-0.2218987,0.006310687,0.2436511,0.4697143,-0.8135269,-0.0493227
0.7050241,-0.2316503,-0.1994246,-0.2227782,0.005801507,0.1932162,0.4448124,-0.7298039,-0.04046113
0.6992145,-0.2084908,-0.1592951,-0.228379,0.02985397,0.233528,0.3496358,-0.6405975,-0.1315479
0.7124815,-0.2040972,-0.1522813,-0.2149172,0.03514785,0.2406117,0.286741,-0.5356323,-0.3169669
0.7049639,-0.2179586,-0.1655126,-0.2222421,0.02218968,0.2273341,0.2300843,-0.4427776,-0.6314169
0.690634,-0.2369098,-0.1302421,-0.2363704,0.00414066,0.2624385,0.1475722,-0.4768496,-0.8111572
0.6982945,-0.2301086,-0.1466285,-0.2284889,0.01183959,0.2457624,0.1119256,-0.689317,-0.7904634
0.7361476,-0.2178674,-0.167182,-0.1903856,0.02497149,0.224793,0.1438046,-0.9278536,-0.7718112
0.8502233,-0.2495361,-0.1902439,-0.07602328,-0.005816168,0.201187,0.2489204,-0.913282,-0.7829636
0.9583216,-0.2576745,-0.2436021,0.03240113,-0.01308528,0.1471566,0.315982,-0.7145554,-0.7825936
0.9899379,-0.2265302,-0.2676904,0.06438083,0.01891501,0.1222701,0.3134272,-0.5263582,-0.777105
0.9799641,-0.1928567,-0.2712795,0.05480236,0.05342959,0.1177609,0.2984032,-0.3320421,-0.7545141
0.9270997,-0.162957,-0.2519506,0.00235921,0.0841522,0.1360526,0.3051905,-0.264536,-0.7127129
0.8544604,-0.1659904,-0.23879,-0.06983702,0.08191931,0.1480637,0.3348965,-0.4227671,-0.6004775
0.8481958,-0.2197323,-0.2647478,-0.0756379,0.02895136,0.1208483,0.3533581,-0.6331201,-0.1827087
0.9785536,-0.314049,-0.3547381,0.05520365,-0.06462055,0.02949749,0.442705,-0.8032113,0.4313195
1.120218,-0.3417112,-0.5636215,0.1973689,-0.09156618,-0.1808411,0.5388648,-0.7542787,0.5961406
1.109998,-0.2812714,-0.7379477,0.1876586,-0.03043499,-0.3567016,0.5230326,-0.5027972,0.3269812
1.080771,-0.2469595,-0.6938691,0.1589391,0.004545775,-0.3142145,0.430698,-0.3459611,0.2279636
1.191238,-0.2398979,-0.5956536,0.2699006,0.01225465,-0.2176234,0.3425743,-0.2483842,0.2416367
1.426424,-0.2796144,-0.6224126,0.5055545,-0.02683647,-0.2460188,0.4583162,-0.2478213,0.1590991
1.68048,-0.3242938,-0.7005748,0.7600313,-0.07091168,-0.3258109,0.6330619,-0.1161938,-0.04998172
1.686042,-0.2436856,-0.7699908,0.76594,0.01028109,-0.3968312,0.587434,0.5750563,-0.5539186
1.35869,-0.1475178,-0.7034087,0.4388271,0.1070144,-0.3318078,0.4734683,1.134619,-0.9403649
0.9651076,-0.1510282,-0.4697718,0.04535602,0.1040476,-0.09966592,0.3982276,0.7616109,-0.8727185
0.6939052,-0.1788335,-0.3025533,-0.2258669,0.07675966,0.06613108,0.4117359,0.07677395,-0.721139
0.5927201,-0.1727678,-0.2179062,-0.327192,0.0833122,0.1494305,0.5165802,-0.1738791,-0.5170358
0.5623937,-0.1104599,-0.2072279,-0.3577562,0.1460726,0.1588289,0.5626843,-0.4844942,-0.2234143
0.5214317,-0.006004554,-0.2727093,-0.3990286,0.2509406,0.09212686,0.5927973,-0.8029887,0.03332855
0.5904712,0.05405225,-0.2710817,-0.3303472,0.311362,0.09258564,0.6518294,-0.6350407,0.3231191
0.6814235,0.04153437,-0.2779676,-0.2397783,0.2991493,0.08457713,0.7608521,-0.598128,0.5490947
0.7246516,0.02744568,-0.3041733,-0.1969409,0.2852946,0.05729034,0.9037192,-0.4893432,0.6740188
0.7720634,0.01065381,-0.3115994,-0.1499143,0.268655,0.04882098,0.9179511,-0.1007042,0.6990753
0.750467,-0.05283241,-0.3072234,-0.1718801,0.2052308,0.05218862,0.8867509,-0.01599372,0.6074097
0.7914271,-0.1450931,-0.2411029,-0.1312655,0.1129366,0.1173329,0.858391,0.1513535,0.5805731
0.8881147,-0.2333711,-0.2460988,-0.03489327,0.02452854,0.111389,0.7867637,0.4012147,0.572494
0.9178384,-0.2541712,-0.2988482,-0.00545167,0.003505151,0.05771505,0.8306755,0.5917226,0.5390911
0.9843571,-0.2157089,-0.3425815,0.06081767,0.04165682,0.01307746,0.8746042,0.8755875,0.5156143
1.008614,-0.182859,-0.3965778,0.08485463,0.07411433,-0.0418037,0.7667036,1.00719,0.3317451
0.9440265,-0.1058023,-0.347367,0.02007311,0.1507008,0.006542894,0.6254675,1.016649,0.04493689
0.8831262,-0.008003659,-0.2872916,-0.04099968,0.247952,0.06577565,0.4443819,0.6332668,-0.1466832
0.8499002,-0.003659468,-0.2751746,-0.07437732,0.2516688,0.0770708,0.2366169,0.01859626,-0.1765683
0.8728196,-0.06161846,-0.3336899,-0.05158706,0.1929982,0.01775224,0.07524269,-0.2182768,-0.09991074
0.9060096,-0.1685974,-0.4697243,-0.01850243,0.08522068,-0.1190675,-0.01927808,-0.219915,0.02403906
0.9598425,-0.3873209,-0.4983283,0.03524923,-0.1343861,-0.1484356,0.01753347,-0.1692483,0.2642986
1.068205,-0.5923533,-0.5374112,0.1435517,-0.3403758,-0.1882546,0.1841334,-0.1025146,0.4551939
1.222681,-0.6768393,-0.6396071,0.2979831,-0.4258739,-0.2911495,0.4372982,0.133959,0.4525629
1.483966,-0.8300271,-0.5627968,0.5592249,-0.5801023,-0.2149901,0.6626285,0.5233034,0.2834232
1.740428,-1.05502,-0.297916,0.8156232,-0.8061323,0.04929678,0.6992021,0.6926936,-0.3394875
1.769649,-1.032141,-0.05786044,0.8447261,-0.7842504,0.2888161,0.6568434,0.5646481,-1.19929
1.590198,-0.7409118,-0.1305677,0.6650681,-0.4939403,0.2156211,0.6609141,0.3832261,-1.409955
1.278508,-0.3349054,-0.3339669,0.3530517,-0.08874751,0.01177024,0.5839667,0.3352118,-1.098014
0.9512846,0.002373213,-0.3141115,0.02536802,0.2478322,0.03120215,0.3679024,0.1159194,-0.9316469
0.8437788,-0.05924532,-0.2594201,-0.08273346,0.1856219,0.08549469,0.06998175,-0.1461493,-0.5666213
0.7281923,-0.1748078,-0.1416622,-0.1990388,0.06956033,0.202874,-0.1223706,-0.1632292,-0.04689575
0.5204437,-0.04524096,0.03328126,-0.4076107,0.1987077,0.3774504,-0.06667303,-0.3299493,0.08131683
0.6301421,-0.1965959,-0.01980362,-0.2988161,0.04700147,0.3239964,0.0642608,-0.4928822,0.2228556
0.6978871,-0.3777831,-0.03538846,-0.2320304,-0.1344771,0.3080246,0.2078055,-0.5546907,0.3579784
0.5983797,-0.2814728,-0.001556811,-0.3325311,-0.03840116,0.341437,0.304501,-0.7007671,0.2563748
0.7244341,-0.3003031,-0.1315066,-0.2074845,-0.05740886,0.211023,0.2419448,-0.6861708,0.2373472
0.7165286,-0.2553156,-0.1830941,-0.2163951,-0.0125428,0.1589172,0.218178,-0.6430396,0.0185815
0.6883588,-0.2010191,-0.1788375,-0.2455529,0.04168607,0.1625966,0.1949607,-0.6045774,-0.4023718
0.7935154,-0.2881017,-0.1638845,-0.1413546,-0.04541423,0.1769102,0.09388083,-0.5250589,-0.8385136
0.7236425,-0.3042109,-0.1040557,-0.2121453,-0.06149406,0.2360349,0.07107402,-0.6670426,-1.294374
0.7671495,-0.3782645,-0.1282962,-0.1695065,-0.1354721,0.2110216,0.03603982,-0.8961514,-1.311184
0.8399423,-0.3822649,-0.1499244,-0.09752463,-0.1393493,0.1885482,0.04033507,-0.9213435,-1.090224
0.8549219,-0.262594,-0.1961787,-0.08329358,-0.01950551,0.1413735,0.1421548,-0.5116243,-0.960027
0.9344986,-0.1466878,-0.3256525,-0.00440077,0.09662254,0.01090443,0.2097174,0.09832008,-0.7541473
0.8358234,-0.01444608,-0.3580694,-0.1036952,0.2291287,-0.02257863,0.2798043,0.2345071,-0.6215338
0.7881699,-0.03671719,-0.2477908,-0.1519025,0.2071535,0.0865699,0.3304893,-0.01542915,-0.5541405
0.8331737,-0.08564257,-0.1339375,-0.1073847,0.1585422,0.1992343,0.3752311,-0.2620378,-0.4772523
0.8487267,-0.1304633,-0.1539655,-0.0922473,0.1140421,0.1779595,0.393827,-0.6200597,-0.3568545
1.022277,-0.3029257,-0.275028,0.08095807,-0.0581004,0.0555917,0.3927612,-0.9441009,0.01309177
1.24718,-0.3703409,-0.4933564,0.3055816,-0.1251987,-0.1640973,0.5851543,-0.8856859,0.5058585
1.399984,-0.312501,-0.8080379,0.4581589,-0.06704236,-0.480183,0.7448199,-0.4036033,0.6910144
1.36034,-0.2654697,-0.896327,0.4183178,-0.01969166,-0.5698971,0.5762868,0.2984104,0.4826392
1.302284,-0.2528968,-0.6879897,0.3600723,-0.006794965,-0.3629764,0.3605575,0.4551123,0.343867
1.439708,-0.2426058,-0.5727938,0.4972933,0.003824089,-0.2491628,0.3558095,-0.1021076,0.3323909
1.499108,-0.1933935,-0.6559876,0.5564553,0.05336706,-0.3336855,0.3774311,-0.4030924,0.04165527
1.517861,-0.1591699,-0.7046955,0.5749122,0.08792148,-0.383653,0.2438796,-0.2421269,-0.4802705
1.451215,-0.1631314,-0.6377256,0.5078887,0.08428657,-0.3178576,0.0920082,0.1606672,-0.9050719
1.124416,-0.1912587,-0.4852649,0.1806117,0.05647699,-0.1664724,0.01465469,0.5218383,-0.9172994
0.8615022,-0.2036971,-0.2881003,-0.08288787,0.04434378,0.02972319,0.05241876,0.1833237,-0.7003341
0.7793594,-0.2175799,-0.2561736,-0.1657197,0.03075089,0.06078645,0.250503,-0.2006747,-0.6120077
0.7197059,-0.2214403,-0.3263755,-0.2261506,0.02716352,-0.01017908,0.4736915,0.02250231,-0.4243621
0.6261828,-0.1585118,-0.2496704,-0.3205207,0.09034667,0.06585536,0.5801604,0.01791311,-0.2618249
0.589489,-0.1074666,-0.2179138,-0.3581098,0.1416253,0.09702727,0.6142075,-0.3616641,-0.169621
0.6363955,-0.01280981,-0.2393146,-0.3121244,0.236489,0.07511959,0.7306452,-0.6289674,0.1972889
0.6682755,0.1016083,-0.2289349,-0.28117,0.3510788,0.08506149,0.798259,-0.7459377,0.4893038
0.7692818,0.05254302,-0.3461572,-0.181076,0.3021379,-0.03253667,0.7259281,-0.5573116,0.6506493
0.8097965,-0.01767269,-0.367337,-0.1414468,0.2319865,-0.05403504,0.6535058,-0.2505652,0.7945474
0.7447763,-0.003655486,-0.2772595,-0.207316,0.245998,0.03577869,0.5005471,-0.160191,0.6893974
0.7824185,-0.02854327,-0.2635901,-0.1704775,0.221027,0.0492361,0.3779172,-0.07391409,0.623051
0.7779932,-0.05013779,-0.2332173,-0.1756528,0.1992658,0.07944383,0.3570082,0.09401005,0.59621
0.7685693,-0.02937054,-0.2534927,-0.1857659,0.2197782,0.05904417,0.3095872,0.420166,0.5040659
0.8303183,-0.07616645,-0.2618678,-0.1246387,0.1726359,0.0505796,0.3304931,0.7573261,0.5321719
0.8439031,-0.148254,-0.2347138,-0.1116038,0.1001082,0.0776735,0.319964,0.7699512,0.4650629
0.8906464,-0.1698403,-0.2634465,-0.06533582,0.07798912,0.04890504,0.2337084,0.777242,0.2901785
0.9043256,-0.1784415,-0.2490857,-0.05205705,0.06876549,0.06324954,0.1478284,0.6748286,0.07163995
0.8743553,-0.1254624,-0.2707457,-0.08235368,0.1210366,0.04158826,0.02579402,0.2573918,-0.1574581
0.8835883,-0.0517121,-0.3201791,-0.07337395,0.1939959,-0.007834605,-0.02422292,-0.0005338253,-0.1327067
0.9074214,-0.06349836,-0.3619565,-0.04972191,0.1813362,-0.04959143,-0.07039381,-0.09951871,0.03664702
1.030067,-0.1785215,-0.4608793,0.07281233,0.06535711,-0.1484825,-0.1200607,-0.1465518,0.2424293
1.209465,-0.4129558,-0.5410358,0.2521623,-0.170112,-0.2285916,0.03386191,-0.06230742,0.4818857
1.341331,-0.626765,-0.6424719,0.3840318,-0.385023,-0.3299564,0.2675814,0.07880544,0.4894032
1.450589,-0.7021295,-0.6741259,0.493323,-0.461535,-0.3615028,0.3501293,0.3568346,0.1805937
1.627461,-0.7843714,-0.5036005,0.6702347,-0.5449427,-0.1908204,0.3162898,0.8533007,-0.344202
1.770804,-0.8793777,-0.2908861,0.813592,-0.6411025,0.02210908,0.3074372,1.227774,-0.8664569
1.571902,-0.6686027,-0.2188216,0.614645,-0.4314377,0.09444686,0.2941461,0.8328771,-1.012712
1.213039,-0.2154016,-0.3210234,0.2556489,0.02072044,-0.007429426,0.2229682,0.1599414,-0.7927987
1.047817,-0.01261758,-0.3747875,0.09018974,0.2225376,-0.06082173,0.1236978,0.1695313,-0.5746524
0.938246,-0.02046487,-0.285216,-0.01972579,0.2137931,0.02916379,-0.07088261,0.2727446,-0.3922965
0.7807786,-0.008115631,-0.1917204,-0.177637,0.2253023,0.1231114,-0.2708187,0.094179,-0.1059177
0.6820594,-0.1172577,-0.08719458,-0.2768866,0.1153649,0.2281192,-0.2799258,0.00684094,0.1403523
0.6569531,-0.3103437,-0.03199119,-0.3025908,-0.07848044,0.2838222,-0.1324693,-0.247475,0.2834095
0.643141,-0.3882518,-0.06313387,-0.3170476,-0.1571135,0.2531818,0.0685579,-0.5385704,0.4069502
0.6134921,-0.3425342,-0.07411607,-0.3473666,-0.1120824,0.2426895,0.2034715,-0.5929639,0.4220451
0.6014066,-0.2837135,-0.1222085,-0.3601271,-0.05390471,0.1950615,0.1891617,-0.5687868,0.2807398
0.5905643,-0.2317986,-0.1964288,-0.3716289,-0.002586317,0.1212698,0.1482946,-0.5217187,0.1213192
0.5880924,-0.1708405,-0.1606141,-0.374725,0.05782127,0.1574701,0.1244642,-0.5633291,-0.007614701
0.6293544,-0.1577856,-0.09947927,-0.3340341,0.07036887,0.2189414,0.03019444,-0.5576345,-0.2592942
0.6629313,-0.202885,-0.08764015,-0.3009594,0.02480084,0.2310611,-0.0408162,-0.5485937,-0.5380509
0.7012273,-0.3032584,-0.05452108,-0.2630839,-0.07600564,0.2643966,-0.02930319,-0.7852505,-0.5966618
0.7927797,-0.3428881,-0.07441591,-0.1718608,-0.1160331,0.2446455,0.05149305,-1.059135,-0.6166942
0.9276066,-0.301146,-0.1945922,-0.03726723,-0.07465088,0.1245331,0.208749,-1.157213,-0.6619407
1.019974,-0.3018701,-0.3005476,0.05496196,-0.07569399,0.01855831,0.2514383,-0.8782506,-0.6420678
0.9692836,-0.2197363,-0.317641,0.004222518,0.006163144,0.001364125,0.2151583,-0.3208995,-0.6824437
0.9019235,-0.1046737,-0.2587069,-0.0631042,0.1209902,0.06012045,0.2501048,0.1545548,-0.6410918
0.8827863,-0.1024627,-0.2191128,-0.08213025,0.1230016,0.09946403,0.2046635,0.3276239,-0.5295595
0.8241571,-0.120333,-0.2002877,-0.140573,0.1049603,0.117968,0.1346504,0.07972515,-0.415083
0.8915869,-0.09636764,-0.3339192,-0.02860723,0.1435651,0.01292772,0.2295921,-0.3148333,-0.2456249
0.9666389,-0.2059072,-0.4854141,0.04626875,0.03302568,-0.1385258,0.1816735,-0.4139176,0.05310693
1.083346,-0.4102366,-0.6272921,0.1628586,-0.1723452,-0.2803441,0.1925735,-0.4613347,0.30131
1.248848,-0.6050103,-0.6975246,0.3282936,-0.3681921,-0.3504894,0.3349,-0.1508744,0.312825
1.402865,-0.6318804,-0.6845888,0.4822757,-0.396149,-0.3374263,0.5338963,0.4136012,0.1051868
1.524026,-0.6634704,-0.6074296,0.6034124,-0.4288168,-0.2600859,0.5181152,0.8363495,-0.2909162
1.558256,-0.7183308,-0.3594148,0.6376,-0.4847221,-0.01182657,0.4239189,0.9668672,-0.7640546
1.46376,-0.669557,-0.1387374,0.5430148,-0.436937,0.2091596,0.3935221,0.4204216,-1.096928
1.304329,-0.5408641,-0.249153,0.3834225,-0.3091552,0.09910853,0.408188,-0.06999772,-1.201478
1.105241,-0.2867365,-0.3704514,0.1840826,-0.05584642,-0.0217802,0.4265071,0.1788249,-1.034236
0.9092756,-0.07402053,-0.219623,-0.01223262,0.1561476,0.1294948,0.3575743,0.2947855,-0.7637715
0.7700215,-0.09907694,-0.1192786,-0.1519303,0.13046,0.2303147,0.2647216,0.0605195,-0.5017428
0.6827573,-0.1971171,-0.1009668,-0.2397205,0.03186941,0.249119,0.2038943,-0.05496633,-0.2319909
0.6196047,-0.2632608,-0.01590973,-0.3034646,-0.03475239,0.3346708,0.2450176,-0.278604,-0.1190348
0.5745258,-0.2924102,-0.05138719,-0.3491804,-0.0643118,0.299674,0.3655789,-0.6822949,-0.09103099
0.5626494,-0.2314067,-0.1106327,-0.3617174,-0.003652449,0.2408794,0.4042702,-0.8965906,-0.1128167
0.557868,-0.1560365,-0.1304557,-0.3671617,0.07143687,0.2214644,0.3230951,-0.8866851,-0.2327769
0.5792714,-0.1481356,-0.1789821,-0.3464028,0.07911488,0.173293,0.09043892,-0.6659017,-0.334102
0.6237367,-0.1824919,-0.09751274,-0.302545,0.04458685,0.2550566,-0.1595288,-0.3288891,-0.5219691
0.6235436,-0.2163763,-0.05129203,-0.3032929,0.01057572,0.3015026,-0.210016,-0.2343714,-0.7084068
0.6041555,-0.1945845,-0.122297,-0.3231693,0.03228115,0.2306449,-0.147846,-0.3414041,-0.746692
0.5959316,-0.1511369,-0.1661925,-0.3318021,0.07567841,0.1868109,-0.08675713,-0.5651344,-0.7206153
0.6308769,-0.1404374,-0.2217201,-0.2971747,0.08635837,0.1312543,-0.0109344,-0.7283318,-0.6303339
0.782938,-0.1157779,-0.2548242,-0.1453308,0.1110229,0.09802877,-0.004574402,-0.4369481,-0.6075167
0.947778,-0.09734305,-0.2965389,0.01939638,0.1294804,0.05610154,-0.1099029,-0.1096145,-0.6275347
0.9398688,-0.1334167,-0.3085068,0.01147595,0.09343998,0.04383299,-0.1850251,-0.2701404,-0.5970754
0.9242495,-0.2742859,-0.2790179,-0.004060156,-0.04739116,0.07293726,-0.237578,-0.5525022,-0.5063945
1.073125,-0.494471,-0.3572688,0.1449849,-0.2675337,-0.005777654,-0.2364332,-0.8323227,-0.0814948
1.121366,-0.5631913,-0.4535293,0.1934706,-0.3361999,-0.1025754,0.04424139,-1.325572,0.6021997
1.064786,-0.4973994,-0.641554,0.1371974,-0.2703294,-0.2912004,0.3977952,-1.468721,1.008548
1.19302,-0.5164589,-0.9611433,0.2657861,-0.2892726,-0.611435,0.570556,-1.025744,0.9695372
1.506436,-0.501876,-1.023558,0.5795862,-0.274524,-0.6745122,0.7839103,-0.3036982,0.8059712
1.754719,-0.3426856,-0.834329,0.8282586,-0.115109,-0.4859313,0.9276919,0.634481,0.2704745
1.515105,-0.2231107,-0.7067345,0.5890037,0.004753858,-0.3589396,0.728105,0.9813517,-0.7777588
1.085642,-0.1867984,-0.5451299,0.1598385,0.04141554,-0.1978727,0.5171773,0.6665291,-1.105857
1.067974,-0.1494393,-0.3403425,0.1423919,0.07917961,0.006452724,0.4315542,0.6128366,-0.7648655
0.9636418,-0.1509128,-0.298437,0.03819731,0.07815844,0.04797355,0.3768876,0.5705646,-0.8588801
0.6644057,-0.1487159,-0.2349788,-0.2609809,0.0808467,0.1111192,0.517266,0.4633523,-0.8012964
0.6763752,-0.08650554,-0.1463434,-0.2490228,0.1435787,0.1995054,0.5752007,0.4207492,-0.5274558
0.6646107,0.0001671593,-0.2286663,-0.2608516,0.2307933,0.1169858,0.4765846,0.046001,-0.4946858
0.5007374,0.1351715,-0.2245086,-0.4248238,0.3663468,0.1209883,0.4652298,-0.2856225,-0.2361069
0.5022119,0.193205,-0.175975,-0.4234625,0.4249193,0.1693985,0.3917819,-0.425557,0.1164074
0.5966811,0.08649345,-0.2317666,-0.3290991,0.3187171,0.1135065,0.383049,-0.66003,0.5046406
0.6842089,0.001024757,-0.2095444,-0.2416512,0.2337107,0.1356425,0.4181321,-0.7046342,0.9042622
0.7733986,-0.04611431,-0.2524222,-0.1525023,0.1869742,0.09268557,0.4027828,-0.5490009,0.8714684
0.8188304,-0.09511645,-0.3426742,-0.1070645,0.1383072,0.002355993,0.4765007,-0.3276233,0.7380792
0.8101882,-0.09857456,-0.3301439,-0.11565,0.135112,0.01480748,0.416666,0.01119187,0.6496246
0.8089173,-0.1432198,-0.3561625,-0.1168114,0.09065485,-0.01129166,0.338034,0.3597489,0.467982
0.8027929,-0.2027114,-0.3548813,-0.1227714,0.03127613,-0.01009234,0.3594724,0.7541387,0.4154308
0.7990171,-0.2312485,-0.2845408,-0.1263264,0.002778452,0.06016522,0.3157147,1.017519,0.3546805
0.8284473,-0.2498942,-0.2097405,-0.09661729,-0.01589711,0.1348798,0.3398695,0.930182,0.2071861
0.8311303,-0.2112864,-0.1408238,-0.09359671,0.02261652,0.2037038,0.3671805,0.7376718,0.08465142
0.8479898,-0.1977522,-0.1393162,-0.07634108,0.03599678,0.2051038,0.3287253,0.3991068,-0.08302672
0.8485578,-0.1963166,-0.2124169,-0.07531932,0.03722218,0.1318727,0.2714349,-0.09297195,-0.1730875
0.8217033,-0.1495786,-0.38828,-0.1016636,0.08369633,-0.04414937,0.1490372,-0.2569796,-0.043726
0.8839798,-0.153566,-0.5377938,-0.03882192,0.0793929,-0.1938499,0.05512302,-0.2143802,0.09957843
0.9631888,-0.1779488,-0.5669536,0.04100464,0.05464274,-0.2232164,0.0175698,-0.3401063,0.1862123
1.073532,-0.2945719,-0.6655159,0.1520119,-0.06239689,-0.3219929,0.04101983,-0.2411207,0.4518844
1.369779,-0.6441568,-0.7079196,0.4489581,-0.4124406,-0.3646033,0.1904614,0.3055067,0.5829998
1.746951,-0.9560461,-0.4158221,0.8268426,-0.7248131,-0.07268945,0.3567737,0.7661085,-0.08766634
1.772989,-0.8417822,-0.1204531,0.8535727,-0.6110274,0.2225268,0.4015339,0.6686911,-1.062876
1.385171,-0.4848639,-0.2564716,0.4663866,-0.2545511,0.0863835,0.3838818,0.4184727,-1.240703
1.106987,-0.2777964,-0.3901108,0.188746,-0.04786922,-0.04735954,0.3292479,0.4583891,-0.9817404
0.9845361,-0.1673898,-0.1967719,0.06673516,0.06221459,0.1458923,0.2046034,0.1670963,-0.8230321
0.8646891,-0.153262,-0.119007,-0.05277564,0.07607973,0.2235818,0.1216253,-0.3001465,-0.310397
0.8869656,-0.2421144,-0.07246282,-0.03026171,-0.01298129,0.2700532,0.1432578,-0.3304382,0.03151498
0.9042361,-0.3028629,0.04713966,-0.01284473,-0.07388885,0.3895724,0.2512757,-0.5002425,-0.08536561
0.8491173,-0.3590961,-0.05133906,-0.06790022,-0.1302327,0.2909849,0.3197208,-0.6769051,0.02875673
0.789001,-0.2773036,-0.1360895,-0.1280279,-0.04850114,0.206086,0.258507,-0.5665733,0.1008829
0.7085809,-0.169333,-0.1728006,-0.2085235,0.05945813,0.1691769,0.2083608,-0.4429649,0.09174356
0.6732813,-0.1713766,-0.2308493,-0.2439491,0.05744957,0.110875,0.1773638,-0.1780503,0.08012952
0.6529154,-0.1190446,-0.1494356,-0.2644764,0.109857,0.1919769,0.1040735,-0.1343044,-0.2502785
0.6478771,-0.1507841,-0.1151317,-0.2696955,0.07822584,0.225907,-0.02645495,-0.308232,-0.5591925
0.6591036,-0.2178153,-0.117463,-0.2586538,0.01132916,0.2231354,-0.2028365,-0.341964,-0.8559215
0.6544903,-0.2313588,-0.09172131,-0.2634412,-0.002058199,0.2483646,-0.2801081,-0.4887819,-1.024168
0.6774431,-0.2705901,-0.1337624,-0.240639,-0.04111429,0.2057337,-0.2344397,-0.6960285,-0.868643
0.7320491,-0.2375587,-0.1731061,-0.1861486,-0.00788958,0.1657189,-0.1378703,-0.7394605,-0.8465399
0.8031522,-0.2150595,-0.239748,-0.1151178,0.01481999,0.09832258,-0.03394748,-0.4524721,-0.8215569
0.796354,-0.1487234,-0.2613494,-0.1219395,0.0813813,0.07588491,0.01862245,-0.1026017,-0.7226131
0.726677,-0.01296901,-0.224433,-0.1915879,0.2173709,0.1118862,-0.03176867,-0.1567464,-0.6900933
0.7139099,-0.0005872731,-0.2333185,-0.2042699,0.2299891,0.1020101,-0.1182488,-0.3314175,-0.5531197
0.7263586,-0.05284723,-0.1764982,-0.1916743,0.1779558,0.1577667,-0.1190128,-0.5160774,-0.4212161
0.7858528,-0.170794,-0.1501712,-0.1319665,0.06021617,0.1829583,-0.1205131,-0.8608174,-0.1862233
0.9547572,-0.3579153,-0.3149243,0.03722002,-0.1267218,0.01699911,-0.08318668,-1.054605,0.30127
1.195812,-0.4468677,-0.6275748,0.2786209,-0.215512,-0.2969229,0.1215276,-0.9187926,0.783277
1.341231,-0.3778235,-0.9107347,0.4244365,-0.1463184,-0.5814033,0.2972882,-0.6877646,0.9525105
1.364639,-0.3183399,-0.9391538,0.4482702,-0.0866893,-0.611164,0.2590951,-0.4770409,0.9223417
1.564759,-0.361216,-0.9174656,0.6488192,-0.1294172,-0.5908045,0.167107,-0.2502376,1.000821
1.764434,-0.3106179,-0.9552886,0.8488946,-0.07866325,-0.6299095,0.2116689,-0.1929078,0.7239878
1.57675,-0.2414063,-0.7843389,0.6615487,-0.009284394,-0.4601643,0.1838473,-0.1615132,-0.08649473
1.366892,-0.283725,-0.5782916,0.4519317,-0.05142286,-0.2552199,0.08928359,0.2542335,-0.667814
1.29583,-0.273878,-0.4729404,0.3809922,-0.04138216,-0.1508555,0.1517536,0.7268599,-0.7648589
1.061623,-0.2464908,-0.3190425,0.1467758,-0.01378725,0.002176829,0.1920866,0.7639629,-0.6774945
0.8365508,-0.2200227,-0.2785588,-0.07844059,0.01290215,0.04191395,0.2402877,0.6876522,-0.639594
0.6871007,-0.09531405,-0.2986206,-0.2281624,0.1378435,0.02121802,0.2858405,0.7103303,-0.5563662
0.4975754,0.06481622,-0.2047168,-0.418069,0.2982118,0.1145917,0.1756608,0.2410374,-0.2388487
0.48991,0.1523851,-0.2019814,-0.4262004,0.3860118,0.1168913,0.1332231,-0.5521689,0.08895369
0.5967224,0.1285866,-0.2744836,-0.3199115,0.3624211,0.04403707,0.2001286,-0.8590513,0.3819391
0.6668901,0.07763986,-0.2929961,-0.2503004,0.3116414,0.02524703,0.2642889,-0.8146723,0.719991
0.7849399,0.02039964,-0.3290136,-0.1328217,0.2545128,-0.01098007,0.2395646,-0.6045831,0.9344894
0.8646385,-0.06586086,-0.2991039,-0.05369624,0.1682979,0.01878281,0.1625856,-0.2074613,1.027618
0.9258017,-0.1087355,-0.243137,0.006898547,0.1253965,0.07466086,0.1673995,0.1162261,1.018585
0.9666594,-0.1099432,-0.2934044,0.04719538,0.1240868,0.02435667,0.1778807,0.3632803,0.9212841
0.8757333,-0.06887639,-0.3129484,-0.04428349,0.1649752,0.004822125,0.1945129,0.5689995,0.793923
0.7992222,-0.01168153,-0.2933429,-0.1213377,0.2219134,0.0244788,0.07239098,0.8241872,0.7147441
0.7867499,-0.01574975,-0.2874594,-0.1343389,0.217507,0.03045113,-0.2357816,1.194532,0.8130125
0.7704303,-0.004130934,-0.2284271,-0.1511665,0.228702,0.0896052,-0.456823,1.408649,0.9080237
0.7718773,0.03755233,-0.1868179,-0.1501996,0.2698712,0.1313631,-0.6357621,1.360484,0.8963381
0.799774,0.01769515,-0.1883958,-0.1227481,0.2494051,0.1299531,-0.8062594,1.130017,0.8600469
0.8734416,-0.008817748,-0.2103824,-0.04948584,0.222184,0.1081455,-0.9278253,0.6762996,0.7151266
0.9196329,-0.007260489,-0.2739187,-0.003657162,0.2229306,0.04479228,-1.083834,0.1680299,0.5847957
0.9068219,-0.02410789,-0.3560837,-0.0167884,0.2051683,-0.03719008,-1.26726,-0.04925515,0.6349876
0.9143988,-0.04766225,-0.4757093,-0.009490769,0.1805939,-0.1566337,-1.43497,-0.1761627,0.8335765
0.9287781,-0.1419815,-0.5821328,0.004648605,0.08515043,-0.2628711,-1.493197,-0.349699,1.062997
0.931757,-0.3481872,-0.6395132,0.007424784,-0.1222786,-0.3200518,-1.420699,-0.2433466,1.130297
1.025407,-0.5669883,-0.7743953,0.1009067,-0.3423901,-0.4547068,-1.31593,0.08507355,1.089384
1.387707,-0.9093942,-0.8461283,0.4630653,-0.6861703,-0.5261678,-1.197967,0.8397059,1.050858
1.854694,-1.305275,-0.5173324,0.9299195,-1.083453,-0.1970368,-0.7966372,1.894866,0.6581696
1.905517,-1.194111,-0.1743318,0.9805833,-0.9736714,0.1463726,-0.3520447,2.093504,-0.3784892
1.573068,-0.7599863,-0.36999,0.647909,-0.5408577,-0.04880504,-0.6043825,1.697259,-1.388488
1.323203,-0.5923769,-0.535528,0.3977163,-0.3744515,-0.2137963,-1.00382,1.604697,-1.495795
1.126963,-0.391984,-0.3165243,0.2010259,-0.1751335,0.005818074,-1.098071,1.352775,-1.048565
0.8571636,-0.07490251,-0.2443351,-0.06934949,0.1410083,0.07867934,-1.52905,1.017647,-0.6652958
0.7328248,0.04376577,-0.219607,-0.1943846,0.2588664,0.1041337,-1.887546,0.8783212,-0.08981665
0.7849827,0.01358027,-0.1010732,-0.1430277,0.2279848,0.223437,-1.806921,0.5241101,0.451849
0.7999214,-0.1102835,-0.1182808,-0.1289769,0.1035217,0.2070287,-1.767971,0.2118385,0.5706039
0.7277623,-0.1456079,-0.1357158,-0.2020943,0.0676808,0.1904083,-1.732209,-0.005983265,0.795047
0.6792976,-0.1329963,-0.2263733,-0.251571,0.07984886,0.1005674,-1.690861,-0.261609,1.02887
0.6632319,-0.1937602,-0.3615181,-0.2686846,0.01870663,-0.03376773,-1.672303,-0.2588449,0.9781872
0.6712451,-0.2185918,-0.3256188,-0.2617363,-0.006444085,0.002930012,-1.585697,-0.266574,0.9045498
0.7443957,-0.342368,-0.2857539,-0.1896506,-0.1304835,0.04358024,-1.557185,-0.2876297,0.6291138
0.8112455,-0.4319422,-0.2296672,-0.1238513,-0.2202644,0.1004368,-1.516307,-0.1802133,0.2800337
0.867343,-0.44285,-0.139574,-0.06878002,-0.2313176,0.1912794,-1.410494,-0.139653,0.02661097
0.8879193,-0.4844056,-0.1243562,-0.04919942,-0.2729501,0.2072182,-1.286843,0.02762373,-0.2130312
0.8198861,-0.3925459,-0.1575703,-0.1181933,-0.181091,0.1746874,-1.193964,0.1754261,-0.2184697
0.7883129,-0.303839,-0.2298222,-0.1506874,-0.09230338,0.1030726,-1.19866,0.2161244,-0.1859719
0.7969356,-0.2197634,-0.2354508,-0.1429399,-0.008064533,0.09802905,-1.191746,0.3061308,-0.1761884
0.8024753,-0.1394171,-0.2220109,-0.1382231,0.07252368,0.1119987,-1.163934,0.1996566,-0.04623904
0.8280228,-0.1656737,-0.2405363,-0.1134407,0.04658045,0.09394467,-1.160394,0.02059708,0.07722687
0.8706459,-0.1505795,-0.1844691,-0.07152069,0.06205056,0.1504223,-1.138172,-0.0610022,0.1964615
0.9318289,-0.1656894,-0.1370658,-0.01097695,0.04737083,0.1981719,-1.096354,-0.1053456,0.2204311
0.9288155,-0.1783637,-0.1287695,-0.01456602,0.0351731,0.206745,-1.046686,-0.07676169,0.1971328
0.8710202,-0.149283,-0.1701754,-0.07287521,0.06476971,0.1655411,-1.051884,-0.1303965,0.1600749
0.7830466,-0.1647811,-0.3925328,-0.1613011,0.04982008,-0.05669252,-1.115524,-0.4351555,0.1336525
0.7193154,-0.1559842,-0.815733,-0.2254202,0.05919117,-0.479842,-1.267596,-0.9913207,0.4983027
0.9168532,-0.2411603,-1.099685,-0.02820127,-0.02539065,-0.7637972,-1.469624,-1.460842,1.164324
1.30408,-0.4904746,-1.001879,0.3587751,-0.274093,-0.6660154,-1.398338,-1.649801,1.599514
1.603841,-0.7049415,-1.056177,0.6583402,-0.4879245,-0.7203217,-1.016824,-1.649221,1.507831
1.725304,-0.6422767,-1.300996,0.7796351,-0.4245868,-0.965096,-0.5587743,-0.8536634,0.8997003
1.639314,-0.5085153,-1.130456,0.693467,-0.2900983,-0.7944203,-0.2180393,0.7425005,0.1082191
1.467484,-0.5608228,-0.8494895,0.5214157,-0.3416111,-0.5131921,-0.248955,1.94958,-0.2800468
1.286759,-0.437062,-0.6964095,0.3403976,-0.2169788,-0.3597007,-0.3499152,2.518862,-0.2568552
1.009662,-0.236055,-0.4988127,0.06292157,-0.0150186,-0.1615316,-0.3157794,2.440561,-0.4205024
0.698521,-0.105716,-0.4450455,-0.2486881,0.1163526,-0.1070303,-0.6571374,1.392151,-0.433035
0.4294483,0.2290223,-0.3348654,-0.5183055,0.4521901,0.004039527,-1.097209,-0.1485655,0.02813375
0.4349654,0.2942065,-0.2302448,-0.5133848,0.5185183,0.1096939,-1.222859,-1.611366,0.3835836
0.7199504,0.04699314,-0.4150948,-0.2290194,0.2724662,-0.07399245,-1.242143,-2.023931,0.5381593
0.7565277,-0.03706183,-0.4930499,-0.1930624,0.1895657,-0.1506665,-1.040099,-1.496858,0.484499
0.7237604,-0.1601619,-0.5126511,-0.2264362,0.06759805,-0.1688766,-0.8029402,-1.175237,0.4146751
0.7961349,-0.2522128,-0.539731,-0.1546431,-0.02335059,-0.1944589,-0.6363661,-0.3632609,0.5635577
0.6892526,-0.2780018,-0.374733,-0.2620716,-0.04807008,-0.02786095,-0.4078468,0.3511251,0.5767915
0.7093987,-0.3704651,-0.3182887,-0.2424264,-0.1394954,0.03027946,-0.3210607,0.2838412,0.6474457
0.7290471,-0.2692194,-0.291369,-0.2232235,-0.03723963,0.05898043,-0.167651,0.7263799,0.7132672
0.6331854,-0.147106,-0.2183441,-0.3194652,0.08585819,0.1338583,0.01227676,0.797371,0.5936608
0.6701618,-0.1135298,-0.2631719,-0.2827931,0.1203916,0.0909404,0.04234374,0.4825899,0.6370595
0.6530138,-0.05003534,-0.2920723,-0.3001594,0.1848104,0.06399231,0.1294164,0.6977149,0.590771
0.7443838,-0.07123043,-0.3526365,-0.2089127,0.1644993,0.005410538,0.201927,0.6597373,0.5524688
0.8510741,-0.04404199,-0.4027171,-0.1022448,0.1925229,-0.04266686,0.3080083,0.8236781,0.6275295
0.8205106,-0.09026974,-0.3998775,-0.1327284,0.1470738,-0.03780961,0.4024445,0.9962245,0.5156825
0.8601105,-0.2707821,-0.3710154,-0.09294724,-0.03272187,-0.006920548,0.4025963,0.7642584,0.4284829
0.8157091,-0.33852,-0.2556821,-0.1370681,-0.09980548,0.1104434,0.4858518,0.6415421,0.2124244
0.8092405,-0.3982609,-0.2402067,-0.1431587,-0.1589489,0.1279445,0.5957147,0.2113196,-0.1173021
0.840134,-0.3518974,-0.3116446,-0.111791,-0.1120363,0.05851742,0.7089475,-0.05452168,-0.2637758
0.8171743,-0.2212476,-0.4224704,-0.1341819,0.01912186,-0.05032092,0.7519638,0.1109023,-0.309302
0.8834841,-0.2254315,-0.620798,-0.067211,0.01541003,-0.2466876,0.6385087,0.3391699,-0.1500263
0.9155692,-0.3059681,-0.7076502,-0.0343762,-0.06468918,-0.3316014,0.5507759,0.680619,0.03982508
0.9607987,-0.4747577,-0.681818,0.01168588,-0.2330722,-0.3038435,0.59205,0.5584184,0.06395242
1.055969,-0.5427015,-0.7302085,0.107763,-0.3006317,-0.350309,0.62734,0.3541631,-0.04375995
1.376362,-0.5929624,-0.8001925,0.429126,-0.350517,-0.4183567,0.4945413,0.5331451,-0.5192239
1.777658,-0.7378415,-0.6376153,0.8314302,-0.4950121,-0.2538193,0.3585404,0.4794422,-1.193487
1.539017,-0.5330197,-0.4379476,0.5938014,-0.2897794,-0.05215913,0.3424789,0.4177934,-1.420698
1.165536,-0.2437851,-0.5004502,0.2213027,-9.283301e-05,-0.1126355,0.2617667,0.4825267,-1.16804
1.173333,-0.2293387,-0.4092235,0.2300288,0.01485118,-0.01935168,0.08551198,0.3235892,-0.9278445
0.9607043,-0.1589296,-0.1246621,0.01826419,0.08580003,0.2672908,-0.0103407,0.1579478,-0.528837
0.7774585,-0.1361941,-0.05412364,-0.1641852,0.10911,0.3399208,0.08086741,-0.008849165,-0.02054365
0.8785868,-0.3154744,-0.01097337,-0.06232385,-0.06956846,0.3851524,0.270307,-0.3046808,0.07754211
0.7677144,-0.4089426,0.06298568,-0.1725184,-0.1624114,0.4611589,0.4745893,-0.486294,0.1311894
0.6667566,-0.3770391,-0.0735489,-0.2728441,-0.129858,0.326614,0.5699371,-0.4863509,0.1768374
0.6782,-0.3296493,-0.2253084,-0.260802,-0.08179073,0.1767663,0.4717369,-0.4732815,0.03329737
0.5780242,-0.2575889,-0.1904108,-0.360398,-0.009023692,0.2134842,0.3630817,-0.5335974,-0.07459717
0.6104604,-0.2277236,-0.1617137,-0.3273852,0.02157567,0.2439004,0.2222072,-0.5563278,-0.4393409
0.6658497,-0.2499723,-0.1878712,-0.271407,8.465065e-05,0.2193523,-0.001134483,-0.4768823,-0.8428773
0.6623022,-0.2652736,-0.1393532,-0.2743403,-0.01443921,0.2693611,-0.1014064,-0.4495156,-1.039355
0.7089096,-0.2668948,-0.1117536,-0.2270827,-0.0152666,0.2983248,-0.08623906,-0.5307188,-1.172795
0.6980055,-0.2370029,-0.1562872,-0.2372919,0.01543248,0.2550199,-0.009612371,-0.609089,-1.031892
0.7513353,-0.1859533,-0.1942367,-0.1832159,0.0672992,0.2181563,0.06874629,-0.5660127,-0.9388443
0.7814054,-0.1158185,-0.2214344,-0.1523433,0.1382556,0.1918967,-0.05968159,-0.5148747,-0.9633961
0.7259936,-0.03473595,-0.2054735,-0.2068933,0.2201564,0.2086453,-0.2772128,-0.5940103,-0.8530777
0.7249006,0.02897056,-0.1846872,-0.2070625,0.2846664,0.2300669,-0.3551404,-0.7489206,-0.7774886
0.69919,0.03302434,-0.2185603,-0.2317837,0.2894953,0.196675,-0.3497927,-1.046945,-0.6073691
0.7778079,-0.05475204,-0.2395468,-0.1521075,0.2024518,0.1760149,-0.2571004,-1.245775,-0.4267199
0.9395106,-0.1871145,-0.2778323,0.01072313,0.07076918,0.1379016,-0.08828746,-1.119955,-0.3035083
1.03533,-0.3636958,-0.4416902,0.1077357,-0.1051898,-0.02593473,0.04975825,-1.04162,0.08027628
1.156617,-0.4943703,-0.7033074,0.2302703,-0.2352961,-0.2876715,0.2180183,-0.9780657,0.6047642
1.274663,-0.5126805,-0.8831674,0.3496009,-0.2530822,-0.4677733,0.3766046,-0.7269502,0.9556181
1.475958,-0.6020711,-0.8893238,0.5521981,-0.3419786,-0.4742668,0.465573,-0.430742,1.137271
1.736345,-0.6635172,-0.9056505,0.8138745,-0.4029439,-0.4909942,0.7505946,-0.02265449,1.186397
1.782969,-0.4274416,-0.9779427,0.861738,-0.1663842,-0.5637202,1.031283,0.4109579,0.5329489
1.722332,-0.1803544,-0.9256656,0.8022494,0.08120156,-0.5118792,0.6871029,0.755239,-0.7185748
1.558448,-0.2570223,-0.7881735,0.6393861,0.005048421,-0.3747979,0.1952967,0.9886303,-1.205083
1.114699,-0.3041602,-0.5716956,0.196501,-0.04156126,-0.1586846,0.1836822,0.8861952,-0.986026
0.8336928,-0.1800291,-0.2625253,-0.08381046,0.08310856,0.150178,0.1856822,0.7358507,-0.9005543
0.7985215,-0.2094378,-0.1762173,-0.1184506,0.05424578,0.2362327,0.2071155,0.6052042,-0.642923
0.5933429,-0.1596404,-0.2646939,-0.3232467,0.1045911,0.1475466,0.4498275,0.01323203,-0.2933012
0.5058522,0.04064923,-0.2486294,-0.410482,0.3054235,0.1634334,0.5679251,-0.5802569,-0.0724768
0.5335908,0.03624094,-0.2996492,-0.3825892,0.3015415,0.1122574,0.6859308,-0.7225369,0.1913928
0.4658253,-0.009140051,-0.3467163,-0.4502744,0.2566559,0.0650481,0.7646989,-0.7757919,0.3539906
0.5940978,-0.02611983,-0.2694744,-0.3219696,0.2401273,0.1421555,0.6898913,-0.778623,0.5851287
0.7272893,-0.1195878,-0.2896934,-0.1887716,0.1470558,0.1218041,0.7679475,-0.5972486,0.8140433
0.7468689,-0.1633396,-0.3183317,-0.1691957,0.1036386,0.09302952,0.8558805,-0.3722752,0.7708386
0.800127,-0.1810292,-0.3304268,-0.1159409,0.08621848,0.08078939,0.8731323,-0.1925567,0.7433034
0.8399852,-0.1946083,-0.3799663,-0.07607858,0.07284267,0.03109277,0.9219612,0.1549157,0.6538035
0.9041673,-0.2083849,-0.3457435,-0.01188033,0.05920325,0.0651444,0.912731,0.6734369,0.4371922
0.8788483,-0.2280663,-0.3407737,-0.03716957,0.0395941,0.06992776,0.9026763,0.9856729,0.2890261
0.8174777,-0.206764,-0.343388,-0.09849574,0.06090525,0.06711003,0.8095267,1.040438,0.101326
0.7969343,-0.1697181,-0.2845866,-0.1189778,0.09789833,0.1256889,0.5682678,0.8992897,-0.07250054
0.7535164,-0.08968859,-0.2536718,-0.1623133,0.1778135,0.156359,0.3060223,0.5898407,-0.1443791
0.7999392,-0.04121006,-0.2310863,-0.1157819,0.2261138,0.1786728,0.1364657,0.2948866,-0.1096388
0.8928621,-0.06805984,-0.2596325,-0.02272022,0.1990172,0.1498223,0.1363756,0.118186,0.05366997
1.012922,-0.06553624,-0.3091199,0.09750946,0.2012204,0.09999325,0.1872658,0.06875508,0.2717656
1.071573,-0.1036811,-0.3934153,0.1563561,0.1626776,0.01531633,0.2519242,-0.02045273,0.4531691
1.038247,-0.2577868,-0.5778012,0.1232441,0.008094697,-0.169489,0.3339743,-0.08543718,0.5083013
1.100317,-0.4968377,-0.6773644,0.1855372,-0.2315087,-0.2695018,0.3246498,0.04599154,0.5070109
1.155498,-0.6982381,-0.6383864,0.2409413,-0.4335239,-0.2309899,0.3193972,0.1795555,0.4428807
1.317246,-0.769908,-0.5028304,0.4028992,-0.5058485,-0.0959029,0.3781524,0.4005442,0.2814729
1.549174,-0.830512,-0.2723298,0.6350072,-0.5671192,0.1341345,0.4345364,0.6026119,0.03088242
1.452122,-0.7716648,-0.1593647,0.5380807,-0.5089211,0.2466423,0.4744729,0.3843717,-0.4871329
1.259027,-0.5156985,-0.2791521,0.3450336,-0.25356,0.1263968,0.4051233,0.1589991,-0.9667735
1.09815,-0.3391373,-0.3615462,0.1841114,-0.07754281,0.04353672,0.2760841,0.2353198,-1.054747
0.84616,-0.1813547,-0.2458221,-0.06802603,0.07976322,0.1587827,0.2501785,0.2707595,-0.99408
0.7179909,-0.04628548,-0.1428299,-0.1964384,0.21442,0.2612808,0.149086,0.221251,-0.7857511
0.6343778,-0.1372281,-0.08498954,-0.2803777,0.1231194,0.3186028,-0.08036176,0.09544559,-0.3948528
0.5411094,-0.1771463,-0.02561048,-0.3740362,0.0828873,0.3774278,-0.1157118,-0.2173589,-0.07354943
0.5851709,-0.160603,-0.05103212,-0.3304068,0.09915229,0.3514031,0.005305955,-0.4848351,0.04998459
0.6384257,-0.2445816,-0.05847324,-0.2776049,0.01492479,0.3432969,0.08748282,-0.590799,0.01103532
0.6767701,-0.2443865,-0.06628019,-0.2397154,0.01489605,0.3347509,0.1225141,-0.7124156,-0.009799709
0.6883334,-0.2363533,-0.1268195,-0.2285942,0.02272799,0.273389,0.03702696,-0.7192692,-0.04345108
0.621075,-0.219883,-0.1459998,-0.2962689,0.03901745,0.2532951,-0.1221457,-0.491959,-0.2171419
0.5956008,-0.1608104,-0.1836574,-0.3221204,0.09792656,0.2146284,-0.2629343,-0.3224711,-0.4330276
0.5762043,-0.1816457,-0.192211,-0.3418414,0.07694119,0.2049678,-0.3387272,-0.4164774,-0.6379599
0.6055446,-0.1916407,-0.1659421,-0.312759,0.06680485,0.2300304,-0.3526771,-0.579376,-0.7099496
0.7846706,-0.2060082,-0.2224577,-0.1338128,0.05230079,0.1722092,-0.4254335,-0.5236969,-0.6482042
0.9218528,-0.2021828,-0.255377,0.003273348,0.05599113,0.1378854,-0.484657,-0.2225107,-0.6517785
0.8998397,-0.1245485,-0.2508232,-0.01875318,0.1334889,0.1409389,-0.5079301,0.1612738,-0.6319023
0.8516044,-0.07346665,-0.2752506,-0.06692365,0.1844279,0.1149187,-0.5748367,0.2933525,-0.5483203
0.8775742,-0.06092156,-0.2762504,-0.04081476,0.196817,0.1122385,-0.5851064,0.09110777,-0.4906469
0.8106531,-0.1412034,-0.2844381,-0.1075254,0.1163584,0.1022875,-0.6480521,-0.3810961,-0.2085152
0.6863534,-0.2631594,-0.4026321,-0.2315441,-0.005800384,-0.01774641,-0.7578155,-1.376797,0.4374353
0.7565843,-0.3234233,-0.6785183,-0.1609599,-0.06629366,-0.295539,-0.6377411,-2.09138,1.113072
0.918647,-0.3440905,-0.9079376,0.001530638,-0.08721299,-0.5269125,-0.5032979,-1.863745,1.563743
1.230069,-0.3760721,-0.9129534,0.3134514,-0.1194634,-0.5339018,-0.481823,-1.60807,1.66664
1.694009,-0.5134373,-0.9274433,0.777943,-0.2571061,-0.5503518,-0.1644542,-0.940508,1.273944
1.88618,-0.6214731,-0.9849485,0.9706872,-0.3654164,-0.609771,0.2271323,0.443252,0.6105488
1.741172,-0.5627588,-0.8900137,0.8262288,-0.3069582,-0.5166729,0.1264498,1.121318,-0.05168596
1.495475,-0.4084126,-0.7275176,0.5810155,-0.1528349,-0.3559093,-0.0798355,1.344843,-0.4903425
1.272631,-0.2038934,-0.4629717,0.3585562,0.05150389,-0.0929729,-0.04223377,1.613294,-0.401175
1.043525,-0.02336807,-0.2120499,0.1297172,0.2318912,0.1564688,-0.2053751,1.228446,-0.2193922
0.8305341,0.1170548,-0.222706,-0.08312781,0.3722087,0.1444568,-0.5098729,0.6310321,-0.2122876
0.7036154,0.1760936,-0.223036,-0.2100166,0.4311579,0.1428837,-0.6627003,-0.005825775,0.09691945
0.6296437,0.132859,-0.2095928,-0.2840588,0.3878291,0.155184,-0.7721157,-0.5638015,0.419363
0.6513965,0.1040842,-0.3053546,-0.2624576,0.3589355,0.0583686,-0.7142146,-0.3009398,0.5145944
0.6552096,0.05644319,-0.3112234,-0.2588573,0.3111339,0.05152627,-0.6032568,-0.103095,0.732755
0.6245673,-0.05299556,-0.3298719,-0.289755,0.2014796,0.03197802,-0.5785056,-0.1575468,0.9399063
0.6617512,-0.1208566,-0.3357418,-0.2528511,0.1333394,0.02527696,-0.4620276,0.2516803,1.113127
0.6615529,-0.1179082,-0.2997082,-0.2533377,0.1359411,0.06054353,-0.4139484,0.4731851,1.268334
0.7182998,-0.1339882,-0.3372318,-0.1968732,0.1194454,0.02231234,-0.3420745,0.6696763,1.268867
0.7748823,-0.1877984,-0.3152671,-0.1405555,0.06515055,0.04362461,-0.2061962,0.9719706,1.252435
0.7503429,-0.2531146,-0.291184,-0.1653333,-0.0007175697,0.0671061,-0.2406019,0.949979,1.116611
0.7823195,-0.3285736,-0.2589575,-0.1335622,-0.07679069,0.09877676,-0.2262843,0.9516314,0.8528158
0.7926654,-0.306195,-0.1997905,-0.123383,-0.05508088,0.1574274,-0.2046949,0.8589989,0.6957253
0.8438622,-0.2048047,-0.2500876,-0.07231001,0.04559414,0.106646,-0.2446715,0.7732806,0.6427251
0.9410277,-0.1118915,-0.2735157,0.02477621,0.1377505,0.08275818,-0.2372498,0.7673924,0.6361042
0.9895438,-0.01806457,-0.2653609,0.07325587,0.2307795,0.09047213,-0.3484682,0.5614609,0.5934697
1.036472,-0.01094847,-0.3114336,0.1201853,0.2370529,0.04397308,-0.5289081,0.4348804,0.5210359
1.009834,-0.02865956,-0.3630648,0.09357817,0.2184485,-0.008073061,-0.7818584,0.2427677,0.4951361
0.9643772,-0.01983621,-0.4448285,0.04817651,0.2263222,-0.09024064,-1.017807,-0.03256495,0.5116016
0.9375509,-0.0920269,-0.5936233,0.0214224,0.1531212,-0.2394248,-1.040759,-0.133955,0.6910343
0.9957781,-0.2957251,-0.8594708,0.07973566,-0.05164922,-0.5056375,-1.007616,0.1933274,1.286655
1.329561,-0.8641846,-1.011521,0.413612,-0.621235,-0.6580102,-0.8914603,1.50125,1.81862
1.612578,-1.367317,-0.7015376,0.6967152,-1.125521,-0.3482824,-0.8472818,2.589176,1.076864
1.477547,-0.8699152,-0.3453396,0.5617377,-0.6292576,0.007745355,-1.149792,1.672027,-0.3610993
1.322736,-0.2208575,-0.4911416,0.40692,0.01871754,-0.1381356,-1.435051,0.5390337,-0.8699377
1.415762,-0.4201899,-0.6419871,0.4998564,-0.1816228,-0.2889685,-1.387026,1.116719,-0.797351
1.274314,-0.3517632,-0.5268101,0.3582192,-0.1141239,-0.1736847,-1.350139,1.445404,-0.5673458
0.9381361,0.08550275,-0.5582906,0.0217418,0.3222945,-0.20496,-1.674071,1.19817,0.04113348
0.8105433,-0.06475979,-0.4675576,-0.106263,0.1712571,-0.1139216,-1.941354,1.419957,0.4782404
0.6854807,-0.273507,-0.2633132,-0.2318397,-0.03820375,0.09072749,-1.824111,0.9479564,0.6696124
0.6060906,-0.3921797,-0.279476,-0.3118288,-0.1575352,0.07506139,-1.601874,0.4382884,0.76357
0.6276885,-0.5076954,-0.2767207,-0.2908938,-0.2736525,0.07839435,-1.290562,0.3987363,0.8544195
0.5606507,-0.351838,-0.3938925,-0.3586365,-0.1183326,-0.03812955,-0.9906761,0.2530327,1.098679
0.5538301,-0.40827,-0.5280373,-0.3661821,-0.1752315,-0.1715632,-0.9522175,0.5887432,1.05001
0.5645088,-0.475977,-0.3696488,-0.3562269,-0.2433296,-0.01240329,-0.9113501,0.6156347,0.7731612
0.5815225,-0.4254741,-0.2117686,-0.3399147,-0.1931363,0.146305,-0.7250946,0.421263,0.4479205
0.658233,-0.5673706,-0.1187741,-0.2638659,-0.3352543,0.2401749,-0.6138234,0.3851418,-0.01905031
0.6529268,-0.5252071,-0.0781709,-0.2697795,-0.2932164,0.2816858,-0.5259812,-0.08424713,-0.365503
0.6663176,-0.4815346,-0.07208067,-0.2569297,-0.2495649,0.2886981,-0.434673,-0.1508212,-0.6814643
0.6883111,-0.469206,-0.04213298,-0.2354008,-0.2371463,0.3195641,-0.4612695,-0.01496437,-0.9119599
0.6555811,-0.2824879,-0.06987786,-0.2685102,-0.05022374,0.2927161,-0.444523,-0.01859586,-1.023855
0.6293144,-0.1933156,-0.07866187,-0.2950631,0.03926546,0.284791,-0.4313202,0.0205741,-1.25842
0.5726785,-0.0805443,-0.1117614,-0.3518831,0.1524578,0.2524981,-0.5381599,-0.2709366,-1.349359
0.5607465,-0.02489516,-0.132018,-0.3638876,0.2086188,0.2329834,-0.6167127,-0.6158157,-1.251044
0.6317673,-0.06708849,-0.1209794,-0.2928177,0.1670117,0.2446893,-0.6690928,-1.153643,-1.118434
0.7447171,-0.05021823,-0.2487011,-0.1796903,0.1845262,0.1175521,-0.6389386,-1.44551,-0.9033196
0.8843594,-0.09738453,-0.399048,-0.03973992,0.1380471,-0.03229697,-0.6046675,-1.054565,-0.6683976
0.9933419,-0.09306386,-0.4786808,0.06967667,0.1430847,-0.1115161,-0.6275993,-0.588224,-0.5312988
1.045288,-0.09107753,-0.4743654,0.1221728,0.1458059,-0.1068637,-0.4988146,-0.03196049,-0.5522442
1.037898,-0.1970809,-0.3950676,0.1154335,0.04054543,-0.02729617,-0.3266958,0.2715049,-0.5873861
1.024387,-0.3716223,-0.3691694,0.1026597,-0.1332514,-0.001187997,-0.225355,0.09224692,-0.5519501
1.039127,-0.6113783,-0.4865983,0.1182083,-0.3722601,-0.118461,-0.1803908,-0.2778759,-0.284698
1.076501,-0.680436,-0.7580262,0.1564516,-0.4405575,-0.3897786,-0.06236085,-0.611321,0.2881754
1.151245,-0.6146705,-0.9005838,0.2321089,-0.374003,-0.5322551,0.218534,-0.3839032,0.5861533
1.283582,-0.5954029,-0.7800921,0.3653873,-0.3539012,-0.4116884,0.3176496,0.1188062,0.454183
1.534296,-0.5801982,-0.6884629,0.6170494,-0.3378038,-0.3199672,0.2988385,0.3024644,0.3471247
1.707922,-0.5193294,-0.7070562,0.7916027,-0.2759726,-0.3384332,0.4382934,0.2410971,0.09487578
1.57225,-0.2731182,-0.717529,0.6568017,-0.02872301,-0.3487287,0.4958329,0.2125254,-0.5213473
1.356043,0.02970421,-0.7346793,0.4413752,0.2752119,-0.3656381,0.2691696,0.3784417,-0.9776828
1.205511,0.01978126,-0.7345214,0.2915115,0.2664625,-0.3651625,-0.0196652,0.4163275,-1.01933
1.043863,-0.1262096,-0.5466144,0.1304042,0.1216874,-0.17685,0.01481229,0.04979422,-0.8466126
0.862105,-0.1163488,-0.3035838,-0.05094121,0.1327897,0.06667884,0.2094845,-0.2793161,-0.5418021
0.6921465,-0.1656333,-0.3064894,-0.2206106,0.08475985,0.06436016,0.3123125,-0.2397483,-0.3492374
0.6686436,-0.1573921,-0.3334136,-0.2439332,0.09425889,0.03810194,0.4530897,-0.3417572,-0.2291033
0.5909399,0.02372635,-0.2142651,-0.3215469,0.2766288,0.1579845,0.5155934,-0.7995608,-0.008978283
0.4498515,0.007494721,-0.2182764,-0.4626137,0.2616296,0.1547631,0.567981,-1.078618,0.2110084
0.6374108,-0.01911221,-0.3255369,-0.2750777,0.2362217,0.04833552,0.7246796,-0.9903514,0.5308704
0.7905157,0.03344039,-0.3806609,-0.1220206,0.2899257,-0.005922894,0.772634,-0.630299,0.7145094
0.7502074,-0.02561481,-0.4194871,-0.1623877,0.2319612,-0.04385696,0.7644577,-0.2130572,0.655617
0.783323,-0.004145173,-0.3835379,-0.1293326,0.254449,-0.006992872,0.7632832,-0.1526878,0.6371065
0.7220043,-0.03906861,-0.3396972,-0.1907058,0.220461,0.03778208,0.7634053,-0.23906,0.5197829
0.7132793,-0.1466986,-0.3700667,-0.1994709,0.1136758,0.008361943,0.780925,-0.01751161,0.3729424
0.7551949,-0.2087758,-0.3144678,-0.1575726,0.0523484,0.06492031,0.7715722,0.3411899,0.3108758
0.7449986,-0.3271795,-0.2182942,-0.1677557,-0.06539969,0.1620574,0.8306996,0.67631,0.2283506
0.8334511,-0.3492374,-0.1932088,-0.07925364,-0.08689121,0.1881017,0.951708,0.9303191,0.1391962
0.8428805,-0.3212542,-0.2149248,-0.06973502,-0.05842276,0.1673295,1.077725,0.9294469,-0.00974743
0.8576343,-0.2750536,-0.2653176,-0.05485102,-0.01181036,0.1178552,1.12146,0.8230189,-0.158389
0.9151264,-0.1267405,-0.2721186,0.00281186,0.1368465,0.1119394,0.9826583,0.5756492,-0.331574
0.8927002,0.008627776,-0.2856146,-0.01940488,0.2724906,0.09928878,0.7981277,0.02918454,-0.4622342
0.9436281,0.1107018,-0.3473902,0.03176829,0.3747665,0.03831453,0.5827936,-0.3275445,-0.3579121
1.005719,0.05933527,-0.4520406,0.09413621,0.323517,-0.06558061,0.3312189,-0.2575245,-0.1106014
1.122312,-0.1298002,-0.6163234,0.2110308,0.1344038,-0.2291515,0.2002545,-0.1295285,0.2317432
1.306482,-0.292991,-0.6767738,0.3955161,-0.0288642,-0.2889251,0.2426756,0.01256118,0.3777117
1.363332,-0.4356247,-0.6543811,0.4526778,-0.1716698,-0.2658775,0.3232284,0.2384787,0.2091758
1.402646,-0.5422668,-0.6739662,0.4922796,-0.2785665,-0.284816,0.2755776,0.5038081,0.06516527
1.520923,-0.7176717,-0.5708953,0.6107945,-0.4542902,-0.1810941,0.3090451,0.7380365,-0.2989331
1.569451,-0.8477412,-0.316979,0.6594859,-0.584718,0.07348563,0.476757,0.68152,-0.8285584
1.387019,-0.636153,-0.1790006,0.4771176,-0.3734995,0.2121398,0.5421113,0.509973,-0.9053491
1.07374,-0.325133,-0.2432179,0.1637811,-0.06283684,0.1486025,0.5742168,0.4077519,-0.7423022
0.8572541,-0.2009152,-0.26982,-0.05288901,0.06104787,0.1226742,0.5010249,0.1388444,-0.6101202
0.7524149,-0.1543556,-0.1869037,-0.1580348,0.1072994,0.2062488,0.3608695,-3.228743e-05,-0.2881325
0.7109987,-0.1577712,-0.1249998,-0.1998656,0.1035965,0.2687857,0.3619401,-0.09118725,0.0530049
0.7104697,-0.2563075,-0.04245571,-0.2008997,0.004788408,0.3519255,0.4006696,-0.4477433,0.1749211
0.7208732,-0.3369145,-0.001790269,-0.1910738,-0.0760778,0.3931344,0.5235526,-0.4900249,0.1767592
0.7181923,-0.3399646,-0.07822117,-0.194388,-0.07937326,0.3171789,0.6771379,-0.385932,0.1140361
0.6820309,-0.2880072,-0.1076416,-0.2312222,-0.02764466,0.2881514,0.6880417,-0.5948358,-0.01629289
0.645682,-0.2217035,-0.1024769,-0.2682675,0.03844862,0.2936156,0.5995901,-0.780978,-0.1819651
0.6623061,-0.2249457,-0.1107882,-0.2523472,0.0350136,0.2855009,0.4578282,-0.8903189,-0.4433704
0.714034,-0.2540582,-0.08509778,-0.2013153,0.005723934,0.3112771,0.3775188,-0.8227205,-0.7994417
0.7297674,-0.257361,-0.100481,-0.1862569,0.002257786,0.2958611,0.3325874,-0.5217634,-1.106885
0.673862,-0.2448684,-0.1144186,-0.2428054,0.01459997,0.2817657,0.2853168,-0.2033558,-1.314431
0.5559496,-0.1909422,-0.1022315,-0.3613175,0.06838738,0.2936643,0.2995982,-0.1151173,-1.352225
0.507326,-0.1367422,-0.1265302,-0.4104836,0.1224572,0.2689418,0.3058801,-0.6122523,-1.151095
0.6544755,-0.0887432,-0.16066,-0.2638036,0.1703295,0.2342496,0.3380774,-1.006447,-0.8911308
0.8689113,-0.05741767,-0.2258104,-0.04975269,0.2015245,0.1683974,0.4207328,-0.600994,-0.7355937
0.9640761,-0.0687019,-0.243181,0.04511511,0.1900975,0.1501869,0.4766843,-0.2435987,-0.6763109
0.9346174,-0.09070416,-0.1838137,0.01544351,0.1679315,0.2085796,0.4271547,-0.4212072,-0.6463593
0.9442382,-0.1853142,-0.2165955,0.02492884,0.07313016,0.1746917,0.2662638,-0.7200415,-0.413369
1.081497,-0.347359,-0.4567956,0.1621223,-0.08913633,-0.06674127,0.194904,-1.093518,0.235397
1.195798,-0.4390387,-0.8856607,0.2764182,-0.1810649,-0.4969537,0.3601908,-1.335316,0.921717
1.260168,-0.4261659,-1.099967,0.340827,-0.1684596,-0.712695,0.5690066,-1.097361,1.023413
1.532259,-0.4732871,-0.9060857,0.6129809,-0.2158562,-0.5203001,0.5829931,-0.8589999,0.7938357
1.913036,-0.5877384,-0.8195801,0.993817,-0.3305786,-0.4352934,0.6942106,-0.7051875,0.6473838
1.879034,-0.4933149,-0.9079484,0.9598297,-0.2364085,-0.525142,0.9091945,-0.2530662,0.1109512
1.549838,-0.3259093,-0.8026771,0.6305628,-0.06922615,-0.4213051,0.736153,0.18118,-0.7307156
1.349158,-0.3113199,-0.6218565,0.4296917,-0.05482314,-0.2418496,0.5461966,0.7575064,-1.120293
1.124683,-0.256335,-0.431696,0.2048875,1.392469e-05,-0.05296967,0.5980148,1.198479,-1.138718
0.884845,-0.1876573,-0.2014638,-0.0354242,0.06858124,0.176071,0.5711597,0.7746723,-1.049615
0.7079076,-0.133824,-0.1698184,-0.2129719,0.1223372,0.2066088,0.6423142,0.3161949,-0.8577283
0.5301194,0.01149634,-0.2340434,-0.3914895,0.2676057,0.1413489,0.7334438,-0.07931692,-0.6298105
0.5015466,0.09719762,-0.1903229,-0.4208856,0.3532687,0.1840959,0.7081499,-0.7391045,-0.3191166
0.5135129,0.09224806,-0.1970514,-0.4098077,0.3482785,0.1764445,0.7404153,-0.9741982,-0.01665496
0.5552941,0.06057247,-0.2482903,-0.3689519,0.3165427,0.1243235,0.7682515,-1.161941,0.3168603
0.6980053,0.003343611,-0.2653501,-0.2271784,0.259219,0.1064144,0.8304629,-1.272927,0.6689614
0.7587171,-0.03360681,-0.3013337,-0.167398,0.222127,0.06960783,0.868885,-0.82179,0.7707117
0.8067135,-0.06876386,-0.3037759,-0.1203139,0.1867729,0.06636492,0.8545807,-0.3761074,0.7480814
0.8368908,-0.09187612,-0.2973033,-0.09102093,0.1634019,0.07205583,0.9088294,-0.004614653,0.6977017
0.8162777,-0.09771642,-0.329883,-0.1124842,0.1572373,0.03871081,0.9031894,0.1810851,0.5838873
0.8341798,-0.1213567,-0.3452237,-0.09539289,0.1332044,0.02261938,0.8591585,0.2611508,0.4919861
0.8377619,-0.1589895,-0.3467566,-0.09257758,0.09510951,0.02034953,0.7804571,0.6327728,0.4129225
0.8497415,-0.2070494,-0.3378918,-0.08131708,0.04651857,0.02849096,0.6203912,0.7918441,0.3660955
0.8494857,-0.2093073,-0.3079131,-0.08224126,0.04366324,0.05775929,0.5291192,0.771175,0.233715
0.8499428,-0.1600172,-0.2429919,-0.08239937,0.09229301,0.1219816,0.4267561,0.6698879,0.02233269
0.887797,-0.1161263,-0.1851375,-0.04510528,0.1354634,0.179145,0.2839334,0.2677399,-0.07242485
0.9132302,-0.0832617,-0.2274885,-0.02017658,0.1675477,0.1361048,0.2818587,0.0005198542,-0.08880633
0.9530192,-0.1053635,-0.3087272,0.01916265,0.144605,0.05417342,0.3179209,-0.130904,-0.03074485
0.9727696,-0.1937288,-0.4210911,0.03851534,0.05533759,-0.05888889,0.2557255,-0.253846,0.1421242
1.018586,-0.3092921,-0.5788054,0.08398217,-0.06118662,-0.2173045,0.260894,-0.2475903,0.3836838
1.115239,-0.4530392,-0.6178455,0.180326,-0.2059461,-0.25704,0.3905607,-0.146042,0.4955341
1.186569,-0.565119,-0.6284714,0.251381,-0.3190763,-0.2683426,0.4923771,0.05179234,0.390244
1.31242,-0.6363717,-0.6794789,0.3769748,-0.3913988,-0.319994,0.4974291,0.2446104,0.3099609
1.486602,-0.7544567,-0.4804691,0.5509028,-0.5105502,-0.121582,0.4509017,0.5214992,0.03844412
1.564582,-0.8099362,-0.2075806,0.6286077,-0.5670668,0.1507622,0.4365333,0.712228,-0.6063918
1.412128,-0.644094,-0.239304,0.4758301,-0.4022058,0.1185465,0.4249925,0.4121489,-1.021082
1.1326,-0.4006536,-0.3261923,0.1959109,-0.159669,0.03121087,0.4025566,0.04824011,-0.9945558
0.9700547,-0.2414368,-0.2855207,0.03289339,-0.00126681,0.07147361,0.3656145,0.08586858,-0.8895813
0.8432535,-0.1488644,-0.2202231,-0.0944599,0.09058096,0.1363956,0.2234811,0.08401113,-0.7181905
0.7206071,-0.1648994,-0.08773513,-0.2177298,0.07390542,0.2685339,0.07583051,-0.2281942,-0.3851907
0.6888179,-0.2521387,-0.01007455,-0.2501995,-0.0138976,0.3458592,0.04885246,-0.5140608,-0.1229106
0.6634043,-0.3022424,-0.06829077,-0.2763332,-0.06449371,0.2873073,0.1854632,-0.8079351,-0.0191248
0.6735744,-0.3326836,-0.09949819,-0.2669046,-0.09535804,0.2557493,0.3797243,-0.9872243,0.07579508
0.6900475,-0.3055059,-0.1203913,-0.2511771,-0.0685346,0.2344783,0.4220909,-0.8100146,0.06729358
0.643979,-0.2333175,-0.1560927,-0.2979792,0.003368063,0.1983622,0.385189,-0.6638896,-0.06364428
0.6184057,-0.1755076,-0.1599036,-0.3242584,0.06095805,0.1940922,0.3023549,-0.4694982,-0.2524805
0.5966366,-0.1427486,-0.176696,-0.3466902,0.09355726,0.1767908,0.1468056,-0.1887851,-0.5683382
0.5776437,-0.2015976,-0.1622647,-0.3662864,0.03460157,0.1906583,0.01386034,-0.2267365,-0.7886192
0.5698467,-0.2739925,-0.1139458,-0.3746117,-0.03785318,0.2383542,-0.06429565,-0.4767254,-0.8141123
0.5797175,-0.2970113,-0.104131,-0.3651793,-0.06088837,0.2474819,-0.05634429,-0.8563727,-0.7661974
0.7171381,-0.261862,-0.1621749,-0.2280942,-0.0257133,0.1886814,-0.0422905,-0.9794867,-0.6303206
0.9283991,-0.1268479,-0.3016713,-0.0170586,0.1093669,0.04835576,-0.05623241,-0.3741495,-0.5615089
1.032138,-0.06642182,-0.3627373,0.08656452,0.1698938,-0.01361074,-0.05226225,0.3001812,-0.6070412
0.9597308,-0.1100207,-0.2731489,0.01414277,0.1264219,0.07501128,-0.08920349,0.3398266,-0.6728461
0.8468806,-0.1381838,-0.1763138,-0.09862843,0.09840236,0.1708189,-0.1699591,-0.005025094,-0.6669605
0.839616,-0.1770741,-0.1617335,-0.1057261,0.0596648,0.184312,-0.2384845,-0.5779052,-0.2622001
0.9597646,-0.2310482,-0.390354,0.01467444,0.005847801,-0.04545522,-0.1464797,-1.452882,0.5190476
1.146341,-0.3143557,-0.8099071,0.201582,-0.07730052,-0.4662078,0.1023008,-1.772164,0.9561289
1.191833,-0.3683107,-0.9873443,0.2474726,-0.1310931,-0.6448772,0.2437786,-1.188724,0.6764519
1.302039,-0.417944,-0.8507879,0.3581276,-0.1805561,-0.509555,0.2035893,-0.4245564,0.3294263
1.633299,-0.5392995,-0.7640841,0.689864,-0.3017259,-0.4240558,0.2144131,0.3204354,0.2155732
1.667931,-0.5261868,-0.777779,0.7249709,-0.2884019,-0.4388995,0.4413639,0.3701663,-0.03652768
1.549096,-0.3706048,-0.7344067,0.606574,-0.1325719,-0.3965984,0.5673296,0.2020116,-0.4085545
1.527704,-0.2596101,-0.6956074,0.5855512,-0.02128574,-0.3587742,0.3761012,0.952455,-0.8637991
1.228229,-0.1905725,-0.5691903,0.2863504,0.04808763,-0.2332217,0.2224244,0.948387,-1.04475
0.9265584,-0.1824746,-0.332448,-0.01515595,0.05656117,0.002775178,0.2822575,0.3091978,-0.8068601
0.8002536,-0.1926764,-0.2716338,-0.141406,0.04676895,0.0629626,0.4068515,0.2250843,-0.7552019
0.619724,-0.1360379,-0.3076582,-0.3219798,0.1038444,0.02642342,0.4966828,-0.3634767,-0.5990364
0.5622404,-0.03929676,-0.2789943,-0.3795876,0.2010419,0.05467566,0.5225095,-0.6408031,-0.2412284
0.5920273,0.06853935,-0.2735177,-0.3499822,0.3093431,0.05983499,0.5399002,-0.6161596,-0.03807288
0.6356921,0.09167236,-0.2674018,-0.3065331,0.3329354,0.06571923,0.5913124,-0.9795044,0.3296501
0.7433221,0.02293367,-0.2839163,-0.1991337,0.2646337,0.04904987,0.6015428,-0.5941294,0.5824443
0.7627824,-0.02134812,-0.3255799,-0.1799039,0.2207521,0.007300643,0.5573821,-0.3408633,0.629559
0.7283426,-0.04600605,-0.299955,-0.2145628,0.1964465,0.03290242,0.5591456,-0.3716937,0.7156213
0.7309734,-0.05549653,-0.2556775,-0.2121296,0.1872518,0.07721334,0.5680621,-0.04965604,0.6448835
0.748255,-0.06401445,-0.2350522,-0.1950144,0.1789665,0.09792155,0.5656185,0.001771008,0.6430265
0.7729529,-0.1077682,-0.2422778,-0.1704434,0.1353769,0.09082028,0.5933698,0.3142797,0.6688675
0.7900962,-0.1385337,-0.2907137,-0.1533802,0.1047037,0.04254249,0.5834601,0.707934,0.5839956
0.8017056,-0.1552605,-0.3127648,-0.1417991,0.08799589,0.02067702,0.5609087,0.8647399,0.5279353
0.8015357,-0.1844214,-0.2833334,-0.1419415,0.05878097,0.0503169,0.5167626,0.9434294,0.3591791
0.8160921,-0.2184211,-0.2474587,-0.1272984,0.02465592,0.08641848,0.4295413,0.5966993,0.1256605
0.8464612,-0.2180775,-0.231227,-0.0967814,0.02480621,0.1028901,0.3551733,0.2905862,-0.08157145
0.8693664,-0.1947781,-0.2488343,-0.07366603,0.04784798,0.08552954,0.2977497,0.08321314,-0.1805796
0.9036225,-0.2036319,-0.2974384,-0.03913838,0.03867592,0.03717344,0.2917447,-0.02101752,-0.1482858
0.93492,-0.2204783,-0.4258515,-0.007510152,0.02145395,-0.09099371,0.2593234,0.05511647,-0.0573821
1.005738,-0.3189762,-0.5859331,0.06369333,-0.07747284,-0.2508296,0.2185847,-0.0002059418,0.188468
1.136145,-0.4790454,-0.618172,0.1945338,-0.2380165,-0.2828157,0.29157,0.110261,0.3427525
1.275792,-0.5268343,-0.6854737,0.3346504,-0.2863133,-0.3498456,0.3797652,0.1781034,0.2541448
1.473543,-0.6258022,-0.7885293,0.5328884,-0.3858055,-0.4525954,0.5055787,0.3376428,-0.02786769
1.645122,-0.8438807,-0.4805092,0.7049474,-0.6044035,-0.1442208,0.6424463,0.6578248,-0.6777334
1.614967,-0.8389861,-0.1170055,0.6752335,-0.5999978,0.219694,0.6156788,0.2694621,-1.282378
1.452652,-0.579413,-0.2960617,0.5132899,-0.3408557,0.0411015,0.5682009,-0.1231762,-1.29732
1.217096,-0.2804437,-0.4378985,0.278009,-0.04224041,-0.1002275,0.5615225,0.08750308,-0.9886791
0.9694232,-0.002837513,-0.285345,0.03050272,0.2350941,0.05287266,0.3833868,0.07427124,-0.6471753
0.85812,0.07504362,-0.2698881,-0.08074487,0.3127771,0.06891082,0.1145881,-0.1269221,-0.1446935
0.7734004,-0.09569294,-0.1597147,-0.1655113,0.1418998,0.1796934,0.0431649,-0.193034,0.3335465
0.6783868,-0.2584388,0.0007157602,-0.2606605,-0.02094331,0.3407496,0.1927131,-0.3879877,0.4875769
0.6648834,-0.3136226,-0.06415442,-0.2743707,-0.0761876,0.2765068,0.3376641,-0.6350858,0.5154879
0.6265694,-0.2671513,-0.08202444,-0.3129436,-0.02974141,0.2592489,0.3292835,-0.7320177,0.5257421
0.6103956,-0.1977004,-0.1131724,-0.3294089,0.03971929,0.2286834,0.2487487,-0.8532795,0.437027
0.6798034,-0.2064457,-0.1648188,-0.2603058,0.03101599,0.1775779,0.1633269,-0.9063004,0.2094963
0.7577871,-0.2242697,-0.114931,-0.1826239,0.01326273,0.2279556,0.06811668,-0.8184681,-0.2562749
0.8474201,-0.2724839,-0.1461437,-0.09327778,-0.03485534,0.1971735,0.006641769,-0.7755662,-0.7494933
0.8728442,-0.3238491,-0.1480335,-0.06811842,-0.08610028,0.1956475,-0.01835315,-0.6285733,-1.018855
0.7973574,-0.2907801,-0.1452421,-0.1438436,-0.0528863,0.1987295,0.008023477,-0.5197074,-1.074721
0.7268674,-0.2450727,-0.2378825,-0.2145407,-0.007008591,0.1063013,0.03025355,-0.612772,-0.9643622
0.7372928,-0.193351,-0.2775848,-0.2042841,0.04490799,0.06673044,-0.01829442,-0.5881327,-0.8459042
0.7962336,-0.1734174,-0.2940065,-0.1454663,0.06505782,0.05035982,-0.03999727,-0.4067353,-0.7867836
0.8354427,-0.2002009,-0.2427517,-0.1063284,0.03850752,0.1015876,-0.02216474,-0.2482857,-0.6991961
0.8688062,-0.1831651,-0.1777488,-0.07298125,0.05578896,0.1664865,0.03756506,-0.2586058,-0.5908951
0.8631505,-0.1605092,-0.2064385,-0.07859741,0.07869856,0.1376154,0.1251435,-0.3118935,-0.4990345
0.819147,-0.1319465,-0.2309432,-0.1225054,0.1075182,0.1128508,0.1193912,-0.1809508,-0.4322695
0.7932988,-0.09682607,-0.263685,-0.148201,0.142893,0.07977054,0.06867462,-0.03655354,-0.3450641
0.7959414,-0.141869,-0.3050217,-0.1453466,0.09809529,0.03801848,-0.002442781,0.01152625,-0.0668746
0.9195574,-0.1868421,-0.5074843,-0.02145783,0.05335271,-0.1649314,-0.1178938,-0.1049662,0.4757059
1.074823,-0.1535739,-0.9088645,0.1341399,0.08683264,-0.566859,-0.1683845,-0.3753944,0.9758089
1.142491,-0.1673484,-1.035849,0.2021902,0.07324816,-0.6944262,-0.2033402,-0.5182666,1.058908
1.374435,-0.3066124,-0.8242356,0.4345547,-0.06584967,-0.4833987,-0.2851122,-0.6599474,0.8632261
1.700937,-0.4375465,-0.7386408,0.7614929,-0.1966395,-0.3983616,-0.2948957,-0.8489997,0.6476944
1.677909,-0.4233471,-0.8426398,0.7388845,-0.1823107,-0.5028662,-0.2256428,-0.5913075,0.1547924
1.514484,-0.3768974,-0.8297836,0.5758279,-0.1357373,-0.4904419,-0.1004502,0.1657524,-0.4864085
1.469656,-0.4012199,-0.61595,0.5312846,-0.1599331,-0.2769472,0.03908674,0.9112194,-0.6137533
1.211444,-0.3571814,-0.3558489,0.2732526,-0.1157577,-0.01707966,0.07107185,1.14572,-0.485781
0.9662096,-0.255547,-0.2529325,0.02808073,-0.01397134,0.08570993,0.07826409,0.8518518,-0.5447851
0.9307856,-0.1770121,-0.3220433,-0.007399735,0.06473241,0.01657193,0.1106714,0.512427,-0.4842101
0.7271057,-0.0381085,-0.3317975,-0.2112467,0.2038185,0.00688103,0.09384179,0.1089136,-0.3538814
0.613374,0.06040324,-0.317732,-0.3252414,0.3025177,0.02109254,0.08194934,-0.5250088,-0.2703869
0.6605117,0.04367934,-0.3675171,-0.2784428,0.2859735,-0.02847071,0.1045727,-0.8446905,-0.07843512
0.610205,0.001627466,-0.3482508,-0.329143,0.2440791,-0.008912841,0.1807899,-0.7858242,0.05539961
0.6554817,-0.07429332,-0.3366089,-0.2842935,0.1682817,0.003085309,0.2960329,-0.7116664,0.2070067
0.7052513,-0.1304454,-0.3382237,-0.2349661,0.1122103,0.001885859,0.374057,-0.4484247,0.4851786
0.7226986,-0.1431333,-0.2892042,-0.21796,0.09955571,0.05137397,0.4385996,-0.003583265,0.6336996
0.7439112,-0.1642579,-0.2951536,-0.1971746,0.07841467,0.04594011,0.5556674,0.2797219,0.6734105
0.7017607,-0.1860405,-0.3264951,-0.2397271,0.05656511,0.01515421,0.6866287,0.3076243,0.682719
0.7843119,-0.214461,-0.3583973,-0.1575425,0.02802738,-0.01615818,0.7135954,0.4253976,0.6348076
0.861914,-0.2152186,-0.3816778,-0.08026371,0.02710406,-0.03881876,0.6818624,0.7071013,0.5837825
0.8568988,-0.1978832,-0.3611049,-0.08555449,0.04422747,-0.01759872,0.6523071,0.7660861,0.4899524
1.398838,-0.6268304,-0.4440248,0.4990378,-0.3571318,-0.0998179,0.8886033,0.2584559,-0.2905095
1.616466,-0.7956818,-0.2001137,0.7165242,-0.5277297,0.1436411,0.8511587,0.4284358,-0.8687057
1.582062,-0.76138,-0.1595263,0.6819384,-0.4951172,0.1838659,0.7752573,0.1941884,-1.272198
1.291672,-0.5041208,-0.2491484,0.3912967,-0.2394658,0.09395868,0.5789558,0.1427464,-1.329012
1.023107,-0.2857323,-0.3065697,0.1223902,-0.02258749,0.03631851,0.3373563,0.1013386,-1.231335
0.7044498,-0.001868797,-0.2406785,-0.1967046,0.2598671,0.1020485,0.1819202,0.01006548,-1.096662
0.6422251,-0.06731945,-0.1375624,-0.2594533,0.193101,0.2050525,0.02668303,-0.07764844,-0.7948065
0.6751175,-0.2104576,-0.01838022,-0.2271546,0.04872885,0.3241605,0.02538957,-0.1943241,-0.5596214
0.4811759,-0.08888715,0.06829755,-0.4217395,0.1691366,0.4107857,0.1156009,-0.2753842,-0.4987197
0.5318017,-0.2211771,0.05170172,-0.3717844,0.03574777,0.3941394,0.1626409,-0.5602825,-0.4056889
0.5338681,-0.2256832,0.03425202,-0.3703932,0.03020022,0.3766213,0.2656435,-0.7176951,-0.4403808
0.4148503,-0.08634686,-0.04335963,-0.4900684,0.1685481,0.2989052,0.1733105,-0.5826982,-0.4971421
0.5683454,-0.1830402,-0.1176855,-0.337191,0.07091328,0.2244247,0.007180638,-0.4707096,-0.5106885
0.564879,-0.1121828,-0.1013025,-0.3412159,0.1408699,0.2405929,0.0424749,-0.4435706,-0.6440014
0.571585,-0.08831504,-0.16728,-0.3349938,0.1638706,0.1743333,0.03543504,-0.8001195,-0.6559557
0.7203168,-0.1494169,-0.2613456,-0.1866587,0.1019286,0.07991399,0.002885121,-1.317213,-0.6006238
0.8465388,-0.1316554,-0.342877,-0.06073876,0.1188701,-0.002043144,-0.003051383,-1.284961,-0.6086619
1.138186,-0.2748602,-0.4015697,0.2307004,-0.02513883,-0.06122922,-0.07418843,-0.8314116,-0.589563
1.220925,-0.3453497,-0.3730458,0.3133152,-0.0964173,-0.03325938,-0.1127392,-0.4423006,-0.5146106
1.163385,-0.3667882,-0.4673064,0.2557161,-0.1186262,-0.128126,-0.07689887,-0.3056793,-0.103428
1.124477,-0.3985365,-0.7163671,0.2167978,-0.1511205,-0.3778333,0.09723347,-0.5891619,0.4716483
0.9355299,-0.328032,-0.878616,0.02787256,-0.08133073,-0.5407511,0.3259013,-0.9613118,0.6172083
0.9928022,-0.3595291,-0.8273922,0.08519036,-0.1135057,-0.4901936,0.3445937,-0.9597433,0.530848
1.292876,-0.4584885,-0.741236,0.3853246,-0.2131007,-0.404674,0.3242381,-0.91159,0.5719675
1.636766,-0.5365805,-0.8028853,0.7292763,-0.2917788,-0.4669072,0.5554462,-0.8145509,0.3531544
1.770494,-0.4426376,-0.8368423,0.8630382,-0.1983626,-0.5013741,0.7475936,-0.3226612,-0.2081429
1.466537,-0.2370759,-0.8412062,0.5590516,0.006739657,-0.5061533,0.6295929,0.4712625,-0.7031757
1.20043,-0.2382407,-0.7735532,0.292824,0.005184768,-0.4388015,0.5410818,1.043684,-0.9536262
1.003951,-0.2320227,-0.4640512,0.09611519,0.01107887,-0.1294715,0.6653098,0.7948246,-0.7611981
0.7361178,-0.1742673,-0.2374693,-0.1720559,0.06857196,0.09707206,0.7431734,0.5276027,-0.5164677
0.6561321,-0.1754681,-0.2083598,-0.2524792,0.06716457,0.1262702,0.751158,0.6116894,-0.4838423
0.5869568,-0.03038143,-0.1836685,-0.3221733,0.212093,0.151163,0.7760848,0.07938673,-0.1616453
0.4621997,0.1281667,-0.1711634,-0.4475079,0.3705197,0.1639666,0.7519886,-0.5699333,0.09211092
0.5058913,0.1459861,-0.1781018,-0.4044277,0.388238,0.1574081,0.7440104,-0.8647367,0.1438411
0.5801955,0.1201331,-0.2182556,-0.3307438,0.3622848,0.1177006,0.7531776,-1.020664,0.2982028
0.6318662,0.03920207,-0.2352612,-0.279681,0.2812357,0.1011947,0.7072084,-0.8020611,0.3421342
0.8235173,-0.1093283,-0.2713374,-0.08860977,0.1325554,0.06566054,0.7192482,-0.5441414,0.5188123
0.9371102,-0.1939833,-0.364976,0.02443996,0.04771059,-0.02740195,0.8488188,-0.1736293,0.626998
0.8962162,-0.2019232,-0.4002421,-0.01695843,0.03953877,-0.06206292,1.019911,0.2917202,0.5072228
0.9519903,-0.2986634,-0.4267941,0.03834873,-0.05747377,-0.08798274,1.060619,0.4135743,0.5300674
0.9828064,-0.3777341,-0.431511,0.06873295,-0.1368528,-0.09204031,0.9732617,0.701458,0.362081
0.9723399,-0.343905,-0.4275085,0.05786579,-0.1033602,-0.08735074,0.9296838,1.07932,0.03616919
0.9878107,-0.2928567,-0.4441067,0.07296293,-0.05266832,-0.1032332,0.7882565,1.073268,-0.2426437
0.8732629,-0.1848187,-0.4249542,-0.04193511,0.0549992,-0.08333571,0.5385871,0.8168792,-0.5159247
0.8011149,-0.1683066,-0.4743361,-0.1144112,0.07112908,-0.1319425,0.35776,0.4476318,-0.5286848
0.8940019,-0.3215511,-0.536907,-0.0218277,-0.08250908,-0.1937061,0.2627268,0.19612,-0.3195866
1.02798,-0.4277683,-0.5749414,0.1118725,-0.1891284,-0.2308976,0.312756,-0.01081251,-0.005658365
1.195565,-0.4740868,-0.6317295,0.2792006,-0.2358494,-0.2868008,0.3287344,-0.1304071,0.2390037
1.454979,-0.599614,-0.5752648,0.5383683,-0.3617673,-0.2294023,0.2733743,0.09664207,0.2363158
1.656988,-0.7617883,-0.3720395,0.7401191,-0.5243041,-0.02518856,0.3454588,0.3207387,-0.06509487
1.507727,-0.7161176,-0.1809794,0.5905598,-0.478947,0.1669136,0.3801432,0.3524213,-0.6972028
1.302598,-0.5438625,-0.2908155,0.3850648,-0.3069356,0.05816488,0.3518117,0.4479173,-1.109602
1.263209,-0.4403745,-0.443055,0.3452214,-0.2036058,-0.09295187,0.3089496,0.5461097,-1.041867
0.9638539,-0.2199848,-0.2204638,0.04531255,0.01671816,0.1307905,0.2064849,0.4723348,-0.9208665
0.5743034,-0.009671551,-0.04593362,-0.3448893,0.2270558,0.3064922,0.1671118,0.3077896,-0.7422216
0.544034,-0.06600681,-0.06131414,-0.375893,0.170824,0.2922889,0.1719644,0.04159278,-0.4423829
0.5971953,-0.1875355,-0.002257023,-0.3235252,0.04946354,0.3525106,0.219069,-0.1731881,-0.3702127
0.4745206,-0.2275483,0.03289999,-0.4470277,0.009672974,0.3888004,0.2823971,-0.2338641,-0.4937972
0.4541858,-0.2640052,0.05082836,-0.4681991,-0.02651453,0.4078101,0.2625498,-0.3983079,-0.4560346
0.5382958,-0.2356244,0.02395741,-0.3849096,0.002178942,0.3819496,0.1446851,-0.4410493,-0.4191428
0.4820099,-0.1074494,-0.07580569,-0.4419764,0.1307052,0.2831089,-0.08793889,-0.4719837,-0.4746466
0.5007089,-0.09629415,-0.1365527,-0.4239978,0.1422433,0.2231831,-0.2145528,-0.7487074,-0.4198118
0.6010744,-0.1376463,-0.1869601,-0.3242731,0.1012964,0.1734874,-0.2114614,-0.8970122,-0.4163982
0.6877264,-0.1215437,-0.2804061,-0.2381677,0.1178175,0.08063963,-0.2505109,-1.062323,-0.4195512
0.8971324,-0.180495,-0.4194283,-0.0292054,0.05929028,-0.05789717,-0.2775558,-1.009058,-0.3751786
1.036596,-0.2024147,-0.4011033,0.1099176,0.03779434,-0.03919412,-0.3454775,-0.5177599,-0.4782366
1.148559,-0.2099349,-0.2987132,0.2216348,0.03069364,0.06347454,-0.3539561,-0.1209331,-0.6178235
1.21925,-0.2613942,-0.3572208,0.292161,-0.02035278,0.005152147,-0.28289,0.1282732,-0.617302
1.060481,-0.3288868,-0.3779988,0.1332913,-0.08743967,-0.01552859,-0.2374972,-0.2702897,-0.1948188
0.9532176,-0.4535445,-0.5159929,0.02597647,-0.2116962,-0.1535064,-0.03266284,-1.116411,0.4833803
0.8890519,-0.4150507,-0.8026612,-0.0381991,-0.1727996,-0.4402277,0.1350321,-1.29379,0.7763071
0.9069845,-0.3504518,-0.8048852,-0.02023849,-0.1077886,-0.4425542,0.1086856,-1.196327,0.8725079
1.238196,-0.4360993,-0.6557508,0.3110355,-0.1930085,-0.2935479,0.129694,-1.214717,1.076336
1.604719,-0.4111642,-0.6141608,0.6776423,-0.1676247,-0.2520909,0.2170478,-1.147249,1.052519
1.717829,-0.3305019,-0.7961816,0.7908319,-0.08648704,-0.4342324,0.3414344,-0.7873449,0.5829748
1.537114,-0.2624783,-0.9855548,0.6101576,-0.0179584,-0.6236954,0.3317583,0.2602124,-0.1880357
1.296578,-0.2056302,-0.7510322,0.3695934,0.03942367,-0.3892093,0.1827818,1.203829,-0.684112
1.069793,-0.2278732,-0.4330655,0.1426898,0.01774016,-0.07120653,0.2020752,1.148589,-0.6299937
0.8364228,-0.2085047,-0.3494014,-0.09089426,0.03768902,0.01257363,0.2553679,0.8464027,-0.5461096
0.774941,-0.1608825,-0.2904874,-0.1526809,0.08590745,0.07168084,0.2155125,0.8634634,-0.5044233
0.6158366,-0.07026234,-0.2105452,-0.3121679,0.1771332,0.151885,0.1802216,0.4553681,-0.2745084
0.4620062,0.0868241,-0.1504305,-0.466439,0.3348249,0.212319,0.07353212,-0.2348049,-0.07664958
0.5613322,0.1286749,-0.1517539,-0.3675884,0.3772659,0.2113583,0.0009948296,-0.4866007,0.1478064
0.5903401,0.09169316,-0.1876654,-0.3390659,0.3408419,0.1758384,0.04546452,-0.6375049,0.5018239
0.7065334,0.05654582,-0.2281355,-0.2233483,0.3062025,0.1357759,0.06164003,-0.5429198,0.8344876
0.8453298,-0.01732155,-0.3321803,-0.08500323,0.232779,0.03214494,0.06998167,-0.2097955,1.097616
0.8038773,-0.0781328,-0.3894426,-0.1268744,0.1723373,-0.02470327,0.1058582,0.1130592,1.176535
0.8635152,-0.1035793,-0.3612539,-0.06761757,0.1471797,0.003897673,0.09706344,0.7212873,1.107419
0.8761546,-0.1051637,-0.3595134,-0.05531877,0.1457998,0.006047682,0.04992674,1.01522,1.035995
0.8394219,-0.1150235,-0.3393684,-0.09234986,0.1360582,0.02659843,-0.03395398,1.044949,0.9489057
0.8789245,-0.1513706,-0.2927524,-0.05310201,0.09974186,0.07361429,-0.1752649,1.188144,0.8167743
0.8891811,-0.1540572,-0.2811504,-0.04305547,0.09699863,0.08560729,-0.335469,1.145007,0.6438109
0.9635955,-0.1141487,-0.2469121,0.03119302,0.1367641,0.120223,-0.4760979,1.217551,0.4755216
0.9950891,-0.06453391,-0.1987277,0.06256243,0.1861498,0.1687658,-0.6310511,1.138954,0.338677
0.9467205,-0.0003133103,-0.2383298,0.01410689,0.2500535,0.1294965,-0.8810388,0.7911068,0.3062166
0.9056095,0.06104289,-0.3817906,-0.02705767,0.3110011,-0.01366269,-1.236876,0.5049421,0.3879037
0.834596,-0.0008721936,-0.5628888,-0.09809313,0.2485797,-0.1944911,-1.634443,0.2069961,0.5587795
0.840157,-0.1907853,-0.6863597,-0.09252199,0.05805818,-0.3177171,-1.88298,0.1643999,0.8168442
0.9498533,-0.3937233,-0.7925799,0.01721819,-0.1455882,-0.4237035,-1.877913,0.2226512,0.9129057
1.241894,-0.74501,-0.8744261,0.3093338,-0.4976707,-0.505308,-1.757019,0.53388,0.8290286
1.589086,-1.105373,-0.5870699,0.6566201,-0.8588902,-0.2176819,-1.239654,1.416119,0.5528226
1.535561,-0.9903209,-0.1930036,0.6031825,-0.7447183,0.1766952,-0.5477392,1.979164,-0.1873845
1.312782,-0.6957902,-0.3254008,0.3804576,-0.4510485,0.04464969,-0.7302119,1.842877,-0.831834
1.222101,-0.5807746,-0.4218448,0.2897733,-0.3368432,-0.05140824,-1.090693,1.578219,-0.8464312
0.9878742,-0.299089,-0.1996269,0.05547332,-0.05589848,0.1712245,-0.8808371,1.399124,-0.6967315
0.8376974,-0.0740029,-0.2456962,-0.09485009,0.1685228,0.1255922,-1.103659,1.047345,-0.5303736
0.8967199,-0.1488391,-0.2313474,-0.03604277,0.09309328,0.1403908,-1.333444,0.735418,-0.1519994
0.8126486,-0.1564538,-0.08695422,-0.1203893,0.08494806,0.2852366,-1.149068,0.6354178,0.2272854
0.7667167,-0.1793852,-0.1851718,-0.1666465,0.06154093,0.1874627,-1.336162,0.2156471,0.4788815
0.7769498,-0.1863475,-0.2179547,-0.1567776,0.05415117,0.1551027,-1.45585,-0.126375,0.7048609
0.7394394,-0.1182854,-0.2357299,-0.1946789,0.1218282,0.1377209,-1.427281,-0.1407629,0.8761662
0.8607004,-0.2512019,-0.2591636,-0.0738241,-0.01143672,0.1146445,-1.439975,-0.2935155,0.9069176
0.9626766,-0.3702469,-0.1576533,0.02773875,-0.1307969,0.2164702,-1.226095,-0.1787691,0.7443574
0.9626048,-0.4113726,-0.1708682,0.02725007,-0.172203,0.2035225,-1.183813,-0.04587339,0.378719
0.9353786,-0.4610463,-0.179929,-0.000395689,-0.2221166,0.1946732,-1.176767,-0.1815084,0.03157462
0.8796998,-0.4327043,-0.1624346,-0.0564956,-0.1939667,0.2123166,-1.092862,-0.07316823,-0.1095053
0.867574,-0.4062947,-0.1883973,-0.06904165,-0.1676939,0.186434,-1.080059,0.0895124,-0.1459004
0.7993136,-0.3033975,-0.1588219,-0.1377168,-0.06487326,0.2160151,-0.9381435,0.3080639,-0.1705007
0.7362358,-0.2303332,-0.1838497,-0.2011977,0.008176529,0.1909135,-0.9090087,0.4624716,-0.1630075
0.7493931,-0.2441008,-0.1887023,-0.1884232,-0.005546084,0.1859034,-0.9293218,0.2411969,-0.1114377
0.7748979,-0.1846847,-0.1506793,-0.1632718,0.05397042,0.2236814,-0.9327528,0.02650446,-0.06201352
0.8484243,-0.1813863,-0.146679,-0.09006199,0.05741871,0.2273458,-1.029264,-0.2058035,-0.01209556
0.9194923,-0.2087011,-0.1350759,-0.01926932,0.03029703,0.2385181,-1.011581,-0.3774432,0.03368754
0.9700607,-0.2166612,-0.1757308,0.03106576,0.02256745,0.1973337,-1.016638,-0.2549033,0.02156062
0.9619474,-0.2288214,-0.2015932,0.02275888,0.01067044,0.1708409,-1.017942,-0.1372968,0.00373672
0.9183422,-0.1706501,-0.2017583,-0.02100321,0.06913312,0.1699437,-0.960886,0.01714253,-0.03422869
0.8818325,-0.1185476,-0.2421081,-0.05763518,0.1215498,0.1287608,-0.9976035,0.2083665,-0.1114585
0.6996679,-0.07872706,-0.3223855,-0.2398868,0.1617002,0.04755169,-1.048567,0.1499896,-0.1338593
0.4575491,-0.03366736,-0.5055268,-0.4820506,0.207096,-0.1366138,-1.195792,-0.3230468,-0.03654309
0.45933,-0.05538271,-0.6430024,-0.4802582,0.1857125,-0.2751938,-1.445707,-1.3091,0.2656729
0.8792037,-0.2428924,-0.7004382,-0.06030005,-0.001478806,-0.3337957,-1.66704,-2.239287,0.8309053
1.490547,-0.6883015,-0.9296185,0.5512048,-0.4465848,-0.5641797,-1.573066,-2.489809,1.479259
1.74899,-1.026678,-1.142901,0.80987,-0.7846604,-0.7786738,-0.7341147,-2.461,1.604248
1.636751,-0.7847451,-1.072259,0.6978766,-0.5424033,-0.7092139,0.1566038,-1.733671,0.9306556
1.732647,-0.4923312,-1.099686,0.794003,-0.2496131,-0.7377546,0.06571585,1.051853,0.1489575
1.933377,-0.6396536,-1.219939,0.9949062,-0.3964893,-0.8590183,-0.1989955,3.70889,-0.3317562
1.452355,-0.4609465,-0.8423591,0.5139641,-0.2172552,-0.482311,-0.01684055,3.118056,-0.7735983
0.6078425,0.03514167,-0.3165114,-0.3305901,0.2794455,0.04282501,-0.3640002,1.7688,-0.9398896
0.3136347,0.1005648,-0.2452709,-0.6249565,0.3455577,0.1135182,-0.9185398,1.042017,-0.5457251
0.4889236,0.1069289,-0.3346244,-0.4499167,0.3526669,0.02377128,-1.160806,-1.097159,-0.06394033
0.6550391,0.2369982,-0.3119384,-0.2841085,0.483513,0.04620441,-1.464395,-2.191157,0.3071993
0.6526135,0.2117447,-0.3209234,-0.2868748,0.4590422,0.03709528,-1.210374,-1.562242,0.6202827
0.6676008,0.01425657,-0.4600241,-0.2722422,0.2623176,-0.102011,-0.7777621,-1.636901,0.6078011
0.6910364,-0.3128146,-0.5713247,-0.2491592,-0.06402621,-0.2132047,-0.6268189,-0.9648827,0.5684811
0.6500572,-0.4467704,-0.5545972,-0.2904742,-0.197296,-0.1962595,-0.1437187,-0.1775692,0.6777213
0.7393009,-0.4298785,-0.4793087,-0.2015365,-0.1797536,-0.1206415,0.07222652,-0.1838952,0.6331398
0.7698129,-0.450257,-0.3631667,-0.1712896,-0.1995074,-0.004059762,0.1067881,0.5062952,0.6194251
0.750547,-0.354339,-0.3289765,-0.1907716,-0.1029811,0.03067466,0.3377919,0.7646473,0.5899559
0.7715313,-0.1935925,-0.3379889,-0.1699481,0.05836357,0.02230208,0.3237972,0.6432,0.4477282
0.6871026,-0.07014477,-0.2979851,-0.254476,0.1823994,0.06303105,0.3943559,0.6648005,0.3774291
0.7101163,-0.04940436,-0.3322786,-0.2314934,0.2037115,0.02953799,0.5042809,0.4547017,0.2724922
0.7435101,-0.08749365,-0.3639276,-0.1980554,0.1661684,-0.001244876,0.5557998,0.619323,0.2210302
0.7387981,-0.1409314,-0.3604142,-0.2026423,0.1132425,0.003192161,0.6621044,0.6295189,0.2541326
0.803891,-0.2466144,-0.3734954,-0.1373397,0.008031281,-0.008914748,0.6478779,0.6448307,0.2265561
0.7867511,-0.2794086,-0.3314903,-0.1541828,-0.02433268,0.03410873,0.7043682,0.723523,0.2028751
0.8131696,-0.2728329,-0.2912154,-0.1273801,-0.01736687,0.0754393,0.7488652,0.3083109,0.1085921
0.8393596,-0.2795777,-0.2944286,-0.1007187,-0.02375889,0.07331088,0.7980831,-0.04373226,-0.07872996
0.8327169,-0.248195,-0.3389204,-0.1068044,0.007941915,0.02992459,0.8626311,-0.2614025,-0.2311002
0.8722888,-0.2343347,-0.4956316,-0.06659238,0.02208754,-0.1256667,0.7321196,-0.07895015,-0.2622917
0.8589476,-0.2803764,-0.707759,-0.0792136,-0.02370035,-0.3366602,0.6625432,0.2922331,-0.1511373
0.9170478,-0.3945672,-0.7480071,-0.02031771,-0.1376662,-0.3757533,0.6618838,0.3845731,-0.04198224
1.034777,-0.4709021,-0.6624903,0.09827707,-0.2137994,-0.2890489,0.6615707,0.4331905,0.001500315
1.22451,-0.4965942,-0.6733497,0.2889349,-0.2393033,-0.2986765,0.6683996,0.2878731,0.00599343
1.517334,-0.683331,-0.5783024,0.5827254,-0.4258525,-0.2023448,0.6008747,0.2907239,-0.1720425
1.586026,-0.9112554,-0.3698051,0.6523983,-0.653572,0.007493807,0.5893878,0.1486214,-0.5837079
1.383192,-0.7866125,-0.3498842,0.4505266,-0.5286828,0.02881044,0.5806756,-0.2601357,-0.9347585
1.145575,-0.4985224,-0.3521425,0.2138256,-0.2402814,0.02799504,0.4980805,-0.1446942,-1.071105
0.950511,-0.3726205,-0.2307887,0.01961558,-0.1139892,0.1508295,0.3301033,-0.1199805,-1.152999
0.7769399,-0.214319,-0.07246048,-0.1531682,0.04478505,0.3106636,0.1734888,-0.2766655,-1.071431
0.6864541,-0.1598027,0.05858814,-0.2429281,0.09985136,0.4432254,0.2009349,-0.1625746,-0.803574
0.6837473,-0.2704559,0.06368004,-0.2449585,-0.01018374,0.4498146,0.3079466,-0.04245052,-0.7158841
0.6332437,-0.2216149,0.03612978,-0.2948212,0.03933477,0.4237208,0.450747,0.213165,-0.7592601
0.5342812,-0.1858987,0.00657441,-0.393163,0.07577975,0.3955578,0.5014206,0.3528171,-0.7512263
0.4302225,-0.1533434,-0.09299182,-0.4966033,0.1091067,0.2973,0.3486065,0.2048579,-0.7638769
0.3784469,-0.0479212,-0.1656221,-0.5477417,0.2153329,0.2258789,0.1315087,-0.09763559,-0.6709738
0.4414597,-0.05663944,-0.2150103,-0.48405,0.2074384,0.1775911,-0.1183813,-0.6767518,-0.4993212
0.5801617,-0.02699268,-0.2692051,-0.3446071,0.2379144,0.1243819,-0.2420024,-0.9919646,-0.4445397
0.764426,-0.04617195,-0.2826068,-0.1595256,0.219556,0.1118488,-0.2194719,-0.7754835,-0.4743035
0.8881399,-0.1675227,-0.2767289,-0.03491314,0.0990051,0.1184779,-0.2690923,-0.6519019,-0.481119
0.953878,-0.2027099,-0.2818261,0.03180256,0.06458799,0.1140151,-0.2950669,-0.6295827,-0.4048408
1.067604,-0.2255168,-0.3075159,0.1465764,0.04251655,0.08884356,-0.2306162,-0.3227482,-0.3563804
1.128359,-0.2398677,-0.3282815,0.2084379,0.02886425,0.06848225,-0.1695544,-0.1105182,-0.3676548
1.112554,-0.3185265,-0.3331635,0.1937816,-0.04913371,0.06389331,-0.08544655,-0.3568041,-0.2783512
1.106864,-0.4520483,-0.3929723,0.1892674,-0.18203,0.004270664,0.01367076,-0.8185037,0.01493623
1.111884,-0.4793666,-0.5726785,0.195473,-0.2087519,-0.1753498,0.1772001,-1.095281,0.3725159
1.148537,-0.4343297,-0.7757678,0.2333099,-0.163138,-0.3784414,0.3740773,-0.9873432,0.4587533
1.267744,-0.3725773,-0.8530015,0.3536817,-0.1008194,-0.4557452,0.3654823,-0.8737498,0.5857423
1.498117,-0.3797538,-0.8236342,0.5851841,-0.107434,-0.4264909,0.4409664,-0.8122475,0.872079
1.640051,-0.3373532,-0.762496,0.7281866,-0.06447144,-0.3654832,0.7088083,-0.3796695,0.4257892
1.462078,-0.2245197,-0.723229,0.5511905,0.04892607,-0.3263422,0.5971338,0.2052134,-0.409523
1.178454,-0.2742507,-0.6458251,0.2684271,-0.000239507,-0.249042,0.4184698,0.6727751,-0.6651801
0.997543,-0.3032171,-0.4229477,0.08824371,-0.02864115,-0.02623386,0.4887283,0.8421856,-0.7117508
0.8330743,-0.2309413,-0.2701418,-0.07563142,0.04419726,0.1265418,0.4281086,0.4764057,-0.6670359
0.7404965,-0.1673907,-0.3155799,-0.1677429,0.1083059,0.0811088,0.4869694,0.1274272,-0.4296287
0.7279242,0.002678861,-0.3231159,-0.1799629,0.2789233,0.0736062,0.6029121,0.1201354,-0.2684353
0.671227,0.1610524,-0.2782609,-0.2364056,0.437823,0.1185163,0.5015237,-0.130204,0.01664031
0.6374926,0.2030107,-0.2872144,-0.2699662,0.4802682,0.1096329,0.4937752,-0.6506171,0.3391458
0.643919,0.2062729,-0.2900316,-0.2634287,0.483957,0.1068938,0.503243,-0.8629786,0.5209549
0.6658504,0.1400005,-0.2934474,-0.241431,0.4180298,0.103558,0.4682708,-0.6750916,0.6832058
0.7386678,0.04499702,-0.3062688,-0.1685766,0.3232726,0.0908125,0.481571,-0.4214499,0.799241
0.7782908,-0.04306585,-0.2841896,-0.1289333,0.2353444,0.1129585,0.4729551,-0.1779727,0.9499079
0.8098889,-0.1602562,-0.2565117,-0.09732253,0.1181708,0.140689,0.5707606,0.1751354,0.9467778
0.8404564,-0.2262154,-0.261606,-0.06674373,0.05210949,0.1356277,0.6814041,0.3863845,0.7778403
0.7928561,-0.2015574,-0.304208,-0.114329,0.07655021,0.09303375,0.6408897,0.4514455,0.6591576
0.777013,-0.2060014,-0.3427848,-0.130149,0.07177903,0.05443619,0.5433349,0.64276,0.4411888
0.8037862,-0.2577626,-0.3091423,-0.1033391,0.01958622,0.08802678,0.4629782,0.689245,0.2778474
0.8292392,-0.2612741,-0.250472,-0.07783152,0.01554511,0.1466123,0.4445125,0.5642266,0.136783
0.8756779,-0.2266026,-0.2451477,-0.03131698,0.04959608,0.1518156,0.444905,0.4861956,-0.08756398
0.888032,-0.1635241,-0.2626596,-0.01886472,0.1119694,0.1341424,0.3796138,0.3293913,-0.1531832
0.9044156,-0.1079154,-0.3019383,-0.002361005,0.166792,0.09465819,0.2798599,0.1385125,-0.1582758
0.9397805,-0.1580216,-0.3902291,0.03314444,0.1158204,0.00611609,0.2220234,-0.01246544,-0.0540115
0.9358127,-0.2698153,-0.5099869,0.02933509,0.003083741,-0.113937,0.172492,-0.1074684,0.1729496
0.941765,-0.4171144,-0.6367767,0.0354605,-0.1452299,-0.2410588,0.1496347,-0.1804151,0.3381976
1.021337,-0.579685,-0.7010345,0.1152168,-0.3088748,-0.3056731,0.2228267,-0.2032144,0.4403051
1.233339,-0.6583978,-0.6776059,0.3274076,-0.388703,-0.2826097,0.2953491,0.1050598,0.327478
1.581312,-0.7421277,-0.5654113,0.6755589,-0.4735658,-0.1707731,0.3830535,0.4556345,-0.0891889
1.780783,-0.8178736,-0.3324417,0.8751735,-0.5504357,0.06185636,0.459728,0.4178965,-0.7411457
1.536028,-0.6627752,-0.1870521,0.6304934,-0.396425,0.206926,0.41312,0.2750589,-1.129317
1.1665,-0.3805787,-0.2966813,0.2609408,-0.1152574,0.09699163,0.3718195,0.2528999,-0.9795306
1.017922,-0.1959055,-0.3573754,0.1122224,0.06845724,0.03600047,0.2894436,0.2490851,-0.8601164
0.8362604,-0.08564759,-0.2113341,-0.06969829,0.1778268,0.1817478,0.09401995,0.2010717,-0.6857268
0.6560016,-0.08239732,-0.08470556,-0.2503253,0.180251,0.3080795,-0.02007803,0.06312128,-0.2913821
0.6629499,-0.2067528,-0.004799704,-0.2438387,0.05512186,0.3876742,-0.01265263,-0.1880425,-0.1058605
0.6464694,-0.3057638,0.05421521,-0.2608547,-0.04461759,0.4463481,0.05175763,-0.4070144,-0.03033683
0.6383663,-0.3173349,0.01166597,-0.2695471,-0.05687425,0.4034103,0.147136,-0.5253607,-0.01159507
0.6477827,-0.2094262,-0.09931554,-0.2607549,0.05039196,0.2919765,0.178474,-0.6093241,-0.07640431
0.5920273,-0.06972451,-0.2290017,-0.317151,0.189492,0.1617627,0.03866581,-0.4517392,-0.1168808
0.6133106,-0.09070559,-0.2500814,-0.2965071,0.1679433,0.1400747,-0.2005105,-0.08630421,-0.2932351
0.628367,-0.1456912,-0.1742851,-0.2820719,0.1124154,0.2151803,-0.3638605,0.04428795,-0.4988592
0.6252679,-0.1654893,-0.1848539,-0.2857584,0.09209269,0.2038373,-0.4168152,-0.1712199,-0.633513
0.6873247,-0.2266452,-0.2018096,-0.2242418,0.03042468,0.1860216,-0.3844333,-0.5803893,-0.6877566
0.7645646,-0.2083928,-0.2540432,-0.1474842,0.04817473,0.1328412,-0.3567169,-0.8174826,-0.5355416
0.8816808,-0.1587619,-0.3772264,-0.03078598,0.09731072,0.008625661,-0.3864816,-0.4887409,-0.4026953
0.9022319,-0.1602666,-0.3334181,-0.01058704,0.09531596,0.05132076,-0.3749165,0.09329877,-0.4125618
0.8298224,-0.1456116,-0.2060585,-0.08328456,0.1094819,0.1774923,-0.3593955,0.2729166,-0.4441233
0.8076999,-0.1851486,-0.1512802,-0.105632,0.0694531,0.2310101,-0.3783218,-0.08935488,-0.4057149
0.7794138,-0.3099743,-0.1757852,-0.1340795,-0.05586935,0.2051715,-0.3556771,-0.7161149,-0.03623589
0.8279477,-0.422635,-0.366087,-0.08564165,-0.1690299,0.0134623,-0.2825526,-1.292451,0.6939385
