accx,accy,accz,body_accx,body_accy,body_accz,body_gyrox,body_gyroy,body_gyroz
1.056684,-0.07026703,-0.2831258,0.07535754,-0.0452149,-0.1034146,0.370638,0.4100472,0.004538877
1.005249,-0.003385424,-0.1770669,0.02338378,0.02199122,0.002142513,0.4149023,0.7612772,0.03008335
0.9208999,0.09872657,-0.1057544,-0.06153015,0.1244044,0.07302146,0.3609035,0.7521276,0.088514
0.8025099,0.1695938,-0.07394578,-0.1805052,0.1955464,0.1044597,0.157981,0.6103849,0.1378457
0.712675,0.1742287,-0.08565273,-0.2709364,0.2004234,0.09243787,-0.02220745,0.4915292,0.2102366
0.700774,0.1563938,-0.1165698,-0.2834314,0.1827899,0.06125355,-0.2096901,0.4058021,0.2561072
0.720823,0.1381844,-0.1363926,-0.2639592,0.1647338,0.04120446,-0.3400527,0.2165502,0.2748154
0.7533137,0.08806842,-0.1784232,-0.2320138,0.1147174,-0.001016413,-0.3022215,0.01128902,0.3622008
0.8616665,0.03845856,-0.1918585,-0.1241635,0.06515005,-0.01460897,-0.2541536,-0.05752564,0.3857412
0.9717431,0.034796,-0.1863997,-0.01453952,0.06147197,-0.00927652,-0.2101716,0.1492581,0.3128546
0.961221,0.05736441,-0.186999,-0.02546246,0.08396735,-0.009972427,-0.2268583,0.3570945,0.1982856
0.8977664,0.07764112,-0.1564464,-0.08926668,0.104114,0.02051153,-0.3050037,0.2405928,0.06791748
0.8356839,0.08037184,-0.1303734,-0.151647,0.1066574,0.04654182,-0.2943256,0.08449254,-0.02424965
0.7825966,0.06205537,-0.1167206,-0.2049771,0.08809587,0.06017424,-0.2353198,-0.08166971,-0.1041857
0.8092444,0.01373648,-0.1445279,-0.1785117,0.03947429,0.03236514,-0.08641199,-0.3191299,-0.1496221
0.8775791,-0.07358076,-0.2202349,-0.1102939,-0.04820107,-0.04332845,0.06974967,-0.4716446,-0.170481
0.9291301,-0.1658158,-0.275926,-0.05879141,-0.1408442,-0.09899162,0.02605746,-0.6433877,-0.1445347
1.056865,-0.2076468,-0.3062505,0.06896271,-0.1831238,-0.1292712,-0.1033734,-0.7462505,-0.0528988
1.357795,-0.2202625,-0.3185259,0.3699727,-0.1962167,-0.1414806,-0.2396518,-0.5572434,-0.03176339
1.755683,-0.258653,-0.3276623,0.7679825,-0.2350998,-0.1505247,-0.311894,-0.1559969,-0.09640838
1.868405,-0.2613643,-0.2876783,0.8808394,-0.2383057,-0.1104172,-0.1816679,0.1553088,-0.2185299
1.635675,-0.2032336,-0.218004,0.6482146,-0.1806584,-0.04058448,-0.0008118318,0.09725039,-0.3439149
1.539729,-0.1515629,-0.2677304,0.5523104,-0.1294488,-0.09011601,0.07383386,-0.04111086,-0.3406874
1.470145,-0.0843423,-0.3178897,0.4826751,-0.06265955,-0.1400431,0.08056551,0.09135543,-0.2574147
1.222264,-0.04203342,-0.2598634,0.234633,-0.02074825,-0.08174519,0.08090015,0.2906503,-0.1665191
1.078416,-0.06703449,-0.2318644,0.09050203,-0.0461117,-0.05343381,0.1205538,0.5370515,-0.04841573
0.944378,-0.06129252,-0.2047506,-0.04393824,-0.04069654,-0.02596686,0.1464728,0.6441811,0.06774305
0.7778925,-0.0460156,-0.1342256,-0.2109376,-0.02571056,0.04494993,0.1364006,0.3100474,0.1841705
0.6403846,-0.04348115,-0.08536002,-0.3490545,-0.02343125,0.09424144,0.1228099,-0.00386916,0.3159427
0.585044,-0.01611936,-0.0811885,-0.4050771,0.003710497,0.09886616,0.02187992,-0.1576965,0.3641839
0.7119214,-0.02797693,-0.1173452,-0.2789297,-0.00833337,0.06318228,-0.1239581,-0.2420668,0.2855993
0.6822683,-0.05098357,-0.1314925,-0.3093378,-0.03149407,0.04952068,-0.1924128,-0.1625205,0.1821633
0.6337977,-0.05164048,-0.1447715,-0.3585683,-0.03227374,0.03673486,-0.2082388,-0.1735675,0.07728347
0.7198133,-0.061637,-0.1537837,-0.2732985,-0.04236212,0.02821928,-0.1839713,-0.1226851,-0.05903799
0.659036,-0.05614795,-0.1023108,-0.3347901,-0.03693413,0.08018844,-0.1712182,-0.040336,-0.2178345
0.706962,-0.06746031,-0.08020574,-0.2875313,-0.04827677,0.1027851,-0.2071923,-0.1362074,-0.3739588
0.7981838,-0.1137778,-0.0561456,-0.196916,-0.09459336,0.1273266,-0.2107397,-0.1234312,-0.4238707
0.8171209,-0.159732,-0.007987467,-0.1785151,-0.1405139,0.1759493,-0.1156383,-0.1203877,-0.3606833
0.8728636,-0.1670953,-0.02616224,-0.1232316,-0.1478073,0.1582145,0.1044881,-0.07055691,-0.2828381
0.8038656,-0.1271262,-0.03460233,-0.1926081,-0.1077281,0.1501823,0.3484165,0.1634219,-0.1869445
0.8202966,-0.1012808,-0.02224536,-0.1764712,-0.08172924,0.162908,0.4652145,0.2879014,-0.1493995
0.8573991,-0.06453784,-0.0282559,-0.1395748,-0.04478811,0.1572208,0.4513838,0.2838963,-0.2425478
0.8099269,-0.01061165,-0.01710224,-0.1871625,0.009380273,0.1686466,0.4281219,0.1008817,-0.3013634
0.8691512,0.01241049,-0.008102927,-0.1279609,0.03268576,0.1778613,0.4559786,-0.2955903,-0.2387928
0.8920444,0.04042742,-0.02229087,-0.1049969,0.06102251,0.1638267,0.462036,-0.7122759,-0.07492294
1.029655,0.02928378,-0.1406332,0.03277679,0.05022944,0.04557181,0.464479,-0.8907778,0.1886931
1.297008,-0.04680232,-0.4470592,0.3003782,-0.02548073,-0.2608315,0.4675977,-0.7413076,0.3069458
1.463858,-0.1197471,-0.7220759,0.4675462,-0.09802734,-0.5358793,0.3748125,-0.2237036,0.1386191
1.584923,-0.137617,-0.6535658,0.5889747,-0.1154767,-0.4674319,0.3054544,0.4323286,-0.01785251
1.616307,-0.06160675,-0.4668153,0.6207356,-0.03902182,-0.2807502,0.4265672,0.2198202,-0.03880275
1.612763,0.04183028,-0.4250384,0.6175502,0.06488421,-0.2390281,0.5998809,-0.2160161,-0.04761836
1.584671,0.1054909,-0.3543803,0.5897681,0.1290345,-0.1683976,0.5906128,0.2448935,-0.05321339
1.458141,0.1098195,-0.3575107,0.4634706,0.1338664,-0.1715194,0.3681648,0.4642489,-0.1185452
1.274643,0.1008479,-0.3964168,0.2801061,0.1254029,-0.210374,-0.012798,0.4529701,-0.2214157
1.087211,0.157183,-0.2258435,0.09269855,0.1822421,-0.03970065,-0.2983011,0.4340478,-0.2111187
0.9622149,0.1592881,-0.1123314,-0.03238651,0.1848383,0.07396155,-0.1618925,-0.2021867,-0.06595574
0.7893843,0.09349281,-0.123029,-0.2054114,0.119512,0.06346046,0.08431828,-0.4618719,0.1691938
0.6747588,0.04795224,-0.1640077,-0.3203225,0.07441104,0.02271819,0.1815898,-0.5236392,0.3084064
0.7097778,-0.022072,-0.2519476,-0.285661,0.004793022,-0.06495071,0.2995305,-0.7620524,0.2530566
0.7236794,-0.04564138,-0.2729075,-0.2721674,-0.0184044,-0.08560716,0.2692973,-0.5936074,0.191415
0.8175702,-0.03541054,-0.2919655,-0.1787166,-0.007834568,-0.1043292,0.2166238,-0.5201491,0.1645902
0.9195455,-0.03826261,-0.2570824,-0.07719861,-0.0103786,-0.06907625,0.2989271,-0.2251144,0.1434391
0.9378973,0.01350621,-0.1612097,-0.05931178,0.04166891,0.02720044,0.261282,0.2455093,0.1901053
0.960957,0.05374668,-0.1308502,-0.03671897,0.08215899,0.05799551,0.2778947,0.3858213,0.2262821
0.9187731,0.07261669,-0.09915448,-0.07936734,0.101248,0.09015324,0.3056537,0.6484598,0.2053797
0.8607739,0.08873798,-0.1455259,-0.1378239,0.1175547,0.04426365,0.1987658,0.6613802,0.1909092
0.7598875,0.09298418,-0.2121192,-0.2391539,0.1219491,-0.02183354,0.1365222,0.4564503,0.1791365
0.6511509,0.1183757,-0.1975898,-0.3483101,0.1474477,-0.006797081,-0.005261538,0.2673313,0.1790768
0.662504,0.1132611,-0.1856326,-0.3373386,0.1423949,0.005676072,-0.1220924,-0.04533703,0.201919
0.7017262,0.1089088,-0.1429871,-0.2984452,0.1380549,0.04884424,-0.1801499,-0.02486465,0.2052813
0.7839517,0.1253022,-0.1344692,-0.2164825,0.1544072,0.05788818,-0.3594593,0.1027855,0.182774
0.8628716,0.1161766,-0.1628134,-0.1377506,0.1451837,0.03006956,-0.4742959,0.1864196,0.1154242
0.8629834,0.1067841,-0.1739911,-0.1377471,0.1356332,0.01941338,-0.5182299,0.3270716,0.006737632
0.8671299,0.04179304,-0.2124302,-0.1336272,0.07042209,-0.01851074,-0.4726788,0.1014018,-0.06740379
0.9158629,-0.1073498,-0.2384919,-0.08483813,-0.07900218,-0.0440647,-0.3251174,-0.3712798,-0.08278865
1.081373,-0.2745426,-0.2740182,0.08080915,-0.2465318,-0.07908991,-0.2558508,-0.6253132,-0.06617141
1.318821,-0.3454392,-0.3233807,0.3184673,-0.3178076,-0.1279554,-0.2130253,-0.3905603,-0.07879739
1.484972,-0.2615132,-0.3619381,0.484887,-0.2342863,-0.1660156,-0.213766,0.05763096,-0.1717853
1.531841,-0.1884036,-0.3899622,0.532057,-0.1615905,-0.1935363,-0.2619741,0.1667455,-0.2629722
1.548288,-0.1499795,-0.3761415,0.5488088,-0.1235769,-0.1791988,-0.3031201,-0.05866992,-0.2282187
1.642526,-0.04774869,-0.3775901,0.6433282,-0.02174547,-0.1801103,-0.3528594,-0.2531859,-0.09356635
1.671836,-0.04130553,-0.3889397,0.6728643,-0.01568618,-0.1908958,-0.2911988,-0.03615247,0.02150866
1.577491,-0.1490762,-0.3441576,0.5786613,-0.123823,-0.145517,-0.1392079,0.3782109,0.03464459
1.425816,-0.197067,-0.2559331,0.4270185,-0.1721586,-0.05665902,0.0257918,0.5230063,-0.08733361
1.216985,-0.2063276,-0.1801232,0.2180932,-0.1817361,0.01982167,0.1448535,0.4769008,-0.1974089
1.091111,-0.1597265,-0.1680517,0.09199033,-0.1354169,0.03259818,0.1337663,0.317856,-0.1422536
0.9381773,-0.04158221,-0.1458786,-0.06130398,-0.01751368,0.05550504,0.1113142,0.2032671,0.00141554
0.7006749,0.03494858,-0.1062876,-0.2992888,0.05881822,0.09585208,0.05931156,0.2298938,0.2107764
0.6534897,0.0867891,-0.1295801,-0.3470592,0.1104989,0.07333048,-0.1069647,0.152691,0.4184101
0.6042627,0.09328943,-0.1307196,-0.3969499,0.1168721,0.07296962,-0.265615,-0.007335053,0.4495017
0.5086024,0.03216445,-0.1032956,-0.4933251,0.0556455,0.1011731,-0.3635933,-0.2290132,0.3551246
0.579695,-0.01372029,-0.1124427,-0.4229709,0.009679028,0.09279973,-0.3823431,-0.4192768,0.2062741
0.5920957,-0.07316204,-0.1019301,-0.4113053,-0.04982751,0.1040736,-0.3452993,-0.4190346,0.001658069
0.6336466,-0.1267758,-0.09324831,-0.3704627,-0.103489,0.1134979,-0.3360934,-0.4010177,-0.1999892
0.7460704,-0.1425287,-0.09532503,-0.2587011,-0.1192702,0.1121388,-0.3534879,-0.3574017,-0.354958
0.7537758,-0.1673327,-0.08436029,-0.2515966,-0.1440787,0.1237902,-0.3547728,-0.2928466,-0.3922949
0.8268691,-0.1828325,-0.09332104,-0.1790325,-0.1595542,0.1154795,-0.2629547,-0.2726594,-0.2964203
0.8480465,-0.1571924,-0.07750875,-0.1583051,-0.1338555,0.1318998,-0.05385286,-0.101599,-0.1799633
0.8213599,-0.09684594,-0.0450083,-0.1853579,-0.07341184,0.1649611,0.2344202,0.2168169,-0.1519199
0.8919727,-0.07139625,-0.02139713,-0.115024,-0.04782403,0.18908,0.5231452,0.3510684,-0.2114344
0.8926683,-0.07669528,0.01424979,-0.1145179,-0.05294383,0.225175,0.6477709,0.1362623,-0.2741521
0.9100715,-0.0519311,0.01635976,-0.09721454,-0.02796017,0.2276659,0.5939164,-0.1496499,-0.2792899
0.9458243,0.008466822,-0.02668447,-0.0614729,0.03269561,0.184928,0.519413,-0.4409802,-0.1793662
0.988941,0.1095412,-0.1393148,-0.01828114,0.1340622,0.07252415,0.4588511,-0.6887667,0.01779287
1.16378,0.1416814,-0.335584,0.1567134,0.1665214,-0.1235989,0.3179132,-0.4746514,0.2119155
1.31029,0.06333957,-0.5573886,0.3034502,0.08851596,-0.3453301,0.07108189,-0.01414154,0.2880188
1.423349,-0.01719935,-0.6633741,0.4167885,0.008322893,-0.4512986,-0.1001706,0.3056554,0.187411
1.543748,-0.05790915,-0.5115809,0.5374969,-0.03203603,-0.2995224,0.04088918,0.4381345,0.03254645
1.574183,-0.023989,-0.3383105,0.5682438,0.002238569,-0.1262831,0.2711301,0.2840916,-0.03040929
1.582244,0.05528525,-0.361481,0.5765918,0.08186961,-0.1494853,0.2950333,0.2116829,-0.02381181
1.58266,0.1208212,-0.4102213,0.5772395,0.1477611,-0.1982494,0.3108771,0.3636696,0.03377284
1.463037,0.1476855,-0.4294288,0.4577689,0.1749734,-0.2174644,0.1706573,0.4720837,0.08923693
1.20868,0.09756371,-0.4144418,0.2034648,0.125184,-0.2024594,-0.2241492,0.6196312,0.06307366
0.9602232,0.0430419,-0.2982967,-0.04504771,0.07097184,-0.08626262,-0.3169986,0.5531163,0.05177457
0.7779257,0.02216292,-0.1554675,-0.2275062,0.05037546,0.05665578,-0.1634013,0.2358862,0.1015113
0.6230748,-0.008852761,-0.06541968,-0.3826087,0.01961321,0.1468285,-0.06444595,0.02053012,0.1503313
0.5584624,-0.01788336,-0.05656486,-0.4475411,0.0108064,0.1558364,0.07468833,-0.2617257,0.2238037
0.584118,-0.01264918,-0.07419569,-0.4222479,0.01623526,0.1383774,0.1543444,-0.4976781,0.2970176
0.6478007,-0.007723742,-0.0917731,-0.3589441,0.02132705,0.1209812,0.1753701,-0.4806439,0.3081403
0.7603661,0.02299243,-0.1466016,-0.2467525,0.05218173,0.06633568,0.1821997,-0.2084554,0.2617363
0.8580376,0.07256092,-0.1601846,-0.1494334,0.1018603,0.05293198,0.07797076,0.3472825,0.1611983
0.8673794,0.1448505,-0.1431237,-0.1404125,0.1742291,0.0701648,-0.1194505,0.6092357,0.08657651
0.8236523,0.2177301,-0.170862,-0.1844218,0.2471518,0.04258787,-0.3163487,0.4483893,0.1713833
0.7833761,0.2502665,-0.2197905,-0.2249351,0.2796871,-0.006191917,-0.4441714,0.4297469,0.3535711
0.7597756,0.208839,-0.2553874,-0.2487197,0.2382046,-0.04165309,-0.534965,0.5044196,0.4362201
0.7553999,0.09984288,-0.2030225,-0.2532176,0.1290912,0.01083569,-0.588537,0.4391562,0.3989851
0.7573129,0.0249949,-0.1183843,-0.2513566,0.05405926,0.09558639,-0.654121,0.2978632,0.3123289
0.7588231,0.02938352,-0.1191563,-0.2498201,0.0581971,0.0949138,-0.7305911,0.1304035,0.1900042
0.7836522,0.07435831,-0.1456949,-0.2248793,0.1028562,0.06845776,-0.711139,-0.008190786,0.09828244
0.8089438,0.1055837,-0.1698688,-0.199385,0.1337022,0.04434673,-0.6968422,-0.1393192,0.09124992
0.8140438,0.07738177,-0.2088459,-0.1939874,0.1050572,0.005411068,-0.7030814,-0.4490421,0.1404036
0.9131949,-0.02860231,-0.2530896,-0.09444192,-0.001432969,-0.03881232,-0.70128,-0.6464203,0.1902194
1.222141,-0.2568096,-0.3151772,0.214993,-0.2302049,-0.1008981,-0.753479,-0.3677422,0.1974432
1.504339,-0.4343243,-0.3334809,0.4977611,-0.4083305,-0.1192138,-0.7677737,-0.01412189,0.1127919
1.499475,-0.3563123,-0.2919563,0.4935252,-0.3309561,-0.077709,-0.7156783,0.1694528,-0.08641062
1.532359,-0.2719147,-0.2555239,0.5270657,-0.2472019,-0.04129881,-0.6447019,0.09298696,-0.226893
1.689728,-0.2762161,-0.223437,0.6850872,-0.2521346,-0.009233158,-0.5859834,-0.1299097,-0.1578462
1.605098,-0.1595725,-0.2565039,0.6010752,-0.1360968,-0.04231867,-0.5806081,0.000620269,-0.06438535
1.505007,-0.0801356,-0.3298209,0.5015361,-0.05723093,-0.1156496,-0.615619,0.2182329,-0.08488372
1.458608,-0.113454,-0.2853561,0.4555976,-0.09108061,-0.07119095,-0.6203019,0.365096,-0.09303088
1.223337,-0.09436529,-0.2139968,0.2206768,-0.07248057,0.0001733559,-0.5284798,0.4679003,-0.09240238
1.080313,-0.08753571,-0.1690648,0.07788346,-0.06609491,0.04512256,-0.4276479,0.2703163,-0.1100909
0.9744843,-0.05868852,-0.09002515,-0.02783467,-0.03764539,0.1241894,-0.4234501,0.1930757,-0.05998886
0.8145864,0.02761839,-0.09078076,-0.1877348,0.04831,0.1234662,-0.5302036,0.1761841,0.01422179
0.7804702,0.06368179,-0.1189833,-0.2219529,0.08406531,0.09529508,-0.7279746,0.01033974,0.1452622
0.6865081,0.08368745,-0.1267757,-0.3160987,0.103801,0.08752744,-0.9337243,-0.02548582,0.3123528
0.6473153,0.06239863,-0.1797046,-0.3555368,0.08227386,0.03461252,-1.04407,-0.1656616,0.3409526
0.7069498,-0.003374839,-0.1756131,-0.2961878,0.01628779,0.03870482,-1.026808,-0.2421608,0.2850765
0.6992385,-0.0764912,-0.1394992,-0.3042043,-0.05701893,0.07480474,-0.9880302,-0.1559529,0.1720263
0.771217,-0.1663492,-0.1157055,-0.232533,-0.1470449,0.09856772,-0.9262881,-0.1673753,-0.02811925
0.8092307,-0.1811087,-0.07240188,-0.1948141,-0.1619464,0.1418207,-0.7732912,-0.1239082,-0.1668259
0.789368,-0.1552006,-0.06674641,-0.2149476,-0.1361484,0.1474011,-0.6243055,-0.1867987,-0.1613652
0.8133877,-0.1249544,-0.06598996,-0.1911649,-0.1059752,0.1480528,-0.5248046,-0.2827293,-0.05880387
0.8129874,-0.04271517,-0.06940653,-0.1917602,-0.02376832,0.1444968,-0.5044261,-0.1876469,0.06755947
0.8617417,0.01651381,-0.08830601,-0.1431514,0.03546916,0.1254186,-0.5393204,-0.05769917,0.1239329
0.9037442,0.02928636,-0.06239166,-0.1012397,0.04828825,0.1511111,-0.576127,0.1185565,0.06181919
0.9017066,0.0240295,-0.03409823,-0.1033108,0.04311132,0.1791359,-0.6425394,0.1499887,-0.01307491
0.9193807,0.03198744,-0.04044235,-0.08561124,0.05117762,0.1724721,-0.6205804,-0.1415763,-0.01404434
0.9596837,0.05366168,-0.1158034,-0.04522368,0.07298368,0.09673661,-0.5614973,-0.6516415,0.1178244
1.086781,0.02785067,-0.3428974,0.08201548,0.04732289,-0.1307871,-0.6208321,-1.065257,0.3774312
1.275661,-0.02750355,-0.6572419,0.2710881,-0.00786705,-0.445609,-0.6991336,-0.8511426,0.4505383
1.444037,-0.08162526,-0.7938033,0.4396938,-0.06181275,-0.5826766,-0.7427371,-0.09529782,0.3084116
1.514411,-0.100935,-0.6381873,0.5103144,-0.08093447,-0.4275683,-0.6253497,0.5007045,0.1965354
1.510831,-0.0582111,-0.4503979,0.5069715,-0.03800895,-0.2402629,-0.3743731,0.3870099,0.1225828
1.495668,0.006089431,-0.4073456,0.4920111,0.02650786,-0.1976532,-0.3449458,-0.154827,0.2137629
1.435975,0.09120006,-0.4553174,0.4324622,0.1118478,-0.2460152,-0.5334381,-0.2363885,0.3507211
1.408654,0.1569885,-0.5207528,0.4052073,0.1778733,-0.3117789,-0.8712116,0.2467183,0.2635451
1.363061,0.1555493,-0.4698494,0.3595862,0.176671,-0.2611318,-1.319632,0.6520899,0.2251379
1.177009,0.1540292,-0.3542274,0.1733999,0.1753781,-0.1456852,-1.467834,0.4901496,0.3159023
0.9527438,0.1319173,-0.2854731,-0.05110971,0.153475,-0.07702018,-1.327712,0.04003639,0.3655713
0.7717301,0.03788316,-0.2417754,-0.2324733,0.05962388,-0.03332549,-1.226945,-0.1764162,0.4541301
0.6919714,-0.03627492,-0.2921141,-0.3126719,-0.01438054,-0.08358352,-1.086739,-0.4604243,0.4745004
0.7184551,-0.04186264,-0.3260316,-0.2866977,-0.01984403,-0.1173396,-0.9905444,-0.6419747,0.3764986
0.791839,-0.003273979,-0.2893631,-0.2138721,0.01884135,-0.08043046,-1.069029,-0.5253375,0.3349326
0.8964742,0.05769227,-0.3312548,-0.1098264,0.07987817,-0.1220036,-1.072686,-0.5494504,0.3310412
0.9516088,0.102088,-0.3476363,-0.05530019,0.1243174,-0.1379897,-1.028559,-0.2963779,0.3772339
0.9412161,0.1173881,-0.3346533,-0.06631208,0.1396309,-0.1245347,-1.086249,0.06373972,0.4558514
0.926661,0.09223291,-0.334464,-0.0814912,0.1144546,-0.1237969,-1.118041,0.1754999,0.443178
0.9037773,0.05126753,-0.2822801,-0.1049976,0.0734302,-0.07098901,-1.154543,0.3408873,0.3932397
0.882139,0.04304671,-0.2609056,-0.1272511,0.06511027,-0.0489173,-1.184303,0.2811437,0.3252776
0.8883447,0.04392445,-0.2564763,-0.1216459,0.06584818,-0.04372126,-1.118289,0.2469886,0.2483212
0.8891138,0.03206945,-0.2937009,-0.1214559,0.05381262,-0.08011418,-1.049612,0.2746476,0.2287351
0.8417047,-0.004944404,-0.3796026,-0.1694159,0.01657807,-0.1651225,-0.9916948,0.1497285,0.2247877
0.8152531,-0.07592356,-0.3876597,-0.1963832,-0.05465982,-0.1722251,-1.002786,0.1278372,0.2077218
0.8890754,-0.1658186,-0.3735083,-0.1230339,-0.1448469,-0.1570571,-1.047477,-0.08463886,0.1646643
1.017326,-0.2489951,-0.3778378,0.004791784,-0.2283402,-0.1603069,-0.9954411,-0.2149879,0.1090047
1.122025,-0.2575928,-0.3666111,0.1091149,-0.2372677,-0.1479365,-0.9752571,-0.06356186,0.06000293
1.196713,-0.1967536,-0.3172226,0.1834704,-0.1767584,-0.09734059,-0.9486807,0.05952412,0.003600683
1.255246,-0.1315544,-0.2350884,0.2417048,-0.1118781,-0.01393744,-0.7982962,0.2859215,0.00328071
1.259064,-0.07754772,-0.2164188,0.2452472,-0.05817169,0.006057993,-0.593258,0.3585464,0.08066632
1.240845,-0.06368715,-0.2406091,0.2267609,-0.04458864,-0.01675668,-0.39164,0.2243246,0.1743731
1.249891,-0.07886513,-0.2510722,0.2355362,-0.06001915,-0.02580106,-0.3308275,0.08723388,0.2102431
0.6678035,-0.08391906,-0.1115218,-0.3235213,-0.05638094,0.1473767,0.127522,-0.09801251,0.1639422
0.613527,-0.1296665,-0.07670362,-0.377918,-0.1021431,0.1818764,0.122471,-0.192778,0.01382175
0.6228997,-0.1383452,-0.08370748,-0.3686923,-0.1108171,0.1745184,0.1498816,-0.1795109,-0.1667203
0.6394271,-0.08422608,-0.1301565,-0.3523175,-0.05667038,0.1276745,0.1873829,-0.09960943,-0.2814678
0.5884799,-0.06089546,-0.1278034,-0.4034032,-0.03328691,0.129588,0.1492743,-0.08724805,-0.3485533
0.614542,-0.03827142,-0.1180423,-0.3774467,-0.01058423,0.1388624,0.09807052,-0.1566425,-0.3931969
0.6876167,0.002705479,-0.06185342,-0.3044273,0.03049604,0.1945149,0.02623266,-0.3161665,-0.4411232
0.7906807,-0.06170835,-0.01825601,-0.2013549,-0.03379172,0.2375225,0.03746303,-0.3302049,-0.4009933
0.8886869,-0.1275736,-0.03068324,-0.1032682,-0.09950941,0.2244468,0.2714537,-0.03743808,-0.3274845
0.9052061,-0.139523,-0.01653229,-0.08659358,-0.1112886,0.237885,0.5930345,0.3498809,-0.3187858
0.8895931,-0.1154344,-0.002436203,-0.1019765,-0.08700451,0.2511985,0.8293452,0.476828,-0.3499167
0.8624134,-0.0477725,-0.004471197,-0.1288521,-0.01911951,0.2483059,0.8513875,0.2936002,-0.4407046
0.8559851,-0.01812787,-0.005709581,-0.1349028,0.01077592,0.2461297,0.7496571,-0.02292329,-0.4355045
0.9112363,0.03018762,-0.01103486,-0.07920057,0.05936754,0.2397822,0.7076066,-0.5808379,-0.261143
1.038487,0.06745269,-0.06031525,0.04857244,0.09692961,0.1893918,0.7554945,-0.9862826,0.02622294
1.244538,0.01854682,-0.2515581,0.2552109,0.04833586,-0.003049273,0.7937251,-0.741472,0.337761
1.348763,-0.03537735,-0.5553618,0.3600737,-0.005266154,-0.308133,0.6207915,-0.3924363,0.379523
1.375808,-0.08914255,-0.715768,0.3877873,-0.05870188,-0.4698835,0.3470863,-0.06285496,0.1987779
1.555836,-0.0964236,-0.5921719,0.5684915,-0.06564621,-0.3476704,0.2722565,0.3071465,0.01228982
1.687421,-0.0418618,-0.4374565,0.7007309,-0.01073938,-0.1943513,0.4739191,0.1991924,-0.1296126
1.641119,0.02622124,-0.3686132,0.65503,0.05769694,-0.126898,0.7061768,0.07332131,-0.1292026
1.594548,0.1233203,-0.3255386,0.608977,0.1551545,-0.08519517,0.6215481,0.2186427,-0.1352805
1.468236,0.1520576,-0.4054329,0.4830712,0.1842489,-0.166434,0.3453747,0.3022317,-0.204975
1.222916,0.1105291,-0.4258153,0.2380254,0.1430673,-0.1881249,0.05695352,0.5534569,-0.1703339
1.03869,0.1056553,-0.2844874,0.05393305,0.1385218,-0.04806102,-0.1046057,0.5900104,-0.1097428
0.8947288,0.07909591,-0.1775634,-0.09003359,0.1122652,0.05764902,0.07783214,0.2899245,-0.005385876
0.7218131,0.04048962,-0.1178891,-0.2630832,0.07393101,0.1161593,0.2453353,0.1191726,0.1897823
0.6033556,0.05198282,-0.1369901,-0.3817842,0.085662,0.09594041,0.268683,-0.1560409,0.2855922
0.5371391,0.05301768,-0.1529167,-0.4483293,0.08689783,0.0789364,0.3457953,-0.3628567,0.2748084
0.5210726,0.0423557,-0.1245564,-0.4647817,0.07639779,0.1062552,0.3117215,-0.4324857,0.2543594
0.6008403,0.02603029,-0.1651636,-0.3854292,0.06019359,0.06463799,0.3116252,-0.5406361,0.2280914
0.7123258,-0.01336921,-0.1549504,-0.2743639,0.02087387,0.07386877,0.3656346,-0.3106624,0.2147732
0.8238355,-0.005089506,-0.1263757,-0.163261,0.02919245,0.1014853,0.3083383,0.07725778,0.1672154
0.9220096,0.06141146,-0.123316,-0.06546895,0.09569228,0.1036076,0.3065772,0.4225232,0.09503108
0.9637186,0.1391575,-0.1103563,-0.0241115,0.1733964,0.1156465,0.2296604,0.6694235,0.0908227
0.9201098,0.2050091,-0.1812898,-0.06803932,0.2391615,0.0438049,0.01872504,0.6528366,0.1444123
0.7891135,0.2264914,-0.2218976,-0.1993203,0.2605057,0.002299402,-0.1875601,0.6920318,0.1945435
0.6979994,0.1920592,-0.1873949,-0.2906792,0.225876,0.03591475,-0.3706654,0.6616093,0.1927991
0.6859948,0.1082204,-0.1238755,-0.3028789,0.141773,0.09855717,-0.3857488,0.3533165,0.1612514
0.6900515,0.03447635,-0.03231249,-0.2989561,0.06769457,0.1892513,-0.3336035,0.03951776,0.1144494
0.7502342,0.0232663,-0.02333606,-0.238835,0.05607999,0.1973617,-0.3361008,-0.1295987,-0.006985573
0.8375851,0.04685653,-0.09764274,-0.1514654,0.07919796,0.1221852,-0.3104293,-0.07560663,-0.1461646
0.8719126,0.06727506,-0.2017208,-0.1170344,0.09907901,0.01722853,-0.3324678,-0.1374823,-0.1738314
0.879871,0.04241236,-0.287989,-0.1088866,0.07361553,-0.06992746,-0.4241028,-0.4294384,-0.0787626
0.9985343,-0.05027776,-0.3373682,0.01005044,-0.01973615,-0.1201996,-0.5189593,-0.5210377,0.03265041
1.257231,-0.204792,-0.3659025,0.2690989,-0.174967,-0.1496246,-0.5541067,-0.4231245,0.05184857
1.495023,-0.3166677,-0.3527064,0.5073073,-0.2876035,-0.1373082,-0.5484735,-0.1591112,-0.04912661
1.643844,-0.2880968,-0.325848,0.6565825,-0.2598212,-0.1113097,-0.5446982,0.1946902,-0.207042
1.672669,-0.2322401,-0.2736767,0.6858687,-0.2047639,-0.05997143,-0.4307736,0.2148448,-0.2657513
1.575654,-0.1795817,-0.2492649,0.5892852,-0.1529007,-0.03636108,-0.2968726,-0.0285835,-0.177357
1.476951,-0.1104556,-0.2694853,0.4909537,-0.08455484,-0.05734854,-0.3038932,-0.1100491,-0.1213122
1.426159,-0.1134107,-0.2205785,0.4404488,-0.08826744,-0.009172508,-0.3185207,0.1444975,-0.1783106
1.332947,-0.09928481,-0.1750444,0.3474198,-0.07487125,0.03566787,-0.2572628,0.531991,-0.2027177
1.117926,-0.02214509,-0.1612014,0.1324661,0.001570328,0.04885276,-0.1859419,0.7242294,-0.1404174
0.8813493,0.032527,-0.1080227,-0.1041618,0.05557706,0.1014061,-0.1449816,0.6459896,-0.04501971
0.720278,0.0817869,-0.06174005,-0.2653958,0.1042025,0.1470912,-0.2200185,0.2811996,0.122615
0.6319237,0.1053811,-0.0496836,-0.3540072,0.1271888,0.1585716,-0.4353448,-0.3232779,0.3170982
0.6664909,0.08828083,-0.0679263,-0.3197688,0.1095013,0.1397668,-0.6474974,-0.7744114,0.4101613
0.7896584,0.04267082,-0.1120189,-0.19698,0.06331926,0.09511927,-0.7712469,-0.7866562,0.4019489
0.9225155,-0.0419149,-0.1834064,-0.0645341,-0.02182696,0.02317916,-0.7765891,-0.5018482,0.2901879
0.9611717,-0.1014832,-0.2091935,-0.02631061,-0.08194446,-0.003159848,-0.6923532,-0.07010455,0.09296509
0.8639781,-0.1075313,-0.1504746,-0.1239521,-0.08852755,0.05500777,-0.6359939,0.2734557,-0.07065316
0.7898851,-0.08449419,-0.1091486,-0.198501,-0.06600708,0.09578294,-0.5896056,0.2461439,-0.1242311
0.730402,-0.02841126,-0.0689209,-0.2584384,-0.01041863,0.1354578,-0.585518,-0.07482559,-0.04870983
0.6696504,0.03206309,-0.03524528,-0.3196296,0.04958485,0.1685745,-0.6605056,-0.4902754,0.1023436
0.7399386,0.0386802,-0.06995528,-0.2497522,0.05575355,0.133294,-0.709828,-0.6143729,0.234722
0.8465115,-0.001041698,-0.1028127,-0.1435486,0.01560325,0.09984947,-0.7470231,-0.2541754,0.2688442
0.8811371,-0.02747179,-0.1165408,-0.1092425,-0.01123716,0.08551457,-0.771494,0.09949454,0.1560257
0.8469986,-0.04573557,-0.1079502,-0.1436459,-0.0298936,0.09347641,-0.7776678,0.1764833,0.02144269
0.8027086,-0.06279442,-0.08466262,-0.1881425,-0.04732666,0.116112,-0.7095969,-0.0005336925,0.01069688
0.8933254,-0.05266396,-0.1219471,-0.09766989,-0.03755047,0.07815042,-0.4377437,-0.565655,0.1364895
1.116972,-0.06001219,-0.2908695,0.1258968,-0.04523139,-0.09147408,-0.1887038,-1.214961,0.4147028
1.388248,-0.1260135,-0.6656724,0.3971503,-0.1115419,-0.466998,-0.2060517,-1.042504,0.6134398
1.585741,-0.2078847,-0.9287932,0.5946602,-0.1936949,-0.7308403,-0.2941631,0.1851818,0.4015285
1.648246,-0.2041527,-0.6948672,0.6571959,-0.1902114,-0.4976071,-0.2324995,1.07525,0.05098839
1.66794,-0.05956231,-0.4168016,0.6769012,-0.04582932,-0.2201779,-0.1144508,0.5829525,-0.04523894
1.565528,0.1239171,-0.4676784,0.574449,0.1374845,-0.2716166,-0.05127043,-0.1790252,-0.02945464
1.3849,0.2103758,-0.4813244,0.3937021,0.2238157,-0.285739,-0.1679374,-0.06977226,-0.02548614
1.297424,0.2061392,-0.4142589,0.3060105,0.2194791,-0.219056,-0.6335725,0.4608047,-0.001057715
1.150795,0.2032393,-0.3324654,0.1590579,0.2164943,-0.1375445,-1.111136,0.8215038,0.02940395
0.9203045,0.1740639,-0.1582254,-0.07186722,0.1872369,0.03651614,-1.181618,0.5925105,0.1571576
0.7567141,0.064201,-0.1673656,-0.2359954,0.07728537,0.02729544,-0.9265426,-0.09711219,0.3172098
0.6919141,-0.01533401,-0.2835409,-0.3014205,-0.00235078,-0.08886816,-0.65922,-0.3284984,0.3477674
0.6981543,-0.01258652,-0.2994603,-0.2958723,0.000281629,-0.1046889,-0.6149165,-0.5022557,0.2921248
0.7221664,0.01453924,-0.3608027,-0.2725971,0.02727904,-0.1658477,-0.7074269,-0.8598022,0.2413087
0.8487152,0.07238451,-0.3837693,-0.1468112,0.08498295,-0.1885452,-0.8311086,-0.7378289,0.231791
1.023547,0.1335408,-0.387296,0.02724528,0.145983,-0.1917156,-0.8968604,-0.5007859,0.243407
1.039142,0.113923,-0.4007024,0.0420601,0.1261904,-0.2046759,-0.8559058,-0.02146565,0.2931016
0.9724129,0.03170612,-0.2744369,-0.02545182,0.04377559,-0.07787302,-0.8022157,0.4557407,0.3352268
0.943611,-0.01838596,-0.1754474,-0.05503767,-0.006539401,0.02174365,-0.6587645,0.474267,0.275045
0.9070766,-0.03101443,-0.1734851,-0.09235279,-0.01941475,0.02441695,-0.5430629,0.692318,0.1819894
0.8365161,-0.02109813,-0.1596911,-0.1636846,-0.009766613,0.03899701,-0.5440073,0.794393,0.08871323
0.751305,0.009221456,-0.1167308,-0.2496494,0.02026629,0.08280906,-0.53547,0.7282843,0.04404702
0.6847621,0.03641699,-0.07583034,-0.3169169,0.04715838,0.1246165,-0.5454459,0.597219,0.1238491
0.7104139,0.07899163,-0.1117691,-0.291947,0.08941303,0.08962856,-0.4478302,0.2062338,0.2380256
0.7965447,0.09420933,-0.1452985,-0.2064416,0.1042928,0.05708305,-0.2554324,0.2647259,0.2898615
0.8499331,0.09599507,-0.1713709,-0.153612,0.1057203,0.03201863,-0.1481031,0.4471494,0.2350535
0.8771798,0.1172783,-0.1983472,-0.1268511,0.1266217,0.006067495,-0.1526121,0.3935646,0.112993
0.8819314,0.09607458,-0.1173088,-0.1225087,0.1050098,0.08814262,-0.1860378,0.3854405,-0.009698214
0.9438601,0.1066092,-0.05407094,-0.06091091,0.1151068,0.152422,-0.09662304,0.2797489,-0.09738977
1.011641,0.1378011,-0.0646671,0.006617239,0.1458289,0.1428634,-0.02303292,0.3586017,-0.1175809
0.9607343,0.1646866,-0.08474488,-0.0444677,0.1722095,0.1238095,-0.02406835,0.4914718,-0.142793
0.934195,0.2574062,-0.1066144,-0.07111326,0.2643841,0.1029416,-0.00493884,0.403036,-0.1913737
0.9027565,0.2758442,-0.07492064,-0.1025884,0.2822304,0.1356074,0.001488927,0.2025185,-0.2079307
0.8479242,0.2215311,-0.06765906,-0.157388,0.2272706,0.1438046,0.09882173,-0.225084,-0.2011195
0.909169,0.1699742,-0.156371,-0.09604027,0.1750053,0.05598558,0.1641286,-0.5595679,-0.1238046
1.012352,0.00645388,-0.3064457,0.007316035,0.01071137,-0.09324252,0.04447481,-0.5887801,0.02143911
1.17046,-0.2345168,-0.4309846,0.1656641,-0.2310947,-0.2169788,-0.1152572,-0.482166,0.07990661
1.3406,-0.4249409,-0.422032,0.3361003,-0.4224034,-0.2072596,-0.1926395,-0.1260999,-0.02617061
1.402912,-0.4802039,-0.3416205,0.3987474,-0.4785785,-0.1261075,-0.110054,0.1750891,-0.1691245
1.424861,-0.4187761,-0.2587133,0.4210484,-0.4180642,-0.0424776,0.01160328,-0.2130407,-0.2070332
1.414285,-0.3342091,-0.2047955,0.4108194,-0.3343872,0.01214894,0.09393202,-0.9341508,-0.1367075
1.422099,-0.2203081,-0.2306201,0.4189519,-0.2213331,-0.01298056,0.1803182,-1.058213,0.02843117
1.469654,-0.136515,-0.3151146,0.4667769,-0.13833,-0.09679335,0.1717054,-0.4985698,0.1979335
1.444963,-0.1562202,-0.3992884,0.4422886,-0.1587602,-0.1802967,0.09265294,0.2839828,0.1959073
1.326992,-0.1704394,-0.3573675,0.3244335,-0.173634,-0.1377112,0.03670921,0.6853467,0.09819151
1.115002,-0.1445829,-0.209618,0.1124609,-0.1483566,0.01070234,0.07257886,0.3647664,0.09382034
0.9182522,-0.1364477,-0.1033506,-0.08437383,-0.1407206,0.1176343,0.1781057,0.03786703,0.1622091
0.8444006,-0.08596189,-0.06569888,-0.1584069,-0.09065147,0.1559466,0.1893839,0.007179872,0.2448704
0.8031569,-0.007537331,-0.1247466,-0.1999157,-0.01256029,0.09754808,0.08953487,-0.1243346,0.3041023
0.788209,0.02500815,-0.1916003,-0.2151967,0.01973273,0.03132528,-0.07038857,-0.1062447,0.2956743
0.80129,0.02980146,-0.1863445,-0.2025005,0.02434963,0.03718951,-0.1816477,0.01687797,0.2556176
0.7772177,-0.02340509,-0.1935944,-0.2269938,-0.02896293,0.03052352,-0.1797889,0.04186258,0.1982872
0.7484569,-0.1055288,-0.1670731,-0.2561965,-0.1111264,0.05760247,-0.1847012,0.1111298,0.1350866
0.7272046,-0.1389018,-0.1196497,-0.2778965,-0.144474,0.1055549,-0.1737179,0.03316169,0.04377566
0.7255033,-0.152412,-0.09417988,-0.2800361,-0.1578926,0.1315217,-0.1563829,-0.08236011,-0.1542993
0.7469638,-0.160699,-0.04640718,-0.2589897,-0.1660189,0.1797541,-0.2030559,-0.08103678,-0.3479141
0.7405946,-0.1449229,-0.04903368,-0.2657355,-0.1500105,0.1775436,-0.2216212,-0.04185268,-0.4448164
0.7099971,-0.07234235,-0.05991129,-0.2966602,-0.077124,0.1670315,-0.2019557,0.08514776,-0.517139
0.6806709,0.03681836,-0.04173353,-0.3262519,0.03241514,0.185518,-0.1728171,0.0981141,-0.5665127
0.7037237,0.08309868,-0.04521263,-0.303391,0.07914149,0.1822849,-0.1364223,0.09946471,-0.5937194
0.7718601,0.03495621,-0.003866819,-0.2353623,0.03150463,0.2238082,-0.05109551,0.151641,-0.5950626
0.8208599,-0.05213395,0.04814592,-0.1863778,-0.05502803,0.2759237,0.1267647,-0.0644992,-0.5409718
0.8896378,-0.1107945,0.06069962,-0.1175188,-0.1130838,0.2884977,0.2466077,-0.309566,-0.4667062
0.9864087,-0.1090446,0.04214079,-0.02056991,-0.1106832,0.2698686,0.2584841,-0.3158386,-0.4330018
1.078255,-0.05629319,-0.04845527,0.07154752,-0.05723519,0.1791048,0.3331888,-0.1121045,-0.4341861
1.141225,-0.03463502,-0.1543956,0.1348715,-0.03483559,0.07289577,0.552405,0.1168754,-0.3652242
1.156551,-0.09062456,-0.1676903,0.1506246,-0.09004105,0.05923228,0.8251157,0.04198542,-0.2037294
1.197099,-0.161314,-0.1625439,0.1916583,-0.1599052,0.06391417,1.061028,-0.2547317,-0.04858877
1.246572,-0.197622,-0.3255767,0.241661,-0.1953456,-0.09967285,1.139384,-0.5049005,-0.02208575
1.267609,-0.1449102,-0.5492947,0.2632556,-0.1417211,-0.3240245,0.8817389,-0.4271429,-0.1471181
1.381419,-0.03144403,-0.5751313,0.3776345,-0.02729497,-0.3505565,0.5023106,0.01848236,-0.2464623
1.568446,0.05772135,-0.4255462,0.565221,0.06287558,-0.2017073,0.4171717,0.4057381,-0.2206363
1.632138,0.1032525,-0.2863971,0.6294397,0.1094506,-0.06331638,0.654541,0.5146882,-0.1166652
1.542445,0.08534554,-0.2792185,0.5402112,0.0926168,-0.05690669,0.8507232,0.4544752,-0.04683843
1.407935,0.07050837,-0.3214494,0.4060791,0.0788722,-0.09991015,0.6936307,0.4626281,-0.1875141
1.215245,0.06789853,-0.2971549,0.2136598,0.07736539,-0.07638555,0.4606593,0.4889316,-0.4164794
1.009892,0.03185912,-0.218739,0.00846425,0.04243181,0.001268766,0.3857638,0.2905819,-0.4567291
0.9049632,0.02344936,-0.1112326,-0.09642047,0.03512439,0.1080248,0.3731083,-0.008263805,-0.3508252
0.8097645,0.01648456,-0.08930261,-0.1916783,0.02925349,0.1292145,0.5671305,-0.2997433,-0.2008037
0.7198698,0.003725308,-0.1631574,-0.2817204,0.01757568,0.05462576,0.7997363,-0.4084071,-0.02918311
0.6939492,0.01452514,-0.1866695,-0.3078579,0.02944112,0.03038311,0.8168654,-0.3636278,0.02458405
0.6990442,0.03943905,-0.1870173,-0.3030294,0.05540158,0.02930737,0.7891053,-0.4670636,-0.02867475
0.7797153,0.09305088,-0.2057518,-0.2226546,0.1100369,0.009847656,0.7531609,-0.4850554,-0.01084674
0.8560472,0.0909307,-0.1984248,-0.146633,0.1089121,0.01645295,0.7312489,-0.373796,0.04708159
0.8994732,0.04906391,-0.1707565,-0.1035195,0.06800663,0.04340385,0.7681093,-0.1849878,0.1006683
0.9746272,0.05378206,-0.1327637,-0.02867289,0.07364743,0.0806833,0.795817,0.2606988,0.164583
0.9824866,0.06755796,-0.1138899,-0.02111152,0.08830352,0.09884652,0.7619054,0.6389972,0.1425875
0.9268995,0.1021981,-0.1257126,-0.07698503,0.1237777,0.08631331,0.6530216,0.7677318,0.1020297
0.8311662,0.1257304,-0.1293671,-0.17299,0.1480934,0.08194568,0.5487378,0.7372804,0.1064579
0.6983646,0.1136802,-0.1191,-0.306042,0.1367709,0.09149468,0.4213262,0.5674575,0.08023228
0.6191117,0.1202966,-0.09683123,-0.3855126,0.1440539,0.1130381,0.3068287,0.3034197,0.09450926
0.606829,0.1192683,-0.06840814,-0.3979649,0.1436266,0.1407258,0.263279,-0.09160875,0.1400238
0.657372,0.1166776,-0.07964315,-0.3475271,0.1415668,0.1287416,0.1865475,-0.4413806,0.1718992
0.740173,0.1154817,-0.122293,-0.2647527,0.1408283,0.08532537,0.1486582,-0.5347028,0.2041571
0.830625,0.08565367,-0.1401262,-0.1742387,0.111381,0.06670656,0.1887506,-0.3210791,0.1175216
0.9006799,0.04807643,-0.1391818,-0.1040285,0.07410595,0.06684527,0.2652416,-0.06132116,-0.04485125
0.9076492,-0.003980241,-0.155565,-0.09681006,0.02227331,0.04963672,0.3780599,-0.1581372,-0.1698329
0.9423973,-0.08515909,-0.2119727,-0.0617211,-0.05875685,-0.007615067,0.4275874,-0.4257438,-0.2498347
1.070906,-0.2010153,-0.2809967,0.06721642,-0.1745332,-0.07749889,0.3728205,-0.6396957,-0.2264846
1.289315,-0.2587853,-0.3149338,0.286132,-0.2322818,-0.112306,0.2415835,-0.6770334,-0.1834717
1.542612,-0.1576309,-0.342666,0.5399976,-0.1311509,-0.1409108,0.09919596,-0.399974,-0.1894971
1.721373,-0.06848051,-0.3602319,0.7193617,-0.04205723,-0.1593427,0.03854291,-0.1450666,-0.1746733
1.774394,-0.11717,-0.3224123,0.772985,-0.09082873,-0.1223733,0.1234256,-0.07313991,-0.134252
1.689494,-0.18196,-0.277636,0.688648,-0.1557194,-0.07842341,0.2628453,-0.171326,-0.03639606
1.607629,-0.2366463,-0.2745223,0.6072714,-0.2105171,-0.07610646,0.3613704,-0.2367381,0.02002838
1.592314,-0.2718345,-0.2587705,0.5923396,-0.2458171,-0.06111737,0.544714,0.2216863,-0.1430168
1.426409,-0.2041589,-0.1954042,0.4266903,-0.1782423,0.001522858,0.6975441,0.7510713,-0.3714749
1.137962,-0.1059008,-0.1511327,0.1383534,-0.08006449,0.04510574,0.6914726,0.7257013,-0.441513
0.9492546,-0.03296199,-0.1335701,-0.05039144,-0.007180124,0.06201525,0.697573,0.4322918,-0.3865936
0.8093727,0.05034708,-0.1067165,-0.1904522,0.07610102,0.08824813,0.6863212,0.1946501,-0.2550982
0.640616,0.09538673,-0.09392367,-0.3595118,0.1211358,0.1004478,0.5821362,0.0435158,-0.02010736
0.5523183,0.08482197,-0.08273088,-0.4482129,0.1105831,0.1110701,0.4147029,-0.09303497,0.1701495
0.5675458,0.0288354,-0.06614392,-0.4334611,0.05461883,0.1271035,0.2667412,-0.2266648,0.1578517
0.5693936,-0.04983603,-0.06240981,-0.4321327,-0.02402457,0.1302953,0.2535142,-0.3551581,0.08627314
0.5551469,-0.08385345,-0.08602917,-0.4469153,-0.0580097,0.1061391,0.3091792,-0.4480615,0.03177469
0.5710131,-0.08013528,-0.1329405,-0.4315763,-0.0542538,0.05869159,0.3562697,-0.4414842,-0.09795699
0.5920009,-0.07346495,-0.1440577,-0.4110837,-0.04753814,0.04703611,0.3454455,-0.4501837,-0.2460402
0.6481821,-0.09179684,-0.1096679,-0.3553452,-0.06581503,0.08088386,0.2522183,-0.4500184,-0.355454
0.7179371,-0.1235042,-0.06257753,-0.2859636,-0.0974554,0.1274265,0.1948669,-0.3861728,-0.3717664
0.7477518,-0.129986,-0.04023392,-0.2564401,-0.1038551,0.1492133,0.3013832,-0.323546,-0.2591591
0.7861686,-0.1142024,-0.05104825,-0.2182234,-0.08797077,0.1378285,0.5886578,-0.2219844,-0.1836548
0.8138827,-0.08763517,-0.04932994,-0.1906121,-0.06128107,0.1389579,0.8644696,-0.137853,-0.231231
0.8322821,-0.09775835,-0.04091753,-0.1722143,-0.07125791,0.1467587,0.9603491,-0.118393,-0.3373796
0.9533359,-0.1149425,-0.02105683,-0.05105954,-0.08827032,0.165981,1.000312,-0.07521286,-0.4663038
1.081381,-0.07849917,0.004118599,0.07718637,-0.05162826,0.1904866,1.098811,0.002954369,-0.5235006
0.9969993,0.02144962,-0.02481492,-0.006901478,0.04854652,0.1608472,1.140358,-0.1176728,-0.3997037
0.8904437,0.1693769,-0.08793699,-0.1130784,0.1967238,0.0969791,1.107929,-0.6569478,-0.1413338
1.046755,0.1606757,-0.2101202,0.04369066,0.1882886,-0.02599123,1.066684,-1.132683,0.1280085
1.300188,-0.03083001,-0.4754919,0.2976534,-0.002944714,-0.2921867,0.8868391,-0.8020981,0.2338457
1.525383,-0.1533393,-0.7001615,0.523434,-0.1251806,-0.5177027,0.7337841,-0.01081072,0.02152904
1.697428,-0.1520255,-0.6440024,0.6960944,-0.123591,-0.46239,0.8404202,0.3711893,-0.2598118
1.76188,-0.07440944,-0.5204735,0.7611561,-0.0456926,-0.3396822,0.9212766,0.3968148,-0.3473786
1.808495,0.03912622,-0.4944102,0.8083385,0.06813429,-0.3143932,0.915893,0.4183108,-0.3635294
1.70449,0.1621855,-0.4177098,0.7048207,0.1914914,-0.2384045,0.9193915,0.5592123,-0.3424815
1.456689,0.2159454,-0.403376,0.4573924,0.2455482,-0.2247081,0.6875147,0.7710105,-0.3115578
1.229236,0.1382465,-0.3929931,0.230177,0.1681344,-0.2148796,0.3195917,0.7045425,-0.2873399
0.9826045,0.102398,-0.2056796,-0.0163601,0.1325493,-0.02803163,0.2552989,0.4792547,-0.1837656
0.8497264,0.07497528,-0.1088032,-0.1492841,0.105361,0.06846858,0.4929089,0.20919,-0.07185121
0.7244615,-0.01761499,-0.1202669,-0.2747209,0.01297181,0.0567127,0.6882991,-0.1292143,0.04923888
0.5562276,-0.02686908,-0.1289059,-0.443232,0.003884247,0.04785787,0.7646541,-0.21382,0.1133452
0.5457454,-0.02958217,-0.1892492,-0.4540706,0.001304126,-0.01263239,0.795334,-0.2748276,0.06182335
0.5352293,-0.03386234,-0.1878786,-0.4649932,-0.00287471,-0.0113454,0.7915963,-0.385875,0.05555268
0.5904098,-0.0005709988,-0.1865262,-0.4102414,0.03048815,-0.0100174,0.788389,-0.3164093,0.04867284
0.7411652,-0.002016121,-0.18682,-0.2599126,0.02908597,-0.01028012,0.75859,-0.1882075,0.02894256
0.8177279,0.04515258,-0.1264078,-0.1837561,0.07626937,0.05021473,0.721093,0.1247223,0.06298067
0.8749731,0.1092979,-0.145186,-0.1268851,0.1404,0.03156578,0.659172,0.4593196,0.09237564
0.825953,0.1491304,-0.18985,-0.1762399,0.1801851,-0.01292742,0.5075659,0.5432945,0.165951
0.7305077,0.1966021,-0.2239996,-0.2719735,0.227571,-0.04686861,0.3011415,0.4890003,0.2308616
0.6691451,0.199049,-0.2308957,-0.3335689,0.2298864,-0.05352065,0.01608769,0.2807575,0.2290779
0.6428705,0.1756196,-0.1608662,-0.360009,0.2062721,0.01678708,-0.2047876,-0.02902489,0.2426995
0.7565245,0.1224759,-0.1203949,-0.246441,0.1528838,0.05756844,-0.2000791,-0.1787105,0.2581725
0.8427495,0.05455568,-0.1034751,-0.160213,0.08465507,0.07482514,-0.1364827,0.05819839,0.2473053
0.8482299,0.0270612,-0.1036613,-0.1546359,0.05678747,0.07499678,-0.08282094,0.3003726,0.131852
0.8232808,0.02541696,-0.1118209,-0.1793929,0.05470712,0.06720968,-0.006351943,0.1309337,-0.09299149
0.7790277,0.02009397,-0.1000741,-0.2233569,0.04888777,0.07933791,0.01322051,-0.1681165,-0.2124962
0.8811192,-0.03432557,-0.161774,-0.1208775,-0.006084982,0.0180232,-0.01659751,-0.5836968,-0.1618984
1.116087,-0.1271449,-0.2638821,0.1145755,-0.09950925,-0.08369902,-0.0756299,-0.8579548,-0.03912451
1.392434,-0.1940047,-0.343655,0.3914966,-0.1670176,-0.1630847,-0.190778,-0.5087533,0.05971219
1.590396,-0.1652738,-0.3808456,0.590099,-0.1389676,-0.1998821,-0.2457895,-0.0871145,0.0008009989
1.723896,-0.1325346,-0.3732549,0.7242767,-0.1069303,-0.1918846,-0.1800514,0.1418668,-0.09696818
1.85997,-0.2496044,-0.337138,0.8610256,-0.2247124,-0.1553399,-0.07227709,0.3089002,-0.0631776
1.778908,-0.3358723,-0.2473269,0.7805961,-0.3116908,-0.06507439,0.1130447,0.1649946,-0.121763
1.640493,-0.273092,-0.2226947,0.6427315,-0.2496048,-0.03995849,0.2823355,0.0920064,-0.2787233
1.559523,-0.1762317,-0.2367109,0.5621978,-0.1534084,-0.05346173,0.3399144,0.2862571,-0.28496
1.330586,-0.03907988,-0.193798,0.3335584,-0.01688078,-0.01000791,0.3854697,0.3680234,-0.2216859
1.150813,0.06412926,-0.214689,0.1539323,0.08574718,-0.03033183,0.3297866,0.3774675,-0.1190827
0.9840514,0.0597462,-0.2056207,-0.01283548,0.08082352,-0.02067258,0.2183849,0.2670555,0.04862733
0.7841864,0.0457045,-0.1396229,-0.2128528,0.0662768,0.04593765,0.1625782,0.07387986,0.1755762
0.7232273,0.02093867,-0.1290334,-0.274094,0.04103666,0.057157,0.03379026,0.003458588,0.2533837
0.6305124,-0.05364038,-0.1032731,-0.3671987,-0.0339893,0.08355927,-0.0701844,-0.1157572,0.2638691
0.583192,-0.1041064,-0.1032706,-0.4149911,-0.08487555,0.08420952,-0.08068203,-0.2738495,0.2243502
0.6140764,-0.1044519,-0.1122207,-0.3846344,-0.085613,0.07590684,-0.04744434,-0.3506128,0.1472464
0.5898754,-0.09667364,-0.09405851,-0.4093927,-0.07819511,0.09470998,0.05745164,-0.3775753,0.03079558
0.62434,-0.07037129,-0.1130743,-0.3754911,-0.05221895,0.07632309,0.1020009,-0.3503137,-0.07135146
0.6523121,-0.03072576,-0.1027999,-0.3480654,-0.01286383,0.08720912,0.0575143,-0.301084,-0.2112726
0.6931548,-0.01192601,-0.07704715,-0.3077339,0.00568122,0.1135514,-0.01771366,-0.2200894,-0.348278
0.7631884,-0.02793548,-0.03932781,-0.2381608,-0.01054859,0.1518326,-0.08914895,-0.178167,-0.3878727
0.7552199,-0.07534118,0.02148629,-0.246527,-0.05814162,0.2131745,-0.03069123,-0.2161001,-0.3470893
0.7690069,-0.1170449,0.01630397,-0.2330655,-0.09999963,0.2084776,0.1737005,-0.2404988,-0.2396614
0.8057745,-0.1406441,-0.01784754,-0.1965436,-0.123718,0.1747608,0.4523748,-0.2491614,-0.1176513
0.872985,-0.139144,-0.04155996,-0.1294932,-0.1222989,0.151425,0.6449267,-0.1626893,-0.08394281
0.9672102,-0.1167522,-0.03869284,-0.03534041,-0.09994628,0.1546052,0.6903846,0.009595132,-0.2044868
0.9865094,-0.07896126,-0.02407606,-0.01602743,-0.0621501,0.1694672,0.7536888,0.04862885,-0.335147
0.9934074,0.007399977,-0.07118087,-0.009033877,0.02426123,0.1225358,0.8312117,-0.1216304,-0.3222639
1.042834,0.0814647,-0.1515712,0.04056476,0.0984183,0.04224499,0.8506595,-0.5213642,-0.1756387
1.151915,0.07018569,-0.2744099,0.1498851,0.08726802,-0.08056672,0.7818502,-0.8870102,0.036597
1.377583,-0.02726031,-0.4858361,0.3758507,-0.01001955,-0.2920314,0.6136407,-0.5762745,0.07118938
1.645646,-0.1398679,-0.685639,0.6442473,-0.122443,-0.4919234,0.4947833,0.2813215,-0.07842626
1.681744,-0.1010444,-0.6410313,0.6806887,-0.08340931,-0.4474329,0.4499389,0.7436987,-0.1544543
1.579087,0.08250887,-0.4202541,0.5783493,0.100381,-0.226777,0.4483877,0.4646912,-0.1479481
1.673129,0.2195064,-0.3740569,0.6726534,0.2376388,-0.1806873,0.5025079,0.08278105,-0.09808559
1.666179,0.1928754,-0.4125216,0.6658779,0.2112814,-0.2192341,0.4794903,0.2148262,-0.05926134
1.484355,0.08208234,-0.4135418,0.4841158,0.1007638,-0.2203022,0.3849373,0.5070149,-0.08893054
1.394989,0.04140736,-0.4358047,0.3946784,0.06035706,-0.2425696,0.2482733,0.606534,-0.1390622
1.210425,0.0254612,-0.3237942,0.2098946,0.04466708,-0.1305124,0.1154913,0.5633706,-0.1823475
0.975873,0.01275698,-0.1716765,-0.02502701,0.03220424,0.02170796,0.177328,0.2232715,-0.1236847
0.7503069,0.04858759,-0.1191146,-0.2511057,0.06825949,0.07442732,0.2982895,-0.01669127,0.03868752
0.5840345,0.05058829,-0.1397709,-0.4180153,0.07046604,0.05397752,0.3777513,-0.08127295,0.2146182
0.612191,0.04295561,-0.1856174,-0.390594,0.06301791,0.008379708,0.4676933,-0.2782081,0.364853
0.5152387,0.03203566,-0.1598464,-0.48835,0.05225887,0.03443594,0.4355739,-0.3194259,0.3783014
0.4511623,-0.01415053,-0.1769651,-0.5532681,0.006208531,0.0176344,0.426342,-0.4176073,0.3049248
0.5902105,-0.03363605,-0.1850733,-0.4150693,-0.01316622,0.009870759,0.4920084,-0.4877691,0.2466028
0.6365636,-0.04175291,-0.1272415,-0.3695461,-0.02119594,0.06807061,0.4622376,-0.2272037,0.1450878
0.7515474,-0.01314562,-0.1188843,-0.2553513,0.00747692,0.07681442,0.4301944,0.07960532,0.09967552
0.8516875,0.06004033,-0.09167857,-0.1559445,0.08070808,0.1044194,0.3273478,0.4572289,0.1541026
0.7845557,0.1451877,-0.1528366,-0.2237441,0.165879,0.04366695,0.1029845,0.6858492,0.1897483
0.7147754,0.2369579,-0.2478658,-0.2941188,0.2576461,-0.05095493,-0.144868,0.6280364,0.2698224
0.5830928,0.2505614,-0.208252,-0.4263121,0.2712115,-0.01093362,-0.4277612,0.2809918,0.3686003
0.5516075,0.2117959,-0.1531151,-0.458211,0.2323625,0.04461028,-0.5568793,-0.3596745,0.3622204
0.7026737,0.1490758,-0.1011725,-0.3074459,0.1695046,0.09695742,-0.5153951,-0.5734822,0.3157426
0.8310118,0.03018618,-0.1200646,-0.1792854,0.05041744,0.07846328,-0.4836116,-0.1743884,0.1963953
0.9093219,-0.06204705,-0.16837,-0.1010247,-0.04207378,0.03054487,-0.4215326,0.175065,-0.04189365
0.9304127,-0.107426,-0.1443343,-0.07985622,-0.08776674,0.05495312,-0.3850423,0.04370093,-0.1890461
1.01389,-0.1378666,-0.1898877,0.003820961,-0.1185695,0.009755655,-0.4204829,-0.296959,-0.1260847
1.239676,-0.144783,-0.2736692,0.2299205,-0.1258866,-0.07368722,-0.4645514,-0.4327133,0.001278998
1.446018,-0.1281801,-0.3345352,0.4366728,-0.109713,-0.1342299,-0.526644,-0.2866657,0.05930684
1.653986,-0.1410971,-0.3730313,0.6451236,-0.1230787,-0.1724126,-0.5441346,0.04533598,0.02380537
1.908112,-0.2567771,-0.3519443,0.89977,-0.2392171,-0.151015,-0.4390372,0.1635596,-0.06456729
1.981203,-0.3953189,-0.3369352,0.9733755,-0.378215,-0.1356906,-0.2212243,0.3295432,-0.1454801
1.814724,-0.3927842,-0.2917102,0.8073588,-0.3761178,-0.09013963,0.05357794,0.5831966,-0.2868174
1.622295,-0.2569913,-0.2038499,0.6152982,-0.2407263,-0.001939029,0.2638094,0.3456305,-0.4106588
1.439116,-0.1272655,-0.1788788,0.4323621,-0.1113522,0.02338738,0.2851385,0.2202109,-0.3192579
1.280338,-0.0111236,-0.2143401,0.2736834,0.004494254,-0.01170566,0.1675773,0.2813284,-0.1743204
1.176701,0.1017886,-0.2431645,0.1699943,0.1171669,-0.04015054,0.04016448,0.1659085,-0.02988565
1.013691,0.1173513,-0.1973733,0.006778988,0.1325399,0.00603026,-0.09710083,0.2054813,0.1623811
0.9030102,0.06959462,-0.1346765,-0.1042528,0.08463514,0.06912537,-0.2513154,0.1356664,0.2382189
0.8319867,0.02226811,-0.1361506,-0.1757588,0.03719411,0.06805484,-0.3722379,0.03367878,0.2988354
0.6865165,-0.04067067,-0.1363754,-0.3218251,-0.02583072,0.0682342,-0.3967838,-0.009545098,0.3344305
0.635453,-0.08749111,-0.133907,-0.3735757,-0.07271086,0.07110271,-0.3249273,-0.2048944,0.243255
0.5948243,-0.08460855,-0.1390045,-0.4149567,-0.0698613,0.06639692,-0.2533121,-0.286583,0.1870074
0.5533686,-0.06260503,-0.1295584,-0.4572029,-0.0478627,0.07622235,-0.1975483,-0.4072824,0.1198945
0.6091034,-0.06146917,-0.1321806,-0.4022698,-0.04670263,0.07396303,-0.1431156,-0.4959136,0.03973833
0.6369506,-0.0698741,-0.1212702,-0.375211,-0.05505378,0.08521637,-0.09572575,-0.3924695,-0.03096299
0.7215962,-0.09037298,-0.09744165,-0.2913193,-0.07546884,0.1093642,-0.04483872,-0.3240088,-0.167331
0.8019862,-0.1261197,-0.06200719,-0.2116322,-0.1111005,0.1450898,-0.03256203,-0.1572893,-0.2341758
0.7878707,-0.156257,-0.008897124,-0.2263879,-0.1410894,0.1984574,0.01931329,-0.04303293,-0.2481381
0.800437,-0.1608291,0.009322292,-0.2143901,-0.1454761,0.2168937,0.2046287,-0.09591861,-0.2577481
0.8028302,-0.1017165,0.00660047,-0.212486,-0.0861375,0.2143401,0.3792113,-0.0940608,-0.2389489
0.8534667,-0.02005522,0.006412399,-0.1622531,-0.004207802,0.2142638,0.4247505,-0.09754374,-0.2742613
0.9582127,0.03965755,0.01364147,-0.05782106,0.05581432,0.2215407,0.409702,-0.08258009,-0.3082528
1.019489,0.08445719,0.03404205,0.003230671,0.1009593,0.2419184,0.4124612,0.03585039,-0.3188599
1.043804,0.09812392,0.03765561,0.0274066,0.1150002,0.2454315,0.4303748,0.17573,-0.3119514
1.02134,0.1007916,0.02447187,0.004883713,0.1180622,0.2320634,0.5122917,0.1159356,-0.2309863
1.04165,0.07147528,-0.02146986,0.02520676,0.08915231,0.185848,0.7386987,-0.2758292,-0.0744168
1.16619,-0.04370079,-0.1632333,0.1498269,-0.02561191,0.04371875,0.9186613,-0.6319014,0.08493066
1.337311,-0.1685886,-0.4499397,0.321083,-0.150085,-0.2434422,0.8038401,-0.4817484,0.04193481
1.441433,-0.1411669,-0.707738,0.4253788,-0.1222434,-0.5017702,0.4884035,-0.01395917,-0.07705367
1.476122,0.003212351,-0.6644185,0.4602595,0.02256467,-0.4590314,0.1668774,0.1991367,-0.02545924
1.585991,0.07485649,-0.5090007,0.5703135,0.09464703,-0.3042182,0.04899489,0.1682145,0.07168818
1.48643,-0.2568414,-0.5891541,0.518883,-0.204222,-0.3451909,0.0156146,-0.8416554,-0.1162735
1.665644,-0.289373,-0.5638777,0.6982862,-0.2382446,-0.3209948,0.02700717,0.04080996,-0.1359431
1.751516,-0.2295735,-0.447059,0.7843987,-0.1799407,-0.2052208,0.05059757,0.5351755,-0.1771273
1.84086,-0.2214929,-0.4061728,0.8739928,-0.1733453,-0.1653299,0.1582834,0.5960593,-0.1962748
1.656656,-0.2115519,-0.2431727,0.6900049,-0.1648663,-0.00326723,0.3370097,0.3125639,-0.1553748
1.48633,-0.1912065,-0.1885912,0.5198246,-0.1459487,0.05043728,0.5059645,-0.296001,-0.127144
1.572655,-0.2189311,-0.2922999,0.6061968,-0.1750574,-0.05408957,0.573517,-0.4888939,-0.1896503
1.56156,-0.2135089,-0.2682192,0.5950273,-0.1709664,-0.03076968,0.6447426,-0.2262868,-0.2641034
1.437187,-0.1731232,-0.2863613,0.4704384,-0.1318507,-0.04961581,0.6488291,0.218507,-0.2542147
1.238752,-0.1216763,-0.3203595,0.2716288,-0.08160608,-0.08426105,0.5968712,0.8345513,-0.2516018
0.9108116,-0.05342474,-0.1982983,-0.0568484,-0.0144855,0.03721031,0.6689048,0.8736298,-0.2176333
0.6769121,-0.00360546,-0.08215707,-0.2914398,0.03427462,0.1528166,0.6317014,0.3809814,-0.07315553
0.5687483,0.03477504,-0.04765366,-0.4004296,0.07166511,0.1868331,0.5020088,0.04105918,0.001220233
0.4817814,0.03489357,-0.06858748,-0.4883279,0.07085808,0.1654504,0.3811032,-0.2363486,-0.006498694
0.4133151,0.01280756,-0.07039376,-0.557798,0.0479055,0.1632229,0.2058434,-0.4732981,0.002011066
0.3896015,0.004163213,-0.0572574,-0.5825532,0.03844866,0.1759561,0.1658302,-0.5453047,-0.03242987
0.4626745,-0.04271031,-0.07752671,-0.5105255,-0.009187044,0.1552929,0.1573908,-0.4881583,-0.1304764
0.5693095,-0.09272602,-0.059944,-0.404909,-0.05991668,0.1724827,0.122839,-0.3365336,-0.3150826
0.6690125,-0.1342552,-0.05278819,-0.3061734,-0.1021113,0.179239,0.1702455,-0.1893913,-0.5554919
0.7574724,-0.1998408,-0.04464285,-0.2186124,-0.1683114,0.1869709,0.2354055,-0.1644732,-0.704377
0.7896536,-0.2184459,-0.01711018,-0.1872502,-0.1874751,0.2140686,0.439261,-0.2689194,-0.6889976
0.8391303,-0.171106,-0.05828276,-0.1385053,-0.140632,0.1724324,0.6749353,-0.2839767,-0.5546018
0.9152389,-0.1016968,-0.09587009,-0.0630377,-0.07165304,0.1343464,0.7959381,-0.09502274,-0.3997214
0.9452625,-0.04142739,-0.1112318,-0.03356362,-0.01174568,0.118447,0.8908352,0.06726371,-0.329615
0.9549769,-0.007876863,-0.1272595,-0.02430954,0.02150954,0.1018401,0.8765367,-0.04519785,-0.3527111
0.9880365,-0.001156692,-0.1547224,0.008375201,0.02799717,0.07375551,0.8477901,-0.4911731,-0.2764642
1.091384,-0.02603897,-0.303257,0.1114283,0.002940278,-0.0754421,0.8440037,-1.05976,-0.03767003
1.274556,-0.05813064,-0.5407739,0.2943765,-0.02927235,-0.3136572,0.7025417,-1.174426,0.1371994
1.520337,-0.07030697,-0.6744462,0.5399882,-0.04151894,-0.4480484,0.5899335,-0.4559789,0.1364776
1.731764,-0.05235569,-0.6178774,0.7512766,-0.02358923,-0.3921981,0.6232152,0.4685812,-0.0260381
1.717743,0.005101414,-0.5218108,0.737113,0.03389277,-0.2968273,0.631208,0.6690403,-0.1999031
1.563813,0.08142121,-0.43688,0.5830012,0.1102798,-0.2125518,0.5684499,0.2010406,-0.1718021
1.457899,0.1115962,-0.3496988,0.4768365,0.1405576,-0.1259734,0.52585,-0.1543602,-0.08799051
1.368319,0.0686988,-0.4120275,0.3869146,0.09779008,-0.1888448,0.4696716,-0.02640357,-0.100469
1.264436,0.02849198,-0.459074,0.2825841,0.05773206,-0.2363678,0.3590832,0.2264064,-0.1348514
1.080252,0.01399795,-0.3449142,0.09783831,0.04339984,-0.122612,0.2706186,0.3844965,-0.1742641
0.8331884,0.01103673,-0.2555041,-0.1499001,0.04060918,-0.03352917,0.2385466,0.4268127,-0.1430645
0.6634418,0.04315285,-0.1715747,-0.3204226,0.07290107,0.05014926,0.3025259,0.1710576,-0.02243655
0.5430624,0.06386793,-0.116456,-0.4416586,0.09379316,0.1050883,0.4182317,-0.1417477,0.1027563
0.5038773,0.06165064,-0.1451452,-0.4817541,0.09174947,0.07628252,0.4548521,-0.3487029,0.2262885
0.5592915,0.03940433,-0.1479316,-0.4272747,0.06966863,0.0734344,0.4572378,-0.5104784,0.2745206
0.6019103,-0.02826101,-0.1509707,-0.3855882,0.002156991,0.07038029,0.4940038,-0.4969979,0.2507685
0.6883719,-0.08078872,-0.1383139,-0.300033,-0.05022998,0.08306185,0.5725607,-0.4011485,0.2356076
0.7662971,-0.09551853,-0.09623798,-0.2229702,-0.06483057,0.1251949,0.6737905,-0.08398841,0.1786222
0.7384152,-0.06769248,-0.1112022,-0.2516573,-0.03688389,0.1103126,0.7386541,0.3407862,0.1402467
0.6753998,0.03489184,-0.1920625,-0.3154093,0.06581463,0.02955182,0.7417713,0.3256609,0.1769601
0.6046562,0.1531797,-0.3137198,-0.3868091,0.1842091,-0.09199312,0.6059778,0.08753352,0.1988882
0.612236,0.1812585,-0.3441317,-0.3797914,0.2123812,-0.1222796,0.2877216,-0.005088629,0.1847598
0.7176247,0.1288694,-0.2354981,-0.2748573,0.1600636,-0.01350477,-0.06241283,0.02937686,0.1025777
0.8029141,0.1097806,-0.1511281,-0.1899054,0.1410167,0.07102347,-0.2026669,0.04991716,-0.0406965
0.8380524,0.07600221,-0.152714,-0.1549823,0.1072447,0.06961036,-0.1311639,-0.05135975,-0.1210752
0.8244485,-0.04235852,-0.2010485,-0.1686781,-0.01114832,0.02145894,-0.008707037,-0.2190326,-0.09107298
0.8493823,-0.2097526,-0.2849826,-0.1437131,-0.1786122,-0.06228483,0.1688545,-0.4605345,0.01356172
1.006408,-0.3919922,-0.3807184,0.01346494,-0.3609507,-0.1578228,0.2033087,-0.5479071,0.07890308
1.301008,-0.4024529,-0.4190094,0.3083309,-0.3715243,-0.1959042,0.01625212,-0.3831163,-0.09957994
1.677664,-0.2470889,-0.413497,0.6853465,-0.2162691,-0.1901634,-0.05116723,-0.1895258,-0.3943443
1.887702,-0.1449299,-0.448187,0.8958067,-0.1142002,-0.2245981,-0.02993331,0.1228485,-0.4141885
1.856357,-0.1274894,-0.4587079,0.8649025,-0.09682296,-0.2348287,-0.0141811,0.3084254,-0.2635918
1.773971,-0.1835456,-0.4356726,0.7829287,-0.1529109,-0.2114601,0.04730466,0.1439732,-0.19948
1.667827,-0.2239045,-0.4343127,0.677127,-0.1932653,-0.2097164,0.06328846,0.1387836,-0.1706536
1.514464,-0.253606,-0.359264,0.5240048,-0.22292,-0.1342274,0.1392946,0.3237283,-0.1911692
1.331762,-0.2977401,-0.2666699,0.3414173,-0.2669575,-0.04113388,0.2540499,0.4347528,-0.1998531
1.139708,-0.2021859,-0.2466116,0.1493385,-0.1712487,-0.02051753,0.2803677,0.517689,-0.1406881
0.9277321,-0.07153349,-0.1922323,-0.06280416,-0.04037843,0.03447435,0.2740629,0.4145472,-0.06714888
0.6901494,0.003507076,-0.1311182,-0.3006862,0.03494379,0.09624944,0.1993347,0.199628,0.06675784
0.5536239,0.0577172,-0.1213646,-0.4376245,0.08949458,0.1067039,0.03240359,0.01067799,0.1485932
0.4769051,0.03600063,-0.08998925,-0.5148421,0.06816989,0.1388101,-0.1619676,-0.1964268,0.1217348
0.416312,0.0001586694,-0.0637851,-0.5759884,0.03276272,0.1657646,-0.288663,-0.225817,0.06090143
0.458258,-0.04461767,-0.08019275,-0.5346172,-0.01154267,0.1501156,-0.3335485,-0.1553333,-0.08806464
0.4843735,-0.0864746,-0.08170514,-0.5090667,-0.05289691,0.1493597,-0.3420158,-0.1095489,-0.2642811
0.5125629,-0.1138762,-0.07381402,-0.4814047,-0.0797662,0.1579952,-0.3120593,-0.05328847,-0.3926409
0.5870936,-0.1745177,-0.06659872,-0.4073399,-0.1398459,0.1659337,-0.2436678,-0.1758997,-0.4538275
0.6290816,-0.1785795,-0.04111202,-0.3657365,-0.1433145,0.1921135,-0.0434853,-0.3964258,-0.4001401
0.7459691,-0.153507,-0.0507819,-0.2491376,-0.1176146,0.1830978,0.2182623,-0.5028437,-0.2963515
0.8955837,-0.1265382,-0.08985277,-0.09970658,-0.08998181,0.1446339,0.3471221,-0.437331,-0.2130135
0.9972004,-0.0534776,-0.1322841,0.001833508,-0.01622009,0.1027558,0.3836152,-0.1650012,-0.205203
1.061551,-0.03239509,-0.1920201,0.0662105,0.005598828,0.04351558,0.4375582,0.003179535,-0.2320726
1.042336,-0.05852666,-0.2344188,0.04711499,-0.01976471,0.001554153,0.5283964,-0.3369227,-0.1326241
1.091026,-0.09818684,-0.33692,0.09600873,-0.05862888,-0.1005661,0.5202826,-0.8254029,0.04831475
1.252784,-0.1666905,-0.5234699,0.2580439,-0.1263105,-0.2867849,0.4294347,-0.7498582,0.1503868
1.445392,-0.1751178,-0.6270056,0.4509843,-0.1338891,-0.3900265,0.4004975,-0.3293818,0.1113621
1.683645,-0.09432158,-0.6122124,0.6896032,-0.05221637,-0.3749582,0.3209521,0.02369239,-0.0110856
1.773122,0.01311661,-0.5437995,0.7794463,0.05612603,-0.3062701,0.2491272,0.3272059,-0.09940225
1.65739,0.09924189,-0.4589773,0.6640442,0.1431785,-0.2211559,0.2802,0.3271132,-0.1397793
1.554151,0.1222227,-0.4098406,0.5610649,0.1671007,-0.171699,0.2519965,0.1738224,-0.09477897
1.446561,0.09156892,-0.4204333,0.4536359,0.1373917,-0.1819354,0.1674812,0.1435767,-0.03866886
1.295982,0.06159762,-0.4295775,0.3031022,0.1083581,-0.1906811,0.03194858,0.1700403,-0.105661
1.175311,0.03549075,-0.3655317,0.1823475,0.08317355,-0.1261899,-0.07484136,0.3581599,-0.124895
0.9968945,0.01911706,-0.2879254,0.003717006,0.06770028,-0.04808816,0.02822679,0.4826057,-0.08017482
0.7622412,0.02510254,-0.2281589,-0.2312752,0.07455933,0.01222338,0.1554784,0.4405542,-0.04875753
0.5886896,0.02991684,-0.1623855,-0.4052748,0.08021608,0.07858728,0.1972166,0.2864562,0.04994906
0.4833803,0.0500138,-0.1372876,-0.5111163,0.1011203,0.1043141,0.2301007,-0.11497,0.1219496
0.4751597,0.05043858,-0.1412738,-0.5199231,0.1023127,0.1009865,0.2032602,-0.5000164,0.1808686
0.5304588,-0.001049647,-0.1436844,-0.4652334,0.05154865,0.09925498,0.2140155,-0.6653898,0.2406742
0.6213209,-0.04751136,-0.1368936,-0.3749754,0.005765017,0.1067369,0.3089581,-0.5100555,0.1999991
0.7989998,-0.07002169,-0.1348957,-0.1978733,-0.01611344,0.1094298,0.4044324,-0.1220408,0.143149
0.9036264,-0.03577435,-0.1774462,-0.09378193,0.01872092,0.06757074,0.458177,0.2957502,0.07427944
0.8474598,0.03459696,-0.2119386,-0.1504347,0.08963538,0.03376019,0.361615,0.7618671,0.007326171
0.7250936,0.143166,-0.1957674,-0.2732324,0.1987021,0.05059954,0.114058,0.8798445,0.0380352
0.5715003,0.3148932,-0.1619534,-0.4271938,0.3708754,0.08506452,-0.23427,0.6725247,0.117505
0.5404726,0.3347135,-0.1438999,-0.4585124,0.3910787,0.1037478,-0.5268051,0.3882543,0.2252981
0.6229608,0.2321375,-0.1409686,-0.3762213,0.288808,0.1072829,-0.5885617,-0.1032134,0.3396495
0.6469413,0.1983705,-0.1397062,-0.3523292,0.2552565,0.1091178,-0.6508633,-0.2161889,0.3463385
0.7212371,0.07379951,-0.1727937,-0.2780018,0.1308029,0.07656711,-0.722746,0.06163346,0.1968673
0.8011742,-0.07374325,-0.2248333,-0.1979061,-0.01672268,0.02502508,-0.613905,-0.002858593,-0.01227827
0.7993764,-0.1332043,-0.254212,-0.1994151,-0.07626308,-0.0038963,-0.5685329,-0.2845517,-0.09504372
0.9604208,-0.2587905,-0.2935066,-0.03795241,-0.2020156,-0.04277285,-0.6538885,-0.4894762,-0.04818799
1.277817,-0.2948812,-0.3557936,0.2799854,-0.2383458,-0.1046779,-0.7435523,-0.3677676,-0.06148476
1.574113,-0.1801513,-0.3800885,0.576928,-0.1239128,-0.1286217,-0.8024753,0.106107,-0.1379578
1.769361,-0.1036142,-0.3516678,0.772898,-0.04771645,-0.09987404,-0.7171924,0.3954956,-0.2071561
1.767707,-0.07337099,-0.3334194,0.7720003,-0.01784862,-0.08131637,-0.6135691,0.3395316,-0.2341222
1.632474,-0.1028684,-0.3271888,0.637516,-0.04775028,-0.07478883,-0.6355148,0.1315552,-0.1015369
1.472249,-0.1311677,-0.3326935,0.4779947,-0.07647726,-0.08000476,-0.6764593,0.02879672,0.06313576
1.418338,-0.1130659,-0.3473832,0.4247153,-0.0588209,-0.09440993,-0.7284673,0.1630477,0.07170862
1.462249,-0.1272652,-0.3084383,0.4691642,-0.07347744,-0.0551809,-0.7824237,0.4477875,0.02592719
1.360685,-0.1051472,-0.2484055,0.3680262,-0.0518231,0.005138176,-0.7296309,0.8636282,0.02058494
1.120411,-0.03198788,-0.194863,0.1280549,0.02087067,0.05896948,-0.6729094,0.9557809,0.06563406
0.875828,0.03547896,-0.1267903,-0.1163535,0.08787196,0.1273307,-0.7733541,0.5719221,0.1526246
0.7085079,0.08961878,-0.09074147,-0.2836185,0.1415448,0.1636622,-0.9245564,0.2181352,0.2467157
0.6045794,0.1052298,-0.07970951,-0.3875938,0.1566833,0.1749638,-1.080556,-0.08513071,0.2800637
0.5207529,0.08712537,-0.07113035,-0.4715444,0.138095,0.183791,-1.268228,-0.2795289,0.2296896
0.6161047,0.00200329,-0.08572884,-0.3763674,0.05247325,0.1694107,-1.311678,-0.2811708,0.1817418
0.7245427,-0.1072505,-0.09289001,-0.2681298,-0.05729801,0.1624306,-1.194329,-0.3004043,0.1131628
0.7018862,-0.1477352,-0.08673698,-0.2909928,-0.09831548,0.168721,-1.05044,-0.3037261,0.02715491
0.7704439,-0.1611417,-0.09464246,-0.2226319,-0.112264,0.1609035,-0.9018694,-0.3221915,0.03583498
0.8166388,-0.1692024,-0.09825366,-0.1766113,-0.1208685,0.1573256,-0.7805191,-0.2910727,0.1027997
0.8142165,-0.1471259,-0.09869431,-0.1791761,-0.09933041,0.1568594,-0.6733529,-0.1394279,0.1763904
0.8418267,-0.1025422,-0.09878268,-0.151669,-0.05527313,0.1566828,-0.564684,0.001607789,0.210719
0.8110723,-0.06809374,-0.07678566,-0.1824809,-0.02133463,0.1785254,-0.5402609,0.1475511,0.133871
0.8346829,-0.04078892,-0.04520627,-0.158877,0.005478929,0.2098806,-0.5700608,0.1049005,0.02296805
0.9088356,-0.006655964,-0.04221712,-0.08467543,0.03913973,0.2125716,-0.539874,-0.3850637,0.01343352
1.050633,-0.009359569,-0.1651664,0.05722771,0.03598204,0.08924646,-0.5157376,-1.154321,0.1854081
1.286696,-0.01756863,-0.4568031,0.2934486,0.02733522,-0.202843,-0.6089875,-1.373332,0.4065031
1.454324,-0.003594313,-0.7339011,0.4612722,0.04088637,-0.4804601,-0.8247006,-0.4392353,0.3997411
1.56514,0.007146247,-0.7838768,0.5723019,0.05121659,-0.5309986,-0.9961737,0.5311862,0.2524848
1.565733,0.03113931,-0.6343055,0.5730966,0.07480987,-0.3820059,-0.8445648,0.410252,0.2397811
1.468235,0.03396169,-0.4925624,0.4757624,0.07724015,-0.2408322,-0.6150044,-0.1584936,0.3754441
1.435024,0.01906466,-0.4663911,0.4426512,0.06195557,-0.2152033,-0.6816828,-0.3724195,0.5334627
1.438992,0.03099725,-0.5149516,0.4466365,0.07350221,-0.2642666,-0.8188778,-0.1586293,0.5203121
1.444546,0.06354259,-0.5535586,0.4521068,0.1056604,-0.3033256,-1.049378,0.2650534,0.3755461
1.360132,0.1118357,-0.501436,0.3674936,0.1535613,-0.2515926,-1.402446,0.4510391,0.3431881
1.13738,0.1232619,-0.4067576,0.1444156,0.1645853,-0.1572315,-1.433753,0.277683,0.392821
0.9064171,0.09008419,-0.3376077,-0.08700091,0.1309894,-0.08832036,-1.299022,0.07650864,0.4794815
0.7601197,0.06058972,-0.2910562,-0.2338722,0.1010558,-0.04192759,-1.280612,-0.07981381,0.5602366
0.6493109,0.02657537,-0.2704301,-0.3453571,0.06657809,-0.02138194,-1.236942,-0.3266524,0.5476354
0.5456084,0.02426653,-0.2527128,-0.4498138,0.06378015,-0.003670446,-1.26139,-0.5986624,0.5261611
0.6044087,0.06049894,-0.2729967,-0.3918188,0.09949712,-0.02388985,-1.324997,-0.7378762,0.5041129
0.7157571,0.07732757,-0.3121442,-0.2813004,0.115783,-0.06290702,-1.30697,-0.6832097,0.5347046
0.7866778,0.08740026,-0.3149241,-0.2112131,0.1252836,-0.06549352,-1.320293,-0.4615744,0.6144306
0.9436879,0.08258522,-0.3438894,-0.05502487,0.1198649,-0.0942043,-1.345412,-0.1269406,0.6131267
0.9521105,0.06763371,-0.349417,-0.04740395,0.1042759,-0.09941729,-1.347832,0.1982252,0.6058563
0.8595334,0.08624284,-0.3222063,-0.1407575,0.1222119,-0.07183248,-1.358152,0.3548712,0.6080061
0.8445176,0.09767388,-0.3207602,-0.1565192,0.1329326,-0.06995365,-1.368018,0.2313372,0.6247408
0.8026879,0.07814635,-0.2977992,-0.1990573,0.1126559,-0.04650317,-1.362372,-0.04680858,0.6613316
0.9103664,-0.01305165,-0.3005681,-0.09204171,0.020669,-0.04872828,-1.223944,-0.1870124,0.6276197
1.050008,-0.1798641,-0.3130618,0.04698701,-0.1469694,-0.06062655,-0.913049,-0.08946428,0.5706445
1.001661,-0.2456715,-0.2963351,-0.001922121,-0.2136319,-0.04325544,-0.6072963,0.2919843,0.4594377
0.9026764,-0.2155905,-0.3074982,-0.1014211,-0.1844225,-0.05372781,-0.4359635,0.7772909,0.2680224
0.8052524,-0.2334831,-0.3149517,-0.1993095,-0.2031898,-0.06044694,-0.3369722,0.7963319,0.07736155
0.8045577,-0.2007635,-0.3712675,-0.2004144,-0.1713353,-0.1159867,-0.3360131,0.1639737,-0.02096267
0.8336109,-0.1176544,-0.5165421,-0.1717105,-0.08907107,-0.2604432,-0.6263141,-0.5978619,0.06392916
0.8707874,-0.1527604,-0.5938012,-0.1348164,-0.1249936,-0.3368375,-0.993743,-0.7850208,0.1266389
1.132513,-0.2279893,-0.5044278,0.1266961,-0.2010041,-0.2465446,-0.9252161,-0.2595592,0.05775201
1.462753,-0.2590366,-0.3665779,0.4567858,-0.23279,-0.1077133,-0.480306,0.4400203,0.0547353
1.574314,-0.2697845,-0.3415046,0.568241,-0.2442238,-0.08159438,-0.08162511,0.7897024,0.08142233
1.395238,-0.1713748,-0.4010042,0.3890784,-0.1464379,-0.1399854,0.02184467,0.581387,0.09956101
1.154006,-0.03463024,-0.4371509,0.1477553,-0.01024861,-0.1749622,-0.1604663,0.06685263,0.2096021
1.136323,0.004693042,-0.3847947,0.1299612,0.02858889,-0.1213748,-0.2972582,-0.2113877,0.3319097
1.197318,-0.004306435,-0.3033416,0.1908193,0.01916985,-0.0386302,-0.3606696,-0.05619786,0.3942109
1.190108,-0.0305942,-0.3040213,0.1834388,-0.007475717,-0.03796175,-0.4757218,0.3881311,0.4123089
1.107239,-0.04853634,-0.2953691,0.1003614,-0.02571765,-0.0279099,-0.4150089,0.7810411,0.4008749
0.9088584,-0.04989318,-0.2534528,-0.09826936,-0.02731898,0.01545131,-0.3498862,0.8399762,0.3966444
0.7265491,-0.04415681,-0.2459342,-0.2808655,-0.02177393,0.02445317,-0.4090318,0.6176847,0.3587299
0.6183811,-0.03186335,-0.2180251,-0.3893446,-0.009620751,0.05387615,-0.4069707,0.2792943,0.2738621
0.5476331,-0.06436659,-0.1807008,-0.4604089,-0.04221553,0.09273635,-0.4998074,0.007316135,0.2005863
0.5257121,-0.1127472,-0.1397142,-0.4826287,-0.0906405,0.1352712,-0.5580578,-0.178911,0.08883272
0.5567423,-0.1459365,-0.108731,-0.4518565,-0.1238268,0.167804,-0.4818693,-0.2345764,-0.1079987
0.6636971,-0.1569474,-0.1128065,-0.3450979,-0.1347855,0.1652675,-0.4631789,-0.09313666,-0.3150907
0.7351628,-0.1301261,-0.09649195,-0.2737504,-0.1078604,0.1830986,-0.3777272,0.04234466,-0.4651597
0.7187625,-0.1001976,-0.09639587,-0.2901794,-0.07777428,0.1846773,-0.2535156,0.2128284,-0.6008042
0.6964262,-0.06340691,-0.109688,-0.312446,-0.04077194,0.1728228,-0.1518635,0.3793049,-0.71527
0.6555629,-0.06675965,-0.09742026,-0.353133,-0.04386015,0.1864733,-0.06863131,0.3216719,-0.6704671
0.6270132,-0.09061183,-0.09075331,-0.3813908,-0.06739693,0.194459,-0.09054221,0.1888297,-0.535139
0.6513939,-0.0429156,-0.04903165,-0.3565933,-0.01933644,0.2374263,-0.03687637,0.08770536,-0.4807031
0.7398288,-0.00223392,-0.001399915,-0.2676085,0.02175563,0.2862212,0.1317069,0.05478729,-0.4859023
0.8752637,0.002936705,-0.0255477,-0.1314863,0.0273785,0.2631436,0.2657461,0.0393084,-0.573447
0.9689439,-0.01764006,-0.1044012,-0.03698323,0.007290711,0.185258,0.3616959,-0.2615765,-0.6344962
1.046742,-0.07966583,-0.2744502,0.04176632,-0.05421384,0.01606856,0.4875538,-0.898111,-0.3912595
1.19989,-0.1181882,-0.5579292,0.1959807,-0.09218522,-0.2666574,0.6218767,-1.247506,0.04994576
1.433223,-0.1378387,-0.7839194,0.4304787,-0.111255,-0.4919886,0.5278669,-0.7448543,0.2768313
1.680134,-0.1165653,-0.7907859,0.6786238,-0.08937021,-0.4982676,0.3417723,0.1487255,0.09177828
1.799911,-0.05135177,-0.6354858,0.7996703,-0.02351377,-0.3424244,0.3522341,0.8086397,-0.1856096
1.673519,-0.005902159,-0.4233385,0.6745388,0.02260894,-0.1297567,0.3715345,1.002079,-0.2576449
1.458972,0.08310625,-0.2551006,0.4612067,0.1123165,0.03899143,0.3924586,0.7329404,-0.262671
1.337793,0.1788735,-0.2460231,0.3411666,0.2088013,0.04857194,0.4115152,0.4902902,-0.2164556
1.223862,0.2014443,-0.3053774,0.2282791,0.2320969,-0.01028836,0.2131949,0.3824374,-0.1691341
1.127829,0.1891251,-0.2981586,0.1331848,0.2204965,-0.002586103,-0.01604085,0.3185902,-0.1746072
0.9527251,0.09516013,-0.2891608,-0.04108992,0.127232,0.006883932,-0.03458623,0.3530248,-0.05335638
0.6648422,-0.02161632,-0.2960452,-0.3282487,0.01112872,0.0004600282,0.1769343,0.1032812,0.08570893
0.6411109,-0.02833499,-0.2637729,-0.3513465,0.005051936,0.0331803,0.4387852,-0.1367798,0.1535489
0.6784573,-0.0322047,-0.1916359,-0.3134371,0.001792206,0.1057511,0.5657335,-0.1014034,0.1534763
0.5050322,-0.09375371,-0.1037788,-0.4863479,-0.05917791,0.1940238,0.6737685,-0.2909495,0.08147531
0.5291984,-0.08056435,-0.1009205,-0.4616932,-0.04543869,0.1972722,0.7679344,-0.4213975,0.0862462
0.6809029,-0.02259718,-0.1418387,-0.3095032,0.01305182,0.1567102,0.8054609,-0.3461397,0.07459062
0.7610007,-0.01370761,-0.1093761,-0.2289043,0.02243957,0.1894875,0.8745073,-0.2336078,0.07251986
0.8883895,0.005198546,-0.1305882,-0.1009874,0.04181856,0.1685412,0.9074743,0.1015709,0.1527961
0.8419841,0.02763288,-0.2313187,-0.1468318,0.06469917,0.06802244,0.7703151,0.3978935,0.1516635
0.7028217,0.08364539,-0.2876072,-0.285396,0.1211291,0.01188903,0.454237,0.5071003,0.06452376
0.6802383,0.2030806,-0.252738,-0.3073375,0.2409484,0.04685729,0.1234817,0.3831229,-0.09887322
0.6135702,0.2530388,-0.1351898,-0.3733099,0.2912496,0.1644498,-0.1067679,-0.03937267,-0.1372392
0.6221736,0.2692586,-0.09378287,-0.3639455,0.30776,0.2058445,-0.1781942,-0.5450521,0.06263215
0.712627,0.2494478,-0.1693485,-0.2726547,0.2881756,0.1302061,-0.08825162,-0.8093633,0.2526706
0.7848744,0.09068347,-0.2823695,-0.1994854,0.1295632,0.01704869,0.008624196,-0.5348344,0.3157168
0.9183856,-0.1171865,-0.4054413,-0.06496425,-0.07823394,-0.1062218,0.06645345,-0.3341116,0.1583671
1.010909,-0.3271228,-0.4098785,0.02865419,-0.2881718,-0.1109132,-0.0207136,-0.5039695,-0.07064409
1.200677,-0.4130258,-0.3347215,0.2195941,-0.3741369,-0.0360568,-0.1880009,-0.455219,-0.1763545
1.508336,-0.3016633,-0.3165329,0.5284853,-0.2628773,-0.01820741,-0.1169946,-0.3597812,-0.251116
1.702903,-0.1840058,-0.3531347,0.7243184,-0.1453451,-0.05518124,0.006948561,-0.1767293,-0.2436373
1.825132,-0.1201817,-0.4055177,0.8478086,-0.08165602,-0.1079633,0.06331465,0.1731768,-0.2150633
1.793542,-0.1663998,-0.3931572,0.817434,-0.1280107,-0.096022,0.1881641,0.1485423,-0.2038331
1.655175,-0.2782794,-0.3602761,0.6801943,-0.2400216,-0.0635727,0.2539499,0.1083343,-0.1357766
1.518364,-0.268685,-0.3243795,0.5443891,-0.230544,-0.0281147,0.4175134,0.3070299,-0.160912
1.298919,-0.2500989,-0.2440576,0.3258035,-0.2120495,0.05176572,0.6988531,0.3434061,-0.1957001
1.110348,-0.2270075,-0.2207208,0.1379299,-0.1890151,0.074659,0.7910769,0.3780381,-0.1363015
0.94661,-0.09998753,-0.2045373,-0.02527397,-0.06200988,0.09039549,0.7827275,0.4007889,-0.1152556
0.7919413,-0.02444093,-0.1357084,-0.1795647,0.01356715,0.1587708,0.7191628,0.2438481,-0.08520216
0.7021767,0.0009959525,-0.1056259,-0.2690922,0.03907823,0.1883881,0.5540733,0.1161495,-0.01675106
0.6065069,0.01892593,-0.09294364,-0.3646452,0.0571218,0.2005875,0.3903257,0.01823082,0.003361671
0.5755804,-0.02153304,-0.07466335,-0.3955509,0.01681057,0.2183596,0.2806951,-0.06234928,-0.05554325
0.5838378,-0.05265189,-0.0691952,-0.3873426,-0.01413084,0.2232868,0.2794637,-0.1346106,-0.1880335
0.5818204,-0.07089177,-0.05537859,-0.3894539,-0.03216645,0.2365222,0.3046579,-0.2078583,-0.3391121
0.623569,-0.08381004,-0.04016932,-0.3478207,-0.04485505,0.2511026,0.3148112,-0.1467432,-0.4702265
0.6486863,-0.08163758,-0.02531659,-0.3228194,-0.04242814,0.2652713,0.3619804,-0.1410158,-0.5597299
0.6835524,-0.09767232,-0.005264584,-0.2880523,-0.05818387,0.2845767,0.4422059,-0.2283983,-0.5769415
0.7438164,-0.09528176,-0.003499857,-0.2278558,-0.05548969,0.2855247,0.5751659,-0.234906,-0.5239024
0.8220909,-0.06789869,-0.03213273,-0.1496062,-0.02777837,0.255998,0.6183119,-0.183455,-0.430535
0.9241067,-0.03338831,-0.07356104,-0.04756644,0.007084168,0.213593,0.565419,0.01238446,-0.3280882
0.9218118,-0.0060519,-0.09996535,-0.04978642,0.03479446,0.1861258,0.5657013,0.2451149,-0.2275265
0.8694614,0.004754165,-0.1002489,-0.1020112,0.04599261,0.1846916,0.5687198,0.2933496,-0.1944669
0.8837167,0.02397954,-0.08291694,-0.08758014,0.06562383,0.200785,0.6172558,-0.02218005,-0.211858
0.9339713,0.005029237,-0.09915193,-0.0370992,0.04708836,0.1832233,0.7131396,-0.7806754,-0.1219038
1.112856,-0.07670768,-0.2833328,0.1420602,-0.0342288,-0.002370902,0.7323178,-1.301056,0.02381772
1.415936,-0.165743,-0.614052,0.4454546,-0.1228408,-0.3345824,0.7207931,-0.8777587,0.0498681
1.637631,-0.162078,-0.7644442,0.667484,-0.1187469,-0.4865279,0.6911797,0.09135675,-0.05161299
1.70431,0.001412896,-0.6492086,0.734489,0.04518155,-0.3728794,0.5577051,0.6759804,-0.1501077
1.634753,0.2021535,-0.5540608,0.6652137,0.2463672,-0.2793251,0.3296971,0.5077919,-0.1070305
1.490902,0.2824854,-0.4798578,0.5215691,0.3271428,-0.2067001,0.1433865,0.05785949,0.06277897
1.373521,0.2137474,-0.3698718,0.4042934,0.258833,-0.09826089,0.1067112,-0.04793426,0.2432658
1.267525,0.1048457,-0.392818,0.2982833,0.1503301,-0.1227124,0.02369153,0.100965,0.2774499
1.169179,0.01994384,-0.3819471,0.1997955,0.06578826,-0.1132977,-0.2109526,0.1474955,0.1701031
1.060497,-0.06498983,-0.2594262,0.09084154,-0.01882818,0.007821663,-0.2257662,0.1279967,0.1554121
0.8797681,-0.05547847,-0.2559708,-0.0902885,-0.009041893,0.00993277,-0.0234567,0.08413022,0.2133634
0.7220371,-0.01771935,-0.2563272,-0.2485373,0.02895206,0.00828914,0.08838178,0.1257083,0.2347448
0.5996066,-0.03581164,-0.2029045,-0.3715845,0.01105648,0.06048036,0.221595,0.1608341,0.2614358
0.4934897,0.002003795,-0.161467,-0.4783926,0.04903167,0.1007394,0.3012475,-0.007377139,0.2475122
0.484554,0.01572366,-0.07309137,-0.4880652,0.06287484,0.1879845,0.3019261,-0.2131222,0.2397466
0.5104727,-0.007210591,-0.04685961,-0.4628998,0.04002725,0.213126,0.4314113,-0.4899252,0.2611701
0.5875902,-0.0009765537,-0.05920671,-0.3865249,0.04631114,0.1997193,0.5245653,-0.6004885,0.2593756
0.7311521,0.001644048,-0.09179959,-0.2436723,0.0489449,0.1660877,0.553353,-0.3670717,0.2816791
0.7873815,0.06483767,-0.2264922,-0.1881031,0.1121148,0.03037007,0.5182582,-0.01217665,0.2583785
0.7531926,0.1574573,-0.3101897,-0.2228923,0.2046719,-0.05434162,0.2831009,0.5024267,0.1748912
0.7125127,0.2361509,-0.2920815,-0.2641045,0.2832587,-0.03723533,-0.07562041,0.7084886,0.1150813
0.6925642,0.2657046,-0.2124021,-0.284508,0.3126529,0.04145765,-0.4211246,0.4569463,0.09464539
0.7039616,0.2019859,-0.1407102,-0.2734789,0.2487116,0.1121799,-0.4866107,0.2020898,0.1223912
0.7494542,0.09765247,-0.1966091,-0.2282593,0.1440841,0.05532626,-0.3851392,-0.2242879,0.1300096
0.8114524,-0.1012497,-0.2860001,-0.1664322,-0.05518688,-0.03500628,-0.4125397,-0.5545729,0.136417
0.928514,-0.2988343,-0.3244119,-0.04943727,-0.2532102,-0.07434527,-0.4092014,-0.3172039,0.1618143
1.19749,-0.3146811,-0.3425336,0.2195741,-0.2695527,-0.0933762,-0.4195883,-0.1318812,0.09138055
1.502384,-0.2358247,-0.3750623,0.5245912,-0.1912317,-0.1267905,-0.5678144,-0.3207497,-0.04709906
1.631994,-0.1802869,-0.4379377,0.6543878,-0.1362532,-0.1905213,-0.7411123,-0.3389713,-0.1391588
1.638777,-0.1662918,-0.5220785,0.6613867,-0.1228292,-0.2754786,-0.8205691,-0.2174271,-0.08233205
1.701346,-0.1378523,-0.6263111,0.7241654,-0.09496346,-0.380477,-0.7638647,0.06213383,0.09490524
1.694224,-0.137706,-0.5990953,0.7172106,-0.09538585,-0.3539618,-0.7231853,0.6678652,0.2319569
1.466303,-0.2235699,-0.4035499,0.4893814,-0.1818067,-0.1590376,-0.6742607,0.7747034,0.2611237
1.309643,-0.2622152,-0.2822846,0.3327139,-0.220989,-0.0383055,-0.574239,0.3680045,0.1699854
1.316292,-0.2123347,-0.266286,0.3392396,-0.1716162,-0.02275079,-0.5769742,0.2581372,0.1177601
1.252231,-0.1166571,-0.2384452,0.2749301,-0.0764083,0.004732375,-0.6226158,0.3400963,0.1997169
1.153541,-0.0160197,-0.2266302,0.1758627,0.02380187,0.01627123,-0.6889209,0.464772,0.2680403
1.077237,0.0400281,-0.2576788,0.09904954,0.07946472,-0.01497741,-0.8897582,0.5636519,0.3461693
0.9190337,0.1089562,-0.2746392,-0.05979051,0.1480456,-0.03206663,-1.185722,0.5011229,0.428494
0.7361715,0.1445095,-0.2611107,-0.2434053,0.1832819,-0.01859951,-1.399336,0.3885613,0.4589387
0.6674466,0.0691644,-0.2729682,-0.3129814,0.1076411,-0.03045453,-1.411397,0.2491185,0.4803476
0.5809079,-0.023328,-0.2664046,-0.4004466,0.0148669,-0.02382771,-1.337376,0.1642063,0.4253376
0.4862459,-0.08876358,-0.2061563,-0.496084,-0.05084012,0.03654068,-1.276752,0.105851,0.3225231
0.5530797,-0.1206898,-0.132902,-0.430246,-0.08302686,0.1099668,-1.241518,-0.04186403,0.1995575
0.6024327,-0.09326716,-0.0696683,-0.3818819,-0.05585103,0.173416,-1.269006,-0.1790173,0.04941612
0.6774495,-0.06590496,-0.08104405,-0.3078241,-0.02871907,0.162289,-1.278585,-0.1876601,-0.006315525
0.8359207,-0.0673626,-0.1006553,-0.1502645,-0.03038856,0.1429484,-1.211578,-0.01440582,0.02237919
0.8744481,-0.07970893,-0.08707002,-0.1125902,-0.04292734,0.1568159,-1.078913,0.236009,0.08948596
0.8949715,-0.1176863,-0.1062255,-0.09285553,-0.08107651,0.1379449,-0.8757795,0.3706346,0.1800813
0.8716526,-0.1491256,-0.08051138,-0.1168956,-0.1126647,0.1639372,-0.6915839,0.3265211,0.199929
0.8002416,-0.1594799,-0.0324291,-0.1889573,-0.1231414,0.2122826,-0.5739,0.2353133,0.1094716
0.8231325,-0.1634256,-0.01680469,-0.1666422,-0.1271786,0.228146,-0.450313,0.09346237,-0.00165543
0.8204601,-0.1184139,-0.01951975,-0.1698106,-0.08222349,0.2256357,-0.2540712,-0.408541,0.01082914
0.8461963,-0.07019227,-0.1286904,-0.1444866,-0.03402077,0.1166268,-0.03047202,-1.165839,0.1789329
0.9958719,-0.09558123,-0.4103896,0.004862893,-0.05939029,-0.1649582,0.003111137,-1.381613,0.3901276
1.284723,-0.1568565,-0.7836243,0.2934709,-0.1206075,-0.53812,-0.1974236,-0.5075103,0.3959019
1.660739,-0.204448,-0.8992158,0.6693116,-0.1681003,-0.6536602,-0.3246005,0.7892786,0.09516267
1.770435,-0.1740044,-0.6401375,0.7788719,-0.137514,-0.3945239,-0.246124,1.293537,-0.1769304
1.530239,-0.003044882,-0.4081453,0.5385448,0.03363526,-0.1624429,-0.2123514,0.7215645,-0.1205069
1.259268,0.2241375,-0.3905836,0.2674149,0.2610519,-0.1447483,-0.4064095,-0.1657343,0.1632414
1.200981,0.3033466,-0.4934013,0.2089227,0.3405289,-0.2473824,-0.8068834,-0.5157108,0.376699
1.311907,0.2221187,-0.5775208,0.3195848,0.2595857,-0.3312609,-1.289177,-0.1714396,0.3700871
1.355099,0.1683429,-0.4930016,0.3624465,0.2060949,-0.2464345,-1.505645,0.2934524,0.3076293
1.245783,0.09896958,-0.356753,0.2527225,0.1369941,-0.1098045,-1.372083,0.3005728,0.3333563
1.063641,-0.02340413,-0.2860627,0.07008697,0.01487191,-0.03865602,-1.256623,0.1795652,0.3397115
0.8916371,-0.01596764,-0.2483435,-0.1024953,0.02253549,-0.0004040538,-1.168082,0.2293589,0.2857843
0.7673008,0.04437779,-0.2497506,-0.2274878,0.08308256,-0.001209322,-1.073883,0.01949545,0.2526182
0.7071686,0.04767911,-0.2215988,-0.2883383,0.08655867,0.02760701,-1.095572,-0.1455903,0.2213286
0.7038908,0.050503,-0.193741,-0.2923774,0.08952796,0.05618463,-0.9835543,-0.1021518,0.2663237
0.7210683,-0.005534247,-0.2063105,-0.2759847,0.0336043,0.04438236,-0.7950199,-0.08746867,0.3648638
0.7561628,-0.07042842,-0.1444566,-0.2416801,-0.03120883,0.1070426,-0.664824,0.2143919,0.3110427
0.75957,-0.07207834,-0.08371039,-0.239052,-0.03280852,0.1686249,-0.4481133,0.4211192,0.1792525
0.7344178,-0.0491114,-0.08698705,-0.2649583,-0.00981901,0.1662028,-0.3094813,0.3773887,0.02419477
0.7211069,0.01683194,-0.09743097,-0.2789849,0.05612189,0.1566201,-0.2475973,0.3852476,-0.07557528
0.6977479,0.08746421,-0.1382387,-0.3030082,0.126727,0.1166693,-0.2179534,0.3353567,0.01242502
0.7279978,0.1271364,-0.1602452,-0.273358,0.1663447,0.09550644,-0.2643166,0.4171891,0.0421058
0.7906746,0.1349008,-0.1644312,-0.2112054,0.1740221,0.09214373,-0.213305,0.4997914,0.0002778081
0.8114225,0.1166114,-0.1632706,-0.1908975,0.1556076,0.09410156,-0.1582697,0.4997825,-0.02506791
0.8121241,0.1104835,-0.1383417,-0.1905459,0.149311,0.1197963,-0.1145228,0.4852482,-0.1617286
0.7934458,0.1174139,-0.1591426,-0.2094797,0.1560247,0.09972457,-0.03094421,0.300114,-0.2212127
0.7750057,0.1262973,-0.1981693,-0.2280763,0.1646397,0.061386,-0.02830424,0.02202818,-0.1223159
0.7212446,0.0618862,-0.3003666,-0.2818905,0.09990503,-0.04016703,-0.05460212,-0.5124113,0.0351389
0.6828824,-0.1309796,-0.4671875,-0.3201961,-0.09334013,-0.2063856,-0.2272799,-0.9257076,0.1933417
0.8906562,-0.3809363,-0.4807528,-0.1122506,-0.3437259,-0.2193834,-0.4727787,-0.8379469,0.1182154
1.340264,-0.4921361,-0.4293106,0.3376435,-0.4553889,-0.1673979,-0.5360032,-0.7074297,-0.1391658
1.756049,-0.3447742,-0.4894886,0.7538131,-0.3085025,-0.2270464,-0.5571894,-0.3207236,-0.3024596
1.889246,-0.1736109,-0.5213758,0.8874576,-0.1378068,-0.2584075,-0.4117457,0.2227185,-0.2733038
1.747929,-0.1355808,-0.4922441,0.746608,-0.1002238,-0.2287424,-0.09237335,0.1256115,-0.03471466
1.59451,-0.1910561,-0.4804884,0.5936331,-0.1561182,-0.2164357,-0.08312945,-0.0800972,0.1197184
1.526054,-0.3058463,-0.4277571,0.5255626,-0.2712926,-0.1631273,-0.1840101,0.1961419,-0.04716254
1.414348,-0.3009013,-0.3381671,0.4141571,-0.2666879,-0.07292813,-0.07183597,0.3475126,-0.1857307
1.22187,-0.1899025,-0.2638211,0.2218784,-0.1559753,0.002060978,-0.02556036,0.4059819,-0.07415457
0.9726228,-0.08061392,-0.1982177,-0.02728173,-0.04691188,0.06833915,0.05161421,0.4952214,0.07284272
0.752175,0.03417013,-0.1512618,-0.24775,0.06770964,0.1159957,0.1542746,0.3134996,0.2017858
0.6178211,0.05815712,-0.1150446,-0.3822184,0.09159259,0.1529311,-0.01523295,0.2597314,0.3173336
0.4896214,0.05573345,-0.09042263,-0.5106035,0.08911601,0.1782788,-0.2031507,0.1104269,0.2822891
0.4238689,0.06131078,-0.07809721,-0.5765841,0.09468349,0.1913265,-0.3212661,-0.2482582,0.2052348
0.4286693,0.00869825,-0.06710586,-0.5720238,0.04209662,0.2030256,-0.4000345,-0.2979666,0.1474421
0.4201193,-0.02784677,-0.07054539,-0.5807948,0.005606877,0.2002682,-0.3371392,-0.3536908,-0.02511796
0.4568668,-0.09506568,-0.05066782,-0.5442206,-0.06153059,0.2207918,-0.3022661,-0.3004659,-0.1831977
0.4961289,-0.1632996,-0.006967613,-0.5050583,-0.1296573,0.2650918,-0.2046571,-0.2001426,-0.3249108
0.5719389,-0.1720881,0.02603227,-0.429253,-0.1383106,0.2986342,-0.03282135,-0.4675825,-0.5393889
0.7777767,-0.1929636,0.04407238,-0.2233085,-0.1590186,0.3171478,0.03665942,-0.7351347,-0.674544
0.9901234,-0.1581706,-0.001304752,-0.01073604,-0.1240211,0.2721636,0.1133284,-0.8884475,-0.695435
1.134214,-0.07311555,-0.1109981,0.1336959,-0.03872142,0.1627729,0.2506165,-0.5899951,-0.6360003
1.218573,-0.01102175,-0.2195424,0.2185019,0.02365776,0.05443596,0.5252144,0.1751517,-0.5884142
1.215874,-0.005320868,-0.247777,0.2163358,0.02968188,0.02631356,0.8319544,0.6192852,-0.5659699
1.067161,-0.09725075,-0.1893155,0.06822698,-0.06189093,0.08479559,0.9518575,0.4180054,-0.4646563
0.8734442,-0.1884485,-0.1731661,-0.1248294,-0.1526998,0.1008773,1.046491,-0.3013138,-0.3185447
0.855572,-0.1946265,-0.2610237,-0.1419893,-0.1584553,0.01286656,1.102208,-0.9990356,-0.1650124
1.091328,-0.1095355,-0.4543837,0.09452906,-0.07290519,-0.180727,0.907556,-1.172009,-0.1670982
1.52224,-0.001865309,-0.6894438,0.5262463,0.0352623,-0.4160894,0.650203,-0.4053832,-0.2734329
1.81514,0.02204906,-0.7336609,0.8199726,0.05970925,-0.4606572,0.6429086,0.8582181,-0.2354478
1.752228,0.009997785,-0.5685834,0.7578727,0.04822017,-0.2959542,0.7602539,1.425231,-0.1365346
1.501908,-0.008339827,-0.3921162,0.5083126,0.03046817,-0.1198646,0.7632342,1.328713,-0.05359904
1.194056,-0.05457799,-0.2318986,0.2011376,-0.01516608,0.03998438,0.7379458,0.5310408,-0.1542985
1.015397,-0.0778456,-0.1599305,0.02305951,-0.03781482,0.111596,0.7099564,-0.6697757,-0.3572839
1.038327,-0.06491491,-0.2570558,0.04647068,-0.02425211,0.01412414,0.692831,-0.9242482,-0.2888659
1.036593,-0.04374622,-0.3643894,0.04512222,-0.002439597,-0.09354804,0.8058187,-0.4966458,-0.1438843
0.9560194,-0.0197363,-0.393415,-0.03515848,0.02222393,-0.1229022,0.9493105,-0.1062886,-0.0141938
0.8746302,0.01082028,-0.3301949,-0.1163404,0.05344083,-0.05999583,0.9917296,0.3716877,0.1140681
0.7594095,0.02430805,-0.1711739,-0.2314299,0.06759145,0.0987293,0.9513939,0.5507383,0.04729281
0.6222144,0.01980022,-0.0570095,-0.3685553,0.06374411,0.212614,0.9334455,0.1865424,0.006083898
0.5225382,0.01213164,-0.01069645,-0.4682038,0.05672877,0.2586558,0.9492038,-0.1380222,0.008520438
0.4745006,-0.005676507,0.01477067,-0.5162316,0.03956233,0.2838486,0.9497374,-0.2353623,-0.03405563
0.5139338,0.006846019,-0.00319153,-0.4767807,0.0527115,0.2655965,1.005242,-0.3019312,0.03253498
0.6210553,0.06703444,-0.05526529,-0.3696095,0.113508,0.2132054,1.030957,-0.2070018,0.07895128
0.7337769,0.1381929,-0.1728384,-0.2567876,0.1852509,0.09527868,0.9225749,-0.2254154,0.107977
0.8087765,0.1665616,-0.2694452,-0.1816244,0.2141732,-0.001722009,0.7090124,-0.2470433,0.1358714
0.8280223,0.13364,-0.2517274,-0.1621449,0.1817653,0.01556238,0.4222494,0.05540483,0.01973551
0.8670377,0.1115107,-0.2253138,-0.1228224,0.1601014,0.0415058,0.263342,0.2564352,-0.1200658
0.8661673,0.08493852,-0.1951012,-0.123311,0.1339398,0.07121397,0.2725309,0.3289962,-0.2067681
0.7990737,0.02712123,-0.1435163,-0.1899474,0.0764736,0.1222608,0.292561,0.2210228,-0.2206442
0.790032,-0.01602953,-0.1518558,-0.1984552,0.03361262,0.1133491,0.3833492,-0.1037209,-0.1706107
0.8045844,-0.1137528,-0.2140538,-0.1832897,-0.0638812,0.05054319,0.5009059,-0.5332091,-0.1402797
0.9655678,-0.2549506,-0.2981129,-0.02161258,-0.2049046,-0.03415887,0.447546,-0.9962673,-0.1106546
1.3773,-0.2983602,-0.3879332,0.390889,-0.2481848,-0.1246532,0.314103,-0.9391434,-0.1264892
1.800076,-0.2283859,-0.4398926,0.8144906,-0.1781129,-0.1773096,0.2806613,-0.5492464,-0.198708
1.980053,-0.1749089,-0.4295655,0.9953142,-0.1245576,-0.1676919,0.3484701,0.0766275,-0.278835
1.80435,-0.2297262,-0.3847606,0.8204315,-0.1793062,-0.1235976,0.5218007,0.7834225,-0.3160058
1.566723,-0.2624794,-0.3307736,0.5835546,-0.2119912,-0.07031313,0.6946369,0.6603233,-0.2554575
1.437268,-0.2141157,-0.2603405,0.4547458,-0.1635508,-0.0005683163,0.7428793,0.3480095,-0.2213608
1.216506,-0.1924286,-0.2013237,0.234505,-0.1417698,0.05777705,0.7633868,0.3139583,-0.2215366
1.106708,-0.1597957,-0.183851,0.125093,-0.1090193,0.07459475,0.7284083,0.1449523,-0.173383
1.073585,-0.108873,-0.1729077,0.09221809,-0.05795118,0.08489693,0.6433704,0.2585319,-0.1428976
0.8124536,-0.06841323,-0.1351136,-0.1687967,-0.01731629,0.1220602,0.6547576,0.3826329,-0.08377585
0.5741148,-0.002270229,-0.08880091,-0.407139,0.04903079,0.1677479,0.6763035,0.1948249,0.01340289
0.5212972,0.00690303,-0.05586572,-0.4600578,0.05843377,0.2000577,0.6666176,0.02614402,0.02789313
0.5260632,-0.03531052,-0.03018657,-0.4554623,0.01647103,0.2251034,0.6762301,-0.2564802,-0.03047026
0.4769769,-0.0451327,0.00441329,-0.5047595,0.006916703,0.2590532,0.6428081,-0.5250488,-0.1234724
0.4486776,-0.06877748,0.01345951,-0.5332813,-0.01644586,0.2674233,0.551665,-0.536918,-0.2963108
0.579413,-0.07167079,-0.03048871,-0.4027533,-0.01904421,0.2227635,0.4206294,-0.4701006,-0.4903251
0.6842884,-0.03063977,-0.05872944,-0.2980472,0.02229327,0.1937679,0.303569,-0.3901988,-0.5834485
0.7687347,-0.03315969,-0.06124324,-0.2137161,0.02008957,0.1904502,0.275651,-0.3148564,-0.597674
0.8481605,-0.05294144,-0.05873566,-0.1343415,0.0006315087,0.1921004,0.3415707,-0.1999692,-0.5363375
0.8688411,-0.08445884,-0.04066212,-0.1136434,-0.03055651,0.2092593,0.4997169,0.02088858,-0.4136672
0.9612586,-0.1421223,-0.06072339,-0.02113829,-0.08788518,0.1882227,0.7123329,0.2246905,-0.3652003
0.9127337,-0.149183,-0.07858153,-0.06950689,-0.09460415,0.1693254,0.919604,0.2585784,-0.3765682
0.8616928,-0.1390337,-0.06191453,-0.120325,-0.08410323,0.1848876,1.142201,-0.1445433,-0.3576699
0.9825452,-0.150343,-0.107626,0.000814881,-0.09504816,0.1380045,1.296964,-0.8607459,-0.2510973
1.056082,-0.1426269,-0.3057437,0.07470101,-0.08695219,-0.06135065,1.182399,-1.134916,-0.03600251
1.289499,-0.09977959,-0.6533279,0.3085212,-0.04370737,-0.4102299,0.8720392,-0.6772532,0.06324064
1.503667,-0.03498048,-0.8096998,0.523129,0.02150758,-0.5679348,0.6600186,0.2151534,-0.1155566
1.574197,0.004258259,-0.6091868,0.594113,0.0611786,-0.3687647,0.6965557,0.9947579,-0.3285797
1.729521,0.05079005,-0.437421,0.7498736,0.1081547,-0.1983253,0.843123,0.9009431,-0.3566517
1.548496,0.07766484,-0.3473545,0.5692353,0.1354795,-0.1095508,0.8624743,0.167193,-0.3182081
1.1571,0.02633258,-0.2125072,0.178148,0.08459555,0.02404806,0.8350467,-0.2153029,-0.303312
1.099409,0.01836558,-0.2329019,0.1206719,0.07706869,0.002451734,0.8346851,-0.2020463,-0.2698492
1.081807,0.04082259,-0.2754992,0.1031863,0.09995237,-0.04130014,0.7820173,-0.08994782,-0.2570282
0.8979383,0.03312146,-0.1868437,-0.08066009,0.0926597,0.04624802,0.7919114,0.02542071,-0.2245577
0.83595,0.05472644,-0.1930881,-0.1427156,0.1146502,0.03894253,0.8206382,-0.01753631,-0.09848665
0.8132297,0.06574443,-0.2198727,-0.1655807,0.1260258,0.0111414,0.818784,-0.06191778,0.05406371
0.6280399,0.07974571,-0.1775927,-0.3509782,0.1403517,0.05244726,0.8316271,-0.2290629,0.1705073
0.5426712,0.09957435,-0.1869716,-0.4365985,0.1604667,0.04213456,0.7946266,-0.5240574,0.2192504
0.6047813,0.06418583,-0.1749696,-0.3747614,0.1253206,0.05324028,0.8083117,-0.568103,0.2194827
0.6551322,0.03197381,-0.1645561,-0.3246825,0.09330274,0.06279238,0.8169469,-0.3956572,0.1984522
0.794874,0.01866857,-0.1711542,-0.1851934,0.08014047,0.0553645,0.773799,0.07339817,0.1117337
0.9069649,0.02964717,-0.1459471,-0.07332396,0.09120947,0.07977043,0.741333,0.6310634,0.01653229
0.8541962,0.1027273,-0.2014207,-0.1262766,0.164326,0.02352117,0.538516,0.7950096,0.01914225
0.7454372,0.1941551,-0.2638481,-0.2351777,0.2557329,-0.0396582,0.1938335,0.6023137,0.08870931
0.5999153,0.2373931,-0.2425407,-0.3807925,0.2988863,-0.0190789,-0.1079309,0.2390175,0.1629951
0.5206981,0.1984577,-0.1974946,-0.460041,0.259794,0.02526412,-0.196163,-0.1438924,0.2259594
0.6047005,0.1466363,-0.1438437,-0.3759926,0.2077352,0.07823669,-0.1125125,-0.4214788,0.2438443
0.7170026,0.08476302,-0.1432522,-0.2635525,0.1455388,0.07817232,-0.06501056,-0.3645399,0.2053147
0.8420802,-0.1045815,-0.2147144,-0.1382357,-0.04421602,0.006073656,0.09127639,-0.3526968,0.153225
1.004042,-0.3519204,-0.3237063,0.02406836,-0.292046,-0.1035366,0.220335,-0.6169665,0.09855255
1.17975,-0.4288042,-0.4091934,0.200216,-0.3694868,-0.1896207,0.1190169,-0.5024509,0.02741855
1.449986,-0.3033607,-0.4019832,0.4709743,-0.244645,-0.1829795,0.05306319,-0.3095398,-0.06100451
1.665003,-0.2079711,-0.3822951,0.6865718,-0.1498824,-0.1638238,0.06237012,-0.1586558,-0.1414126
1.711494,-0.1934429,-0.3960022,0.7336662,-0.1359918,-0.1780189,0.1996257,0.1674928,-0.1634084
1.703782,-0.2038431,-0.3837372,0.7265422,-0.1470299,-0.1661904,0.4551769,0.1527769,-0.1559961
1.606639,-0.2814727,-0.366602,0.6299347,-0.2252878,-0.1494341,0.5520508,0.2161361,-0.1951481
1.47642,-0.2643003,-0.3416921,0.5001672,-0.2087237,-0.1248406,0.6373739,0.4163589,-0.2890698
1.304976,-0.1790464,-0.2527182,0.3290672,-0.1240478,-0.03611771,0.7440208,0.2383489,-0.3419103
1.038189,-0.1368095,-0.1799446,0.06250226,-0.08235076,0.03647016,0.6695553,0.097348,-0.2552886
0.8835102,-0.03534561,-0.1850367,-0.09207894,0.01861541,0.03125387,0.6455954,0.05936798,-0.1279256
0.82381,-0.0002700513,-0.1686885,-0.1517966,0.05323526,0.04753388,0.646044,-0.03101604,-0.07134915
0.7833791,-0.00149671,-0.1268165,-0.1923464,0.05159197,0.08938764,0.4647569,-0.1337022,-0.0531807
0.7884698,0.03672787,-0.1134198,-0.1874602,0.08943456,0.1028088,0.3012523,-0.2463443,-0.05689452
0.7538918,0.002359509,-0.09907542,-0.2223115,0.05471397,0.1172125,0.1825455,-0.2560881,-0.06650887
0.7120801,-0.0129749,-0.1109437,-0.2644486,0.03905251,0.1054302,0.09929514,-0.237621,-0.07838983
0.6628291,-0.03301071,-0.137484,-0.31406,0.01871137,0.07899472,0.1048966,-0.1426758,-0.1038608
0.6115341,-0.06017255,-0.1144734,-0.3657317,-0.008736209,0.1021225,0.06149494,0.02241565,-0.169577
0.6203196,-0.04244577,-0.09187174,-0.35732,0.008723268,0.1248474,0.02588569,0.03122495,-0.3177136
0.6320788,-0.06897153,-0.07923101,-0.3459125,-0.01805197,0.1376109,0.007027677,-0.08089224,-0.4366558
0.6840013,-0.09794601,-0.04477325,-0.2943024,-0.04725817,0.1721839,-0.0132271,-0.1945094,-0.4230615
0.7704305,-0.1293333,-0.02673366,-0.2081322,-0.07885836,0.1903232,0.1252373,-0.2345541,-0.3238434
0.7855756,-0.1317316,-0.03542788,-0.1931827,-0.0814484,0.1817051,0.3240196,-0.168226,-0.211802
0.7864386,-0.09111466,-0.08498962,-0.1924452,-0.04099951,0.1321882,0.454608,-0.1062317,-0.1852161
0.842003,-0.1018681,-0.1567809,-0.136931,-0.05189522,0.06040485,0.5446983,-0.1722509,-0.2267153
0.9001416,-0.09906454,-0.199795,-0.07876475,-0.04920706,0.0173595,0.6025894,-0.4118,-0.2071978
1.029861,-0.09281189,-0.3035419,0.05105998,-0.04304204,-0.08645665,0.5826918,-0.8219942,-0.1057373
1.425988,-0.1013918,-0.589893,0.4473615,-0.0516812,-0.3729088,0.4243205,-0.9385652,-0.02654171
1.805594,-0.06919185,-0.8392035,0.8271923,-0.0195116,-0.6223368,0.255984,-0.08567549,-0.09247755
1.795003,-0.007140183,-0.7300833,0.8168423,0.04253785,-0.5133258,0.1878874,1.078891,-0.2225763
1.770368,0.1023752,-0.536068,0.792421,0.1520761,-0.3193853,0.166512,1.23835,-0.2393388
1.751871,0.1432896,-0.4487708,0.7740712,0.1930315,-0.2321091,0.1655067,0.586447,-0.1960018
1.408332,0.08303938,-0.268341,0.4305796,0.1328315,-0.05163614,0.171014,0.07232744,-0.1813821
1.242935,0.06273034,-0.2650963,0.2651069,0.1125728,-0.04828102,0.1255758,-0.06273232,-0.1831162
1.265654,0.04228709,-0.3583174,0.2876162,0.09217335,-0.1413251,0.00906339,0.08322832,-0.1886114
1.082849,0.02155476,-0.2252815,0.1044618,0.07147339,-0.008047091,-0.05193006,0.2590287,-0.1467038
0.9780708,0.04042913,-0.1932678,-0.0008011292,0.09036493,0.02427153,0.04737839,0.2185013,-0.05161699
0.8088889,0.01856529,-0.1969048,-0.1705963,0.06849998,0.02099746,0.2459755,0.09609256,0.06658544
0.5762428,-0.02253692,-0.1341613,-0.4039674,0.02737597,0.08415517,0.4176344,-0.1285179,0.1499615
0.5648814,-0.05628166,-0.177317,-0.4161419,-0.006412084,0.04145775,0.543952,-0.4874498,0.1576
0.529634,-0.08670745,-0.1619388,-0.4522617,-0.03690164,0.0573308,0.666548,-0.6776931,0.1711027
0.5810378,-0.07711624,-0.1878279,-0.401761,-0.02739213,0.03196655,0.7093118,-0.5727267,0.1516519
0.7173072,-0.06285149,-0.2386738,-0.2663999,-0.01322414,-0.01832999,0.6959765,-0.1471047,0.07194386
0.7815956,-0.02783391,-0.1835019,-0.2030048,0.02168388,0.03741146,0.6548414,0.4156782,0.03409337
0.8947615,0.07140186,-0.1827164,-0.09070361,0.1207977,0.03878307,0.511681,0.7323631,0.02233618
0.8723065,0.1745383,-0.1786607,-0.1139864,0.223797,0.04343687,0.2927675,0.7224314,0.07034153
0.7617295,0.2442824,-0.2098433,-0.2253478,0.2933815,0.01285995,-0.04900543,0.5373636,0.1830999
0.6558315,0.2620796,-0.2598683,-0.3319786,0.3109859,-0.03655503,-0.4039,0.290379,0.2661619
0.5706465,0.222529,-0.1787029,-0.4178324,0.2711975,0.04522244,-0.5198831,-0.02460366,0.3132994
0.6710313,0.1654258,-0.09815956,-0.3180371,0.2138006,0.1263772,-0.5146507,-0.1509319,0.2970521
0.7633426,0.09219301,-0.07965695,-0.2262223,0.140211,0.1454849,-0.5189636,-0.005168112,0.2045154
0.8077179,0.008891242,-0.1100932,-0.1822415,0.0564858,0.1156398,-0.4086958,0.09981807,0.04248874
0.8413836,-0.06338845,-0.1557003,-0.1488637,-0.016283,0.07060321,-0.1983663,0.1388079,-0.1348067
0.809798,-0.1399634,-0.1968086,-0.1806286,-0.09340775,0.03003974,-0.07452381,-0.1174474,-0.2246249
0.9148017,-0.1999542,-0.2702,-0.07569487,-0.1540003,-0.04283448,-0.1080226,-0.585591,-0.2481787
1.151063,-0.1948988,-0.3097289,0.1606032,-0.1495874,-0.08187294,-0.2287578,-0.6322477,-0.2145677
1.448723,-0.1374465,-0.3343149,0.4583943,-0.09280641,-0.1059918,-0.3406961,-0.4250896,-0.1739562
1.744039,-0.08870164,-0.3705949,0.753914,-0.04475192,-0.1418225,-0.3475837,-0.1619544,-0.1988811
1.876292,-0.1024345,-0.3821455,0.8864053,-0.05918693,-0.1529355,-0.2520769,0.3395455,-0.2216399
1.864724,-0.1649227,-0.3565579,0.8750684,-0.1223828,-0.126915,-0.1390619,0.6585437,-0.2604178
1.701269,-0.1978024,-0.2718547,0.7117926,-0.1559685,-0.04177783,0.0007161092,0.591712,-0.3160706
1.450186,-0.1561034,-0.1802571,0.4608013,-0.1149656,0.05025735,0.1609462,0.5421543,-0.3231364
1.270134,-0.0649001,-0.140778,0.280728,-0.02444111,0.09017637,0.218695,0.5376133,-0.2985793
1.146693,0.02107635,-0.154518,0.1571435,0.06087773,0.07687417,0.1676113,0.5171893,-0.2016568
0.9908332,0.08964401,-0.1428711,0.00101407,0.1288085,0.0889517,0.1018022,0.5562637,-0.02389972
0.7877424,0.1441149,-0.09403285,-0.2024657,0.1826587,0.138208,-0.01461366,0.4654086,0.1607208
0.6591662,0.1319732,-0.0885928,-0.3315356,0.1699056,0.1440476,-0.2244618,0.1922066,0.2651379
0.5617238,0.06883773,-0.06518142,-0.4295542,0.1061605,0.1678329,-0.390404,-0.2370154,0.2625115
0.4645044,0.01470842,-0.04635222,-0.5274053,0.05141827,0.1870034,-0.4072136,-0.6206236,0.23498
0.540053,-0.05170112,-0.08818716,-0.4525146,-0.01560978,0.1454696,-0.3191118,-0.6089207,0.1424953
0.630215,-0.1214383,-0.09245819,-0.3630089,-0.08596976,0.1414533,-0.1215725,-0.44438,-0.05367267
0.6765745,-0.1510452,-0.06049943,-0.3172813,-0.1161993,0.1736152,0.1003799,-0.3237671,-0.2382627
0.8123603,-0.1419137,-0.02354474,-0.1820856,-0.1076839,0.2107162,0.1878791,-0.2332948,-0.3416607
0.8699655,-0.1149117,0.0002254646,-0.1250174,-0.0812848,0.2345697,0.2101268,-0.2921149,-0.3500186
0.9102906,-0.07301528,-0.005785771,-0.08517007,-0.03997287,0.228572,0.259237,-0.3043545,-0.2952371
0.9993229,-0.01143657,-0.001946893,0.003445938,0.02104309,0.2323477,0.3111765,-0.2191566,-0.2171755
1.011348,0.02513499,-0.003950024,0.01511535,0.05707406,0.2301987,0.3629303,-0.08030189,-0.1621376
1.049974,0.02325996,0.00541513,0.05344197,0.05467888,0.2393296,0.414346,0.2070284,-0.1735038
1.074708,0.03422461,0.03218729,0.07792899,0.06514104,0.2657738,0.4313439,0.3828304,-0.2153546
1.04446,0.07326075,0.03123581,0.04748002,0.1036891,0.2643956,0.4107504,0.2530648,-0.2429851
1.053617,0.09880737,-0.00555318,0.05647528,0.1287578,0.227076,0.4257979,-0.146228,-0.1535853
1.051292,0.05535613,-0.1675255,0.05402225,0.08483403,0.06446662,0.4785069,-0.6176722,0.07288067
1.081114,-0.01336479,-0.4502471,0.08374694,0.0156419,-0.218995,0.4152179,-0.8292717,0.2334075
1.247235,-0.05458048,-0.6410096,0.2497927,-0.02604508,-0.4105866,0.2292929,-0.868544,0.2105498
1.562391,-0.1306662,-0.6669435,0.5648847,-0.1026006,-0.4374156,0.2749751,-0.5031887,0.118097
1.804872,-0.2197552,-0.645681,0.80729,-0.192153,-0.4170864,0.5841428,0.450245,0.0631215
1.453031,-0.07898144,-0.7825068,0.5010443,-0.03180102,-0.467182,0.9090386,-0.7705158,-0.09677305
1.803246,-0.1453444,-0.8027009,0.8505931,-0.09815526,-0.4898742,1.044909,0.1184734,-0.3059032
1.89731,-0.1406221,-0.6701344,0.9439713,-0.09339764,-0.3597796,1.194478,0.9595347,-0.411831
1.640434,-0.02554997,-0.5008007,0.6863514,0.02173812,-0.1928659,1.179383,1.163789,-0.5054663
1.354833,0.1347141,-0.3072206,0.3999152,0.1820929,-0.001637209,1.069775,0.477034,-0.508327
1.272363,0.2336467,-0.2413267,0.3164971,0.2811358,0.06198083,0.9013568,-0.2006079,-0.4324313
1.2272,0.2282322,-0.3259367,0.2702661,0.2758385,-0.02482826,0.6291051,-0.06593043,-0.3763068
1.149579,0.179618,-0.3273338,0.1914507,0.2273344,-0.02834793,0.5539748,0.2822534,-0.2591988
0.9967472,0.1062818,-0.2826049,0.03730168,0.1540886,0.01433582,0.7929733,0.4549891,-0.1668032
0.7130702,-0.04326297,-0.2511278,-0.2478084,0.004606787,0.04384536,1.055557,0.4548525,-0.06888763
0.4580638,-0.1201045,-0.163955,-0.5043451,-0.07220163,0.129126,1.292165,0.1181629,0.1205797
0.3756199,-0.09046539,-0.1301626,-0.5883871,-0.04255667,0.1610969,1.439252,-0.2847203,0.1510321
0.3499706,-0.1177034,-0.1305002,-0.6156664,-0.06981136,0.1590015,1.524403,-0.6904313,0.07304676
0.3144451,-0.1357479,-0.09868043,-0.6528162,-0.08789021,0.189119,1.638141,-0.9272162,0.002240804
0.4459187,-0.1069219,-0.1047312,-0.5229254,-0.05911115,0.1814133,1.618768,-0.7459409,-0.1476147
0.6389717,-0.08300338,-0.1063528,-0.3313834,-0.03524756,0.1781756,1.637086,-0.3685907,-0.2211872
0.7285682,0.000247598,-0.1462347,-0.2432052,0.04794326,0.1367093,1.711362,0.1659554,-0.1790008
0.7684866,0.1176338,-0.2853489,-0.2045992,0.1652637,-0.003963054,1.464194,0.4124928,-0.09933631
0.7108013,0.2031234,-0.386978,-0.2634827,0.250677,-0.1071245,0.9715158,0.2311315,-0.01469122
0.670084,0.2489894,-0.3708736,-0.3052761,0.2964469,-0.09252273,0.5269923,0.2733749,-0.03883664
0.6574282,0.2239079,-0.2805469,-0.3188779,0.2712378,-0.003662913,0.345641,0.231132,-0.09626234
0.6053789,0.107766,-0.2107611,-0.3717335,0.1549258,0.06469532,0.3896413,-0.1661564,-0.06727188
0.71536,-0.1200632,-0.2052492,-0.26241,-0.07312218,0.06881895,0.3860199,-0.5370406,-0.003333164
1.031871,-0.3959817,-0.2594917,0.05359757,-0.3493049,0.01322577,0.4150367,-1.031052,0.1015507
1.535423,-0.4883641,-0.4409436,0.5567921,-0.4419832,-0.1695391,0.4834508,-1.352676,0.1240671
1.937887,-0.326429,-0.6950424,0.9590201,-0.2803548,-0.4249071,0.4135658,-0.9446852,-0.1461615
1.945023,-0.2038641,-0.7739308,0.9659961,-0.1580885,-0.5050058,0.3703507,-0.1028954,-0.393621
1.849113,-0.2937554,-0.6469583,0.8699519,-0.2482573,-0.3791642,0.3982565,0.6508376,-0.2915697
1.659094,-0.3404125,-0.5202132,0.6797762,-0.2951597,-0.2534518,0.3976153,0.7219889,-0.2283117
1.289016,-0.2411552,-0.3470643,0.3094826,-0.1961045,-0.0812256,0.4511801,0.2399327,-0.420399
1.077867,-0.1666309,-0.1565954,0.09803953,-0.1217299,0.1084332,0.5755524,0.1090888,-0.5120768
1.001712,-0.06766133,-0.1675126,0.02150535,-0.02285276,0.09681322,0.650851,0.1665414,-0.4515644
0.8318031,0.03283358,-0.1873083,-0.1488647,0.07760669,0.07641208,0.5853958,0.1903121,-0.3914313
0.6615566,0.03993762,-0.128192,-0.3196419,0.08472736,0.1350101,0.4943769,0.3546774,-0.2622888
0.5443553,0.06598775,-0.1143202,-0.4374257,0.1108387,0.14844,0.4105417,0.2068874,-0.1514108
0.4270508,0.06295345,-0.08076019,-0.5553399,0.1079017,0.1816233,0.1977905,0.00851655,-0.1358159
0.4018179,0.01053606,-0.09975999,-0.5811812,0.05560982,0.1622997,-0.02286617,0.007866685,-0.1230477
0.4412146,-0.02383766,-0.1268254,-0.5423614,0.02138331,0.134952,-0.1390972,-0.1404637,-0.1887865
0.457728,-0.09989157,-0.09959802,-0.5263656,-0.05450548,0.1619285,-0.1872558,-0.2006475,-0.3701649
0.5465822,-0.1793721,-0.1024889,-0.4379454,-0.1338036,0.1588086,-0.1309455,-0.240782,-0.547272
0.6712444,-0.2592929,-0.06737978,-0.3136141,-0.2135215,0.1937015,0.02687695,-0.3484494,-0.6254911
0.7930069,-0.298526,-0.06629063,-0.1920669,-0.2525246,0.1945775,0.3465953,-0.3413643,-0.6172041
0.9895798,-0.2551517,-0.1280384,0.00441116,-0.2088847,0.1326107,0.7680173,-0.2397613,-0.6110449
1.12343,-0.2252063,-0.156072,0.1382836,-0.1786297,0.1043452,1.024661,0.1064624,-0.6201413
1.058004,-0.1094302,-0.1742983,0.07298552,-0.06249467,0.08586889,1.158981,0.3442474,-0.6126759
0.9435477,0.04491058,-0.2037681,-0.04124902,0.09225527,0.05612837,1.206111,0.01943956,-0.5213856
0.9419309,0.04300387,-0.323941,-0.04255812,0.09080317,-0.06433683,0.9833163,-0.6481886,-0.2935857
1.131203,-0.04857679,-0.4918583,0.1471008,-0.0002851236,-0.2325645,0.7573272,-1.14564,-0.04969877
1.545027,-0.1780859,-0.6353005,0.5613774,-0.1292697,-0.3763252,0.8037632,-0.9334932,-0.01198778
1.879738,-0.2336206,-0.7812001,0.8965823,-0.1842484,-0.5225344,0.837991,-0.0156594,-0.244643
1.901934,-0.1027498,-0.7950412,0.9192744,-0.05278742,-0.5366537,0.7476585,0.9542421,-0.4867383
1.761801,0.08191056,-0.6485119,0.779594,0.1324976,-0.3903471,0.6403231,1.132328,-0.5019835
1.531164,0.2063823,-0.4556266,0.5493263,0.2576224,-0.1976098,0.4809869,0.6301239,-0.4261282
1.318425,0.222092,-0.3129982,0.3368431,0.2740006,-0.05504479,0.4020752,0.4035501,-0.4054048
1.144098,0.1310034,-0.2779755,0.1626448,0.1835808,-0.01999916,0.3629165,0.3292293,-0.3532029
0.9302663,0.009115902,-0.2466041,-0.05119147,0.06234954,0.01147788,0.2643706,0.08074791,-0.290691
0.7782484,-0.09175643,-0.214915,-0.2033392,-0.03788627,0.04334911,0.4120148,-0.01263361,-0.2742678
0.6331101,-0.1408468,-0.2343448,-0.3487173,-0.08636127,0.02417101,0.707349,-0.161827,-0.1878173
0.5202862,-0.1354641,-0.2273951,-0.4618684,-0.08038193,0.03143447,0.9002679,-0.3760056,-0.06071719
0.5059848,-0.0998611,-0.2074886,-0.4765571,-0.04419751,0.0517098,1.085744,-0.4400864,0.02333689
0.4906339,-0.06844829,-0.2005889,-0.4923262,-0.01221603,0.05902625,1.151701,-0.5057303,0.06906489
0.5224626,-0.05780162,-0.1885567,-0.4609188,-0.001012405,0.07151575,1.165098,-0.4582382,0.05805542
0.5773967,-0.0556679,-0.1824781,-0.4063833,0.001666405,0.07808446,1.198594,-0.3087428,0.05933574
0.6445125,-0.02758081,-0.1625048,-0.3396219,0.03028596,0.09857327,1.088895,-0.01130327,0.02677965
0.7470915,0.05523303,-0.162687,-0.2373365,0.1136178,0.09892409,0.9934063,0.4336821,-0.08022947
0.7784693,0.1502578,-0.2403944,-0.2061799,0.2091415,0.02175998,0.9136924,0.6096671,-0.09548491
0.7327717,0.2170304,-0.3288866,-0.2520185,0.2763857,-0.06618347,0.6289551,0.6202899,0.01059852
0.6669384,0.2512845,-0.3213912,-0.3179057,0.3110729,-0.05813499,0.1935403,0.5777777,0.1818224
0.6621772,0.2428539,-0.2270011,-0.3226253,0.3030236,0.03681263,-0.1431852,0.3303259,0.3255706
0.6612845,0.2225055,-0.1305971,-0.3233719,0.2829919,0.1337767,-0.2712415,-0.01119494,0.3336268
0.6398498,0.1757775,-0.105342,-0.3445473,0.2365052,0.1595887,-0.3362556,-0.2124199,0.2250193
0.7267268,-0.04776991,-0.2044803,-0.2572899,0.01311608,0.06099673,-0.3100237,-0.06721234,0.03944953
0.7956706,-0.3752792,-0.3252368,-0.1878397,-0.3143167,-0.05922977,-0.1605354,-0.06725151,-0.1194958
0.8336399,-0.4367333,-0.3328393,-0.1492365,-0.3757639,-0.06631933,-0.06569478,-0.5995479,-0.1492622
1.087964,-0.2907961,-0.3734784,0.1058452,-0.2298692,-0.10646,-0.1031871,-1.101021,-0.02790845
1.651829,-0.2032305,-0.5590091,0.6705789,-0.1423775,-0.2915015,-0.2165886,-0.9445662,0.07045138
2.092807,-0.09741841,-0.6858454,1.112504,-0.03665816,-0.4178477,-0.2153261,0.1124976,-0.1116757
1.885574,-0.1613779,-0.6000047,0.9062478,-0.1007221,-0.3315009,-0.07727627,1.177782,-0.3000238
1.580774,-0.4123464,-0.4156119,0.602402,-0.3517999,-0.1465711,0.06512628,1.044158,-0.2470681
1.558527,-0.4150225,-0.2907215,0.5810453,-0.3545779,-0.02110449,0.1576834,0.2997823,-0.2721958
1.341093,-0.289224,-0.2478781,0.3644094,-0.2288586,0.02235515,0.1907919,0.02319898,-0.337224
1.097927,-0.1742144,-0.2338249,0.1219303,-0.1138926,0.03706068,0.231463,0.100618,-0.1775633
0.9503755,0.0009645109,-0.2254283,-0.02505207,0.0612845,0.04614011,0.1692767,0.2972489,0.01398428
0.7565431,0.0470157,-0.2423831,-0.218429,0.1073743,0.02989244,0.01851502,0.4492879,0.08065315
0.6485508,0.04928046,-0.1941988,-0.3260666,0.1097118,0.07880238,-0.1169484,0.2126364,0.05808769
0.523703,0.03489708,-0.05999385,-0.4506402,0.09542751,0.2137442,-0.2932287,-0.1305255,-0.0520522
0.4938371,-0.05467237,-0.01961643,-0.480288,0.005976546,0.2548596,-0.3191719,-0.2873084,-0.2062854
0.5291585,-0.07290549,-0.03568941,-0.444778,-0.01212302,0.2395123,-0.2777221,-0.3037417,-0.3616041
0.4714316,-0.08916403,-0.05361613,-0.5023203,-0.02823469,0.2222856,-0.293624,-0.1646336,-0.4360909
0.4894632,-0.07581115,-0.103473,-0.4840836,-0.01472216,0.1730914,-0.2313132,-0.07957781,-0.417184
0.4661883,-0.02501802,-0.07980938,-0.5071097,0.0362427,0.1973705,-0.2547246,-0.08539519,-0.3766886
0.4821828,-0.04446584,-0.05779383,-0.4908011,0.01697702,0.2199464,-0.2906107,-0.2710594,-0.2905079
0.6268707,-0.06251189,-0.0734296,-0.3457147,-0.0008786985,0.2048075,-0.2662535,-0.6673996,-0.2215398
0.7594926,-0.1122535,-0.09134466,-0.2125961,-0.05042307,0.1873186,-0.278349,-0.7483305,-0.1960617
0.9416392,-0.1477201,-0.1748593,-0.02984919,-0.08568522,0.1041535,-0.1550759,-0.4367824,-0.1701588
1.031412,-0.1268531,-0.2363177,0.06062541,-0.06460449,0.04296552,0.1057967,-0.2269853,-0.1827544
1.075687,-0.1474607,-0.300839,0.1056936,-0.08498662,-0.02136339,0.3862084,-0.4941127,-0.107446
1.186315,-0.1713004,-0.4576837,0.2171936,-0.1085863,-0.1780886,0.4817718,-0.9159145,0.1236801
1.307931,-0.1906689,-0.6774899,0.3397437,-0.1276971,-0.397837,0.3848803,-0.8522307,0.2786539
1.54414,-0.173921,-0.8589482,0.5769257,-0.1106701,-0.5792798,0.3803864,-0.2089644,0.103029
1.734404,-0.09394851,-0.8083281,0.7681722,-0.03039355,-0.5286603,0.3633663,0.6702951,-0.239605
1.77225,0.007289932,-0.6398091,0.8069747,0.07117409,-0.3601302,0.2906549,0.9050603,-0.3291845
1.685298,0.1318671,-0.5373665,0.7209128,0.1961016,-0.2576432,0.2351173,0.5385521,-0.2529904
1.463839,0.2020791,-0.4171754,0.500241,0.2666759,-0.1373607,0.06399613,0.467319,-0.1968361
1.292746,0.2340377,-0.3311575,0.3298081,0.2989955,-0.05119761,-0.137758,0.2841312,-0.08813815
1.175769,0.2582271,-0.3171251,0.2133492,0.3235295,-0.03696516,-0.3519223,0.05937623,-0.0002644317
1.071777,0.2012964,-0.2978153,0.109727,0.2669117,-0.0174022,-0.5193605,0.2670017,0.08741987
0.9889638,0.1466245,-0.2897907,0.02713767,0.2125077,-0.009074473,-0.4571366,0.2735844,0.2119584
0.8546122,0.1114179,-0.2757731,-0.1071302,0.1775141,0.005292581,-0.380569,0.2533408,0.3101097
0.7420563,0.06509632,-0.2590911,-0.2197302,0.1313437,0.02236589,-0.3547155,0.3612063,0.3675724
0.6660189,0.07848269,-0.2393221,-0.2959219,0.1448155,0.04256337,-0.3140691,0.2419043,0.3809925
0.6108987,0.09120606,-0.208035,-0.3512853,0.1575554,0.07431046,-0.423201,0.2310516,0.423908
0.6161513,0.09413946,-0.209755,-0.3463415,0.1604337,0.07307543,-0.5309294,0.2144435,0.469992
0.655141,0.1175373,-0.1843218,-0.3077032,0.183702,0.09901176,-0.5305179,0.1418521,0.4969984
0.7278381,0.1124853,-0.1520033,-0.2353797,0.1784427,0.1318441,-0.5258006,0.2629284,0.5272944
0.7868829,0.1322428,-0.175255,-0.176714,0.1979122,0.1091092,-0.5115926,0.3573767,0.4928669
0.8048763,0.1800334,-0.1909819,-0.1590927,0.2453307,0.09389463,-0.6021988,0.4553285,0.4611649
0.8240278,0.2214503,-0.2099162,-0.1402971,0.286287,0.07546159,-0.78072,0.5183822,0.4457384
0.8413224,0.2440907,-0.2182852,-0.1233346,0.3083723,0.06757795,-0.9670616,0.470339,0.3964878
0.8516039,0.2020919,-0.1929105,-0.1133554,0.2657175,0.09341798,-1.125749,0.4446663,0.3626584
0.8387158,0.1371982,-0.1859624,-0.1265109,0.2000618,0.1008072,-1.106514,0.3937214,0.3223826
0.8009374,0.04103444,-0.1929158,-0.1645171,0.1030281,0.09426661,-0.9721662,0.4036773,0.2597187
0.7269532,-0.1184802,-0.2232933,-0.238684,-0.05746124,0.06426953,-0.7975506,0.38514,0.1637342
0.6196059,-0.2773735,-0.2746706,-0.3461607,-0.2174246,0.01323801,-0.6050658,0.08501165,0.02530756
0.6225063,-0.3932822,-0.3013866,-0.3433255,-0.3344822,-0.01316749,-0.5499467,-0.3786127,-0.08361405
0.8884912,-0.4062627,-0.3239473,-0.07733036,-0.348668,-0.03545139,-0.6613344,-0.6140496,-0.1231965
1.366312,-0.267442,-0.4145906,0.4005786,-0.2110858,-0.1258482,-0.8451609,-0.4605069,-0.1393133
1.738155,-0.02982561,-0.6095444,0.7725714,0.02527758,-0.3205791,-1.076263,-0.3335601,-0.1432751
1.784177,0.0924619,-0.7741206,0.8187736,0.146307,-0.4849428,-1.347864,-0.2240943,0.01449435
1.683599,-0.0771383,-0.7184912,0.7183663,-0.02455446,-0.429092,-1.370478,0.1725183,0.3701147
1.594367,-0.3274839,-0.5779086,0.629255,-0.2761614,-0.2882587,-1.182151,0.3856028,0.6193107
1.502728,-0.4401408,-0.5167481,0.5376559,-0.3900691,-0.2268026,-1.154098,0.2546522,0.5427717
1.450852,-0.4494521,-0.3777358,0.4857152,-0.4006021,-0.08744047,-1.017366,0.2097462,0.3314001
1.355694,-0.2963161,-0.2678796,0.3903686,-0.2486389,0.02282258,-0.8841051,0.2754497,0.1996724
1.131759,-0.03387699,-0.32441,0.1661087,0.01269091,-0.03324616,-0.9981558,0.3124178,0.1784583
0.9413965,0.1016256,-0.3090829,-0.02471686,0.1471525,-0.01740702,-0.9263791,0.3558919,0.3361038
0.8248401,0.1054614,-0.2808514,-0.1418683,0.1500108,0.01138253,-0.9180467,0.3919515,0.5235638
0.7238615,0.06620868,-0.2910921,-0.2435589,0.1098358,0.001741415,-1.097647,0.3134962,0.5335691
0.6565548,-0.02912255,-0.2125953,-0.3116743,0.01362986,0.08087412,-1.192387,0.2009648,0.4849745
0.5496365,-0.1546251,-0.1596344,-0.4194745,-0.1127035,0.1345001,-1.293503,0.1079743,0.3389465
0.517653,-0.2175581,-0.1266171,-0.4523868,-0.1764219,0.1682026,-1.148087,-0.01099794,0.04439391
0.5842026,-0.2073556,-0.1039116,-0.3867854,-0.1669541,0.1916025,-0.9362097,0.02605588,-0.1754944
0.5218519,-0.1950997,-0.09632216,-0.450078,-0.1553753,0.1998837,-0.8909725,0.21277,-0.2714792
0.4852272,-0.1412847,-0.05293003,-0.4876137,-0.1021744,0.2439531,-0.8081199,0.3982913,-0.3250454
0.5029013,-0.02745923,-0.05375482,-0.4707961,0.01110345,0.2437789,-0.8763955,0.4291568,-0.3394615
0.435469,0.09836696,-0.04372683,-0.5390067,0.1364468,0.2544185,-0.9949201,0.07614793,-0.3170181
0.5018814,0.1509719,-0.03437018,-0.4732725,0.1886269,0.2643362,-1.132272,-0.4003645,-0.3015538
0.7214315,0.04518954,-0.07689013,-0.2542815,0.0824679,0.2223156,-1.286486,-0.5581634,-0.2762196
0.9652542,-0.01998019,-0.1074577,-0.01088837,0.01696088,0.1921766,-1.137929,-0.3013567,-0.2459874
1.097263,-0.005166492,-0.1640572,0.1208198,0.03147142,0.1359284,-0.9314587,0.2804085,-0.3025223
1.076011,-0.06982163,-0.1746272,0.09938606,-0.03345566,0.1256282,-0.6987659,0.9583273,-0.3790314
1.076194,-0.1160651,-0.08182496,0.09949322,-0.07994095,0.2186163,-0.3049587,1.140274,-0.392915
0.9511995,-0.1574309,0.01604532,-0.02548244,-0.1215171,0.3165846,0.002161281,0.2274769,-0.2926142
0.7658922,-0.1931129,-0.01189289,-0.2106847,-0.1573747,0.2886496,0.2682639,-1.250473,-0.004706413
0.814408,-0.1973658,-0.3018204,-0.1619788,-0.1617634,-0.00137578,0.3987039,-2.100529,0.3046789
1.067799,-0.2693265,-0.7330433,0.09168765,-0.2338143,-0.4327947,0.3149972,-1.660175,0.3349787
1.563018,-0.2997024,-0.9703567,0.5872583,-0.2642275,-0.670384,0.4087955,-0.1542652,-0.003257584
1.939109,-0.2624793,-0.9039785,0.9637538,-0.2269802,-0.6043295,0.6556639,1.231959,-0.3209302
1.810366,-0.1457767,-0.7395402,0.835427,-0.1101847,-0.4402283,0.6995671,1.319705,-0.2657108
1.496058,0.09327544,-0.5386061,0.5215012,0.129031,-0.2396164,0.4976379,0.2974692,-0.1168837
1.212551,0.2418357,-0.3423209,0.2383119,0.2778193,-0.04362159,0.1496039,-0.3342011,-0.0601527
1.084227,0.2390315,-0.3577012,0.1102235,0.2752934,-0.05925325,-0.146284,-0.2153703,0.05988843
1.129873,0.1746572,-0.390978,0.1560164,0.2112302,-0.09274035,-0.2362703,-0.1631072,0.1575914
1.01271,0.08253611,-0.3212107,0.03891207,0.1194381,-0.02314125,-0.1328721,-0.06384304,0.1543478
0.799844,-0.03636854,-0.320697,-0.173982,0.0008696724,-0.02275365,0.1057473,-0.04839577,0.1299139
0.6993208,-0.1662682,-0.2654239,-0.2746093,-0.1286908,0.03243418,0.3087054,-0.2071023,0.0589322
0.588187,-0.129708,-0.1874503,-0.385907,-0.0917871,0.1103598,0.4293735,-0.286182,-0.001075417
0.5357579,0.00885519,-0.1850359,-0.4385381,0.04712636,0.1127575,0.4842312,-0.5273383,0.0272832
0.5747082,0.02632912,-0.1624717,-0.3998041,0.06495729,0.1353288,0.466868,-0.6280235,0.1078379
0.6056408,0.04656197,-0.1626601,-0.3690797,0.08555023,0.1351631,0.4850438,-0.6254283,0.2291695
0.7208738,0.07240499,-0.1583349,-0.2540273,0.1117513,0.1395185,0.4884669,-0.5301085,0.271532
0.8399946,0.02558609,-0.140514,-0.1350454,0.06528291,0.1573693,0.4970671,-0.06267547,0.1624275
0.8693378,0.04217593,-0.1622435,-0.1057916,0.08221081,0.1356619,0.5334512,0.3445586,-0.01409499
0.8611548,0.04844454,-0.1720338,-0.1140109,0.08880084,0.1258789,0.4913347,0.6028774,-0.2186539
0.7765438,0.05960853,-0.1853401,-0.1986023,0.1002656,0.1125596,0.4240185,0.5611759,-0.3398633
0.6579662,0.1693885,-0.2218257,-0.3170996,0.2103208,0.07603591,0.2473455,0.3330374,-0.3195407
0.5796162,0.2120327,-0.2597353,-0.3953003,0.2532075,0.03806052,0.003115155,0.2731418,-0.2495085
0.6014638,0.1868723,-0.2689894,-0.373222,0.2282476,0.02871201,-0.1199683,0.1648051,-0.1481314
0.6712222,0.1041679,-0.2682901,-0.3031394,0.1456925,0.02928858,-0.16767,-0.02076133,-0.06286747
0.7352457,-0.08810499,-0.3167275,-0.2386886,-0.04648746,-0.01929868,-0.1383106,-0.5085813,-0.07248815
0.9711578,-0.2953628,-0.3782111,-0.002241959,-0.2537067,-0.08095683,-0.08975551,-0.8918779,-0.1562534
1.344917,-0.3889653,-0.4403131,0.3721543,-0.347314,-0.1432529,-0.08050877,-0.6363048,-0.3443594
1.646914,-0.2698898,-0.5209555,0.6748709,-0.2282701,-0.2241013,-0.08767667,-0.2120066,-0.5646276
1.738363,-0.1026238,-0.5592009,0.7670898,-0.06104735,-0.2625537,-0.08514468,0.449383,-0.5569736
1.627201,-0.03567162,-0.4555185,0.6567081,0.005858717,-0.1590674,0.08496409,0.8627362,-0.3368091
1.482915,-0.05548508,-0.3034093,0.5131726,-0.01400072,-0.007133875,0.2741845,0.2122071,-0.08431926
1.330115,-0.1524092,-0.3219857,0.3610659,-0.1109693,-0.02586159,0.2135611,-0.4270241,0.06891434
1.308871,-0.1976059,-0.3489844,0.3404358,-0.1562055,-0.05298645,0.09967968,-0.148061,-0.05087632
1.359289,-0.197862,-0.268575,0.3913728,-0.1564903,0.02732176,0.09715901,0.4308779,-0.2059543
1.123544,-0.1420968,-0.2710916,0.1560391,-0.1007361,0.02472784,0.1133242,0.8459776,-0.1455694
0.7766822,-0.009253447,-0.2494107,-0.1905216,0.03211842,0.04635302,0.1673869,0.825924,-0.07584769
0.4736272,0.03617607,-0.1539125,-0.4933792,0.07758146,0.141813,0.2020051,0.349231,0.05986436
0.2547626,0.06142686,-0.09939221,-0.7121256,0.1028843,0.1963065,0.07423532,-0.006201602,0.2447301
0.2847638,0.09183065,-0.04350264,-0.6820511,0.1333525,0.2521714,-0.1143313,-0.441251,0.2172737
0.3836102,0.05912214,-0.02494125,-0.5831392,0.1007142,0.2706988,-0.2467021,-1.013995,0.08233391
0.5717946,0.03403897,-0.01306213,-0.3948653,0.0757005,0.2825223,-0.3244724,-1.18848,-0.1305059
0.8539368,-0.04060934,-0.03774216,-0.1125874,0.001116635,0.2577525,-0.3355323,-1.176395,-0.3440323
1.008035,-0.1634231,-0.1780477,0.04170202,-0.1216389,0.117313,-0.2109666,-0.8229265,-0.3474699
1.081817,-0.2597226,-0.2590866,0.1157306,-0.2178828,0.0360902,0.110535,-0.1274159,-0.3048184
1.040637,-0.2717757,-0.2749069,0.07484283,-0.229875,0.02003529,0.4987161,0.4319117,-0.3067079
0.9259105,-0.199561,-0.2825113,-0.03955149,-0.157584,0.01214811,0.8133965,0.6433556,-0.2692651
0.8373463,-0.1770375,-0.2866195,-0.1277491,-0.1349605,0.007712323,0.916589,0.00358701,-0.1142261
0.823865,-0.1398634,-0.4256316,-0.140829,-0.09765676,-0.1316677,0.7355354,-1.007987,0.1591654
1.055289,-0.03719672,-0.638823,0.09103221,0.005172115,-0.3452591,0.4874179,-1.376752,0.2321858
1.485417,0.00620677,-0.7673593,0.5216285,0.04876983,-0.4742114,0.3458199,-0.8163311,-0.005065549
1.91547,-0.01174382,-0.7638338,0.9521593,0.03104207,-0.4710961,0.45503,0.3754891,-0.2375052
1.941839,-0.03192677,-0.7004302,0.9789796,0.01110621,-0.408073,0.669541,1.310383,-0.3075493
1.548754,0.0136493,-0.5640912,0.5862741,0.0569497,-0.2720641,0.6029595,1.451801,-0.3248704
1.257132,0.08543297,-0.2798095,0.294927,0.1290165,0.01195122,0.4536262,0.6092556,-0.3466687
1.090135,0.1289002,-0.1988159,0.128081,0.172776,0.0927455,0.3312794,-0.3799593,-0.328521
1.047655,0.1564807,-0.3369082,0.08562625,0.2006489,-0.04548355,0.1948103,-0.4123437,-0.2422299
1.044404,0.09821033,-0.3175283,0.08227524,0.1426612,-0.02618271,0.2906634,-0.1325723,-0.09600683
0.8458878,0.02269906,-0.3157249,-0.116458,0.0674146,-0.02440362,0.4165527,0.03812887,-0.01939742
0.7189801,-0.008684039,-0.3186243,-0.2436904,0.03627325,-0.0272753,0.5345297,0.2228771,-0.03300827
0.6061251,-0.03297748,-0.1923278,-0.3569601,0.01219658,0.09909783,0.7218744,0.218276,0.004590244
0.4850682,-0.01014175,-0.1333239,-0.4784984,0.03522374,0.1582212,0.6781595,0.1084363,0.03023952
0.5475962,0.02346422,-0.05325602,-0.4164921,0.06899549,0.2384416,0.6089113,-0.04241555,0.0132117
0.5895382,0.08959754,-0.002937239,-0.3750855,0.1352674,0.288933,0.606223,-0.04395765,0.0178939
0.6626272,0.1864582,-0.1027876,-0.3025229,0.2322355,0.1892609,0.5005647,0.0441039,0.01452177
0.7190013,0.2284255,-0.1959957,-0.2466479,0.2742714,0.09622444,0.3785166,0.06693476,0.07432172
0.6665765,0.2537194,-0.2743517,-0.2995303,0.2995854,0.01802598,0.1050978,0.1437615,0.1932475
0.7045539,0.2384271,-0.2688265,-0.2619564,0.2842536,0.02369156,-0.1548763,0.1934297,0.2345449
0.7230475,0.175041,-0.2041166,-0.243801,0.2207583,0.08852354,-0.1802679,0.2377485,0.1672424
0.6944746,0.08989578,-0.2266696,-0.2726372,0.1354271,0.06607267,-0.22338,0.1459189,0.06424618
0.6787629,-0.04292379,-0.2545078,-0.2885286,0.002342012,0.03831445,-0.2860175,-0.08085001,0.01598036
0.662318,-0.1618581,-0.3105573,-0.3050604,-0.1169342,-0.01767847,-0.2406567,-0.239969,0.008852451
0.8236925,-0.2569623,-0.3830538,-0.1436727,-0.2124474,-0.09014029,-0.2107889,-0.5090366,-0.007493287
1.225633,-0.2732106,-0.4034737,0.2583825,-0.2291581,-0.1105435,-0.3876171,-0.7596411,-0.1137669
