accx,accy,accz,body_accx,body_accy,body_accz,body_gyrox,body_gyroy,body_gyroz
0.8433239,-0.09248479,-0.05186726,-0.1398102,0.1452958,-0.03384127,-0.08565458,0.3668917,0.4412145
0.79628,-0.07572948,0.023792,-0.1876276,0.161447,0.04152,-0.2483511,0.08076389,0.3027721
0.8297108,-0.08666805,-0.06305158,-0.1550114,0.1498788,-0.04556018,-0.2589576,-0.2732282,0.4675957
0.9034426,-0.09875238,-0.15929,-0.08212208,0.1371349,-0.1419764,-0.307481,-0.5869886,0.4772352
0.9067014,-0.1462209,-0.1828256,-0.07972284,0.08897368,-0.1656304,-0.1897467,0.1115885,0.4518095
0.8836901,-0.1269901,-0.1895419,-0.1036024,0.107477,-0.1724024,-0.03537682,0.6342356,0.47024
0.7584893,-0.1197232,-0.1112518,-0.2296718,0.1139808,-0.09410133,-0.1573179,0.6417295,0.3003174
0.6833625,-0.1941928,-0.09431749,-0.3056559,0.03871199,-0.07708785,-0.2353364,0.4517052,0.2521176
0.6580693,-0.26417,-0.117143,-0.3317806,-0.03209925,-0.09976597,-0.2258965,0.2409933,0.2111759
0.6585311,-0.3118064,-0.1072529,-0.3321081,-0.08060001,-0.08966101,-0.05282156,0.4403106,0.1407024
0.753824,-0.2813339,-0.1173631,-0.2375467,-0.05101526,-0.09948953,0.2728257,0.5754051,0.06200944
0.779625,-0.208763,-0.08327635,-0.2124074,0.02065108,-0.06505521,0.3899001,0.7924451,-0.128533
0.7784684,-0.1250518,-0.06366274,-0.2141466,0.1034451,-0.04502983,0.3341915,0.9800552,-0.2219862
0.7536951,0.004370236,-0.01802132,-0.2394164,0.2319374,0.001084532,0.2612853,0.7462405,-0.2785548
0.7208255,0.05851598,0.05147401,-0.2726892,0.2851356,0.07110908,0.1167286,0.6349406,-0.2737092
0.9242014,-0.0391852,0.01852426,-0.06961728,0.1864611,0.03873789,-0.1440338,0.618546,-0.2360949
1.29612,-0.314218,0.003730722,0.3020965,-0.08957618,0.02456483,-0.4009896,0.5642588,-0.3350133
1.584593,-0.62756,0.02510002,0.5904505,-0.4039501,0.04658978,-0.4865505,0.3754833,-0.489734
1.579132,-0.6640027,0.02844671,0.5849303,-0.4414359,0.050621,-0.2867843,0.08324916,-0.7583923
1.403985,-0.5278418,0.04412712,0.4097517,-0.3063068,0.06700838,0.197743,0.1518259,-0.8536176
1.384354,-0.499356,0.04721759,0.3900885,-0.2788207,0.07082164,0.7073244,0.2568137,-0.6464725
1.483901,-0.4472957,0.04661844,0.489583,-0.2277119,0.07095454,0.8014818,0.1406898,-0.5060683
1.583185,-0.2682714,0.04667322,0.5887695,-0.04957977,0.0717443,0.3774662,0.1654542,-0.2897993
1.542409,-0.1699345,0.05587255,0.5478296,0.04792943,0.08167559,0.04584096,0.2775989,-0.02450959
1.348868,-0.2166323,0.0901419,0.3540356,0.0004674342,0.1166679,0.05061847,0.284191,-0.008399107
1.163656,-0.2907751,0.135646,0.1684651,-0.07437875,0.1628792,0.04395443,0.2304601,0.02346223
1.021863,-0.3202749,0.1410298,0.02620521,-0.1045218,0.1689468,0.04685294,0.06765886,0.1861269
0.9992353,-0.242805,0.08827746,0.003003319,-0.02763402,0.1168467,0.02480191,-0.0798194,0.2103581
0.9301019,-0.1092838,0.04569678,-0.0668026,0.1053658,0.07488,-0.155908,0.01235112,0.2579163
0.8007806,-0.0729063,0.03294092,-0.1968835,0.1412778,0.06269589,-0.384875,0.05483778,0.4460632
0.8038894,-0.1393466,0.07442813,-0.1946068,0.0744202,0.10471,-0.4431695,-0.1317498,0.4383313
0.7007968,-0.2089178,0.1384938,-0.2985863,0.004472482,0.1692547,-0.2565504,-0.3738043,0.3384315
0.6781227,-0.2538994,0.1353956,-0.3221829,-0.04084886,0.1665831,-0.0958127,-0.504275,0.2723884
0.8291934,-0.2382606,0.1242074,-0.1720508,-0.02551441,0.1557634,0.01227415,-0.3192813,0.1270403
0.816593,-0.1636296,0.1321317,-0.1855895,0.04884685,0.163993,0.05034196,-0.09433197,0.1077533
0.8359032,-0.1195418,0.1275519,-0.1672046,0.09269689,0.1596508,-0.06986126,-0.1676032,0.09672822
0.7702166,-0.06495477,0.1310087,-0.2337926,0.1470731,0.1632734,-0.09771617,-0.3382127,-0.01938695
0.6105819,0.001642903,0.1344508,-0.3942924,0.213479,0.1668058,-0.08840645,-0.5463152,-0.06543098
0.7065597,-0.0149295,0.1330211,-0.2991285,0.1967243,0.1653879,-0.1071187,-0.7421313,-0.1115145
0.7745713,-0.05261731,0.1115333,-0.2318649,0.1588535,0.1438304,-0.05727938,-0.7319918,-0.07590472
0.8074879,-0.07291848,0.08278517,-0.1996187,0.13836,0.1149294,-0.06203691,-0.766871,0.06803047
0.8978731,-0.1102889,0.0813074,-0.1098195,0.1007816,0.1132154,-0.1764159,-0.975026,0.2486025
0.8882194,-0.122202,0.0454987,-0.1199707,0.0886402,0.07708782,-0.3976349,-1.009139,0.4126855
0.9269844,-0.08843832,-0.03522216,-0.08161367,0.1221521,-0.004032016,-0.5192523,-0.7242654,0.2380839
0.9313883,-0.08594044,-0.05743708,-0.07752839,0.1243716,-0.02672111,-0.4462518,-0.3751507,-0.09422835
0.8792413,-0.1874884,-0.0105396,-0.1299057,0.02251574,0.01963374,-0.3299855,-0.3852224,-0.1426405
0.9013494,-0.3645731,0.02165971,-0.1079401,-0.1549059,0.05122826,-0.1228389,-0.6035924,-0.02140012
0.9203771,-0.4568605,0.01043307,-0.08896741,-0.247553,0.03933939,0.008201713,-0.478738,0.06748081
1.03043,-0.3451665,-0.04759441,0.02111619,-0.1362302,-0.01940355,-0.054962,0.06110153,0.008079514
1.208215,-0.2662936,-0.1464635,0.1990126,-0.0577294,-0.1190355,-0.05217951,0.6756614,-0.06717675
1.305589,-0.3867953,-0.2261997,0.296566,-0.1785964,-0.1995725,0.05140391,0.8122273,-0.0201607
1.354931,-0.4263713,-0.2509039,0.3461382,-0.2185238,-0.225103,0.09312903,0.8232058,-0.1070682
1.364506,-0.2803363,-0.2015259,0.355975,-0.07281755,-0.1765625,0.02084567,0.9518094,-0.2027497
1.347969,-0.178056,-0.07691189,0.3397086,0.02916234,-0.0527846,-0.1214749,0.1547122,-0.07171055
1.353215,-0.234667,-0.008529039,0.3452169,-0.02771941,0.01477146,-0.1975801,-0.6985003,0.09133296
1.444761,-0.3214757,-0.1061866,0.4369977,-0.1147694,-0.08369956,0.07218321,-0.40821,0.1740601
1.596546,-0.3170612,-0.2385668,0.5889688,-0.1105651,-0.2168756,0.4756574,-0.1272043,0.1019312
1.585733,-0.2457855,-0.2250512,0.5782728,-0.03946529,-0.2041301,0.3730903,-0.1371677,-0.007617663
1.253942,-0.08181408,-0.09340557,0.2465057,0.1243653,-0.0732197,-0.01424368,-0.2175182,0.06593393
0.7854149,0.03593224,0.007607346,-0.2221022,0.2420014,0.0270991,-0.2996892,-0.7857276,0.3012203
0.587688,-0.07321019,-0.01922562,-0.4200074,0.1327695,-0.0003857731,-0.4558014,-1.272616,0.6664518
0.6637375,-0.209895,-0.1115501,-0.3442137,-0.003993163,-0.09332072,-0.1857706,-1.02371,0.8224661
0.7333841,-0.2730061,-0.1562385,-0.2748758,-0.06717476,-0.1385768,0.186114,-0.4568695,0.5966451
0.8743384,-0.3048085,-0.1911011,-0.1342629,-0.09903953,-0.1739605,0.3019873,-0.05620928,0.4021418
1.041748,-0.2562255,-0.2116911,0.03278609,-0.05050772,-0.1950188,0.3540587,0.4233116,0.2323265
1.025515,-0.1990935,-0.1908663,0.01617807,0.006587057,-0.174603,0.2340745,0.815464,-0.01294185
0.9359391,-0.09047709,-0.1820657,-0.07378312,0.11518,-0.1661459,0.06727954,0.9635134,-0.0713809
0.7970564,0.06209943,-0.1147836,-0.2130582,0.2677421,-0.09913729,-0.1360152,1.107075,-0.02216906
0.6287271,0.03727538,-0.007015795,-0.3817775,0.242903,0.008429144,-0.4017381,0.7155055,0.03678813
0.582294,-0.08897439,0.04212807,-0.4285822,0.1166263,0.05744139,-0.353889,-0.04774609,0.1566044
0.6035545,-0.1652583,0.02433246,-0.4076558,0.04029562,0.03957835,-0.1740027,-0.5141047,0.1957774
0.7043048,-0.2190958,-0.04604221,-0.3071832,-0.01361157,-0.03080577,0.07153788,-0.4375569,0.1520253
0.8933218,-0.206256,-0.06000262,-0.1183734,-0.0008637523,-0.04472208,0.3718711,0.3408954,0.08017334
0.9489981,-0.1311669,-0.03841815,-0.06282723,0.07411259,-0.02304264,0.3628258,0.9053944,-0.07770749
0.8286414,-0.02748784,-0.02831712,-0.1832354,0.1776574,-0.01279811,0.1568604,0.7145805,-0.2132166
0.7294509,0.04114668,-0.006263175,-0.2823971,0.2461316,0.00944488,-0.1547221,0.2381667,-0.1915667
0.7323081,-0.0554244,-0.07905981,-0.2794254,0.1493669,-0.0631204,-0.3644731,-0.1777392,-0.157564
0.7826389,-0.2200778,-0.1839873,-0.2288874,-0.01551932,-0.1677757,-0.2401355,-0.1230132,-0.2613735
0.9672064,-0.3806206,-0.1880013,-0.0440154,-0.1763335,-0.1714749,-0.08813978,0.5064457,-0.4917553
1.335379,-0.5845104,-0.05886367,0.3245563,-0.3805245,-0.04197652,-0.001779944,1.332988,-0.8873485
1.591924,-0.6556973,0.1087647,0.5815788,-0.4520259,0.1260586,-0.008529529,1.483724,-1.125697
1.571035,-0.515309,0.1188902,0.5612186,-0.311944,0.136631,-0.1019171,0.8818661,-0.8667367
1.525958,-0.3903141,0.09901238,0.5166878,-0.1872289,0.1172304,-0.04320142,0.3340092,-0.4563008
1.58464,-0.4302761,0.1404053,0.5759039,-0.2274311,0.1591208,0.08977876,-0.01901795,-0.09566661
1.658528,-0.4585743,0.1243602,0.6502832,-0.2559205,0.1435833,0.1777353,0.03793699,0.07494833
1.713021,-0.3833639,0.1236803,0.7051942,-0.1808436,0.1434116,0.2076743,0.197125,-0.1508737
1.595229,-0.3376539,0.135279,0.5877197,-0.1352024,0.1555099,0.1065598,0.08025329,-0.2453363
1.33454,-0.2616466,0.1148484,0.3272207,-0.05919556,0.1355621,-0.02238459,0.2751448,-0.05292445
1.176746,-0.2402545,0.107119,0.1694755,-0.03773538,0.1282912,-0.05392721,0.4052104,0.03914401
1.007742,-0.2918691,0.08156973,0.0003750122,-0.08921519,0.1031698,-0.04694875,0.09588796,0.2139247
0.7712248,-0.1664228,0.05687508,-0.2363758,0.03643005,0.07886758,-0.07362992,-0.2053143,0.5065874
0.6157294,-0.0774754,0.04526627,-0.3922261,0.1256356,0.06761254,-0.108806,-0.3773192,0.6587224
0.6245627,-0.1307016,0.04785108,-0.3838446,0.07271895,0.0705103,-0.1182169,-0.2749843,0.6307116
0.8045773,-0.1790884,0.1098765,-0.2043525,0.02468421,0.132806,-0.05447062,-0.1116436,0.4400105
0.8572968,-0.2608623,0.1648375,-0.1522045,-0.0567016,0.1879912,0.09067838,-0.06512333,0.188767
0.8081876,-0.246352,0.1647596,-0.2019186,-0.04177025,0.1880865,0.1643035,0.01848343,-0.01396818
0.8142707,-0.1947492,0.1567477,-0.1964603,0.01028448,0.1801905,0.1302001,-0.1264515,-0.1156001
0.6757251,-0.1613308,0.1597188,-0.3356364,0.04418309,0.1832146,0.1043299,-0.4201188,-0.1578714
0.6048192,-0.04674867,0.1625198,-0.4071623,0.1592684,0.1860008,0.07566557,-0.6389977,-0.1375037
0.6843483,-0.008668146,0.1452375,-0.328224,0.1978668,0.1686314,0.02450631,-0.8409035,-0.03903095
0.718717,0.004449164,0.1262813,-0.294399,0.2115057,0.1495122,-0.1001037,-0.9064973,-0.009938765
0.7760931,0.009948707,0.08595588,-0.2375052,0.2175183,0.1089459,-0.3731381,-0.9433486,0.02782307
0.8230193,-0.09530213,-0.007287713,-0.1909897,0.1127611,0.01538355,-0.5604173,-0.9609488,0.1058931
0.8439929,-0.118024,-0.0705747,-0.1703476,0.09050507,-0.04829653,-0.4439532,-0.8187672,0.1173057
0.8307109,-0.09624051,-0.06730564,-0.1838772,0.1127213,-0.04548822,-0.2791376,-0.6400616,0.1096721
0.8683479,-0.1645315,-0.04650838,-0.1464002,0.0448262,-0.0252113,-0.2092495,-0.4578881,-0.005560822
0.972496,-0.2193858,-0.02454203,-0.04232281,-0.009671068,-0.003817433,-0.08993702,-0.3822367,-0.1815454
0.9783576,-0.2368844,0.01632304,-0.03644369,-0.02685075,0.03642898,-0.05388443,-0.3914298,-0.270956
1.023112,-0.2210893,0.08139504,0.00841243,-0.01077258,0.1008401,-0.06939263,-0.2521731,-0.2771383
1.072784,-0.2156925,0.1140914,0.05826442,-0.005125962,0.1328347,0.04863354,0.02597414,-0.2513009
1.07645,-0.2647785,0.04650147,0.06218046,-0.05399265,0.06450189,0.0982024,0.357759,-0.2593744
1.152947,-0.2915976,-0.1094166,0.1389894,-0.08061983,-0.09219901,0.06689588,0.5656671,-0.1731877
1.210316,-0.2892849,-0.2509629,0.1967209,-0.07813781,-0.234562,0.04485512,0.6581337,-0.09591344
1.268677,-0.2807171,-0.2740299,0.2554812,-0.06941823,-0.2584671,-0.03184767,0.8966945,-0.2396799
1.319055,-0.2555044,-0.1609421,0.3062814,-0.04406688,-0.146224,-0.06982836,1.006646,-0.377451
1.407541,-0.1898846,-0.04375388,0.3951928,0.0216816,-0.02987464,-0.07935406,0.4223783,-0.3667582
1.634179,-0.1503292,-0.08599138,0.6222409,0.06135654,-0.07293783,-0.07670871,-0.07213934,-0.350343
1.778228,-0.2453266,-0.251953,0.7666578,-0.0335312,-0.2397061,-0.07461947,0.9007736,-0.4428892
1.558159,-0.2528117,-0.32993,0.5468817,-0.0409165,-0.3184618,-0.2193595,1.491566,-0.4524495
1.093095,-0.1001832,-0.1001107,0.08201307,0.1118028,-0.08938106,-0.4352105,-0.7905297,-0.09465153
0.9629049,-0.07587508,0.1481601,-0.04809211,0.1361909,0.1581988,-0.5007631,-2.779373,0.4048958
1.175891,-0.1624616,-0.06928147,0.164873,0.04966936,-0.05988659,-0.3250267,-1.277208,0.5287536
1.189957,-0.243761,-0.2685026,0.1788139,-0.03158335,-0.2597058,-0.06668635,0.1056967,0.309117
0.9294621,-0.2709219,-0.07110386,-0.08190592,-0.05871539,-0.0628553,0.08356429,-0.7184551,0.2682474
0.6881477,-0.2196827,-0.03204254,-0.3235394,-0.007462422,-0.02428792,0.1167174,-0.7086817,0.3546711
0.778298,-0.1980973,-0.1274534,-0.2337861,0.01412388,-0.1201368,0.08576084,-0.198755,0.3269387
0.9083508,-0.1317628,-0.08289299,-0.1041894,0.08044724,-0.07595764,0.1062665,-0.3176354,0.3530419
0.8180805,-0.0483739,-0.08302654,-0.1949596,0.1638111,-0.07641434,0.1171452,0.2342021,0.3310687
0.8564282,-0.05822857,-0.07391502,-0.1571427,0.1539125,-0.06756702,-0.00336716,0.1495183,0.2539067
0.8762861,-0.04032887,-0.06717124,-0.1378344,0.1717434,-0.06102839,-0.1526273,-0.3399941,0.285837
0.8305623,-0.03880949,-0.1280413,-0.1841156,0.1731624,-0.1220445,-0.2703006,0.09306908,0.3845577
0.9115191,-0.05060611,-0.1408389,-0.103714,0.1612277,-0.134928,-0.3167673,-0.004947272,0.5858108
0.9144142,-0.02571889,-0.1420938,-0.1013634,0.1859336,-0.1362068,-0.3283423,0.05218205,0.6954936
0.9321065,-0.07419017,-0.1296363,-0.08419855,0.1372326,-0.1237085,-0.3729054,0.5723556,0.5640799
0.9282212,-0.1433509,-0.1069944,-0.08858914,0.06779012,-0.1009596,-0.3913633,0.4991441,0.4115806
0.8108542,-0.1920385,-0.08895888,-0.2064342,0.01876812,-0.08275003,-0.4362548,0.4352224,0.3457538
0.7928566,-0.1984382,-0.05813244,-0.2248754,0.01198335,-0.05168324,-0.4568297,0.2563712,0.3771809
0.7728509,-0.1648123,-0.0882151,-0.2452814,0.04517689,-0.08146093,-0.3530314,0.3177076,0.4118014
0.7604953,-0.1621997,-0.09772001,-0.2579837,0.04731315,-0.09059809,-0.2181375,0.7088064,0.3134829
0.8651404,-0.09693773,-0.04186085,-0.1536225,0.1120565,-0.03431006,-0.147455,0.8411111,0.165945
0.9719527,0.008362098,-0.00451751,-0.04702528,0.2167951,0.003520551,-0.3070397,1.083941,0.1102428
0.9638004,0.08764603,-0.0007244706,-0.05532228,0.2954715,0.007854838,-0.7037338,0.8459205,0.2154138
0.803859,0.1320489,-0.05718381,-0.2153384,0.3392125,-0.04801438,-1.083201,0.3370404,0.3679074
0.6912408,-0.001417338,-0.1474587,-0.3279586,0.2050209,-0.1376538,-1.205337,0.2841356,0.3114365
0.7381021,-0.2758167,-0.2264827,-0.281019,-0.07017269,-0.215997,-1.055761,0.5207666,-0.02746912
0.9561227,-0.5816008,-0.2228676,-0.0628324,-0.3768151,-0.2116526,-0.9133191,1.23824,-0.5715629
1.286985,-0.8645178,-0.1127904,0.2682839,-0.6606359,-0.1007931,-0.6997869,1.47299,-0.9856949
1.455456,-0.9108779,0.0165645,0.4370849,-0.7079144,0.0293983,-0.3061259,0.6691857,-0.9299485
1.495591,-0.6190228,0.122253,0.4776028,-0.4169572,0.1359731,-0.1677457,-0.04867355,-0.7615929
1.53685,-0.2375444,0.1079384,0.51927,-0.03632887,0.1225852,-0.2705298,-0.03265733,-0.6712504
1.495073,-0.08996168,0.05040957,0.4778981,0.1104631,0.06601253,-0.3250209,0.2458627,-0.3664309
1.414374,-0.08867628,0.06128606,0.3975762,0.1110155,0.07786468,-0.498333,0.2269124,-0.02478768
1.348509,-0.006258725,0.01463023,0.3320384,0.1927502,0.03219621,-0.9026283,0.4922338,0.1449311
1.248293,0.04820192,0.02723608,0.232084,0.2465683,0.04579471,-1.421981,0.7195972,0.1615583
1.135372,0.02876819,0.09554799,0.1193477,0.2265204,0.1150987,-1.887932,0.3448967,0.115934
1.069978,-0.05664854,0.04842471,0.05405876,0.1405062,0.0689605,-2.101331,0.2212429,0.1625898
1.012183,-0.2185686,0.04694659,-0.003711582,-0.02200277,0.06845395,-1.961689,0.1695327,0.2086258
0.976117,-0.2513294,0.04310531,-0.03982791,-0.05534627,0.06556524,-1.720803,0.2217638,0.2552686
0.9591475,-0.2002143,-0.04806177,-0.05691693,-0.004805907,-0.02467237,-1.600331,0.6202839,0.2744266
0.8749568,-0.2021863,-0.0669682,-0.1412878,-0.007342392,-0.04267428,-1.54993,0.6390545,0.1832359
0.8163898,-0.1653225,-0.01615354,-0.2000857,0.02896852,0.009020141,-1.655245,0.4034507,0.138004
0.8007588,-0.169714,0.0606883,-0.2159854,0.02403575,0.08671659,-1.711009,0.1421987,0.09552399
0.7902079,-0.2228906,0.0769764,-0.2268289,-0.02967075,0.1038314,-1.570774,0.1517956,0.0397384
0.8141744,-0.2126765,0.01401776,-0.2031652,-0.01997432,0.04166733,-1.457651,0.4157667,0.003165592
0.7714465,-0.1843464,-0.02377102,-0.2461933,0.007851592,0.004637719,-1.278833,0.3388128,-0.0388969
0.7291907,-0.1639797,-0.0449902,-0.2887341,0.02772821,-0.01585866,-1.145296,0.1527757,0.06534221
0.7704425,-0.2195807,-0.02666324,-0.2477389,-0.0283489,0.003155314,-1.085501,-0.09165779,0.158626
0.8279004,-0.2931576,-0.0006445295,-0.1904975,-0.102387,0.029826,-0.9624655,-0.07968916,0.03835049
0.9026313,-0.2173618,0.006506588,-0.1159344,-0.0270347,0.03759404,-1.029762,0.3461283,-0.2000511
0.8834037,-0.1415455,0.07896969,-0.1352756,0.04835811,0.1106378,-1.081376,0.4330523,-0.4667008
0.7699927,-0.1507082,0.1536111,-0.2487418,0.03879148,0.1858205,-0.9784346,0.2484301,-0.5412034
0.7219139,-0.1258918,0.1516261,-0.2968117,0.06322142,0.1843314,-1.00922,-0.00564867,-0.3832083
0.7567728,-0.1147823,0.08117351,-0.2618711,0.07395888,0.1143229,-1.189103,0.008342137,-0.3014186
0.8872759,-0.1656727,-0.0190968,-0.131206,0.02270788,0.01444017,-1.473941,0.4538525,-0.3213463
1.122814,-0.317048,-0.1221341,0.104577,-0.129018,-0.08826604,-1.543037,0.6983146,-0.2414912
1.437708,-0.5361966,-0.2323662,0.4197917,-0.348503,-0.1982184,-1.199158,0.9035162,-0.1883936
1.603482,-0.5449499,-0.2627902,0.585943,-0.3575673,-0.2284042,-0.8036533,1.31703,-0.3050389
1.384381,-0.357312,-0.1334812,0.3672482,-0.1702003,-0.09888663,-0.6927591,1.326045,-0.3741613
1.168435,-0.2770331,0.06038626,0.1517115,-0.09014143,0.09516838,-0.9657454,-0.05509618,-0.2059464
1.28698,-0.3086,0.06183024,0.2706529,-0.1218724,0.09678077,-1.175804,-1.47232,0.1877406
1.510978,-0.3733414,-0.1746814,0.4950188,-0.1867191,-0.1395829,-0.9261149,-0.3822951,0.4234656
1.634017,-0.4177099,-0.3063314,0.6183799,-0.2311302,-0.2711021,-0.669574,0.6951045,-0.0118484
1.398295,-0.3169721,-0.1322193,0.382911,-0.1303667,-0.09686777,-0.6899874,-0.4809648,-0.4627744
0.924999,-0.1552056,0.0579388,-0.09021937,0.03149639,0.09341172,-0.7678492,-1.396787,-0.02945806
0.837382,-0.09439299,-0.04277098,-0.1777605,0.09247409,-0.007175827,-0.8217417,-1.580971,0.4644782
0.9812151,-0.1554422,-0.1772173,-0.0339322,0.03165128,-0.1414996,-0.7351594,-1.226556,0.4475103
0.9471917,-0.233685,-0.1673146,-0.06802987,-0.04631134,-0.1314714,-0.5360528,-0.1660472,0.5195043
0.9173289,-0.2256007,-0.15597,-0.09802747,-0.03789763,-0.1199927,-0.4311044,-0.188563,0.4192136
0.8845475,-0.1635232,-0.05356288,-0.1309951,0.0245552,-0.01743787,-0.3992361,-0.4648369,0.1786029
0.8320846,-0.09353816,-0.02970339,-0.1836855,0.09495714,0.006584829,-0.5230827,-0.1483326,0.3318782
0.8547098,-0.08525171,-0.1309136,-0.1613176,0.1036951,-0.0944466,-0.7787561,-0.4667905,0.4337317
0.8453193,-0.1031822,-0.1194799,-0.1709837,0.08624235,-0.08281779,-0.8586275,-0.4871684,0.4284818
0.8519296,-0.07679296,-0.1517151,-0.1646566,0.1131275,-0.1148392,-0.7648927,-0.2338744,0.428079
0.9200274,-0.1212347,-0.1588331,-0.09683995,0.06919211,-0.1217213,-0.5814048,-0.2193081,0.2268451
0.9844059,-0.1586269,-0.1253425,-0.03273374,0.03231021,-0.08796947,-0.3169149,0.2672035,0.1322482
0.9837479,-0.1208928,-0.1702479,-0.03365122,0.07055379,-0.1325851,-0.1867619,0.3961854,0.1153734
0.8975468,-0.1145957,-0.131062,-0.1200965,0.07735516,-0.09307809,-0.2874483,0.257206,0.06783911
0.8298952,-0.1014081,-0.1250882,-0.187973,0.09103742,-0.08674949,-0.3399217,0.3481002,0.1052897
0.8039765,-0.1462425,-0.1311082,-0.2140905,0.04668314,-0.09237961,-0.2089251,0.3142796,0.1186509
0.8084298,-0.241924,-0.07957177,-0.2098015,-0.04853587,-0.04041733,-0.08941382,0.4691637,0.186558
0.7929711,-0.2370365,-0.06907713,-0.2253811,-0.04320362,-0.02946143,0.05786818,0.4973582,0.2429194
0.7172812,-0.1613807,-0.01089412,-0.3011396,0.03288051,0.02921618,0.1611459,0.2200343,0.2335414
0.7087946,-0.03643614,-0.02031616,-0.3096326,0.1582363,0.02031847,-0.01105401,-0.006191903,0.2599794
0.8008287,0.08299465,-0.06920743,-0.2175324,0.2780564,-0.02802295,-0.2677177,0.1062354,0.1569854
0.9372886,0.1000497,-0.05824255,-0.08092671,0.2954685,-0.01648597,-0.5381061,0.5347871,0.01038863
0.9958769,0.04113117,-0.1051336,-0.02211124,0.2368627,-0.06278477,-0.7333935,0.7597106,-0.01111584
0.9005652,-0.03265773,-0.104162,-0.1171167,0.1633314,-0.06120165,-0.6261496,0.836596,0.003577628
0.8430627,-0.07377066,-0.0564323,-0.1742363,0.1224137,-0.01284168,-0.4611087,0.5535461,-0.0313429
0.8851492,-0.10022,-0.04674266,-0.13169,0.09609353,-0.002504295,-0.3689578,0.1646362,-0.1919526
0.9097015,-0.1361736,-0.07165447,-0.1066007,0.06020192,-0.02675303,-0.3346397,0.3423234,-0.3922159
0.9594217,-0.2252032,-0.1585368,-0.05626703,-0.02883191,-0.1129585,-0.5207721,0.4361703,-0.5343862
1.139201,-0.4876172,-0.1931163,0.1241982,-0.2913107,-0.1468466,-0.6760967,0.4628578,-0.7529562
1.406181,-0.8342387,-0.1592836,0.3919258,-0.6380433,-0.1123049,-0.5398905,0.6057591,-1.087661
1.56118,-0.9312952,-0.1212342,0.5477146,-0.7352305,-0.07352598,-0.2366638,0.4698119,-1.178013
1.566238,-0.7495355,-0.03518471,0.5535772,-0.5535872,0.01327463,0.3153417,0.4050438,-0.8593547
1.621439,-0.6258307,0.04277596,0.6095666,-0.4299535,0.0920056,0.8622448,0.2941792,-0.6132916
1.696273,-0.5176553,-0.002052965,0.6851403,-0.3217811,0.04796079,0.7431013,0.1718107,-0.5855353
1.598816,-0.1779361,-0.06737549,0.5883448,0.01801618,-0.01656961,0.2787361,0.74279,-0.3877074
1.418842,0.06840104,0.02531736,0.408926,0.2645134,0.07691891,-0.06643659,1.265878,-0.0552039
1.216346,-0.02425107,0.1239759,0.2068596,0.1720926,0.1763716,-0.4697896,0.6032188,0.1156754
0.9698019,-0.103023,0.1067611,-0.03938727,0.09360798,0.1599415,-0.5788368,-0.1550715,0.2002282
0.8647247,-0.1132398,0.06939718,-0.144296,0.08372243,0.1233437,-0.4177864,0.1034844,0.275287
0.8273894,-0.2388357,0.0154362,-0.1815792,-0.04150667,0.07012239,-0.4064251,0.3500313,0.2165488
0.6844915,-0.2672156,0.04405486,-0.3245247,-0.06948877,0.09944867,-0.2331126,0.2385651,0.1926143
0.5887763,-0.2030394,0.1270577,-0.420366,-0.004885644,0.1831223,-0.03791349,0.03729897,0.2259596
0.5792127,-0.2265953,0.1398958,-0.4301101,-0.02798668,0.1965879,0.04382,-0.5428054,0.1485404
0.643509,-0.2169444,0.1661874,-0.3660233,-0.01785509,0.2234557,0.2556353,-0.7270854,0.09392376
0.7905435,-0.2045931,0.1644179,-0.2192049,-0.004999658,0.2222026,0.3661595,-0.419518,0.008283633
0.8726405,-0.2011473,0.1456118,-0.1373148,-0.001028486,0.203845,0.4653322,-0.317666,-0.05970564
0.8796018,-0.1192407,0.158204,-0.130541,0.08142116,0.21681,0.5306902,-0.1603534,-0.01575732
0.8290005,-0.05282181,0.1363837,-0.1813036,0.1483957,0.1952807,0.3847655,-0.2713218,-0.07705641
0.6878819,0.01538764,0.1443143,-0.3225497,0.2171651,0.2034149,0.2738199,-0.7838532,-0.1218612
0.5887713,0.05605598,0.1582986,-0.4217429,0.2583866,0.2175108,0.1482379,-1.216856,-0.123958
0.6518948,-0.04357831,0.1401597,-0.3586421,0.1592864,0.1993871,0.09032153,-1.652525,-0.1618321
0.8194028,-0.2080949,0.08544148,-0.1910829,-0.004724593,0.1445845,0.2135454,-1.7232,-0.01154231
0.9481366,-0.2840154,-0.04228082,-0.06221567,-0.0801716,0.01667728,0.2962263,-1.290937,0.2427236
1.0034,-0.2192974,-0.1314157,-0.006735409,-0.01501035,-0.07273903,0.3149386,-0.7115889,0.3491448
0.9984395,-0.1583118,-0.1523644,-0.01140047,0.04639071,-0.0940572,0.3051056,-0.1618999,0.1918928
0.9170587,-0.1512601,-0.07880454,-0.09241172,0.05383067,-0.0209442,0.3277691,-0.2132831,-0.1247907
0.8525727,-0.1400403,0.08822241,-0.1564574,0.06541005,0.1455671,0.376792,-0.6927146,-0.3710395
0.9026414,-0.1458281,0.1277422,-0.1058786,0.05995127,0.1845059,0.444775,-0.8004124,-0.4609639
1.031965,-0.1143052,0.04373747,0.0240244,0.09177074,0.0998544,0.5293224,-0.3351299,-0.3180627
1.124753,-0.08540182,-0.003100948,0.1174547,0.1209354,0.05230298,0.4120099,0.4156054,-0.1216933
1.149045,-0.1648635,-0.04665592,0.1424451,0.04169693,0.007971435,0.2398834,0.695285,-0.04508819
1.129032,-0.2790105,-0.1812484,0.1231728,-0.07226605,-0.1274554,0.2191678,0.6074113,-0.03285224
1.107755,-0.3175024,-0.3406181,0.102668,-0.1106102,-0.287707,0.1480147,0.7040369,-0.2414221
1.200228,-0.2544262,-0.3080586,0.1959335,-0.04741698,-0.2560614,0.07931064,0.7110521,-0.5271218
1.3969,-0.1699141,-0.1344884,0.3934048,0.03718696,-0.08342041,0.1059313,0.6955057,-0.4942348
1.679401,-0.1343527,-0.07496787,0.6766939,0.07281673,-0.02483209,0.04290159,0.51127,-0.1056647
1.859683,-0.1584074,-0.1881857,0.8577236,0.04880656,-0.1389778,-0.05231987,0.1494266,0.2239363
1.598163,-0.2577232,-0.2685441,0.5968757,-0.05048933,-0.2202523,-0.01297275,0.212746,-0.005629291
1.153368,-0.34523,-0.01482463,0.1526467,-0.1379986,0.03257132,0.1379174,-0.0892004,-0.2199705
0.9636382,-0.342182,0.2246492,-0.03663571,-0.1349698,0.2711734,0.3429785,-1.095722,0.1921077
1.043797,-0.3213215,-0.04340136,0.04385254,-0.1141373,0.002271185,0.5526614,-1.429492,0.5170535
1.120243,-0.322614,-0.292695,0.1205146,-0.1154598,-0.2478569,0.7437624,-0.7048557,0.4650208
0.972284,-0.287495,-0.1834451,-0.02733532,-0.08036636,-0.1394193,0.8021749,-0.1415671,0.4070307
0.8036588,-0.1823561,-0.1141184,-0.1959524,0.02475531,-0.07087424,0.7104166,-0.5670177,0.356097
0.7198257,-0.06957277,-0.1015615,-0.2798657,0.1375301,-0.05906235,0.6309219,-0.883867,0.389067
0.7451807,-0.04982643,-0.08915358,-0.2546613,0.1572725,-0.04735969,0.5269563,-0.5094225,0.4838293
0.9350188,-0.1061628,-0.1422526,-0.06502704,0.1009298,-0.1011221,0.4349225,-0.2893698,0.5031786
0.9726514,-0.1227375,-0.1113974,-0.02763865,0.08434016,-0.07088577,0.3979174,0.03170939,0.393225
0.8662217,-0.08673359,-0.029997,-0.1343451,0.1203159,0.009942225,0.3254564,0.2645989,0.168104
0.7863062,-0.0502631,0.01403107,-0.2145618,0.1567404,0.05344401,0.2793513,-0.09572103,0.1316168
0.723126,-0.01430797,0.01219926,-0.2780563,0.1926259,0.05112907,0.1939457,-0.2800345,0.2898288
0.7999571,-0.009330093,-0.1055716,-0.2015391,0.1975036,-0.06708524,0.1263862,-0.3241362,0.425414
0.853419,-0.0410766,-0.2026173,-0.1483784,0.1656193,-0.1645354,0.2497097,-0.08991764,0.504645
0.8244042,-0.08612812,-0.1729106,-0.1776719,0.1203864,-0.1351907,0.3835338,0.7150252,0.3398637
0.7368908,-0.1545964,-0.08040679,-0.2654331,0.05168976,-0.04300233,0.4118536,1.017847,0.07355485
0.5512937,-0.1838289,0.03346041,-0.4512363,0.02218127,0.07059781,0.4370494,0.6552536,0.01078058
0.5858158,-0.1596161,0.04412114,-0.4168632,0.04607217,0.08103681,0.5142478,0.1202281,0.009671109
0.7625155,-0.1454893,-0.04091046,-0.2402392,0.05983346,-0.004176521,0.5849426,-0.2331259,-0.06293193
0.8913916,-0.1119544,-0.1175274,-0.1113542,0.09296054,-0.08093905,0.6055397,0.18929,-0.2375947
0.9870693,-0.07577979,-0.1638088,-0.01557961,0.1286851,-0.1273301,0.5495944,0.8231684,-0.4486623
0.8894645,-0.1308566,-0.1220374,-0.1130014,0.07311521,-0.08563015,0.3787621,0.9625784,-0.5985458
0.8612873,-0.3365144,-0.02433358,-0.1409122,-0.1330779,0.01204246,0.2798188,0.94145,-0.8205566
1.120803,-0.6507319,0.06476644,0.118951,-0.4478652,0.1011502,0.3299987,0.8091375,-1.121459
1.505961,-0.7555349,0.09837162,0.5045284,-0.5532541,0.1347966,0.3581039,0.3264507,-1.220362
1.827086,-0.4914483,0.09729692,0.8261213,-0.2897445,0.1337887,0.4018184,-0.105045,-0.9147324
1.850251,-0.2753199,0.1857857,0.8497674,-0.07416376,0.2223606,0.5459196,-0.2549128,-0.5096259
1.840061,-0.2726876,0.2232718,0.8400265,-0.07203916,0.259935,0.7208367,-0.3653284,-0.4186817
1.987404,-0.171892,0.03446321,0.987745,0.02829163,0.07120891,0.8242058,0.04229992,-0.4029451
1.866169,-0.0479245,-0.1140343,0.8667685,0.1518356,-0.07721925,0.6952865,0.9664074,-0.2986391
1.36427,-0.08718742,0.06738672,0.3649763,0.112185,0.1042567,0.3370163,1.155458,-0.2242843
0.8274172,-0.09738546,0.292778,-0.1719414,0.1016276,0.3296861,0.05515805,0.3372499,0.07482201
0.7135838,-0.07161215,0.2264328,-0.286005,0.1270629,0.2633538,0.001923215,-0.4980145,0.4767151
0.8467354,-0.1659009,0.125667,-0.153229,0.03245144,0.1625642,0.09092278,-0.6425263,0.6489448
0.6513119,-0.2347313,0.08588045,-0.3491503,-0.03669016,0.1227088,0.1894904,-0.3017165,0.7135004
0.5629001,-0.1924796,0.003447578,-0.4381573,0.005261211,0.040158,0.1833016,-0.1295099,0.6237376
0.6896223,-0.1585192,0.05070448,-0.3121008,0.03893231,0.08724701,0.2030291,-0.161792,0.3619639
0.5411084,-0.1285278,0.09879813,-0.4613241,0.06864435,0.1351228,0.2552185,-0.1437069,0.04218601
0.5352214,-0.1053377,0.09587,-0.4679385,0.0915624,0.1319255,0.2099355,-0.2304037,-0.2415031
0.618387,-0.1211643,0.1713808,-0.3854922,0.07546731,0.2071134,0.1499197,-0.4418169,-0.266024
0.5527624,-0.1223281,0.1435732,-0.4518045,0.074035,0.1789253,0.07183674,-0.7460331,-0.1312708
0.6686989,-0.1182959,0.1013107,-0.336503,0.07779545,0.1362207,0.05736058,-1.125847,0.1412754
0.7715515,-0.134517,0.09703353,-0.2342154,0.0612965,0.1314372,0.1380083,-1.236952,0.5161891
0.8954451,-0.1582731,-0.04152363,-0.1108059,0.03725427,-0.007690619,0.1794466,-0.9107401,0.5204545
1.007624,-0.1849539,-0.1350261,0.0009742962,0.0102778,-0.1018246,0.2536559,-0.4103582,0.2490068
0.8660638,-0.1923328,-0.04876907,-0.1408999,0.0025941,-0.01625234,0.2912597,-0.2514289,0.06973874
0.8109722,-0.2026089,0.08294341,-0.1962215,-0.007995115,0.1147294,0.2333349,-0.511474,-0.003559187
0.8039979,-0.2475271,0.09476692,-0.2033391,-0.05323265,0.1257795,0.1793344,-0.5593734,0.02362719
0.7623114,-0.2711682,0.03965226,-0.2450781,-0.07719652,0.06984903,0.101172,-0.08107406,-0.03374552
0.8761939,-0.3041957,0.003305947,-0.1311531,-0.1105457,0.032645,0.06162237,0.4845835,-0.1931524
1.11296,-0.4560652,-0.1833735,0.1057521,-0.2627293,-0.1549304,0.1048704,0.5785125,-0.2868425
1.45175,-0.5811794,-0.4303792,0.4447682,-0.3881395,-0.4028607,0.2735495,0.4854075,-0.4273101
1.652055,-0.4738017,-0.4330389,0.6453667,-0.2810252,-0.4064556,0.6820902,0.6834768,-0.5404125
1.629729,-0.2200867,-0.1563469,0.6233697,-0.02752763,-0.1306887,0.97152,0.6937292,-0.4523338
1.615114,0.04719864,0.1439746,0.6090841,0.2395903,0.1687316,0.5964183,0.1506994,-0.1995926
1.625343,0.2316681,0.1767239,0.6196106,0.4239342,0.2006047,-0.1095191,-0.5184083,0.2301413
1.612617,0.1804568,-5.154304e-05,0.6071188,0.3726216,0.02297245,-0.4408704,-0.6669335,0.4576356
1.50805,-0.03865963,-0.1093895,0.5026974,0.1534083,-0.08720692,-0.4421551,-0.4551479,0.1454784
1.264929,-0.2298425,-0.05087683,0.2596108,-0.03787939,-0.02951905,-0.3863683,-0.6426909,-0.1064779
1.068136,-0.2913884,-0.02761595,0.06273096,-0.09954127,-0.007063023,-0.325142,-0.8653528,0.009453731
1.094196,-0.1832305,-0.1307646,0.08858129,0.008492152,-0.1109938,-0.234283,-0.6950583,0.1612536
1.101051,-0.08968575,-0.1920437,0.09510811,0.1019063,-0.1730285,-0.1680607,-0.3634925,0.4249204
0.8915856,-0.05861855,-0.2099641,-0.1147982,0.1328352,-0.1916707,-0.3246953,0.006517457,0.7109702
0.7279592,0.00235624,-0.1697365,-0.2789663,0.1936591,-0.152123,-0.5101454,-0.1625787,0.7024154
0.7145888,-0.05090807,-0.1004375,-0.2929618,0.1402247,-0.08345481,-0.5630327,-0.4809557,0.5208811
0.8162674,-0.09566595,-0.1331002,-0.191971,0.09527147,-0.1166946,-0.5902523,-0.1837213,0.3028235
0.925483,-0.04609807,-0.1644544,-0.08348776,0.1446144,-0.1485687,-0.5625447,0.07410285,0.2055963
0.8528745,-0.03479905,-0.1704909,-0.1568596,0.1556551,-0.1550638,-0.6313922,0.2560652,0.3589795
0.7910562,0.01919528,-0.1620634,-0.2194605,0.2093531,-0.1470293,-0.7484996,0.3740905,0.5231436
0.798341,0.01318158,-0.1117979,-0.212965,0.2029993,-0.09708748,-0.8120497,0.1286149,0.5925416
0.7880006,-0.0551516,-0.120711,-0.2240879,0.1342765,-0.1062527,-0.8642494,0.1452497,0.6255996
0.8372816,-0.06937753,-0.1383787,-0.1755699,0.1196074,-0.1240996,-0.794641,0.1737481,0.6167353
0.8274387,-0.1164203,-0.1474226,-0.1861453,0.07206635,-0.1332489,-0.7731503,0.04109095,0.6367405
0.8230208,-0.1161587,-0.1939382,-0.1912558,0.07177494,-0.1797943,-0.7648065,0.2562935,0.6354475
0.8958245,-0.09680054,-0.1913841,-0.1190964,0.09052666,-0.1771917,-0.6750053,0.5693232,0.5926072
0.9079005,-0.1016573,-0.1694226,-0.1076104,0.08501141,-0.1551003,-0.7032471,1.079748,0.5732806
0.9026629,-0.03167749,-0.1310073,-0.1133797,0.1542815,-0.116472,-0.7877347,1.521302,0.4557651
0.8378182,0.01451701,0.006862846,-0.1786944,0.1997141,0.02169414,-0.9782863,1.375327,0.2536883
0.7396025,-0.007491359,0.1385723,-0.2773134,0.176889,0.1537776,-1.197503,0.9603946,0.1681185
0.7233561,-0.07613936,0.1260779,-0.2938885,0.1073667,0.1417248,-1.212808,0.3131511,0.234309
0.6883957,-0.2417886,-0.0128401,-0.3290935,-0.05921426,0.003304091,-1.107207,-0.1272458,0.2969149
0.6618741,-0.5210209,-0.188862,-0.3557647,-0.3394289,-0.1721728,-0.817812,0.04501665,0.1870115
0.8267748,-0.7985452,-0.2706437,-0.1909089,-0.6179686,-0.253363,-0.3587875,0.6002536,-0.2960739
1.204585,-0.9198537,-0.1823414,0.1869654,-0.740297,-0.1644182,-0.07351292,1.560627,-1.204898
1.518581,-0.8869748,-0.06736745,0.5011249,-0.7084059,-0.04874685,-0.136592,1.953911,-1.760724
1.599332,-0.5955579,-0.01809245,0.5821165,-0.4179101,0.001280395,-0.4583155,0.9819052,-1.432972
1.706758,-0.1104644,-0.00948152,0.6898265,0.06635314,0.01069427,-1.017269,-0.2203968,-0.8970593
1.902109,0.05845315,-0.1606553,0.8854675,0.2345368,-0.1396307,-1.47391,-0.3832311,-0.3580335
1.897635,-0.1289912,-0.3214544,0.8812477,0.04644643,-0.2995366,-1.388387,0.8167867,0.01825318
1.644081,-0.1998618,-0.2046978,0.6278727,-0.02499261,-0.1818382,-1.381541,1.952903,-0.2114587
1.327616,-0.1559894,-0.01621375,0.3114785,0.01838273,0.007640164,-1.695222,1.408542,-0.2078515
1.096782,-0.2133773,0.05402547,0.08059147,-0.03943447,0.07892453,-1.731725,0.7086354,0.09182248
0.9940821,-0.2225877,0.066268,-0.02228939,-0.04900928,0.09225537,-1.732783,0.904361,-0.01872657
0.9083455,-0.2080716,0.03563749,-0.1083263,-0.03479465,0.06274644,-1.621166,0.6912215,-0.00391205
0.8132873,-0.2599285,0.02853239,-0.2037916,-0.08689139,0.05678683,-1.217643,0.5594066,0.08650849
0.7846118,-0.1795293,-0.007352781,-0.2329646,-0.006671489,0.02206315,-1.191003,0.6956747,0.0789344
0.7592015,-0.09863285,-0.07572134,-0.2589437,0.07410386,-0.0451339,-1.401047,0.362457,0.238072
0.7496785,-0.182673,-0.0006633352,-0.2690879,-0.01000381,0.03110156,-1.434616,0.294977,0.1637695
0.7620187,-0.264433,0.1150057,-0.2574021,-0.09178197,0.1479496,-1.288024,0.1632464,0.005492845
0.7549846,-0.3033223,0.1573591,-0.2651063,-0.1306413,0.1914756,-0.9565877,-0.08922708,-0.09641659
0.8026776,-0.2624161,0.1679977,-0.2180825,-0.08965566,0.2032698,-0.7316594,0.1489287,-0.2968209
0.823589,-0.1262949,0.08820394,-0.1978257,0.04659515,0.1246031,-0.5644167,0.1509765,-0.4020664
0.7656479,-0.0141146,0.02181331,-0.2563945,0.158952,0.05930221,-0.4824398,-0.0194225,-0.4962591
0.7068935,0.002944738,0.07261644,-0.3157377,0.1762263,0.1111518,-0.6618308,-0.2593343,-0.4351179
0.6760142,-0.05831708,0.1180168,-0.3471534,0.115207,0.1575505,-0.7043194,-0.6864767,-0.3001667
0.6927649,-0.08132072,0.1130745,-0.3308727,0.09246345,0.1535526,-0.5741836,-0.8697349,-0.2529246
0.6982054,-0.08240717,0.08498796,-0.3258218,0.091647,0.1263503,-0.4792642,-0.9593809,-0.02025807
0.7391425,-0.1245996,0.008245244,-0.2851821,0.04972832,0.05042689,-0.4449973,-1.026975,0.1343961
0.8361212,-0.1278832,-0.09661337,-0.1883992,0.04671765,-0.05367898,-0.4819835,-1.073033,0.169396
0.8578612,-0.1343285,-0.1168871,-0.1667479,0.04054098,-0.07326402,-0.4645441,-0.8311397,0.1636525
0.8346835,-0.1869368,-0.04880309,-0.1899047,-0.01180531,-0.004550471,-0.4682311,-0.3812508,-0.02199258
0.8315089,-0.2132774,0.005917262,-0.1929477,-0.03789136,0.05074439,-0.4020332,-0.4342814,-0.1381224
0.8504618,-0.225498,0.06053746,-0.173751,-0.04986404,0.1058854,-0.08661673,-0.5253844,-0.2743976
0.8726332,-0.258317,0.1008518,-0.1512233,-0.08243965,0.1466654,0.3052178,-0.3611413,-0.3495452
0.9286783,-0.3101348,0.0576464,-0.09471036,-0.1340152,0.1038672,0.5625986,-0.2279298,-0.1825356
1.085831,-0.356817,-0.04251563,0.0630181,-0.1804513,0.004051612,0.4966018,0.01639125,-0.1306514
1.239515,-0.3541683,-0.1495513,0.2173752,-0.1775457,-0.1026973,0.292185,0.1635214,-0.1607403
1.384098,-0.3284287,-0.2658775,0.3627144,-0.1515312,-0.2187902,0.2069967,0.3598099,-0.2015001
1.561345,-0.3245108,-0.3802444,0.5407776,-0.1473139,-0.3329657,0.2061315,0.9233832,-0.311938
1.505691,-0.2985291,-0.3270542,0.4859693,-0.1210034,-0.2796103,0.2159033,1.052276,-0.3407095
1.204779,-0.2471614,-0.05940992,0.1859058,-0.06927361,-0.01181232,0.01700398,-0.08426604,-0.1892678
1.069684,-0.2416504,0.1217809,0.05164228,-0.06336581,0.1695279,-0.0624092,-1.477168,0.1498601
1.253095,-0.3205499,0.02787718,0.2358577,-0.141833,0.0757674,0.4616921,-1.383007,0.2749742
1.638426,-0.4392393,-0.214846,0.6219557,-0.2600525,-0.1668222,1.050401,-0.1999801,0.008243243
1.838205,-0.426106,-0.3458643,0.8224414,-0.2464057,-0.2977138,1.057134,0.4271804,-0.4110614
1.390105,-0.2629078,-0.1705085,0.3749592,-0.08264375,-0.1222286,0.6635209,-0.008305677,-0.7113466
0.7970192,-0.07825038,0.09289237,-0.2176186,0.1026298,0.1413121,0.2933651,-1.080123,-0.2997371
0.7834865,0.04281601,0.08555484,-0.230754,0.2243589,0.1341243,0.07175717,-1.670771,0.4378076
0.9728327,-0.07683928,-0.1112395,-0.04110742,0.1054014,-0.06251557,0.2363181,-0.8964177,0.5707779
0.9410575,-0.2577597,-0.2156626,-0.0726658,-0.0747973,-0.1667815,0.5430808,-0.01829479,0.451661
0.8672984,-0.2350232,-0.1580836,-0.1462816,-0.05132056,-0.109039,0.4068159,-0.3911962,0.358994
0.8217154,-0.2078732,-0.0923696,-0.191784,-0.02341323,-0.04315004,0.3076268,-0.6579267,0.1765221
0.8246904,-0.1525441,-0.1537744,-0.1887788,0.03268864,-0.104365,0.3327497,-0.2282989,0.1944146
0.881409,-0.04148139,-0.1889993,-0.1320674,0.1445357,-0.1393824,0.2016057,-0.2530835,0.2746543
0.8660217,-0.04962289,-0.1268406,-0.1474883,0.1371828,-0.07699489,0.2634129,-0.02561617,0.2446618
0.8573432,-0.09732129,-0.06460062,-0.1562171,0.09026857,-0.01450194,0.2722178,0.2935904,0.2709927
0.8585228,-0.1528919,0.03366464,-0.1550954,0.03547037,0.08404009,0.3267436,-0.2114993,0.2787726
0.7882293,-0.1661326,0.01256317,-0.2254453,0.0229856,0.06323545,0.5809132,-0.3678864,0.2692471
0.7870942,-0.1139137,-0.1281018,-0.2266254,0.07594073,-0.07711713,0.6377002,-0.2666273,0.3107816
0.8485008,-0.1032866,-0.1823873,-0.1652424,0.08728131,-0.1310762,0.7385503,0.002000588,0.3046863
0.8803319,-0.1084817,-0.2349995,-0.1334049,0.08277255,-0.1833448,0.8113063,0.8611232,0.1866351
0.8009301,-0.1547232,-0.158202,-0.2127639,0.0371865,-0.1061817,0.764835,1.061482,-0.0007617415
0.6580701,-0.2002411,0.02017322,-0.3555376,-0.007709365,0.07258453,0.8487471,0.5293163,-0.09899188
0.6917174,-0.1597071,0.02267958,-0.3217498,0.03341282,0.07550586,0.8934865,-0.04067747,-0.1130382
0.8208814,-0.08869296,-0.04203578,-0.1923796,0.1049806,0.01122425,0.8970906,-0.1562399,-0.1452678
0.9108414,-0.01306194,-0.1369407,-0.1021404,0.1811279,-0.08323232,0.8342837,0.3253758,-0.1627362
0.9308408,-0.009457018,-0.1790235,-0.08178628,0.1852062,-0.1248527,0.6799785,0.660283,-0.2590776
0.8919133,-0.1437721,-0.09225593,-0.1202847,0.05131525,-0.03760679,0.5056759,0.9182757,-0.47562
1.008307,-0.3820241,-0.00920291,-0.003389603,-0.186564,0.04594145,0.3479089,1.035321,-0.7442059
1.250766,-0.5613692,0.113888,0.2396383,-0.3655813,0.1695415,0.3678653,0.6328141,-1.005427
1.494468,-0.5028101,0.1516093,0.4839634,-0.3067245,0.207778,0.4046678,0.08058759,-0.9480633
1.621212,-0.3744969,0.0629664,0.6113604,-0.178127,0.1196462,0.4258822,-0.04332832,-0.5258055
1.547121,-0.3498896,0.06083092,0.5379228,-0.153236,0.1180085,0.5255157,0.2101519,-0.2123032
1.576696,-0.3388177,0.1332905,0.5681207,-0.1418722,0.1909449,0.5468797,0.1489375,-0.2391026
1.661115,-0.2994165,0.1894849,0.6531027,-0.1021651,0.2475872,0.6046336,0.1080953,-0.3099894
1.526668,-0.2212142,0.1232186,0.519131,-0.02363862,0.1817301,0.7038644,0.2596144,-0.1208374
1.314004,-0.1783693,0.04361796,0.3068322,0.01954968,0.1024916,0.6881023,0.2659866,0.08515722
1.04829,-0.2112327,0.1082264,0.0413583,-0.0129526,0.1674093,0.6605776,0.3535767,0.1596059
0.8131929,-0.1739626,0.1283931,-0.1936227,0.02469389,0.1878278,0.6245626,0.09247669,0.3936976
0.7778456,-0.1255214,0.08876649,-0.2289674,0.0735238,0.1483904,0.4893428,-0.33478,0.6425145
0.7889359,-0.1354319,0.09620388,-0.2179702,0.06401005,0.15595,0.3596062,-0.3686903,0.6627841
0.7758363,-0.1440043,0.08568814,-0.2312404,0.05583774,0.1454859,0.3335755,-0.3262926,0.5891662
0.7767632,-0.1974083,0.08188264,-0.2305435,0.002832942,0.1416587,0.3893425,-0.3188534,0.4881775
0.7534561,-0.234774,0.1167224,-0.2541232,-0.0341367,0.1764011,0.5600855,-0.4433233,0.3079356
0.740156,-0.2485757,0.1452381,-0.2677221,-0.04754598,0.2047413,0.7969406,-0.5839887,0.06275298
0.7878855,-0.2181575,0.1460716,-0.2203018,-0.016738,0.2053176,0.9742688,-0.6129911,-0.1139081
0.8558408,-0.1053182,0.1420047,-0.1526525,0.09648839,0.2009079,1.007872,-0.6369142,-0.219977
0.856911,-0.1126807,0.1505421,-0.1518744,0.08950747,0.2090137,0.9026219,-0.6397823,-0.2362314
0.8220283,-0.1541073,0.135715,-0.1870272,0.04845274,0.1936633,0.841554,-0.7374169,-0.09036296
0.8041103,-0.1232293,0.09359831,-0.2051853,0.07968863,0.1509296,0.8140009,-0.757981,0.09793577
0.7650946,-0.1457337,0.02219862,-0.2444022,0.05752478,0.07881924,0.7377321,-0.7683899,0.3209156
0.7526341,-0.1283036,-0.05615866,-0.257016,0.07527495,-0.000339422,0.642556,-0.9000208,0.4226461
0.7967872,-0.109148,-0.05876702,-0.2129587,0.09472696,-0.003833523,0.4999419,-0.8546649,0.2587473
0.835122,-0.1572053,-0.02510264,-0.1746545,0.04693959,0.0288687,0.458333,-0.767089,0.0775622
0.867629,-0.1930472,0.009337755,-0.1421075,0.01133879,0.06227781,0.484874,-0.7276974,-0.0666593
0.9071814,-0.2221005,0.06085538,-0.1024414,-0.01750233,0.1127004,0.4617686,-0.7422875,-0.2216401
0.9312372,-0.2028726,0.04203086,-0.07819761,0.00191017,0.09272057,0.5091196,-0.8214488,-0.2878029
0.9268875,-0.1654333,0.006830431,-0.08228606,0.03950794,0.05630734,0.5225951,-0.6860717,-0.24509
0.9331384,-0.1063972,0.05028269,-0.07570227,0.09867649,0.09849256,0.4693214,-0.3718905,-0.2085843
0.958747,-0.01021873,0.07717662,-0.04969146,0.194959,0.1240682,0.4096006,0.03021589,-0.2320681
0.9617194,-0.07447602,0.05353847,-0.04625033,0.1307724,0.09906259,0.3431886,0.3040248,-0.2641147
1.024127,-0.3062692,-0.06744463,0.01668846,-0.1009877,-0.02333468,0.445343,0.2950907,-0.3265065
1.173855,-0.4990145,-0.2928389,0.1670045,-0.2937346,-0.2501832,0.6540907,0.3837562,-0.3160409
1.253787,-0.5074236,-0.371973,0.2475696,-0.3021689,-0.3307979,0.8021206,0.6032798,-0.3136861
1.247002,-0.3602053,-0.2614992,0.2414492,-0.1549843,-0.2218124,0.855316,0.9818199,-0.5549516
1.269856,-0.1911877,-0.1222398,0.2649823,0.01400241,-0.08403144,0.7066211,1.205181,-0.6743115
1.294402,-0.02831782,0.01233445,0.2902065,0.1768477,0.04908538,0.380456,0.1525098,-0.2118296
1.358768,-0.05606283,-0.04952974,0.355233,0.1490802,-0.01421063,0.1707904,-1.080078,0.5291004
1.676464,-0.2458112,-0.3476622,0.6735514,-0.04069459,-0.3137454,0.4138973,-0.6007755,0.6721491
1.921682,-0.2530085,-0.4543542,0.9193298,-0.04792496,-0.4217996,0.7678021,-0.1012275,0.06262377
1.51657,-0.1989263,-0.1274722,0.5146798,0.006118786,-0.09622414,0.666024,-0.6610992,-0.2829401
1.005269,-0.1100936,0.2230164,0.003718427,0.09490878,0.2530238,0.4415258,-0.8568078,0.155663
1.067154,0.02275651,0.08592345,0.06581087,0.227709,0.1147534,0.3004575,-1.070961,0.6364371
1.093182,-0.08850478,-0.1557888,0.09191858,0.1163845,-0.1280801,0.127752,-1.037333,0.6196268
0.805069,-0.1951454,-0.1084921,-0.1962348,0.009660949,-0.08185025,0.1920515,-0.4125171,0.5986231
0.7317682,-0.1845294,-0.1293128,-0.269685,0.02017208,-0.1036804,0.3232595,-0.7774133,0.6824368
0.7604393,-0.2232331,-0.1178339,-0.2412536,-0.0186578,-0.09314993,0.4230125,-0.9687272,0.5654946
0.7389646,-0.2029307,-0.07660932,-0.263038,0.001498836,-0.05281001,0.6048055,-0.3973,0.5407842
0.8261285,-0.2099801,-0.1918676,-0.1762354,-0.005713831,-0.1688868,0.6220285,-0.2957222,0.4446116
0.8856618,-0.2193209,-0.143437,-0.1170994,-0.01523337,-0.1212053,0.6690923,0.06712613,0.1797041
0.8852889,-0.1692608,-0.1183317,-0.1178938,0.03463434,-0.09677627,0.7227781,0.1982476,0.1622727
0.8323205,-0.1215978,-0.1379127,-0.1712982,0.08209199,-0.1169581,0.5583394,-0.02838777,0.2147885
0.7636206,-0.0261711,-0.05949404,-0.2404384,0.1772984,-0.03906328,0.4820109,0.1634045,0.3267568
0.788518,0.00475058,-0.1028532,-0.2159739,0.2079801,-0.08286944,0.4394545,0.1605983,0.5052066
0.792453,-0.0336907,-0.06385715,-0.2124527,0.1692722,-0.0442445,0.3393566,0.2543453,0.5146163
0.7880337,-0.08112587,-0.04535253,-0.2172554,0.121537,-0.02603666,0.2820556,0.2780715,0.4620445
0.8117535,-0.1782983,-0.0947033,-0.1938789,0.02402749,-0.07561209,0.2697375,0.1220344,0.3640489
0.838387,-0.2272202,-0.03657848,-0.1675404,-0.02526885,-0.01764209,0.36331,0.3343939,0.2760167
0.9128179,-0.2025358,-0.07336201,-0.09334946,-0.000993218,-0.05451292,0.4316176,0.4061173,0.1612293
0.9355839,-0.1451171,-0.05979719,-0.07076537,0.05598607,-0.04097038,0.4556703,0.4381729,-0.05952273
0.9087392,-0.07177334,-0.01442753,-0.09773247,0.1288613,0.0044393,0.4323409,0.3742086,-0.2613794
0.904718,-0.04639501,-0.04321526,-0.1018162,0.153741,-0.02424956,0.3417164,0.1123346,-0.4508684
0.899439,-0.07353493,-0.05217224,-0.107097,0.1260692,-0.03305247,0.3040432,0.2108328,-0.5408145
0.920831,-0.1603698,-0.1166645,-0.08564513,0.03866652,-0.09733825,0.2829871,0.5282601,-0.6021975
1.02257,-0.4182203,-0.06511056,0.0162151,-0.2197863,-0.04552669,0.4546773,0.8606784,-0.7696061
1.223048,-0.7131224,0.01700296,0.2168714,-0.515315,0.03689381,0.7399187,0.8365987,-0.8888474
1.397615,-0.6837899,-0.003934035,0.3916625,-0.4866129,0.01630945,0.7458361,0.5545814,-0.8796381
1.439116,-0.4340435,0.0520057,0.4334143,-0.2374763,0.07264198,0.6383334,0.4531051,-0.6879559
1.425561,-0.2371356,0.07154825,0.4201153,-0.04113968,0.09261094,0.5640486,0.1850503,-0.4167886
1.434614,-0.1205505,0.06688853,0.4294068,0.07491931,0.08840378,0.4611189,0.004569705,-0.2855941
1.478017,-0.1817127,0.1549732,0.4730069,0.01327517,0.1769588,0.4243965,-0.05053087,-0.2397609
1.533733,-0.2967907,0.2048281,0.5288601,-0.1022433,0.2272923,0.4648561,-0.2323962,-0.101512
1.540174,-0.3114016,0.1118175,0.5353548,-0.117253,0.1347571,0.5456403,-0.08219722,0.09054649
1.420573,-0.3001603,-0.01263539,0.4157054,-0.1063659,0.01076737,0.6118855,0.2360324,0.1811862
1.122939,-0.2026274,0.008446296,0.1179037,-0.00913976,0.03229494,0.5090283,0.4723559,0.3114607
0.7159506,-0.1191418,0.03377258,-0.2893727,0.07408629,0.05804782,0.265838,0.2720897,0.5555021
0.4808567,-0.111554,0.01641445,-0.5248622,0.08145801,0.04109517,0.1324615,-0.3252276,0.583294
0.5321186,-0.09267486,0.1025159,-0.4740763,0.1001585,0.1275785,0.100979,-0.368905,0.2833304
0.5999518,-0.1606518,0.1521605,-0.4067686,0.03203363,0.1775771,0.08631742,-0.3495236,-0.04344594
0.5975751,-0.2181421,0.1257594,-0.4096922,-0.02557835,0.1514962,0.1637425,-0.4293851,-0.1494724
0.5828138,-0.2134132,0.09895299,-0.4249971,-0.0209472,0.1249697,0.286954,-0.1766557,-0.05412517
0.5067121,-0.202125,0.05673976,-0.5016157,-0.009733571,0.08299123,0.4231431,-0.4062983,0.04527197
0.4971163,-0.1528701,0.06771318,-0.5116786,0.03946897,0.09415127,0.4871465,-0.8518208,0.086998
0.6280197,-0.1747394,0.06608796,-0.3811699,0.01756755,0.0926627,0.4502343,-1.272657,0.1725072
0.8142045,-0.1868293,-0.0368428,-0.1952898,0.005463308,-0.01018223,0.4971761,-1.584488,0.2357948
0.9650457,-0.1629933,-0.1445493,-0.04465434,0.0293006,-0.1178517,0.5791068,-0.9163714,0.2533149
0.9620341,-0.1842902,-0.1505258,-0.0477718,0.008018637,-0.1238338,0.5759182,-0.1211064,0.2186126
0.8503896,-0.1425298,-0.01623239,-0.1594252,0.04980543,0.01041907,0.5157671,-0.02376521,0.04035476
0.7774036,-0.1245921,0.1475565,-0.2323244,0.0677784,0.1741371,0.4568525,-0.3792541,-0.1605671
0.8520407,-0.1737066,0.1952299,-0.1575031,0.01870496,0.2217073,0.4805095,-0.683464,-0.334565
1.010032,-0.2262462,0.1302889,0.0007712587,-0.03379031,0.1566248,0.5645795,-0.138772,-0.4365865
1.111315,-0.3045891,0.02121622,0.1024311,-0.1120852,0.04736675,0.6487162,0.515371,-0.4179835
1.279574,-0.3591919,-0.1764894,0.2711512,-0.166633,-0.1505689,0.7152813,0.7008476,-0.3700505
1.508228,-0.3634804,-0.4018025,0.5003311,-0.1708536,-0.3761493,0.772992,0.9335389,-0.3139612
1.61407,-0.2817896,-0.3029196,0.6067405,-0.089075,-0.277556,0.7712351,0.8894055,-0.4584161
1.580113,-0.1157286,0.008933843,0.5733596,0.0770974,0.03400152,0.6226794,0.5637458,-0.624216
1.485317,0.05127077,0.1161082,0.4791161,0.2442296,0.140881,0.3340421,0.1547238,-0.4119229
1.485597,0.06409809,0.1032188,0.4799001,0.2572019,0.1276962,-0.03422816,-0.4899207,-0.09777109
1.519407,-0.08514455,0.05453386,0.5141404,0.1081042,0.07871015,-0.1445385,-0.7819267,0.2547514
1.497945,-0.1311248,0.02024466,0.4930144,0.06225957,0.04411024,0.1669107,-0.5029095,0.5246729
1.400095,-0.09696751,0.04080059,0.3953865,0.09653768,0.06434377,0.3682314,-0.04802113,0.1686411
1.053616,-0.1001722,-0.01664459,0.04900267,0.09343545,0.006563599,0.2161264,0.2091486,-0.209556
0.771644,-0.09705374,-0.01751314,-0.2330018,0.09663444,0.005347601,-0.04791235,-0.6885949,0.1837095
0.8296357,-0.1630086,-0.04685882,-0.1751597,0.03073493,-0.02435663,-0.2380386,-1.811976,0.5858296
0.8455877,-0.267206,-0.1914157,-0.1594565,-0.07343306,-0.16928,-0.07561422,-1.086493,0.575042
0.769106,-0.3298061,-0.1970277,-0.2362687,-0.136027,-0.1752599,0.3043303,-0.149018,0.6340709
0.8162831,-0.3164735,-0.1639437,-0.189487,-0.122705,-0.1425363,0.5014638,-0.2858781,0.4968258
0.8362026,-0.2769849,-0.1355997,-0.1700117,-0.08323672,-0.1145371,0.6208633,-0.08803331,0.1644696
0.8124396,-0.2416125,-0.08183846,-0.1942532,-0.04788819,-0.06109834,0.6736676,-0.02145713,0.05210876
0.8704863,-0.09321223,-0.1127123,-0.1367063,0.1004876,-0.09226839,0.5661728,-0.1111299,0.01091763
0.8494599,0.00574416,-0.124564,-0.1582423,0.1994172,-0.1043868,0.5004863,0.2885912,0.08738662
0.8047901,0.01219304,-0.09229559,-0.2034213,0.2058304,-0.07235219,0.4413779,0.4393346,0.2184653
0.8388215,0.06087762,-0.05744215,-0.1698882,0.2544611,-0.0376972,0.3159208,0.5506054,0.2700835
0.7880642,-0.002035201,-0.04244497,-0.2211227,0.1914661,-0.02286219,0.1593534,0.3636744,0.390104
0.7624785,-0.1082999,-0.06837141,-0.2471542,0.08508279,-0.04891476,0.02665449,-0.0695914,0.4379066
0.7781914,-0.1549472,-0.07802813,-0.2318453,0.0382762,-0.05866183,0.1360669,0.2101021,0.3649709
0.7723105,-0.2000913,-0.06449852,-0.2380779,-0.00706812,-0.04518659,0.2895184,0.363673,0.1992461
0.8235306,-0.18511,-0.03629047,-0.1871482,0.007674332,-0.016997,0.3413602,0.3308646,-0.02392233
0.8300749,-0.1467089,-0.02185085,-0.1808258,0.0458009,-0.002540866,0.4479218,0.5269186,-0.1667081
0.8357344,-0.08355996,-0.01783504,-0.1753141,0.1086413,0.001524494,0.3422537,0.3854663,-0.2951366
0.8581637,-0.05601699,-0.02775869,-0.1529546,0.1358411,-0.008318899,0.1191084,0.3590712,-0.3943908
0.8947983,-0.2247217,-0.0499117,-0.1163089,-0.03324282,-0.03036308,0.0880112,0.5656341,-0.5240451
1.085894,-0.4663445,-0.0009114399,0.07487869,-0.2752781,0.01877285,0.115396,0.6400848,-0.8499031
1.337522,-0.5916547,0.05336629,0.3266725,-0.4010227,0.07321057,0.1938395,0.635236,-1.108648
1.516819,-0.5557769,0.05491791,0.5061943,-0.3655829,0.07494222,0.2641417,0.5590301,-0.903194
1.528527,-0.3821612,0.08672367,0.5181603,-0.1923895,0.1069424,0.3140256,0.4586797,-0.4556926
1.468676,-0.2130918,0.1869692,0.4585726,-0.02371313,0.2073899,0.4318369,-0.0511662,-0.174646
1.518563,-0.2134266,0.2514995,0.5087021,-0.02440598,0.2721203,0.4488462,-0.6154735,0.01890795
1.543557,-0.2454402,0.1103755,0.5338928,-0.05674173,0.1311832,0.3693737,-0.2712262,0.05508562
1.508245,-0.1682411,-0.03951462,0.4987079,0.02017094,-0.01854179,0.2908322,0.3475422,0.008429268
1.356858,-0.1808974,0.05762184,0.3473577,0.007263087,0.07873481,0.210325,0.373649,0.1150629
1.020912,-0.2247394,0.1675072,0.01134528,-0.03679738,0.1887335,0.1677664,0.01811888,0.1220184
0.810045,-0.2066074,0.1571313,-0.1996931,-0.01885211,0.1784395,0.1445658,-0.454592,0.1990166
0.7908281,-0.2422381,0.1380974,-0.2191753,-0.05463819,0.1594494,0.1461824,-0.5829258,0.4222346
0.7907735,-0.1887438,0.08193361,-0.2195721,-0.00126807,0.1032858,0.1943759,-0.2836681,0.4236868
0.8064426,-0.1227692,0.06327484,-0.2043044,0.06461241,0.08457978,0.2599238,-0.2263622,0.3074396
0.7860454,-0.1503672,0.1019368,-0.2251459,0.03694728,0.1231452,0.3124396,-0.3142223,0.1377805
0.7409883,-0.1380916,0.09336768,-0.2706743,0.0491788,0.1144287,0.3637808,-0.3548073,-0.01914421
0.713976,-0.1473003,0.1241508,-0.2981688,0.03994504,0.1450116,0.3941764,-0.5606462,-0.09912503
0.6935108,-0.1324439,0.1432804,-0.3191105,0.05479181,0.1638857,0.3177029,-0.6952802,-0.150988
0.7135998,-0.101677,0.07589783,-0.2994757,0.08556079,0.0961896,0.2108071,-0.7988168,-0.03738002
0.7344572,-0.1350177,0.04973843,-0.2790349,0.05222955,0.06965741,0.1826451,-0.9323949,0.1032554
0.8006683,-0.1689089,0.04411897,-0.2131898,0.01835165,0.0636065,0.2109354,-1.086321,0.1619992
0.9618619,-0.2322083,-0.009108411,-0.05230259,-0.04493266,0.009891203,0.3072805,-1.245224,0.1608174
1.063966,-0.2376753,-0.08591023,0.04955796,-0.0503824,-0.067451,0.4329795,-0.8581354,0.06200214
1.016686,-0.1676809,-0.08591852,0.002094792,0.01963287,-0.06804573,0.480022,-0.2054227,-0.004878611
0.8644105,-0.1113274,-0.01826234,-0.1503067,0.07601087,-0.001014508,0.4479314,0.04405101,-0.04663936
0.7179467,-0.03425724,-0.007994098,-0.2968394,0.1531063,0.008596477,0.3817225,0.1217036,-0.1015334
0.6434473,0.01504428,0.04316264,-0.371343,0.2024278,0.05906771,0.2746262,0.1496822,-0.1592694
0.6349766,0.01147892,0.1342104,-0.3797417,0.198869,0.1494034,0.1698742,0.1126562,-0.2053316
0.7550693,-0.09901726,0.1352664,-0.2594885,0.08835747,0.1497195,0.06047904,0.157528,-0.1634592
1.025622,-0.32333,0.01253397,0.0113214,-0.1359969,0.0262172,-0.06213553,0.2183354,-0.03579771
1.347914,-0.4842707,-0.2230274,0.3339637,-0.2970018,-0.2101429,0.0266304,0.4141877,0.05537956
1.529322,-0.5327247,-0.3120642,0.5158003,-0.345531,-0.2999983,0.3304059,1.060027,-0.2202484
1.454682,-0.4222073,-0.1532677,0.4416405,-0.2350837,-0.1420261,0.5697687,1.4962,-0.5880818
1.252074,-0.1702983,0.09489239,0.2395364,0.01677313,0.1053159,0.5595615,0.4563035,-0.4311196
1.189044,-0.05164789,0.236629,0.1770144,0.1353936,0.2462435,0.2610855,-1.124684,-0.1303405
1.471736,-0.1254928,-0.05446597,0.4602023,0.06153773,-0.04565548,0.05046049,-1.036157,0.01091513
1.750411,-0.2018683,-0.3795089,0.7393412,-0.01483498,-0.3714977,0.1217985,0.1882749,0.09145486
1.460302,-0.214963,-0.1269751,0.4496393,-0.02791561,-0.1197493,0.1332291,0.5845904,-0.05637533
1.001071,-0.1674592,0.09981841,-0.00926473,0.01961279,0.1062829,0.02705048,-0.430288,-0.08394849
0.9593902,-0.1081551,-0.06976021,-0.05070735,0.07895099,-0.0640296,-0.05587154,-1.548632,0.2224676
1.001217,-0.1530107,-0.1512022,-0.008726433,0.03413639,-0.1461771,-0.04978046,-0.9518058,0.5387441
0.9068936,-0.2531669,-0.2079944,-0.1029727,-0.06597459,-0.2036417,0.1006095,-0.2162645,0.6977061
0.8179778,-0.2883013,-0.2243585,-0.1918788,-0.1010592,-0.2206373,0.3268301,-0.6449288,0.5743306
0.7818933,-0.2854255,-0.09142116,-0.2280093,-0.09812569,-0.08828195,0.489069,-0.4500103,0.3814581
0.8661272,-0.2350254,-0.1530934,-0.1438628,-0.04765622,-0.1504804,0.5003028,-0.2396845,0.1987413
0.8885924,-0.1602613,-0.1787952,-0.1215143,0.02719119,-0.1766481,0.4450058,-0.2711444,-0.008710699
0.8541226,-0.1251875,-0.08797713,-0.1561199,0.06236147,-0.08623121,0.3627321,0.2589025,0.07536592
0.8890512,-0.06408623,-0.1396385,-0.1213372,0.1235692,-0.1382257,0.2562715,0.2437543,0.1554113
0.8654801,-0.04492525,-0.1019618,-0.1450564,0.1428408,-0.100812,0.1752424,0.263981,0.1356431
0.8707098,-0.06836782,-0.05437209,-0.1399691,0.119506,-0.05341405,0.05943795,0.386579,0.2750413
0.8729285,-0.01727615,-0.04368242,-0.13788,0.1706957,-0.0428453,-0.1036117,0.02949009,0.2923089
0.8418815,-0.02242736,0.003321521,-0.1690371,0.1656254,0.004106211,-0.2742172,-0.09018516,0.2993971
1.029683,-0.5410242,0.05242612,0.04882041,-0.2992111,0.1153016,-0.6790388,0.2820491,-0.03216142
1.250712,-0.5683112,-0.1355071,0.2702659,-0.3271957,-0.07417752,-0.5330243,0.5746771,-0.1341705
1.742909,-0.5838251,-0.4603824,0.7629461,-0.3434047,-0.4006476,-0.2072081,1.279561,-0.2232725
1.975866,-0.6010403,-0.6068273,0.9964211,-0.3612933,-0.5487164,0.1050809,1.916824,-0.6205771
1.609719,-0.3669093,-0.2713709,0.6307821,-0.1277975,-0.214886,0.01617444,1.578559,-0.784193
1.389686,-0.06266814,0.1127904,0.411208,0.1758565,0.167668,-0.3689464,0.1222623,-0.3085321
1.532716,0.01683563,0.0805039,0.554619,0.2548188,0.1337995,-0.6161022,-1.139697,0.2281598
1.526179,-0.1026374,-0.03985137,0.5483645,0.1348399,0.01188559,-0.5639124,-0.3804617,0.2935277
1.361782,-0.2856415,-0.02377667,0.3841316,-0.04864408,0.02642342,-0.3262466,0.4362461,0.1290795
1.213279,-0.3828169,-0.02765454,0.2356578,-0.1462763,0.02103136,-0.2145596,-0.619615,0.2352168
1.04537,-0.3691985,-0.02650721,0.06763782,-0.1330884,0.02068854,-0.1830439,-1.148897,0.3353812
0.981089,-0.2845386,-0.08548815,0.00310824,-0.04882719,-0.03975687,-0.1809749,-0.6594467,0.4134465
0.9412867,-0.1725211,-0.191072,-0.03707308,0.06282615,-0.1467762,-0.3958194,-0.698421,0.6441954
0.7890872,-0.1264311,-0.1842926,-0.1897699,0.1085849,-0.141397,-0.496391,-0.4891502,0.6771252
0.7808002,-0.1267942,-0.1609692,-0.1986567,0.1079182,-0.1194308,-0.4962892,-0.05237631,0.656053
0.8232346,-0.1555854,-0.1455762,-0.1569068,0.07884492,-0.1053447,-0.5670177,-0.02103938,0.5992958
0.775091,-0.1885732,-0.08613617,-0.2058022,0.04559105,-0.04715569,-0.4557494,0.111459,0.3967755
0.7986128,-0.1935364,-0.05841906,-0.1830831,0.04037405,-0.02063052,-0.3449222,0.08962504,0.2864258
0.7595368,-0.1892386,-0.06949007,-0.2229966,0.0444277,-0.03283322,-0.2504859,0.03561351,0.2129918
0.6975776,-0.1435558,-0.08672306,-0.2858126,0.08987335,-0.05113727,-0.1818653,0.1450735,0.2333185
0.7321778,-0.1117037,-0.1072052,-0.2520718,0.1214919,-0.0726291,-0.2661196,0.1734204,0.3148186
0.7790343,-0.08722838,-0.1282056,-0.2060617,0.1457322,-0.09457626,-0.253821,0.5421634,0.3284088
0.8387698,-0.07674822,-0.1242993,-0.1471467,0.15597,-0.09155155,-0.2804889,0.9248082,0.3491181
0.7834418,-0.148964,-0.09046394,-0.2032588,0.08349843,-0.05853065,-0.3220404,0.8673765,0.2793027
0.6724742,-0.1987045,-0.03571762,-0.3149648,0.03348468,-0.004530618,-0.2493185,0.4900227,0.1982334
0.6753782,-0.2404151,0.01918654,-0.3127417,-0.008517892,0.04969395,-0.1800799,-0.03773172,0.1770448
0.7547189,-0.2767158,-0.00792481,-0.2340116,-0.04512771,0.0219661,0.03784291,-0.1479525,0.1459387
0.9347472,-0.2566077,-0.1043295,-0.05451414,-0.02534295,-0.07499573,0.1819982,0.3020823,0.1127265
1.04538,-0.2438356,-0.1996101,0.05567009,-0.01290496,-0.1707752,0.1240713,1.012336,-0.05947135
0.9215788,-0.2115494,-0.2373619,-0.06849929,0.01903899,-0.2089644,0.05488946,1.469103,-0.3696725
0.813118,-0.2368262,-0.143556,-0.1772518,-0.006586604,-0.1155291,-0.124653,1.336851,-0.7645837
0.9102818,-0.438199,0.05546389,-0.08030291,-0.2083121,0.08318989,-0.307465,1.091113,-1.267205
1.119777,-0.7383334,0.2724506,0.129054,-0.5087947,0.2999413,-0.3618885,0.6689531,-1.536228
1.342127,-0.8187596,0.3293689,0.3513349,-0.5895459,0.3566768,-0.3488305,0.01613136,-1.13296
1.536411,-0.4802703,0.2431513,0.5456023,-0.2513352,0.2703105,-0.264788,0.1172984,-0.383814
1.662121,-0.200345,0.2863579,0.6713212,0.02837459,0.3133845,-0.1362367,0.4501085,0.04430108
1.616699,-0.2709783,0.3097589,0.6259019,-0.04240653,0.3366523,-0.1375754,0.03312974,0.1661456
1.444644,-0.2816524,0.1814093,0.4538122,-0.05316311,0.2081536,-0.3419367,-0.04461177,0.1246941
1.429425,-0.1895134,0.1405007,0.4384974,0.03895564,0.1670681,-0.5008172,0.1557386,0.09134731
1.346532,-0.2707993,0.1886661,0.3554268,-0.04229195,0.2150203,-0.4913736,-0.05627044,0.2218956
1.007465,-0.3364639,0.2321327,0.01608851,-0.1078629,0.2582303,-0.3393982,0.004612131,0.2217329
0.839999,-0.2650403,0.1914252,-0.1517426,-0.03629184,0.217215,-0.161183,-0.07609037,0.2987021
0.7129648,-0.2264699,0.1088795,-0.279227,0.002478866,0.1343035,-0.1119425,-0.3970479,0.5222416
0.5925181,-0.1448665,0.118879,-0.4001902,0.08433158,0.1438748,-0.09202954,-0.4698188,0.5204903
0.7183934,-0.06920653,0.1171818,-0.2748759,0.1602833,0.1416852,-0.1149515,-0.4949752,0.4712823
0.7430073,-0.1053027,0.1303233,-0.250846,0.1245118,0.1542686,-0.1930969,-0.293605,0.2819371
0.7237432,-0.09467576,0.167857,-0.2706994,0.1354861,0.191177,-0.2713126,-0.2555245,-0.1038242
0.7188866,-0.09344929,0.1550109,-0.276135,0.1370732,0.1776361,-0.3953821,-0.4674621,-0.3449797
0.6064295,-0.1243724,0.170871,-0.3891451,0.1065151,0.1927296,-0.4233885,-0.6650313,-0.3268145
0.6379588,-0.1287519,0.1311654,-0.3581265,0.1024975,0.1521836,-0.3778564,-0.9747809,-0.04661966
0.7456153,-0.1751703,0.04642625,-0.2509221,0.05643189,0.06652951,-0.3883449,-1.035168,0.2741826
0.8779764,-0.1907953,-0.01537261,-0.1189423,0.04114615,0.003743634,-0.3573174,-1.042872,0.4736397
0.971542,-0.2193304,-0.07153035,-0.02568183,0.01293432,-0.05346726,-0.2482461,-0.8800001,0.4364734
0.9132559,-0.303528,-0.03720966,-0.08419654,-0.07095686,-0.0202575,-0.1429871,-0.3672976,0.2505797
0.8962824,-0.3079256,-0.009438795,-0.1013235,-0.07506299,0.006353246,-0.1344394,-0.229917,0.161681
0.8165723,-0.2157783,-0.02271817,-0.1811122,0.01736366,-0.008128016,-0.1721029,-0.4001716,0.04015016
0.6898211,-0.115354,0.0202375,-0.3078642,0.1180561,0.03359027,-0.2272727,-0.47622,0.03147849
0.7696643,-0.1262168,0.0499752,-0.227938,0.1074474,0.06206013,-0.3814659,-0.2121371,0.04902317
0.890233,-0.1983611,0.0544505,-0.1071967,0.03553906,0.06524057,-0.5038813,0.1822681,-0.1327596
0.927771,-0.2727447,0.06661818,-0.06939456,-0.03862949,0.07608873,-0.5163763,0.265013,-0.1612179
1.022341,-0.4521401,0.072085,0.02552869,-0.2178292,0.08021312,-0.4933818,0.3523887,-0.1116402
1.191663,-0.60972,-0.002532259,0.1952856,-0.3752244,0.004232371,-0.31699,0.511611,-0.07479545
1.437673,-0.6358398,-0.2953043,0.4417982,-0.4011563,-0.2899192,0.0927146,0.8174959,-0.07047418
1.703118,-0.6409752,-0.5845118,0.7077909,-0.406082,-0.5805085,0.5217068,1.62123,-0.3756978
1.652712,-0.5006027,-0.4111704,0.6579437,-0.2654604,-0.408528,0.5925966,2.164831,-0.602857
1.422653,-0.2009015,-0.04787092,0.4284221,0.03454092,-0.04654474,0.280599,0.8543215,-0.233876
1.434261,-0.1044073,0.02670154,0.4405171,0.1313882,0.02676882,0.101907,-1.395529,0.4163389
1.456019,-0.1535028,0.03023895,0.4626891,0.08269169,0.02910675,0.1674938,-1.478577,0.5735358
1.426787,-0.1625825,-0.07569611,0.43378,0.07404786,-0.07796965,0.1455735,0.03814033,0.2426429
1.416681,-0.2644482,-0.2662787,0.4238886,-0.02735293,-0.269634,0.0786994,0.5359242,0.1040232
1.156522,-0.2495787,-0.1132167,0.1638219,-0.01199402,-0.1175883,-0.01732855,-0.3847316,0.3107986
0.8133998,-0.1638391,-0.00837278,-0.1793337,0.07425606,-0.01368915,-0.2062629,-1.611901,0.5521645
0.6562922,-0.2514069,-0.156255,-0.3365921,-0.01278399,-0.1624418,-0.2278406,-1.436989,0.59089
0.7228919,-0.2380002,-0.1860344,-0.2702408,0.00116383,-0.1930149,-0.08735558,-0.716819,0.6078017
0.8279579,-0.21308,-0.2059708,-0.1654992,0.02663579,-0.2136634,-0.03347106,-0.5028664,0.595998
0.7958512,-0.2417328,-0.209644,-0.1979879,-0.001457508,-0.2179605,0.009839161,0.06311888,0.3915989
0.8468011,-0.1500631,-0.1422129,-0.1474626,0.09077631,-0.1510595,0.03625311,0.01486294,0.2895438
0.8547855,-0.127823,-0.106541,-0.1399325,0.1135807,-0.11582,-0.03990442,-0.1363245,0.2394927
0.7808938,-0.09627549,-0.07996237,-0.2142967,0.1456861,-0.08957468,-0.1039076,0.4301666,0.2384431
0.8172984,-0.04966141,-0.1127204,-0.1783711,0.1928439,-0.1225675,-0.2285684,0.4390174,0.3994677
0.7781503,-0.1103601,-0.1544312,-0.2179931,0.132666,-0.1644152,-0.359002,0.5658897,0.4517063
0.767077,-0.1318536,-0.1753302,-0.2295236,0.1116629,-0.1853526,-0.362021,0.9863481,0.4237197
0.7207862,-0.1542351,-0.1451944,-0.2762434,0.08973546,-0.1551553,-0.429653,1.255999,0.2610974
0.5242793,-0.1710062,-0.01087179,-0.4731377,0.0733783,-0.0206707,-0.5171389,1.358626,0.01941543
0.4764445,-0.1876848,0.07574006,-0.5213008,0.05707118,0.0661999,-0.5106173,0.6932717,-0.01301512
0.5604036,-0.2556185,0.0742654,-0.4375906,-0.01053454,0.06507277,-0.4635401,0.10895,0.0366713
0.7934196,-0.2696675,-0.03806075,-0.2047262,-0.02429808,-0.04682661,-0.31043,0.0005344733,0.07857654
1.064707,-0.2671083,-0.2170854,0.06651557,-0.0214931,-0.2253514,-0.1444078,0.3898722,0.02232596
1.034124,-0.2471556,-0.2568402,0.03599094,-0.001331231,-0.2645335,-0.1728951,1.160022,-0.273304
0.8161685,-0.192685,-0.2302415,-0.1818099,0.0533144,-0.2372849,-0.356996,1.211361,-0.7501464
0.7189263,-0.220617,-0.1952287,-0.278804,0.02552417,-0.2015397,-0.4638316,1.081865,-1.152355
0.9218652,-0.4200339,-0.01127687,-0.07552201,-0.1737825,-0.01677059,-0.430339,0.8698564,-1.289551
1.32059,-0.6938078,0.1879601,0.323639,-0.4474705,0.1833645,-0.4194503,0.4124826,-1.23529
1.712704,-0.7004047,0.1480854,0.7162666,-0.4539893,0.1444576,-0.4785176,0.5854377,-0.9012828
1.895785,-0.4261431,0.06773582,0.8999062,-0.1796374,0.06513124,-0.4691395,0.6530887,-0.4364612
1.723818,-0.2388367,0.1551128,0.7285006,0.007785408,0.1535737,-0.333399,0.3368463,-0.1375109
1.540572,-0.2295316,0.1466548,0.5457766,0.01723708,0.1462114,-0.2511274,0.2876301,-0.0001364088
1.53594,-0.2131222,0.09131607,0.541594,0.03382098,0.09198661,-0.373152,0.3734693,0.03518448
1.397223,-0.1114404,0.1419698,0.4032308,0.1357008,0.1437615,-0.6445867,0.4392426,0.1901144
1.122448,-0.07631533,0.1386358,0.1286977,0.1710407,0.141546,-0.8827831,0.2547844,0.3180559
0.9123244,-0.1501559,0.1712396,-0.08130333,0.09742314,0.1752555,-0.9297908,0.01062055,0.3177308
0.7417993,-0.1930111,0.178606,-0.2518177,0.05479162,0.1837044,-0.8197198,-0.01786282,0.4408918
0.638448,-0.2012979,0.1117816,-0.3552544,0.04672396,0.1179293,-0.6483687,-0.0490495,0.5009061
0.6440341,-0.1832359,0.1378683,-0.3498279,0.0649974,0.145024,-0.4999804,-0.04312921,0.4162619
0.6808948,-0.1536966,0.1063466,-0.3131782,0.09473728,0.1144621,-0.4629721,0.03849999,0.1777508
0.6950273,-0.1592693,0.07309532,-0.2992864,0.08935047,0.08211687,-0.569039,0.06783436,-0.171805
0.633791,-0.1520325,0.1257426,-0.3607741,0.09675466,0.1356124,-0.7102278,0.03995264,-0.2778464
0.5372942,-0.1568437,0.132263,-0.4575136,0.09208817,0.1429192,-0.7333592,-0.1344151,-0.07984033
0.5089248,-0.1716786,0.1169337,-0.4860961,0.07737198,0.12831,-0.6585891,-0.6456355,0.2668579
0.5899876,-0.1612662,0.01096474,-0.4051953,0.08787408,0.02299144,-0.583666,-1.137844,0.4844607
0.7843499,-0.1906822,-0.09859592,-0.2109255,0.05851652,-0.08598851,-0.6019566,-0.9247998,0.389137
0.9331733,-0.2694552,-0.0653779,-0.06211432,-0.02023033,-0.05225529,-0.6244521,-0.2936713,0.150997
0.8765746,-0.3351756,-0.0283215,-0.1186423,-0.08595551,-0.01474322,-0.5885504,0.009730759,0.02792511
0.7694785,-0.2973852,-0.01171645,-0.2255845,-0.0481965,0.002262869,-0.6983249,-0.07881415,0.07806169
0.776909,-0.250004,0.05573137,-0.2179149,-0.00086844,0.0700601,-0.8458227,-0.2098302,0.139798
0.7873368,-0.3514073,0.09099666,-0.2071592,-0.1023428,0.105624,-0.8366026,-0.0253918,0.1742563
0.875423,-0.4853646,-0.02347182,-0.1186528,-0.2363839,-0.008597239,-0.706237,0.2779986,0.1700146
1.229997,-0.6043912,-0.2542443,0.236432,-0.3554969,-0.2391715,-0.4979449,0.5382531,0.09825697
1.612319,-0.6788441,-0.4399663,0.6193415,-0.4300235,-0.4247344,-0.3036555,1.163375,-0.1214643
1.724169,-0.547434,-0.3446277,0.73183,-0.2986565,-0.3292585,-0.04288818,1.542739,-0.4039107
1.621413,-0.3148225,-0.02753185,0.6297246,-0.06604261,-0.0120297,0.2309965,0.6867462,-0.3739549
1.492517,-0.1268253,0.1413019,0.5014551,0.122008,0.156941,0.2963527,-0.4507888,-0.2539475
1.312346,0.02057665,0.15572,0.3218586,0.2695097,0.1714976,0.1323899,-0.5588991,-0.2289549
1.211352,0.0886917,0.104903,0.2213675,0.3377579,0.120813,-0.245303,-0.787477,0.08268947
1.448353,0.08979861,-0.0774958,0.4587876,0.3390138,-0.06146558,-0.5380955,-1.582678,0.4737248
1.598121,0.02630542,-0.326313,0.6088758,0.2756673,-0.3101745,-0.6304341,-1.009617,0.5029441
1.361051,-0.05027798,-0.3839191,0.3720083,0.1992126,-0.3676749,-0.87486,0.08012328,0.3374904
0.9375288,-0.01441641,-0.1110719,-0.0514409,0.2351731,-0.09471049,-1.182104,0.111417,0.3486185
0.5193742,0.00659995,0.03403845,-0.4696511,0.2562486,0.05053792,-1.300164,-0.1531785,0.6108444
0.5355786,-0.1025191,-0.08159189,-0.4536105,0.1471398,-0.06493166,-1.262319,-0.5227443,0.9474597
0.7491255,-0.2077289,-0.1531571,-0.2403076,0.04188543,-0.1363137,-1.068566,-0.2002265,1.024423
0.6883915,-0.2427236,-0.2270627,-0.3013408,0.006789984,-0.210011,-0.852411,0.5318255,0.6474338
0.6985859,-0.2041428,-0.21026,-0.2914808,0.04521601,-0.192969,-0.8299043,0.430811,0.2240189
0.7416769,-0.1169011,-0.1472942,-0.2487413,0.1322512,-0.129726,-0.8864755,0.3992858,0.1415593
0.6945693,-0.01975598,-0.1512349,-0.296201,0.2291375,-0.1333469,-0.8386384,0.3689905,0.285804
0.8080964,0.05936004,-0.1096969,-0.1830118,0.3079374,-0.09144347,-0.824134,0.348389,0.4593648
0.894132,0.0252193,-0.1263928,-0.09728872,0.2734155,-0.1077267,-0.9284548,0.6904079,0.5399821
0.8898987,-0.0402512,-0.1439332,-0.101802,0.2074904,-0.1248062,-1.070061,0.6612134,0.5175235
0.9060677,-0.05837017,-0.1249898,-0.0858765,0.1888374,-0.1053528,-1.237021,0.7011108,0.4485545
0.8775792,-0.1247223,-0.1789458,-0.114569,0.1218688,-0.1587483,-1.363753,0.7788793,0.382562
0.838121,-0.2231603,-0.2641372,-0.1541886,0.02273219,-0.2433266,-1.482915,0.880264,0.2371301
0.7702935,-0.4331086,-0.3254063,-0.2221302,-0.1879918,-0.303925,-1.618044,1.289343,-0.06689866
0.8025127,-0.7734655,-0.2073799,-0.1899717,-0.529188,-0.1851635,-1.575141,1.342537,-0.5296223
1.103993,-1.076942,-0.001104259,0.1115062,-0.8335414,0.02191576,-1.348832,1.268706,-1.228834
1.545421,-1.264562,0.04141317,0.5529841,-1.022037,0.065303,-1.067365,0.9829387,-1.606063
1.805396,-1.153904,0.004051124,0.8130415,-0.9122048,0.02886902,-0.8842376,0.5042796,-1.221964
1.731512,-0.7217585,-0.03548301,0.7392377,-0.4807908,-0.009687467,-0.9899102,0.4871507,-0.8191908
1.729786,-0.2318299,-0.08646275,0.7375514,0.008528258,-0.05964666,-1.296869,0.4965509,-0.5416936
1.772281,-0.01183582,-0.09470569,0.7800097,0.2280418,-0.06683049,-1.660634,0.4714773,-0.02218604
1.539453,-0.1493271,-0.1187847,0.5470359,0.09018868,-0.08981446,-1.883341,0.7308505,0.2805056
1.405736,-0.2055732,-0.1757882,0.413039,0.03368542,-0.1456881,-1.830473,1.113571,0.3567114
1.2796,-0.1904629,-0.1372075,0.2864749,0.04863221,-0.1059429,-1.859027,1.374957,0.455653
0.9783974,-0.3005331,-0.06068442,-0.01530869,-0.06151602,-0.02822054,-1.942053,1.398362,0.3165992
0.7887384,-0.245921,-0.04840089,-0.2056965,-0.006902358,-0.01470524,-1.827655,1.365151,0.2321696
0.5832455,-0.215165,-0.02068548,-0.4120479,0.02392977,0.01427014,-1.808681,1.13752,0.3739792
0.5137592,-0.2614478,0.02158968,-0.4824952,-0.02220761,0.05782779,-1.80791,0.6076517,0.3785215
0.7138809,-0.2336418,0.066412,-0.2834068,0.005807608,0.103948,-1.63647,0.2477668,0.2965956
0.9069567,-0.3525939,0.09920886,-0.09141014,-0.1128759,0.1380494,-1.413142,0.4068676,0.09064371
1.048507,-0.4069552,0.06897534,0.04903154,-0.1669108,0.1091172,-1.130928,0.8255445,-0.2190219
0.9749581,-0.3524318,0.0799385,-0.02564799,-0.1120024,0.1213689,-0.9458481,1.000761,-0.3210748
0.7977259,-0.3227446,0.1272176,-0.2040262,-0.08187002,0.1699148,-0.8311468,0.5210268,-0.2621948
0.7579991,-0.2058311,0.1287258,-0.2449045,0.03554765,0.1726586,-0.6762551,-0.3897648,-0.1892436
0.750099,-0.1802571,0.1007699,-0.2539475,0.06168047,0.1458976,-0.6017445,-0.6527646,-0.1861393
0.8082176,-0.2216786,0.04588971,-0.1969487,0.02086536,0.09216365,-0.5541695,-0.2911669,-0.2761927
0.8221646,-0.2324307,0.05359196,-0.1840852,0.0107604,0.1009573,-0.5144991,-0.2178984,-0.4208966
0.8117192,-0.2965993,0.07673075,-0.1955674,-0.05272597,0.1251282,-0.4865051,-0.2477205,-0.4702709
0.9768629,-0.4032064,0.007173372,-0.03140556,-0.1586182,0.05653984,-0.5158859,-0.1810656,-0.2544798
1.202335,-0.5638604,-0.1075069,0.1931427,-0.3185231,-0.05723639,-0.5070572,0.08789243,0.03361156
1.419849,-0.6403328,-0.2852848,0.4097848,-0.3942045,-0.2341724,-0.1125757,1.210993,0.09604601
1.415585,-0.5427568,-0.30232,0.4046859,-0.2957843,-0.2504186,0.2324175,2.250258,-0.3428014
1.039335,-0.3067179,0.04131347,0.02761859,-0.05883812,0.09396185,-0.1728974,0.9638678,-0.766107
0.7262254,-0.001908801,0.310521,-0.286297,0.246942,0.3638774,-0.8642035,-1.548284,-0.2640826
0.8982489,0.1077535,0.1410053,-0.1150644,0.3576276,0.1950232,-1.042061,-2.100321,0.3783362
1.245173,-0.09176448,-0.1441834,0.2310909,0.1591666,-0.0895599,-0.8073068,-1.179106,0.30937
1.271196,-0.3608587,-0.1953607,0.2563662,-0.1088536,-0.1401884,-0.4732971,-0.4154239,0.08826097
1.173234,-0.4404931,-0.1538601,0.1576678,-0.1874029,-0.09818951,-0.07301108,-0.09873517,-0.1059793
0.9703561,-0.3519467,-0.0858947,-0.0459431,-0.09775901,-0.02976853,0.1351891,-0.678018,-0.24085
0.6873479,-0.238254,-0.006837189,-0.3296805,0.01704601,0.04970669,0.1133353,-1.247688,-0.09185876
0.7920971,-0.1788251,-0.09175491,-0.2256476,0.07760016,-0.03482908,0.1109091,-1.09312,0.07487942
0.9133258,-0.1368604,-0.1600942,-0.1051093,0.1206969,-0.1028201,0.08906736,-0.7267552,0.2295158
0.8434413,-0.07221777,-0.1243517,-0.1756489,0.1864698,-0.06675864,0.01716539,-0.2628146,0.3975756
0.8919018,-0.08926391,-0.1265665,-0.127801,0.1705415,-0.06867868,-0.04378796,-0.0613965,0.3684663
0.8411287,-0.1200232,-0.1038106,-0.1791379,0.140877,-0.04564771,-0.07945323,-0.1315824,0.278612
0.7805243,-0.1153125,-0.08056784,-0.240251,0.1466498,-0.02214604,-0.04865008,-0.1045309,0.1671234
0.8045481,-0.1401397,-0.09128756,-0.2166727,0.1228441,-0.03262061,0.005248243,-0.03937211,0.06320281
0.7586996,-0.1344287,-0.1143031,-0.2628954,0.1295291,-0.05540266,0.03767444,-0.03662031,0.1351997
0.7673563,-0.1552372,-0.1321725,-0.2545331,0.1096416,-0.0730478,0.1436696,0.1190455,0.1819543
0.765449,-0.1744322,-0.1090344,-0.2566471,0.09130958,-0.04969165,0.3333807,0.6860676,0.1478123
0.6765999,-0.1641004,-0.06833085,-0.3456072,0.102443,-0.008773393,0.506045,1.085339,0.08506957
0.611126,-0.179305,-0.008073841,-0.4110869,0.08797585,0.05169574,0.6126115,0.8430249,-0.1330868
0.618802,-0.1295385,0.0266012,-0.4033002,0.1384131,0.08657889,0.5845731,0.3307027,-0.3360769
0.6506007,-0.08754478,0.04582956,-0.3712629,0.1810077,0.1060078,0.495889,-0.09846188,-0.3731996
0.6896,-0.09681944,0.02682062,-0.3318872,0.1722595,0.08718715,0.39972,-0.1338721,-0.3642546
0.8770483,-0.1580791,-0.11321,-0.1439185,0.1114476,-0.05267094,0.2097702,0.5402305,-0.4732949
1.107415,-0.3760362,-0.1929793,0.08711157,-0.1061421,-0.1322833,0.1320542,1.32057,-0.8974329
1.184381,-0.6038012,-0.09836387,0.1648748,-0.3336142,-0.03752271,0.1779906,1.133037,-1.532294
1.280089,-0.6282328,0.07805856,0.2614948,-0.3578128,0.1390365,0.06914169,0.3475918,-1.729513
1.497025,-0.4928091,0.2024055,0.479435,-0.2221967,0.2635091,-0.02218501,-0.125946,-1.093059
1.682296,-0.4063896,0.1713852,0.6657747,-0.1356087,0.2325949,0.1129412,-0.08406833,-0.2611641
1.751886,-0.3761867,0.1216618,0.7364613,-0.10525,0.1829474,0.355612,0.1859458,0.04258806
1.703175,-0.33109,0.1164349,0.6888342,-0.0600033,0.1777572,0.6098605,0.2700917,-0.0476144
1.541172,-0.3521102,0.0925837,0.5278658,-0.08087469,0.153897,0.7657624,0.4203771,-0.1087098
1.343022,-0.3485066,0.158749,0.33067,-0.07711989,0.2200018,0.7236416,0.168471,-0.02039996
1.181848,-0.2879333,0.2356673,0.1703527,-0.01638997,0.2968015,0.6619004,-0.4690343,0.1167148
1.052434,-0.2378707,0.1378437,0.04168936,0.03383595,0.1987939,0.6828439,-0.2593859,0.3644504
0.9280505,-0.1739675,0.04591639,-0.08205132,0.09790775,0.1066105,0.6107964,-0.1122868,0.628676
0.7765115,-0.157595,0.07837172,-0.233047,0.1144501,0.1387348,0.5569198,-0.4144629,0.6433842
0.6449696,-0.144264,0.09264851,-0.3641312,0.1279464,0.1526051,0.6000226,-0.3372975,0.5694608
0.607154,-0.1294525,0.1036151,-0.4015552,0.1429123,0.1630888,0.5757433,-0.5183603,0.3813867
0.6360865,-0.1730617,0.1461798,-0.3722748,0.09944053,0.2050929,0.5989877,-0.6153122,0.03697801
0.6357484,-0.1770943,0.1613911,-0.3722866,0.09552299,0.2196634,0.6413528,-0.4651053,-0.08895908
0.5849667,-0.1617498,0.1602977,-0.4227434,0.110956,0.2178461,0.6077893,-0.6931871,-0.02603685
0.5902557,-0.1714918,0.153721,-0.417111,0.1012725,0.2104591,0.6180779,-0.8981214,0.09702497
0.6553708,-0.2019297,0.1308888,-0.3516155,0.07085982,0.1867278,0.6321372,-1.244925,0.3064037
0.7794784,-0.246193,0.05439857,-0.227075,0.02658661,0.1092488,0.6746978,-1.521788,0.3918499
0.9394785,-0.209092,-0.08179542,-0.06658048,0.06364229,-0.02802129,0.7510157,-1.224347,0.2289156
0.9500118,-0.1452681,-0.1443876,-0.05548841,0.127385,-0.09176986,0.7649258,-0.795812,0.04509079
0.8430034,-0.1340584,-0.05659178,-0.1618752,0.1384758,-0.005199956,0.6830305,-0.4701328,0.06055855
0.763102,-0.1279459,0.03752022,-0.2410921,0.1444282,0.08762638,0.4323748,-0.6737645,0.1148923
0.7770908,-0.1416935,0.03784802,-0.2263529,0.1304756,0.08661511,0.1702718,-1.045318,0.1262482
0.884169,-0.1723013,0.03633496,-0.1184543,0.0996149,0.08371324,0.1241507,-0.6949924,0.1053762
0.9856516,-0.2489329,0.06426935,-0.01608021,0.02268116,0.1102119,0.2595007,-0.2346815,-0.07643435
1.079853,-0.4401231,0.06546259,0.07907996,-0.1688582,0.1099248,0.4292316,0.08125783,-0.2553096
1.131157,-0.6106133,-0.01858777,0.1314004,-0.3397358,0.02435193,0.6098125,0.3428996,-0.2419036
1.203293,-0.6128487,-0.2076466,0.2045988,-0.3423811,-0.1662667,0.8294682,0.2538341,-0.1632534
1.396567,-0.5287773,-0.3401713,0.3989653,-0.2587234,-0.3003775,0.871533,0.5343722,-0.2478833
1.469255,-0.4050365,-0.2976921,0.4727548,-0.135384,-0.259494,0.7930652,1.094392,-0.5608774
1.355424,-0.2218988,-0.1613712,0.3600107,0.04737442,-0.1247604,0.7645458,0.8476076,-0.7425978
1.361252,-0.1421709,-0.07660318,0.3668876,0.1267471,-0.04155805,0.51713,-0.4625478,-0.2780176
1.671811,-0.1730095,-0.1859436,0.6784357,0.09557335,-0.1524339,0.2297446,-1.724087,0.2953732
1.90068,-0.162379,-0.2823762,0.9082084,0.1058831,-0.2503636,0.2278723,-0.9336483,0.02019065
1.53127,-0.2046117,-0.06479376,0.5395823,0.0633387,-0.03423003,0.295486,0.01050931,-0.1792751
1.093899,-0.253004,0.1062663,0.1028496,0.01463991,0.1354351,0.3189333,-1.527485,0.3598986
1.120392,-0.2197931,-0.102518,0.1298258,0.04754756,-0.07468983,0.3308217,-2.319166,0.6383417
1.013182,-0.2391421,-0.2897279,0.0229442,0.02789726,-0.2631858,0.4192162,-1.12851,0.7323833
0.7999015,-0.2368179,-0.2369568,-0.190154,0.02992121,-0.2116395,0.5505421,-0.5600519,0.8106993
0.8919107,-0.1921305,-0.1816217,-0.09809544,0.07430803,-0.1574585,0.5736761,-0.6012164,0.6783058
0.8510902,-0.1822709,-0.1515245,-0.1389838,0.08386497,-0.1284368,0.5513842,-0.599198,0.6766596
0.7876403,-0.1563554,-0.1102105,-0.2026028,0.1094727,-0.08811513,0.4758748,-0.2444146,0.5185619
0.8095394,-0.1551545,-0.1082663,-0.180958,0.1103572,-0.08707749,0.4043709,0.2603242,0.3604984
0.6170329,-0.1418354,-0.1006591,-0.3737862,0.1233468,-0.08029028,0.3458292,0.2041725,0.4343738
0.628663,-0.11492,-0.09778678,-0.3625253,0.1499155,-0.07815107,0.2537197,0.06603647,0.3743393
0.7231713,-0.1433912,-0.1200468,-0.2684118,0.1210759,-0.1010573,0.2981007,0.03710307,0.3807165
0.6568286,-0.1542217,-0.1208552,-0.3351554,0.1098508,-0.1024248,0.3606352,0.2666249,0.3389094
0.6744433,-0.1724984,-0.0965363,-0.31793,0.09115059,-0.07857795,0.3941337,0.77028,0.13174
0.5652921,-0.2070374,-0.06200963,-0.4274414,0.05615721,-0.04443671,0.4426632,0.8954843,-0.03716645
0.4989098,-0.19637,-0.06424016,-0.4941365,0.06633899,-0.04696798,0.4025642,0.5602188,-0.1481076
0.6039814,-0.196722,-0.08514315,-0.3893101,0.06547019,-0.06808964,0.4402722,-0.04909972,-0.08440368
0.7352022,-0.2394799,-0.08224881,-0.2582499,0.02216502,-0.06533433,0.5367313,-0.2653969,-0.1306087
0.9361613,-0.2686547,-0.1334473,-0.05735615,-0.007585848,-0.1165939,0.5806377,0.2725976,-0.3579858
0.9279937,-0.2368948,-0.255295,-0.06549188,0.02357191,-0.2384249,0.5091542,0.9429213,-0.6149558
0.8802228,-0.2321638,-0.3405774,-0.1131357,0.02767763,-0.323609,0.2854641,1.291649,-1.067331
0.9815483,-0.3872791,-0.1912328,-0.01159161,-0.1280828,-0.1740779,0.1400339,1.146394,-1.571839
1.057427,-0.6237448,0.133685,0.06459303,-0.365206,0.1511178,0.01365201,0.3589569,-1.811177
1.402426,-0.6780252,0.2202654,0.4099738,-0.4201417,0.238061,-0.1096614,-0.4868509,-1.280906
1.85858,-0.4686669,0.08583382,0.8665659,-0.2114174,0.1040631,-0.01089815,-0.05820544,-0.3797152
1.93189,-0.3075916,0.04481832,0.9403324,-0.05093969,0.06353772,0.2795057,0.6588122,-0.2533451
1.764704,-0.3654183,0.1089284,0.7735768,-0.10932,0.1281832,0.5786732,0.2240855,-0.3967527
1.599453,-0.3628587,0.1739206,0.6086887,-0.1072667,0.193746,0.5663715,0.0341519,-0.1633617
1.460707,-0.2121148,0.1662553,0.4702043,0.04302046,0.1866741,0.3563104,0.05523222,0.08261838
1.290422,-0.1459665,0.1361739,0.3000607,0.1087606,0.1571969,0.2964099,-0.1407448,0.3710067
1.027303,-0.1947889,0.1251302,0.03695049,0.05957336,0.1467564,0.2971154,0.1252152,0.5612519
0.7612655,-0.2368795,0.1200639,-0.2292089,0.0171556,0.1422832,0.3456531,-0.09834482,0.6290661
0.6374718,-0.2227446,0.143423,-0.3532408,0.03099675,0.1662164,0.4000792,-0.4584238,0.784964
0.5930084,-0.1739813,0.1246383,-0.3980363,0.07949629,0.1479789,0.3219377,-0.4145413,0.7245034
0.5614846,-0.1359951,0.09208976,-0.4299597,0.1172442,0.1159432,0.2479609,-0.5514403,0.5112858
0.6247899,-0.1100357,0.08597798,-0.3670946,0.1429847,0.1103042,0.2420035,-0.4032001,0.19291
0.6498417,-0.1252921,0.09195069,-0.3424994,0.1275216,0.1167053,0.2436491,-0.3744277,-0.336997
0.5946049,-0.1641644,0.1337496,-0.3981877,0.08844782,0.1588838,0.2330361,-0.4916832,-0.6230525
0.5851412,-0.1884207,0.1212251,-0.4080774,0.06399012,0.1466858,0.192941,-0.4449042,-0.5789266
0.5397077,-0.2044515,0.09793246,-0.4538916,0.04775425,0.1236621,0.1795566,-0.8832602,-0.2435639
0.5673454,-0.1426854,0.06923803,-0.4265694,0.1093092,0.09517551,0.2216595,-1.422917,0.3809899
0.7301736,-0.08769544,-0.0776938,-0.263974,0.1640783,-0.05161054,0.2476895,-1.611862,0.6598275
0.8636097,-0.1352358,-0.1692396,-0.1306762,0.1163024,-0.1430692,0.2002061,-1.053333,0.5071889
0.9177616,-0.1890571,-0.09553227,-0.07656386,0.06222593,-0.06932578,0.1225845,-0.2833073,0.3556897
0.8351243,-0.2432178,0.01817979,-0.1591422,0.007788131,0.0443791,0.09264082,-0.4845857,0.115406
0.7925518,-0.2765926,0.08116115,-0.2015577,-0.02588537,0.1073139,0.08642114,-0.5611806,-0.1617374
0.8540023,-0.2908491,0.09439872,-0.1398514,-0.04045949,0.1204652,0.06280509,-0.02431651,-0.2488871
0.9006296,-0.3683625,0.07035877,-0.09286929,-0.1183052,0.09629715,-0.01041444,0.3845182,-0.2675888
1.128525,-0.4765551,-0.06054607,0.1354763,-0.2268383,-0.03477894,-0.05885595,0.6670368,-0.2574621
1.442164,-0.5594137,-0.2954083,0.4496509,-0.3100348,-0.2698522,0.1613486,0.6166632,-0.2301718
1.608039,-0.5381235,-0.4231667,0.6161244,-0.2890664,-0.3978501,0.451504,0.636904,-0.3752766
1.656384,-0.3734438,-0.2716674,0.6650986,-0.1246788,-0.2466013,0.3541508,0.7440566,-0.4541318
1.616349,-0.1722516,-0.1041742,0.6256863,0.07625926,-0.07935333,0.02671845,0.1397811,-0.1190567
1.602997,-0.1001341,-0.1343708,0.6129187,0.1481603,-0.1097801,-0.2108528,-0.4358084,0.2297685
1.59163,-0.2061268,-0.1380715,0.6020661,0.04198288,-0.1136905,-0.3249875,-0.2584046,0.171727
1.439392,-0.2690707,-0.1131479,0.4502447,-0.02111979,-0.08895128,-0.3684931,-0.2723856,0.08433571
1.198209,-0.2026041,-0.1311882,0.2093615,0.04521082,-0.1071469,-0.4453707,-0.8293687,0.2400625
1.034707,-0.1960655,-0.1376548,0.04603386,0.05163387,-0.1137363,-0.466794,-1.001088,0.3464116
0.9697914,-0.22618,-0.1933932,-0.01883291,0.0214213,-0.1695607,-0.4228252,-0.8068421,0.4728709
0.8660375,-0.2184819,-0.2223813,-0.1226551,0.02903583,-0.1985933,-0.4301963,-0.7723376,0.6597463
0.78594,-0.2266819,-0.2230676,-0.2029258,0.02076446,-0.1992763,-0.3894069,-0.5045007,0.6072919
0.7627023,-0.2111899,-0.230407,-0.2264255,0.03619538,-0.2065578,-0.3801917,-0.1226966,0.495892
0.7069792,-0.1916164,-0.1578854,-0.2824814,0.0557157,-0.1339179,-0.401657,-0.09959041,0.370793
0.7092015,-0.2096667,-0.088834,-0.2806436,0.03761774,-0.06468432,-0.3367396,-0.2483422,0.1748483
0.7640814,-0.2123139,-0.08408394,-0.2261813,0.03492563,-0.05968764,-0.2898446,-0.3075507,0.1569027
0.8290908,-0.1850172,-0.1376156,-0.1616063,0.06217821,-0.1129096,-0.1912724,-0.1024116,0.2471059
0.9141224,-0.1169657,-0.2230913,-0.07701384,0.1301832,-0.198013,-0.1229041,0.3241194,0.4218026
0.9032614,-0.04622794,-0.2491351,-0.08831038,0.2008673,-0.2236195,-0.1958892,0.7982066,0.612194
0.8094186,-0.04649466,-0.189028,-0.1825789,0.2005322,-0.1630062,-0.2730197,0.9549652,0.6337846
0.7324991,-0.06941041,-0.08277691,-0.2599062,0.177525,-0.05617727,-0.3622093,0.6048201,0.6133452
0.7082579,-0.05563256,-0.0507554,-0.2845268,0.1911803,-0.02350714,-0.3944213,0.4247153,0.5712899
0.7486709,-0.04379512,-0.08096757,-0.2444524,0.202857,-0.05300393,-0.5080031,0.7082906,0.5000655
0.7628445,-0.05405138,-0.07198749,-0.2305651,0.192395,-0.04324639,-0.8321175,0.8514578,0.451302
0.7566203,-0.09430146,-0.06912644,-0.2370139,0.1518881,-0.03955017,-0.9575644,0.5783373,0.4260495
0.8473646,-0.1721378,-0.08090767,-0.1464248,0.07373997,-0.05044273,-0.8749958,0.3753473,0.3628641
1.005032,-0.2025766,-0.1310572,0.01116056,0.04293316,-0.09965374,-0.9372766,0.6126075,0.1976926
1.093025,-0.2221803,-0.2472858,0.09914489,0.02290704,-0.2148956,-1.110397,0.9472734,0.065795
1.042514,-0.3649319,-0.3104851,0.04868912,-0.1203173,-0.277058,-1.318239,1.150861,-0.2354621
1.035796,-0.5790452,-0.2402677,0.04208458,-0.3349448,-0.2057484,-1.475498,1.150645,-0.8052888
1.239034,-0.7751186,-0.1248614,0.2454841,-0.5315575,-0.08919049,-1.373005,0.8599123,-0.9941467
1.480533,-0.8268419,-0.0942117,0.487181,-0.5838206,-0.05732927,-1.006607,0.8296594,-0.6676814
1.533349,-0.6465629,-0.142059,0.5402093,-0.4040538,-0.1039079,-0.5364516,1.515885,-0.5181539
1.348858,-0.4419887,-0.1405877,0.3559201,-0.1999413,-0.1011142,-0.357077,2.144874,-0.7298544
1.215093,-0.3970329,0.05503618,0.2223244,-0.1553824,0.09588213,-0.6521524,1.366874,-0.8245682
1.386462,-0.4087576,0.2561162,0.3938147,-0.1674324,0.298376,-0.8641472,-0.62045,-0.6753086
1.576506,-0.2756597,0.1095665,0.583917,-0.03458457,0.1532669,-0.874036,-1.653292,-0.400821
1.577762,-0.04656446,-0.1442751,0.5851494,0.1943346,-0.09912228,-0.9923076,-0.171203,0.02632565
1.417178,0.03233223,-0.2427086,0.4244383,0.2731206,-0.1960978,-1.233493,2.175,0.3411118
0.9873884,0.01128357,-0.2988402,-0.0055987,0.2520116,-0.250764,-1.866734,2.541606,0.426959
0.4900018,-0.01692055,-0.1737175,-0.5033514,0.2237813,-0.1241629,-2.569646,1.661649,0.4638174
0.3957973,-0.1721707,0.1070854,-0.5980203,0.06852517,0.1581337,-2.581651,1.048579,0.358003
0.7324702,-0.3746385,0.2258701,-0.2618785,-0.1339361,0.2784216,-2.002042,0.3286204,0.2042213
1.064709,-0.5005872,0.1215079,0.069788,-0.2598654,0.1755584,-1.233599,0.5189844,0.1190247
1.105944,-0.5196158,0.002187974,0.1104214,-0.2788535,0.0577194,-0.6857471,1.210041,-0.1320547
0.8747143,-0.391441,0.08074874,-0.1214371,-0.1506068,0.137733,-0.4529095,0.9062596,-0.3702102
0.6412597,-0.2884515,0.1497119,-0.3555414,-0.04750589,0.2081127,-0.2753109,0.2927786,-0.3102586
0.7172852,-0.3230751,0.1026674,-0.2801732,-0.08197569,0.162439,-0.2111897,-0.4080777,-0.2529237
0.8731946,-0.3598446,0.1104914,-0.1249123,-0.1185483,0.1715786,-0.2290256,-0.3292468,-0.3811525
0.971869,-0.3579047,-0.0007344224,-0.02686617,-0.116367,0.06160539,-0.238786,0.3303827,-0.4228635
1.219885,-0.3589422,-0.1265932,0.2205456,-0.1171168,-0.06306782,-0.2928489,0.201145,-0.3492244
1.320021,-0.326107,-0.07012174,0.3200957,-0.08394597,-0.005477327,-0.3911398,0.5534674,-0.3233442
1.203684,-0.1757942,0.01032935,0.2031798,0.06675039,0.07602856,-0.7163247,0.6974075,-0.2458596
1.187895,0.01827417,0.116564,0.1868086,0.261245,0.1832534,-1.202669,-0.1552141,-0.1279708
1.192005,0.005178728,0.1076247,0.1903219,0.2486068,0.1752355,-1.428847,-0.417416,-0.01529659
1.154389,-0.2352953,-0.03665423,0.1520896,0.008607244,0.03180404,-1.329628,-0.5165773,0.1540734
1.108585,-0.4260731,-0.09117614,0.1056438,-0.181687,-0.02194631,-1.030699,-0.5950163,0.1684774
1.074647,-0.4264195,-0.07489823,0.07103505,-0.1815398,-0.004970659,-0.5540765,-0.6777038,-0.0235088
1.032459,-0.3791906,-0.01288121,0.02814725,-0.1338014,0.05767368,-0.1237942,-0.9629166,-0.2077797
0.8937454,-0.4024093,0.0128383,-0.1112941,-0.1564891,0.08395207,0.1121768,-0.7711815,-0.3222383
0.8313979,-0.3793961,-0.008420508,-0.1743899,-0.1329187,0.06318402,0.2246475,-0.8062749,-0.3087199
0.8880498,-0.1940077,-0.04064709,-0.1184974,0.05305574,0.03138025,0.1326908,-0.8464493,-0.1418233
0.9051622,0.025267,-0.1340922,-0.1021459,0.2729425,-0.06170813,-0.05708645,-0.5113238,0.114422
0.9171951,0.08354127,-0.1510836,-0.090867,0.3318437,-0.07840454,-0.2326767,-0.357117,0.361853
0.9243597,0.002715977,-0.1210086,-0.08444298,0.2516436,-0.0480896,-0.4941115,-0.1857423,0.4186316
0.90033,-0.05643773,-0.1217524,-0.109194,0.1930976,-0.04864214,-0.5816094,-0.3567418,0.305543
0.8620545,-0.1335386,-0.08314151,-0.1481656,0.116575,-0.009883149,-0.4079283,-0.5325657,0.2235277
0.7905547,-0.2501435,-0.0693035,-0.2203294,0.0005118154,0.004063927,-0.1710866,-0.4458959,0.1600136
0.7328989,-0.2356829,-0.08067138,-0.278608,0.01547529,-0.007230916,0.08493997,-0.5048048,0.1056803
0.7209756,-0.2069513,-0.08657849,-0.2911015,0.04467081,-0.01309839,0.2245694,-0.2496236,0.1305292
0.7130029,-0.2397573,-0.09444771,-0.2995799,0.01229035,-0.02095856,0.3392883,0.07516576,0.1251173
0.7085744,-0.2078275,-0.1038667,-0.3044375,0.04460712,-0.03039598,0.5013618,0.2861249,0.02789206
0.6936924,-0.1972895,-0.112814,-0.3196609,0.05549381,-0.03938576,0.6049253,0.4652291,-0.09648192
0.6654257,-0.1677619,-0.07625219,-0.3481705,0.08533085,-0.002887262,0.7299414,0.4610226,-0.1880463
0.7127961,-0.1051437,-0.04388903,-0.300934,0.1482174,0.0293944,0.7414324,0.4157444,-0.2139901
0.8163709,-0.0787644,-0.04490459,-0.1973759,0.1748203,0.02828023,0.6477192,0.2045265,-0.2146202
0.9097958,-0.007898627,-0.06652162,-0.1038464,0.2458589,0.006547836,0.5374078,0.2524723,-0.2325458
0.989879,-0.0103009,-0.1324774,-0.02353826,0.2435715,-0.05953903,0.1526129,0.4705162,-0.3577757
1.026159,-0.1803054,-0.1660207,0.01308143,0.0736165,-0.09322613,-0.2619,0.3869881,-0.6889992
1.11781,-0.4705954,-0.08095976,0.1051773,-0.216691,-0.008317482,-0.3102535,0.4020035,-1.080563
1.337032,-0.7132291,0.04663357,0.3249361,-0.4594,0.1191177,-0.1231497,0.342107,-1.186197
1.516271,-0.6663798,0.05617981,0.5047844,-0.4126643,0.1284985,0.159225,0.3596722,-0.8594362
1.532996,-0.4906962,0.02095163,0.5221645,-0.2371095,0.09309304,0.4185826,0.6702388,-0.455667
1.498134,-0.4087439,0.08214861,0.487973,-0.1552835,0.1540964,0.572532,0.5425051,-0.374531
1.57375,-0.4104442,0.1733897,0.5642452,-0.1570959,0.2451219,0.6321254,-0.440741,-0.444896
1.700312,-0.395043,0.2241608,0.6914205,-0.1417849,0.2956475,0.5914844,-1.333076,-0.3524086
1.704607,-0.2573907,0.1133965,0.6962544,-0.004195599,0.1845979,0.5431686,-0.2208167,-0.1476672
1.452476,-0.1670994,-0.05595295,0.4445601,0.08606161,0.01491606,0.4394187,1.178803,0.06255446
0.9562173,-0.1544521,-0.009217438,-0.05138567,0.09870039,0.06127031,0.2530208,0.3163866,0.2861195
0.5798524,-0.1028419,0.08325811,-0.4275616,0.1503212,0.1533166,0.1936143,-0.3530648,0.5036641
0.5536376,-0.1406943,0.1245368,-0.4536939,0.112491,0.1941173,0.2183056,-0.2815948,0.608792
0.6422109,-0.1900643,0.2001408,-0.3651172,0.06314789,0.2691904,0.2069066,-0.7576696,0.5203958
0.6587739,-0.1894661,0.1731802,-0.3486036,0.06377236,0.2416399,0.2787605,-0.3663055,0.3890828
0.6413564,-0.2233463,0.1186223,-0.3660999,0.02991439,0.1864267,0.4152322,-0.04389358,0.3087106
0.6230324,-0.1940595,0.1170552,-0.3845113,0.05921707,0.1841341,0.5095617,-0.4523298,0.202953
0.5626617,-0.1577705,0.1009675,-0.4449574,0.09551327,0.167248,0.5755199,-0.3340611,0.127438
0.4845766,-0.1504084,0.1296605,-0.5230848,0.1028706,0.1950679,0.5438515,-0.4874268,0.01804371
0.4738498,-0.1474975,0.1298435,-0.5337983,0.1057608,0.1943016,0.4424685,-0.9253411,-0.1201221
0.5494153,-0.1944229,0.06312345,-0.458142,0.05879499,0.1265546,0.4202545,-1.464236,-0.03269356
0.7582178,-0.1973243,-0.024469,-0.2491525,0.0558307,0.03785837,0.4200544,-2.181426,0.1558107
1.04352,-0.2400103,-0.1551988,0.03644245,0.01305818,-0.09404729,0.4723702,-1.978504,0.2410866
1.137482,-0.3348244,-0.1921331,0.1307996,-0.0818653,-0.13222,0.6155053,-1.193809,0.2125505
0.952106,-0.3077086,-0.06141989,-0.05408766,-0.0548785,-0.002795579,0.7124598,-0.4380299,0.03436801
0.7447012,-0.2458258,0.1054831,-0.2609184,0.006860051,0.1627776,0.8053696,-0.1787491,-0.1498123
0.7291076,-0.2238267,0.1403348,-0.2758535,0.02870237,0.1962614,0.8353725,-0.5990531,-0.2905224
0.873549,-0.2666317,0.003634275,-0.1306655,-0.01427073,0.05815433,0.727078,-0.4763436,-0.3933646
1.042456,-0.3534485,-0.2024055,0.03907658,-0.1012655,-0.1493291,0.6507021,0.02801476,-0.4309678
1.167717,-0.3538123,-0.3749582,0.1652567,-0.1018131,-0.3233534,0.6254658,0.3197518,-0.4812465
1.536338,-0.3335153,-0.3444588,0.5348634,-0.08170032,-0.2943367,0.6718046,0.5506043,-0.4142455
2.058101,-0.3435334,-0.2670565,1.057651,-0.09189773,-0.218409,0.7325886,0.6705243,-0.3097868
1.955039,-0.2866295,-0.3043882,0.9556101,-0.0351638,-0.2571901,0.594506,0.8399267,-0.31787
1.495488,-0.1075322,-0.0916852,0.497028,0.1437746,-0.04589788,0.3081736,0.4555191,-0.2556213
1.338197,0.05814964,0.2018671,0.3406171,0.3093049,0.2462891,-0.04201962,-0.3065446,-0.1504698
1.163322,-0.06573266,0.2224045,0.1665136,0.1852685,0.2655032,-0.1879017,-0.8162034,0.04064984
1.078679,-0.2502764,0.1957796,0.08252678,0.0005580638,0.2375864,0.2336931,-1.384118,0.385689
1.15153,-0.1752711,0.01695538,0.1559171,0.07537963,0.05749117,0.785812,-1.224792,0.5895139
1.022334,-0.1759516,-0.257282,0.02714437,0.07449673,-0.2180003,0.8829422,-0.7140294,0.5344882
0.9331878,-0.2357499,-0.1858868,-0.06169044,0.01447633,-0.1478375,0.7236102,-0.8177668,0.4800116
0.8228084,-0.09884788,-0.06401417,-0.1718632,0.1511355,-0.02716706,0.5743843,-0.7186094,0.5972026
0.6357791,-0.05916625,-0.1457733,-0.3587765,0.1905507,-0.1100914,0.3922498,-0.6294894,0.6230626
0.6688542,-0.1089736,-0.1098009,-0.325657,0.1404481,-0.07524272,0.3547851,-0.5636868,0.4727298
0.7430078,-0.1258604,-0.06781456,-0.2515095,0.1232321,-0.03433455,0.5535523,-0.1791722,0.3084339
0.7820275,-0.1933994,-0.1138335,-0.2125278,0.05532662,-0.08138309,0.6843538,-0.1513569,0.1148153
0.8302147,-0.1699653,-0.07475243,-0.1643962,0.07835564,-0.04328073,0.7082696,-0.1123746,0.09834201
0.8243745,-0.1116251,-0.1297961,-0.1702979,0.136252,-0.09924997,0.7402398,0.1701336,0.2442948
0.7997653,-0.08133165,-0.1943935,-0.1949649,0.1660612,-0.1647169,0.7414288,0.5212259,0.3833172
0.7493677,-0.05038134,-0.1400893,-0.245407,0.1964835,-0.1112216,0.7639798,0.9027949,0.5672629
0.6548534,-0.09983351,-0.1225724,-0.3399415,0.1464553,-0.09444867,0.7636853,0.8054444,0.5262785
0.5678329,-0.167631,-0.05028104,-0.4269442,0.07803069,-0.02283375,0.7953904,0.425665,0.2375269
0.6087888,-0.2452878,0.02330165,-0.3859165,-0.0003045465,0.05013955,0.9775798,0.002520251,-0.09170404
0.7373,-0.2406963,0.02661435,-0.257264,0.003560375,0.05290649,1.076308,-0.1359962,-0.4176788
0.867436,-0.1393429,-0.04318414,-0.1269066,0.1041431,-0.017379,0.9032831,0.336604,-0.5761772
0.8969975,-0.1587124,-0.1756364,-0.09703946,0.08396183,-0.1502625,0.6263761,0.8325721,-0.6956292
0.8325272,-0.2967435,-0.1001489,-0.1611198,-0.05492045,-0.07514985,0.5566217,1.097414,-0.9444611
0.9795539,-0.517648,0.04192437,-0.01362022,-0.2767098,0.06660578,0.5886272,0.6894554,-1.21984
1.326056,-0.5983466,0.05726602,0.3334321,-0.3583138,0.08168442,0.456464,-0.1737383,-1.214434
1.712235,-0.3783256,0.05838037,0.7202226,-0.1392013,0.0825842,0.3560738,-0.2638487,-0.6306534
1.871723,-0.2616509,0.0399206,0.8803502,-0.02342377,0.06395136,0.3967859,0.1120971,-0.0198715
1.657744,-0.3671646,0.1723303,0.6669982,-0.1298155,0.1962223,0.5556469,0.2574931,0.04597451
1.568038,-0.420016,0.3115775,0.5778677,-0.1835198,0.3353553,0.7349996,-0.01989442,0.03196121
1.567767,-0.3639605,0.1612982,0.5780885,-0.1282844,0.1849728,0.7358553,-0.3294175,0.2485395
1.424967,-0.2918981,0.03989944,0.4356726,-0.0570021,0.0634697,0.7491891,0.1111655,0.3065303
1.293314,-0.2413083,0.09181504,0.304277,-0.00714856,0.1152725,0.7828001,0.4162201,0.242254
1.032356,-0.2004134,0.1067544,0.04344041,0.03305466,0.130086,0.6398941,0.02218854,0.3612944
0.7957669,-0.1778011,0.09312085,-0.1931627,0.0550182,0.1163089,0.4509639,-0.3435531,0.5362793
0.689703,-0.1087229,0.1096561,-0.2993627,0.1234865,0.1326782,0.2691331,-0.6555643,0.7336067
0.6490981,-0.07892579,0.09726569,-0.3402053,0.1527069,0.1200951,0.1598145,-0.8201055,0.799773
0.7504854,-0.1555315,0.0514479,-0.2391342,0.07555071,0.07405427,0.2228086,-0.7296609,0.5769737
0.7182737,-0.1628358,0.03441598,-0.2717191,0.06771599,0.05676676,0.3682738,-0.5686773,0.2983622
0.6461152,-0.1667,0.04085853,-0.3442882,0.06333731,0.06292052,0.5309098,-0.3082905,-0.05794424
0.6131134,-0.1772596,0.07617282,-0.3777185,0.05227609,0.09791261,0.5854409,-0.2155812,-0.3373796
0.4372629,-0.1369723,0.13427,-0.5539933,0.09207178,0.155653,0.501515,-0.4570957,-0.3566913
0.4268547,-0.1549064,0.1527659,-0.5647971,0.07365295,0.1737546,0.4775582,-0.865599,-0.2476031
0.5664513,-0.1429232,0.06980705,-0.4255416,0.08515513,0.09036005,0.45328,-1.494854,0.08849707
0.7874898,-0.1462355,-0.1068691,-0.2047685,0.08136241,-0.08679449,0.3617859,-1.883983,0.3493333
1.060704,-0.2176515,-0.1817134,0.06826659,0.009463974,-0.1621555,0.401923,-0.9265234,0.163348
1.009743,-0.2413465,-0.07434826,0.01721202,-0.01471621,-0.05533677,0.5452107,0.61664,-0.1510678
0.8564993,-0.2616168,0.08670181,-0.1360443,-0.03547299,0.105145,0.621331,0.8385363,-0.3283155
0.8613798,-0.3013516,0.1455378,-0.1310995,-0.07569284,0.163393,0.4823179,0.3401668,-0.4467245
0.9606365,-0.3861614,-0.09010238,-0.03170185,-0.1609817,-0.07285618,0.2480122,0.3214266,-0.462588
1.234613,-0.448537,-0.4075742,0.2424885,-0.2238233,-0.3909548,0.2736218,0.4363734,-0.3324671
1.541141,-0.4242838,-0.3618933,0.5492916,-0.2000134,-0.3459053,0.4041694,0.6194522,-0.2905431
1.710657,-0.3915412,-0.08378761,0.7191186,-0.1676816,-0.06841832,0.5741194,0.7341383,-0.3231491
1.69012,-0.3010753,0.04590802,0.6988931,-0.07758609,0.06068214,0.8305076,0.2607549,-0.2762467
1.677378,-0.2102912,-0.04563404,0.6864283,0.01287193,-0.03142902,0.7245386,-0.3781024,-0.1293454
1.804899,-0.1626733,-0.1862661,0.8141565,0.06020784,-0.1726035,0.5371657,-0.4441582,0.06702994
1.626409,-0.1568215,-0.154932,0.6357716,0.06581789,-0.141781,0.6547499,-0.2662766,0.05153382
1.221883,-0.2157863,-0.02645043,0.2312202,0.006646846,-0.01377476,0.6146493,-0.514803,0.04804652
1.037504,-0.1553154,0.02011823,0.04667383,0.06694261,0.03235742,0.471482,-1.004506,0.3013142
0.9829584,-0.09371836,-0.02539753,-0.008180713,0.1283913,-0.01355693,0.3761269,-1.314388,0.5035488
1.002211,-0.1342273,-0.1239759,0.01063042,0.08775473,-0.1124972,0.1812232,-1.057158,0.6388468
0.9025814,-0.09027241,-0.1192747,-0.08956137,0.1315963,-0.10812,0.1006607,-0.5427003,0.7485483
0.6677286,-0.08331333,-0.1030702,-0.325084,0.1384495,-0.09219846,0.0717382,-0.6265969,0.8183317
0.6669041,-0.1476266,-0.1640628,-0.3266659,0.07403126,-0.1534296,0.004234811,-0.7275114,0.8188273
0.7221075,-0.2122262,-0.1262408,-0.2722842,0.009322924,-0.1157982,0.04532424,-0.4852951,0.6249387
0.6849848,-0.2607146,-0.1551415,-0.3102702,-0.03927977,-0.1448376,0.1872373,-0.2120754,0.3525381
0.6453773,-0.2155173,-0.2014834,-0.3507615,0.005798573,-0.1912625,0.4228469,0.4359105,0.09022889
0.5659526,-0.1988277,-0.1344114,-0.4310694,0.02236553,-0.1242136,0.5288649,0.8263803,0.0277754
0.5570683,-0.1859572,-0.09950927,-0.4408139,0.03510992,-0.08927135,0.4971907,0.853973,0.1134844
0.5509335,-0.1244555,0.02614845,-0.4477632,0.09648067,0.03649021,0.5710746,1.052753,0.03127757
0.523844,-0.1351973,0.08011453,-0.4755994,0.08560077,0.09062015,0.5840928,0.7050879,0.02263681
0.5858933,-0.1277361,-0.005459341,-0.4142087,0.09291317,0.005263424,0.506588,0.06021865,0.1010137
0.7089648,-0.09014244,-0.01336824,-0.2916901,0.1303436,-0.002381577,0.4858501,-0.1655025,0.08424252
0.9087884,-0.1070039,-0.1236596,-0.09230275,0.1133003,-0.1123664,0.5400603,-0.05559279,0.07299882
0.9841468,-0.117439,-0.3048789,-0.01726085,0.1026608,-0.2932361,0.5911483,0.2893858,-0.08207897
0.9165862,-0.1472818,-0.35823,-0.08502152,0.07258749,-0.3461889,0.4332246,0.6724095,-0.4279024
1.038695,-0.3558944,-0.1728564,0.03699767,-0.1362822,-0.1603586,0.2632326,0.9765981,-0.9513028
1.246831,-0.7010397,0.1219851,0.245147,-0.481705,0.1350034,0.3286248,0.5792953,-1.389869
1.391814,-0.7985107,0.1185263,0.3902312,-0.5794563,0.1321245,0.4177016,-0.03432193,-1.234253
1.593327,-0.5482535,0.01109818,0.5919093,-0.3294579,0.02532575,0.5002996,0.3468685,-0.7780513
1.696132,-0.3315251,0.05803343,0.694915,-0.112946,0.07292995,0.6815497,0.4666379,-0.3596993
1.563776,-0.2966398,0.1127694,0.5627584,-0.07822477,0.1283662,0.8009476,-0.1081233,0.01072954
1.46042,-0.2917726,0.1836492,0.459571,-0.07346614,0.1999681,0.7046451,-0.2718938,0.05293803
1.542571,-0.2667605,0.1679074,0.5418337,-0.0485069,0.1849586,0.4252276,-0.2703375,-0.002596999
1.561218,-0.2264771,0.1008814,0.5605117,-0.008221585,0.1186633,0.1498002,-0.1311797,0.1206039
1.383099,-0.1966583,0.1305939,0.3823234,0.02165126,0.1490949,0.1135501,-0.01111128,0.1906253
1.105396,-0.2210585,0.09728105,0.1044337,-0.002646626,0.1164814,0.206474,-0.1809624,0.3561347
0.7553137,-0.2223599,0.07327915,-0.2459528,-0.003801362,0.09315195,0.14272,-0.2831024,0.6480032
0.5287096,-0.1455123,0.1176638,-0.4729672,0.07323297,0.1381765,0.05143501,-0.4478865,0.7469053
0.5373313,-0.07469761,0.09188282,-0.4648366,0.1442688,0.1129973,-0.002533715,-0.4395617,0.657944
0.5569299,-0.06983916,0.09648645,-0.44578,0.1493747,0.1181597,-0.1006625,-0.2495053,0.4471196
0.5260822,-0.08424732,0.1163927,-0.4771916,0.1352305,0.1385771,-0.04938347,-0.2537131,0.156202
0.4663177,-0.07716768,0.1173129,-0.5375147,0.1425814,0.139956,0.02380582,-0.2757516,-0.08468466
0.3664838,-0.1069786,0.158147,-0.6378738,0.1130407,0.1811918,-0.004031434,-0.5349672,-0.1469882
0.3118208,-0.1559126,0.1278947,-0.6929995,0.06436902,0.1512791,0.05907998,-1.124169,-0.07785898
0.3572038,-0.1599963,0.05197554,-0.6479864,0.0605347,0.07563316,0.1310064,-1.822948,0.05415711
0.5701515,-0.1821099,-0.02950859,-0.4352889,0.03865464,-0.005645529,0.2192377,-2.050496,0.2163796
0.8992871,-0.2389424,-0.1419261,-0.1062654,-0.01796204,-0.1179226,0.3554452,-1.098128,0.04740431
1.056381,-0.2919074,-0.161163,0.05085936,-0.07072858,-0.137077,0.4708553,0.08042406,-0.2478388
0.9784126,-0.3383331,-0.05882559,-0.02694281,-0.1169702,-0.03470574,0.5350829,0.3122588,-0.1969406
0.9956778,-0.4217723,0.01669907,-0.009384749,-0.2002341,0.0408113,0.3673798,0.06188353,-0.1631708
1.158072,-0.5284546,-0.130336,0.1534182,-0.3067412,-0.1062684,0.1753138,0.1825742,-0.2399163
1.35772,-0.4785868,-0.4311209,0.3535749,-0.2566864,-0.4071279,0.124408,0.6769651,-0.3231835
1.697204,-0.3694617,-0.5279475,0.693647,-0.1473509,-0.5040438,0.06251417,0.9681722,-0.4512351
1.843486,-0.3936627,-0.2997543,0.8405612,-0.1713094,-0.2759334,0.2129765,0.7105031,-0.2822683
1.669249,-0.3699577,-0.05078393,0.6669593,-0.147324,-0.02702129,0.5363599,-0.05959754,0.001324549
1.585112,-0.3001399,-0.08527516,0.5834209,-0.07718397,-0.06153863,0.6845968,-0.7317695,0.02499671
1.494314,-0.2606465,-0.1586369,0.4931531,-0.03732448,-0.1348922,0.6016967,-0.7845585,0.0259765
1.350488,-0.1691286,-0.092752,0.3497657,0.05460185,-0.0689628,0.4234608,-0.7230054,0.1038391
1.302067,-0.159846,-0.1480505,0.3016743,0.06433083,-0.1241782,0.2977608,-0.9228996,0.1523804
1.14684,-0.1966074,-0.202776,0.1466583,0.0280475,-0.1787793,0.2087844,-0.9312821,0.18999
0.956069,-0.1589419,-0.1770021,-0.04402232,0.06621665,-0.1528357,0.2216854,-0.7940101,0.2883517
0.9511536,-0.142829,-0.1927304,-0.04896339,0.08285269,-0.1683443,0.3051802,-0.8019109,0.4288617
0.9926469,-0.1168214,-0.1408605,-0.007602568,0.1093963,-0.1162011,0.3352186,-0.297462,0.4302101
0.9134652,-0.09412837,-0.1183898,-0.08701328,0.1326308,-0.09340087,0.3913186,0.4950233,0.3691715
0.7873347,-0.1186793,-0.08462733,-0.2134583,0.1086191,-0.05925209,0.3888706,0.505388,0.4012058
0.6637387,-0.1163979,-0.0003538015,-0.3374392,0.11143,0.02546283,0.3684955,0.1166772,0.3857933
0.5954936,-0.1208841,-0.06574374,-0.4061195,0.107457,-0.03943431,0.3799837,-0.016791,0.4034034
0.6872398,-0.1500585,-0.1258886,-0.3148361,0.07877386,-0.09903874,0.3368996,0.1704489,0.5223596
0.7413564,-0.1707013,-0.1351146,-0.261189,0.05859594,-0.1076785,0.4231345,0.4717651,0.5513644
0.7353112,-0.1720721,-0.1589349,-0.267693,0.05766056,-0.1308664,0.497524,0.5926672,0.4868249
0.8098642,-0.1270631,-0.1276403,-0.1935742,0.1030731,-0.0988926,0.3494696,0.7049513,0.3342984
1.492,-0.4006432,-0.3390459,0.5071646,-0.1457757,-0.2824379,-0.1082284,0.8282083,-0.2496331
1.701261,-0.2898652,-0.2804782,0.7168076,-0.03522367,-0.2248714,-0.1237777,1.355049,-0.2129725
1.655204,-0.1456107,-0.09005078,0.6711257,0.1088113,-0.03546405,-0.4336688,1.308257,-0.1090754
1.415466,-0.1660498,0.01152005,0.4317242,0.088158,0.06507855,-1.00103,0.4388562,0.07876083
1.354205,-0.3152622,-0.08735543,0.3707332,-0.06126619,-0.03482887,-1.360254,-0.6185664,0.4213963
1.480498,-0.4959542,-0.2014891,0.4972111,-0.2421668,-0.1499945,-0.9135412,-0.6016121,0.524015
1.627743,-0.6217158,-0.2102854,0.6445375,-0.3681259,-0.1598156,-0.2308795,0.08476969,0.2156225
1.470676,-0.4932771,-0.1263439,0.487428,-0.2398599,-0.07688308,-0.1153017,0.0457517,-0.003317352
1.102096,-0.2055662,-0.02125129,0.1186664,0.0477146,0.0272237,-0.2103601,-0.301468,0.07110428
0.9072668,-0.0419101,0.02761657,-0.07649037,0.2112731,0.07513123,-0.3966326,-0.7194051,0.341708
0.7659149,-0.05244961,-0.01186512,-0.2183058,0.2006675,0.03471382,-0.6514689,-1.030581,0.732166
0.6674022,-0.172658,-0.06647033,-0.3174001,0.08041368,-0.02080389,-0.5749984,-0.7710456,0.9811012
0.666275,-0.2428166,-0.04632691,-0.3192038,0.01022202,-0.001549695,-0.3998192,-0.8104161,0.9339048
0.8041559,-0.2523455,-0.09200003,-0.1820707,0.0006685537,-0.04808749,-0.2833221,-0.804256,0.7401709
1.019941,-0.2893519,-0.2089355,0.03291374,-0.03635503,-0.1658603,-0.1460411,-0.0687263,0.4642234
0.9326213,-0.2194944,-0.246033,-0.05524725,0.03349273,-0.2037621,-0.1181644,0.8132132,0.2110635
0.7136954,-0.1049152,-0.1930153,-0.2750472,0.1480681,-0.1515075,-0.1491924,1.352443,0.1567974
0.5245576,-0.06691777,-0.07812201,-0.4650778,0.1860629,-0.03732856,-0.3208143,1.078247,0.1386489
0.39448,-0.07449483,-0.0204799,-0.5960443,0.1784762,0.019651,-0.5345363,0.775458,0.1413839
0.5067496,-0.1084068,-0.01739983,-0.4846325,0.1445394,0.02211961,-0.4436368,0.765555,0.2620019
0.5242523,-0.09691712,-0.01169109,-0.4679291,0.1559817,0.0272652,-0.2661633,0.4262575,0.270604
0.549983,-0.1323245,-0.03142963,-0.4429164,0.1204984,0.007008726,-0.1905509,0.3234307,0.1429079
0.7903734,-0.1807046,-0.02210929,-0.2031444,0.07200941,0.01585357,-0.09244732,0.2980393,-0.03941906
0.8825138,-0.1217433,-0.03520068,-0.1115121,0.1308259,0.002326707,-0.1825661,0.291303,-0.1807451
0.8768124,-0.1075891,-0.06747937,-0.1176082,0.1447968,-0.03034934,-0.3778805,0.4959503,-0.1521711
0.8501831,-0.1653626,-0.09706276,-0.1445195,0.08679843,-0.06029283,-0.34418,0.5116359,-0.2342391
0.8374235,-0.2953647,-0.1420091,-0.1574488,-0.04347158,-0.1055613,-0.3129089,0.9977498,-0.5882778
1.037158,-0.5235528,-0.04787777,0.04222649,-0.2719666,-0.01171256,-0.2861965,1.494399,-1.082703
1.372045,-0.6694326,0.08426305,0.3771594,-0.4181807,0.120185,-0.08261644,1.096572,-1.37307
1.657305,-0.5662377,0.08212942,0.6625488,-0.3153287,0.1178432,0.03904418,0.76187,-1.019384
1.692333,-0.3734716,0.07513789,0.6977592,-0.1228958,0.1106712,0.006116992,0.7686941,-0.4968663
1.50319,-0.3420511,0.1331743,0.5088163,-0.09178691,0.1685471,-0.04564095,0.3433749,-0.2447367
1.366025,-0.3179691,0.1785043,0.3718359,-0.067989,0.2137279,-0.1004286,-0.1902046,0.04410678
1.379092,-0.2515524,0.1239652,0.3850497,-0.001826046,0.1590415,-0.3193734,0.121395,0.1395672
1.376247,-0.2426405,0.0741788,0.3822951,0.006862567,0.109101,-0.5918552,0.5195164,0.04277463
1.228693,-0.2013114,0.1578127,0.2347596,0.04799752,0.1925669,-0.572457,0.2252589,0.117925
1.053568,-0.2502145,0.2201441,0.05957326,-0.001073256,0.2547096,-0.4680029,0.0307408,0.1205789
0.8731269,-0.3284085,0.1847687,-0.1210127,-0.07941055,0.2191159,-0.391566,-0.2334711,0.1569122
0.7550361,-0.2785483,0.1619737,-0.2393226,-0.02966899,0.196064,-0.2512545,-0.521545,0.3528601
0.7877073,-0.2387853,0.1449051,-0.2069314,0.01000052,0.1786927,-0.1909861,-0.2775745,0.3927282
0.7737773,-0.1709127,0.1084,-0.2211861,0.07780367,0.1418336,-0.1297348,-0.1506184,0.3211099
0.7163007,-0.07542826,0.1088676,-0.2790164,0.1732384,0.1418923,-0.09506258,-0.07006999,0.1806018
0.6232198,-0.04272846,0.1262014,-0.3724635,0.2059008,0.1587597,-0.1860489,0.04976783,0.02154858
0.4571989,-0.01891,0.1337139,-0.5388436,0.229684,0.1657458,-0.3307453,-0.2464716,0.001357475
0.401829,0.006877867,0.1557228,-0.5945421,0.2554274,0.187166,-0.5327557,-0.5924005,0.03175069
0.4323978,0.01351556,0.1378186,-0.5642445,0.262,0.1686078,-0.6973162,-1.013645,0.06191099
0.5553135,-0.06491285,0.06960709,-0.4415174,0.1834747,0.09967482,-0.8416956,-1.386839,0.1091568
0.8388983,-0.2056291,0.01110569,-0.1580195,0.04262194,0.04038488,-0.9661293,-1.234192,0.1016769
1.129006,-0.272252,-0.01068841,0.1321102,-0.0241799,0.01773822,-0.8531884,-0.7714871,-0.06766745
1.262458,-0.284766,0.02292544,0.2656865,-0.03691294,0.05044037,-0.6080294,-0.04253902,-0.2262699
1.229358,-0.3468528,0.04341673,0.2327967,-0.09925386,0.0699656,-0.3545757,0.5716033,-0.1248355
1.216995,-0.4714043,-0.01515467,0.2207118,-0.224087,0.01037786,-0.04195802,0.632985,0.006848468
1.239279,-0.5452415,-0.165867,0.243324,-0.2982222,-0.1413956,0.05594154,0.6367685,-0.04045837
1.21921,-0.4030958,-0.3244075,0.2236171,-0.156377,-0.301032,-0.1402309,0.8705283,-0.2051713
1.24231,-0.1848303,-0.2658798,0.2470974,0.06159607,-0.2436191,-0.3669137,0.962895,-0.3552595
1.30257,-0.2035224,-0.151657,0.3077395,0.04262357,-0.1305135,-0.567323,0.1747962,-0.2088983
1.425942,-0.2854506,-0.2053751,0.4314814,-0.03957394,-0.1853374,-0.5766527,-0.8493982,0.1847471
1.600885,-0.2877474,-0.1922781,0.6067616,-0.04212929,-0.1733241,-0.2154235,-0.5380103,0.4588808
1.682718,-0.413482,-0.2132907,0.6888722,-0.1681092,-0.1953876,0.216358,0.1603242,0.4477067
1.577823,-0.4317325,-0.3124916,0.5841699,-0.1865867,-0.2955959,0.2613077,0.1750722,0.06227772
1.235398,-0.2252647,-0.116084,0.2418265,0.0196789,-0.1001415,-0.08330734,-0.04744302,-0.2864631
0.8255932,-0.06586931,0.07564014,-0.1680194,0.1788986,0.0906908,-0.4534858,-0.8171808,0.001358999
0.6910978,-0.01232706,-0.02868257,-0.302672,0.2322862,-0.01446228,-0.6692195,-1.326181,0.436021
0.8020717,-0.1010033,-0.1138239,-0.1919542,0.1434663,-0.1003749,-0.6276293,-0.7320694,0.5717914
0.7927679,-0.1879401,-0.1557961,-0.2015929,0.05638745,-0.1430588,-0.4300055,-0.2291479,0.6724244
0.7387521,-0.1771494,-0.1895749,-0.2560048,0.06703228,-0.1774864,-0.3209745,-0.1117011,0.5632881
0.830706,-0.1901304,-0.1364179,-0.1644914,0.0538987,-0.1249101,-0.2157159,0.0572302,0.3088294
0.8521627,-0.1256923,-0.113161,-0.1435048,0.1181748,-0.102162,-0.2155283,0.237297,0.2122856
0.8443788,-0.06275631,-0.1335216,-0.1517764,0.1809356,-0.1229569,-0.3500347,0.423882,0.1507981
0.8256237,-0.08788235,-0.1167679,-0.1710263,0.1556155,-0.1065613,-0.3997504,0.5169683,0.239301
0.7108258,-0.08906386,-0.07359829,-0.2863151,0.1542148,-0.06367268,-0.4162655,0.6988543,0.370198
0.7226657,-0.1169095,-0.01518997,-0.2749498,0.126119,-0.005468976,-0.3423029,0.887454,0.3075312
0.7742676,-0.160814,0.02318606,-0.2237924,0.08192968,0.03277566,-0.2818148,0.6920715,0.3016895
0.7793597,-0.1970362,0.008544727,-0.2191029,0.04538578,0.01807097,-0.3464164,0.2605514,0.3295883
0.8272899,-0.2208102,-0.01530446,-0.1715238,0.02125336,-0.005779213,-0.3304399,0.0133855,0.33399
0.8665999,-0.2134525,-0.05634068,-0.1325064,0.02821762,-0.04675876,-0.2958864,0.1266341,0.3640199
0.9467567,-0.2014431,-0.1100976,-0.05257951,0.03980062,-0.1004041,-0.284408,0.3513069,0.1819817
0.9556806,-0.1656061,-0.120053,-0.04382167,0.07517994,-0.1101938,-0.3378761,0.4657003,-0.108017
0.8992878,-0.2002807,-0.1072272,-0.1003176,0.04001717,-0.09714744,-0.4312594,0.538276,-0.2838513
0.9285151,-0.3787923,-0.06087716,-0.07113118,-0.1390111,-0.05052159,-0.3402617,0.8362345,-0.5371071
0.9819132,-0.5972458,-0.002650892,-0.01771242,-0.3580025,0.008034416,-0.1736817,1.202983,-0.9500588
1.176616,-0.6717512,0.01558443,0.1770689,-0.4330518,0.02664989,0.01681803,0.9833529,-1.159688
1.477272,-0.5913522,0.04437661,0.4778524,-0.3531826,0.05586724,0.1568592,0.6371651,-0.9708486
1.586584,-0.4910545,0.07840766,0.5873196,-0.2533806,0.09036179,0.05432844,0.7014648,-0.7129681
1.459354,-0.289722,0.09453647,0.4602455,-0.0524962,0.1069847,-0.1471075,0.4044833,-0.4628118
1.323801,-0.1394091,0.1088685,0.3248221,0.09742153,0.1218329,-0.3535119,0.02744713,-0.155689
1.33952,-0.2005529,0.113216,0.3406268,0.03593341,0.1267098,-0.4731481,0.1750177,0.001376321
1.32867,-0.2394027,0.1359665,0.3298031,-0.003214884,0.149994,-0.5096101,0.006640402,0.09681892
1.26408,-0.3043886,0.18193,0.2651658,-0.06845685,0.1964864,-0.605224,-0.3186239,0.1563878
1.223574,-0.3622988,0.1867474,0.2245314,-0.126581,0.2018179,-0.5366099,-0.1939918,0.09665168
1.076303,-0.3089006,0.1449037,0.07704404,-0.07335294,0.1604635,-0.3882115,-0.08387157,0.1622968
0.8991475,-0.2913977,0.1079763,-0.1004164,-0.05597435,0.1239919,-0.410919,0.005966941,0.3116716
0.7385225,-0.1557915,0.06406666,-0.2614259,0.07955318,0.08049854,-0.3897598,0.06848707,0.3960639
0.5801728,0.01126555,0.03666875,-0.4202239,0.2465725,0.05347371,-0.4320548,-0.01533814,0.4101559
0.538149,-0.02913443,0.07094982,-0.4627373,0.2061656,0.08808282,-0.6390864,-0.07893145,0.2481671
0.4929718,-0.08462602,0.09148945,-0.5084189,0.1506854,0.1089039,-0.7931431,-0.3049644,0.05743476
0.4009716,-0.09698093,0.06119512,-0.6009103,0.1383496,0.07884229,-0.9019785,-0.531067,-0.001711041
0.4215446,-0.1191733,0.02459523,-0.5807871,0.1161755,0.04242488,-0.8975094,-0.7753359,0.07092363
0.5266428,-0.1887946,-0.003412074,-0.4760694,0.04656574,0.01454982,-0.8639948,-1.284955,0.1562514
0.7109216,-0.3202738,-0.03559135,-0.2920799,-0.08491198,-0.01754567,-0.8506118,-1.415404,0.06835605
0.999948,-0.3617961,-0.06928887,-0.003238617,-0.1264411,-0.05120446,-0.5692726,-0.8265722,-0.009505646
1.120263,-0.3424738,-0.05542707,0.1169964,-0.1071289,-0.03734434,-0.1468005,-0.01307955,-0.03401559
0.9782529,-0.3498372,-0.001363204,-0.02499631,-0.1144997,0.01668209,0.1131003,0.4286434,-0.1311704
0.8662226,-0.2667951,0.04605309,-0.1369196,-0.03145697,0.06402822,0.0660638,0.3282173,-0.2020958
0.8570371,-0.157877,0.06347777,-0.1459119,0.07747209,0.08135071,-0.2031592,0.2959591,-0.2348103
0.9768848,-0.2429394,-0.0341404,-0.02578614,-0.007569888,-0.01640186,-0.4074345,0.5420894,-0.1463084
1.241675,-0.3657347,-0.230775,0.2393634,-0.1303363,-0.2132007,-0.5155401,0.6516024,-0.07093916
1.397154,-0.3410116,-0.3111696,0.3952687,-0.1055738,-0.2937809,-0.4911647,0.7288048,-0.2049136
1.411712,-0.3333656,-0.1760551,0.4103015,-0.09787347,-0.1588604,-0.3479778,0.8310907,-0.3010918
1.348094,-0.345868,0.02751834,0.3471808,-0.1103022,0.04452171,-0.1982121,0.4839374,-0.261045
1.307858,-0.3130731,0.08984293,0.3074437,-0.07741093,0.1066613,-0.05590912,-0.3789018,-0.06140834
1.593206,-0.2638154,-0.06037637,0.5932705,-0.0280315,-0.04373821,0.06899393,-0.8036739,0.2730278
1.863452,-0.1486314,-0.1990126,0.8639515,0.08729958,-0.18255,0.1990906,0.02201049,0.3774457
1.580262,-0.04944721,-0.1103166,0.581119,0.1866522,-0.09402054,-0.1273876,0.7842511,0.127263
1.12396,-0.002978351,0.01653303,0.12507,0.2333021,0.03267677,-0.9065684,0.03244186,-0.02179057
0.9437627,0.004449086,0.0295886,-0.05499114,0.2409115,0.0455958,-1.26268,-0.9072632,0.3048669
0.9434898,-0.05767055,0.009422098,-0.05524099,0.1789627,0.02530664,-1.23061,-0.9155711,0.6450812
0.9743037,-0.1151544,-0.110365,-0.02450766,0.1216285,-0.09459084,-1.130409,-0.5818221,0.5954595
0.9070969,-0.19074,-0.2298467,-0.09188839,0.04616473,-0.2141689,-0.9726982,-0.1321935,0.5215837
0.8100059,-0.1943872,-0.1800618,-0.1892356,0.04260869,-0.1644601,-0.9591404,-0.09567914,0.5587784
0.797975,-0.08677184,-0.1487728,-0.2015916,0.150283,-0.1332195,-0.9586347,-0.4027284,0.5569751
0.734115,-0.07128657,-0.1758824,-0.2658295,0.165792,-0.1603435,-0.9485663,-0.2861705,0.5680835
0.7118859,-0.05961484,-0.1632212,-0.2884726,0.1774473,-0.1476574,-0.9720029,-0.107043,0.5814287
0.7816485,-0.04959531,-0.1783627,-0.2191427,0.1874043,-0.1627296,-0.9386547,0.2930092,0.5584898
0.7646472,-0.09508764,-0.1967969,-0.2365799,0.1417979,-0.1810455,-0.9641192,0.8089978,0.5427509
0.7777341,-0.04200243,-0.1732482,-0.2239185,0.1947127,-0.1573248,-1.025347,0.8043878,0.5284317
0.8366444,0.0002304846,-0.1526592,-0.1654115,0.2367142,-0.1365059,-1.149491,0.9584285,0.5296663
0.8467307,0.01477741,-0.13857,-0.1556967,0.2509628,-0.122126,-1.307501,1.300914,0.5407068
0.827436,-0.001760922,-0.0872059,-0.1753238,0.2340529,-0.07040932,-1.416427,1.324903,0.475466
0.7185836,-0.1072416,-0.02959058,-0.2844619,0.1281219,-0.01238019,-1.59911,0.8844234,0.4107871
0.673792,-0.1388515,-0.03465912,-0.329483,0.09598059,-0.0169768,-1.686017,0.05701724,0.4249603
0.8374284,-0.2040477,-0.09678664,-0.1660096,0.0301732,-0.07857825,-1.566281,-0.1120231,0.39219
1.081597,-0.3026677,-0.2131546,0.07806912,-0.06913312,-0.1943682,-1.479319,0.6728715,0.2362613
1.184695,-0.2983641,-0.3218836,0.1811484,-0.06558297,-0.3024652,-1.505833,1.321784,-0.004318763
1.051001,-0.3481004,-0.3307069,0.04749687,-0.1161299,-0.3105961,-1.510278,1.102825,-0.2177899
0.9715235,-0.5083027,-0.2808407,-0.03188587,-0.2771878,-0.2599686,-1.411648,0.7694303,-0.4328435
1.073972,-0.7649765,-0.2020507,0.07070354,-0.5347451,-0.1803414,-1.197964,0.9061907,-0.7787143
1.253451,-0.8989926,-0.1148741,0.2503635,-0.6696474,-0.09224811,-0.8384273,0.863533,-0.9735931
1.590892,-0.7664353,-0.1222198,0.5880112,-0.5379478,-0.09859859,-0.6073246,1.041185,-0.7968256
1.781611,-0.5939252,-0.1619822,0.7789398,-0.3662373,-0.1372898,-0.7028868,1.459263,-0.5937712
1.450026,-0.3064042,-0.1083676,0.4475351,-0.07943773,-0.08253086,-0.9506774,1.321268,-0.4199432
1.050603,-0.01329142,-0.03319541,0.04823679,0.213039,-0.006144604,-1.422964,0.9973813,-0.03318175
1.056976,-0.04753563,0.02752022,0.0546681,0.1782382,0.05584859,-2.055184,0.428227,0.3211382
1.239193,-0.1346111,0.03042747,0.236875,0.0906738,0.06008802,-2.521034,0.09552954,0.4648278
1.365452,-0.1929339,-0.05267409,0.3630513,0.03191918,-0.02163645,-2.615794,0.7533221,0.5472189
1.360271,-0.4338878,-0.07347977,0.3577075,-0.2094143,-0.041028,-2.180296,1.480437,0.5450128
1.145746,-0.5735373,-0.06597032,0.1429288,-0.349389,-0.03207288,-1.583919,1.766297,0.4310466
0.8883382,-0.4915485,-0.03492357,-0.114828,-0.2676617,0.0004463472,-1.287253,1.589336,0.2476188
0.7619662,-0.3990352,0.09382135,-0.2416368,-0.1753357,0.1306846,-1.220102,0.9955237,0.1426178
0.8121252,-0.2904098,0.1365299,-0.1919879,-0.06681693,0.1748983,-1.247133,0.5081577,0.216433
0.9510469,-0.2395009,0.07971782,-0.05363357,-0.01593307,0.1195916,-1.134895,0.5255541,0.224804
1.010628,-0.316787,0.04711727,0.005335142,-0.09316526,0.08848526,-0.8632732,1.082345,0.09016869
0.9422199,-0.3345078,0.0732856,-0.06372336,-0.1107556,0.1161275,-0.7199706,1.284086,-0.1218099
0.76553,-0.2674804,0.1485068,-0.2410936,-0.04352289,0.1927939,-0.6945548,0.6384535,-0.389342
0.6985678,-0.233884,0.179314,-0.3087543,-0.009648744,0.2250075,-0.7269712,-0.1270332,-0.4873225
0.809119,-0.2335685,0.1729411,-0.1989043,-0.008987214,0.2199909,-0.7412385,-0.3295246,-0.5100117
0.9005086,-0.2414604,0.15578,-0.1082044,-0.01646998,0.204125,-0.6078561,-0.09409797,-0.6543264
0.9472872,-0.2262859,0.1732218,-0.06209452,-0.0008283066,0.2227905,-0.4589651,-0.1097332,-0.6711267
0.8805162,-0.1917836,0.207944,-0.1295075,0.03419377,0.2586555,-0.427979,-0.1518822,-0.5259632
0.7758119,-0.2018275,0.1727204,-0.2348215,0.02471637,0.2244844,-0.4967768,-0.09361,-0.3999969
0.7965485,-0.3197486,0.1158017,-0.2146538,-0.09259701,0.1685197,-0.6094356,-0.3657713,-0.2233869
0.8857061,-0.5181048,-0.08217652,-0.1260158,-0.290306,-0.02860762,-0.7451585,-0.6384187,0.1289978
1.053258,-0.5988091,-0.3513762,0.04107162,-0.3703185,-0.2970565,-0.7552663,-0.5915503,0.5138313
1.187935,-0.5358678,-0.3367617,0.1753385,-0.3066306,-0.2817791,-0.42795,0.5798886,0.4142669
1.162791,-0.4671361,-0.05241398,0.149832,-0.237087,0.003159631,-0.1279474,1.808197,-0.2214042
0.9884381,-0.3103311,0.3035818,-0.02484536,-0.07939848,0.359683,-0.2663559,0.249466,-0.6256028
0.8300177,-0.1475377,0.4304118,-0.1835562,0.08435005,0.4869722,-0.4532736,-1.785935,-0.3860858
1.037711,-0.1894965,0.1440177,0.02388171,0.04341144,0.2009546,-0.413064,-1.381658,-0.0353776
1.32467,-0.2898266,-0.1552441,0.3106209,-0.05584254,-0.09802327,-0.3952434,-0.9434108,-0.08105909
1.242382,-0.3215121,-0.1594603,0.2281383,-0.08640291,-0.1020466,-0.3404728,-1.025014,-0.1148356
