accx,accy,accz,body_accx,body_accy,body_accz,body_gyrox,body_gyroy,body_gyroz
1.96768,-0.09013913,-0.08115033,0.9815798,0.1189627,-0.06339167,-1.163789,0.1896175,-0.4610138
1.914111,-0.2682089,0.05465774,0.9283329,-0.05885043,0.0730044,-1.311677,0.2817572,-0.3054088
1.738488,-0.572088,0.2179914,0.7529983,-0.3624821,0.236932,-0.8604905,0.2529291,-0.1889988
1.675816,-0.6779401,0.1805453,0.6905397,-0.4680857,0.2000768,-0.3301294,0.1332754,-0.1395042
1.472645,-0.4917253,0.1029419,0.4874754,-0.2816038,0.1230503,0.08194725,-0.04511077,-0.003563098
1.202201,-0.2636164,0.001947613,0.2170093,-0.05319405,0.02261032,0.064169,0.1886936,0.393139
1.021086,-0.1637166,-0.03158281,0.03573462,0.04704625,-0.01039236,-0.3769966,0.3730045,0.5762096
0.739928,-0.05514596,0.02641445,-0.2457166,0.1559942,0.04810528,-0.7091178,0.290491,0.547301
0.5662318,-0.01457023,-0.02881178,-0.419824,0.1969754,-0.006648168,-0.9714861,0.2511831,0.5903614
0.5648212,-0.1370152,-0.0101742,-0.4217386,0.07495325,0.01243451,-1.112991,0.1931611,0.4844604
0.5051122,-0.198221,0.0414589,-0.4820152,0.01417902,0.06448495,-1.006085,0.2585435,0.2836296
0.5136633,-0.2037851,0.03648886,-0.4740658,0.009050273,0.05990355,-1.022463,0.282757,0.1047594
0.555294,-0.2048582,0.1329405,-0.4330429,0.008413812,0.1567127,-0.8425335,0.05168658,-0.1087561
0.564178,-0.1361352,0.1297675,-0.4247472,0.07757259,0.1538616,-0.5012935,-0.2392203,-0.2607892
0.6064464,-0.07109447,0.08307242,-0.3830253,0.1430444,0.1074476,-0.4245578,-0.3314768,-0.4154169
0.5746707,0.04872482,0.0876933,-0.4152861,0.2632832,0.1123041,-0.4287016,-0.1684115,-0.5709292
0.547786,0.1613697,0.04381269,-0.4425767,0.376325,0.06861053,-0.8130737,-0.1233662,-0.600191
0.6056371,0.1441376,0.04442427,-0.3850352,0.3594521,0.06935904,-1.490312,-0.2057954,-0.5456287
0.6369534,0.05621375,0.02964054,-0.3539175,0.2718338,0.05466161,-1.77589,-0.2094731,-0.4271488
0.6332706,-0.2076539,0.04329906,-0.3576759,0.008206511,0.06835594,-1.442676,-0.2544033,-0.2279612
0.6325761,-0.52234,0.07430007,-0.3583132,-0.3063063,0.0993424,-0.682416,-0.465645,0.1065526
0.7738533,-0.6082039,-0.07158439,-0.2168382,-0.3920529,-0.04660659,0.2062677,-0.8295954,0.5351946
1.296184,-0.6475329,-0.3630159,0.3058317,-0.4313006,-0.3381481,0.8079846,-0.7921813,0.7226701
1.898879,-0.7409865,-0.6477386,0.908991,-0.5246853,-0.6230118,0.4750213,0.0580569,0.3694381
1.868058,-0.6148729,-0.5985419,0.8787199,-0.3984909,-0.5739619,0.113959,0.9677365,-0.2673027
1.505597,-0.4236515,-0.2137562,0.5168485,-0.2071557,-0.1893013,0.4727869,0.9375695,-0.5013687
1.545678,-0.5054536,0.03009604,0.5575176,-0.2887969,0.0544646,0.573987,0.329309,-0.2318537
1.712366,-0.5370574,-0.03171041,0.7247591,-0.3201822,-0.007385576,0.8968924,0.2005855,-0.06961339
1.73664,-0.3753631,-0.1103814,0.7495198,-0.1582027,-0.08605976,1.272388,0.4566031,-0.3148374
1.429009,-0.1848857,-0.002239459,0.4422768,0.03263217,0.02211782,0.6990136,0.503735,-0.6924077
0.7448724,0.08441274,0.04185631,-0.2415891,0.3023565,0.06628607,0.3304857,-0.05357525,-0.8405438
0.5344806,0.09850313,0.005442499,-0.4518266,0.3169276,0.02997734,0.4293623,-1.050584,-0.4741845
0.708478,-0.07952714,0.006906415,-0.2777706,0.1394146,0.03157407,0.4632716,-1.318825,0.3530477
0.6596822,-0.0725424,-0.1284254,-0.3265789,0.1469372,-0.1036005,0.6981176,-0.7675111,0.9247139
0.7045207,-0.2055605,-0.1848187,-0.2818025,0.01446689,-0.1598122,1.031489,-0.3076939,0.8925325
0.7862113,-0.3736071,-0.1799209,-0.2002049,-0.1530271,-0.1547047,1.333522,-0.1410183,0.6455115
0.7638849,-0.2857067,-0.2192255,-0.2226399,-0.06456916,-0.1937661,1.47011,-0.223177,0.395659
0.8021199,-0.2053872,-0.0758458,-0.1845163,0.01631511,-0.05010482,1.612335,-0.2939702,0.268232
0.9015184,-0.1251711,-0.05140104,-0.08522188,0.09710233,-0.02533767,1.736601,-0.166811,0.181919
0.9983655,0.008144104,-0.08627487,0.01153468,0.2309898,-0.0598491,1.499678,0.2776629,-0.04888421
0.9304805,0.09705801,-0.00560895,-0.05642481,0.3204668,0.02121719,1.143588,0.9957233,-0.2572506
0.753242,0.1942507,-0.04926412,-0.2337201,0.4181987,-0.02200245,0.5910035,1.109839,-0.2781363
0.5227538,0.2818795,-0.02413773,-0.4642397,0.5063238,0.003591269,-0.05713647,0.5558601,-0.1011294
0.3809594,0.2495795,-0.02130667,-0.6060242,0.4744562,0.006918031,-0.4093873,0.1419043,0.06642988
0.4892512,0.07608419,-0.1046425,-0.4976589,0.3013091,-0.0758967,-0.5934574,-0.08577455,0.2303884
0.577011,-0.1776988,-0.1015091,-0.4097396,0.04777658,-0.07221829,-0.6067622,-0.07171667,0.4973823
0.6617628,-0.4448175,-0.1616011,-0.3247255,-0.2191911,-0.1317409,-0.4217408,0.3248682,0.5379205
0.7579592,-0.5585016,-0.1303463,-0.2281534,-0.3328136,-0.09989069,-0.04020072,0.6084381,0.163974
0.7195113,-0.4769984,0.01346582,-0.2661062,-0.2513198,0.04454406,0.3733195,0.3751205,-0.5067078
0.9045227,-0.3112676,0.08767707,-0.08047842,-0.08565086,0.1194027,0.4545691,-0.1833491,-0.8976724
1.468723,-0.01835635,0.08419564,0.4844549,0.2071574,0.1165865,-0.1538274,-0.4528587,-0.5689882
1.96669,0.16817,0.02798749,0.9832471,0.3935395,0.06105307,-1.207304,-0.04891741,-0.1381267
1.941009,-0.1040766,0.0945277,0.9584414,0.121099,0.1282699,-1.383895,0.4921962,-0.0002018753
1.726076,-0.5293682,0.2130994,0.7443832,-0.3044414,0.2475122,-0.866294,0.4594569,0.01303489
1.773965,-0.6818612,0.2948331,0.7930979,-0.4572294,0.3298991,-0.5943789,0.09087681,-0.1660529
1.654239,-0.6352847,0.2930758,0.6741103,-0.4109735,0.3287632,-0.0536474,-0.04531555,-0.2908632
1.442557,-0.4729251,0.1111233,0.4630479,-0.2489367,0.1473854,0.2214668,0.06641597,-0.07907573
1.274561,-0.2159956,0.03068196,0.2955302,0.007684393,0.06746217,-0.157565,0.2430411,0.1606197
0.7419538,-0.0248639,0.0697331,-0.2367488,0.1985278,0.1069706,-0.3660578,0.2270045,0.280086
0.4488036,0.0762603,0.06209354,-0.5297111,0.299379,0.09972562,-0.6760666,-0.01217369,0.4093283
0.5470571,0.08769781,0.04638592,-0.4313846,0.3105466,0.08434842,-1.157821,-0.1019831,0.4679375
0.5500119,0.01574225,-0.009781587,-0.4284411,0.2383103,0.02844648,-1.470792,0.1262639,0.3443062
0.648178,-0.03067675,-0.003673238,-0.3303419,0.1915873,0.03475647,-1.697873,0.5324918,0.09858493
0.6362565,-0.0599025,0.06534765,-0.3423622,0.1620255,0.1039167,-1.680463,0.6209418,-0.1068323
0.5788858,-0.08979195,0.1296406,-0.3998425,0.131762,0.1682869,-1.473762,0.3629742,-0.3061507
0.6563912,-0.08036379,0.1559235,-0.3224379,0.1407741,0.1945826,-1.243559,0.1550675,-0.5592333
0.5849415,-0.04795411,0.06815328,-0.3939613,0.1727224,0.1067568,-1.199799,-0.1714082,-0.6553235
0.5863984,-0.05801889,-0.01139312,-0.3925337,0.1621475,0.02708467,-1.522254,-0.3795325,-0.535979
0.6125666,-0.1112834,-0.06238936,-0.3663339,0.108321,-0.02410584,-1.791466,-0.2868735,-0.3406225
0.5540579,-0.2427622,-0.03360622,-0.4247347,-0.02377246,0.004419247,-1.684083,-0.1987416,-0.1099006
0.5510469,-0.465087,0.06694675,-0.4275467,-0.2467604,0.1046553,-1.319751,-0.1868502,0.1331258
0.5076306,-0.5002852,0.02509657,-0.470658,-0.2826583,0.06243204,-0.6792458,-0.6538116,0.3589883
0.6998825,-0.4358175,-0.1324922,-0.2779819,-0.2189105,-0.09558345,0.1686391,-1.322383,0.5960583
1.29961,-0.575566,-0.4679508,0.3222941,-0.3593822,-0.4315146,0.5527503,-1.160992,0.6880301
1.816895,-0.6561315,-0.7354709,0.8402386,-0.440656,-0.6995342,0.312631,-0.1340742,0.4588134
1.709255,-0.6100144,-0.5160784,0.7333338,-0.395212,-0.4806392,0.2881921,0.7791856,0.08352405
1.487479,-0.6198782,-0.2394357,0.5123249,-0.4056934,-0.2044637,0.5746943,0.6784049,-0.1922609
1.728548,-0.5521214,-0.1618721,0.7541553,-0.3384803,-0.1273195,0.7676015,0.1261453,-0.1626066
1.769325,-0.3424322,-0.05467838,0.7956497,-0.1292472,-0.02048996,0.8634596,0.09690848,-0.08145044
1.73483,-0.0799337,-0.02518415,0.761793,0.1328886,0.00869637,0.4308259,0.2097682,-0.3278709
1.782921,0.09103957,-0.05159447,0.8104059,0.3035869,-0.01796762,-0.4580799,0.181552,-0.543601
1.278619,0.09377809,0.00548641,0.3064803,0.306123,0.03891063,-0.8020802,0.02910926,-0.5756018
0.8591295,0.03224889,0.05068253,-0.1127961,0.244445,0.08395101,-0.4973902,-0.5666467,-0.3013708
0.7806124,-0.05747169,0.04028839,-0.1912592,0.1546121,0.0734423,-0.2260238,-0.9775675,0.3531468
0.6889864,-0.1956374,-0.03568342,-0.2829733,0.0163584,-0.002608856,-0.02491014,-0.6612025,0.6603867
0.8000076,-0.2873823,-0.1496884,-0.1721606,-0.07545605,-0.1166614,0.4173363,-0.1703494,0.6089723
0.8725936,-0.2765539,-0.1853209,-0.09988359,-0.06467938,-0.1523092,0.7419167,0.1388009,0.4705957
0.8489276,-0.2651497,-0.1478918,-0.123943,-0.05330726,-0.1148594,0.73256,0.223675,0.1686306
0.794834,-0.2564157,-0.1028821,-0.1785007,-0.04458395,-0.06978918,0.9138351,0.2142504,0.08071226
0.6948226,-0.1613242,-0.05628002,-0.279032,0.05051861,-0.02308529,1.189359,0.3013933,0.03897917
0.664947,-0.005628274,-0.02835942,-0.3094664,0.2062447,0.00497775,1.194118,0.3842778,-0.1547302
0.5962136,0.1728619,-0.03286,-0.378778,0.3847756,0.0006576692,1.072996,0.3747959,-0.2101643
0.5958737,0.2879425,-0.03335901,-0.379695,0.4998914,0.0003739954,0.7200327,0.3630057,-0.1462896
0.5992296,0.2822799,-0.05177531,-0.3768945,0.4942373,-0.01779518,0.1188405,0.4068264,0.04720131
0.5821621,0.2150812,-0.1038801,-0.3944761,0.4269978,-0.06962329,-0.3573748,0.513406,0.2418594
0.6376044,0.06508633,-0.1179556,-0.3394886,0.2768937,-0.08339321,-0.5943037,0.6964671,0.2384048
0.611491,-0.174579,-0.1215308,-0.3659816,0.03703892,-0.08663318,-0.6880831,0.7519069,0.1166034
0.6305273,-0.3819934,-0.06851395,-0.3472357,-0.1706466,-0.03325067,-0.4056862,0.649062,-0.1127651
0.7085876,-0.4329532,0.1053324,-0.2693645,-0.2219502,0.1409906,0.09697414,0.3804705,-0.5619114
1.023715,-0.3220743,0.1599084,0.04568246,-0.1114735,0.1959847,-0.003642643,-0.1253691,-0.9552697
1.683633,-0.1746907,0.006713206,0.7056219,0.03546202,0.04322145,-0.6803521,-0.2046597,-0.7917277
2.046881,-0.1223234,-0.1005953,1.068969,0.08734252,-0.06364859,-1.33657,0.2473151,-0.4172502
1.930057,-0.167467,-0.008046061,0.9522713,0.04167548,0.02934281,-1.514374,0.6237586,-0.2007851
1.725692,-0.2544398,0.1365603,0.7480109,-0.0458558,0.1743929,-1.259815,0.8431007,-0.06953505
1.573828,-0.333949,0.1865251,0.5961875,-0.125954,0.2247967,-1.345867,0.7443442,-0.2311497
1.438641,-0.2538604,0.2126865,0.4609465,-0.04647784,0.2513818,-1.468951,0.5070835,-0.2829897
1.306564,-0.07303779,0.1640269,0.3286991,0.1337152,0.2031192,-1.326634,0.3251903,0.03951313
1.077619,-0.02353226,0.03893278,0.09945898,0.1825747,0.07838525,-1.46504,0.01949666,0.3085591
0.829859,-0.02672966,-0.03779362,-0.1487232,0.178711,0.001976851,-1.531561,0.1013736,0.4766649
0.7429144,-0.01266702,-0.1156507,-0.2362057,0.1920813,-0.07560463,-1.585644,0.4106714,0.4530348
0.5854269,0.002001628,-0.1346743,-0.3943277,0.2060255,-0.09439102,-1.816703,0.4445804,0.3677053
0.4091641,0.04729587,-0.09026933,-0.571296,0.2505571,-0.04978167,-1.916485,0.5779479,0.3925729
0.3832165,0.03466323,-0.08823305,-0.5979888,0.2371169,-0.04756834,-2.206443,0.5689969,0.3316402
0.3680715,-0.01158748,-0.06789266,-0.6138847,0.1900072,-0.02707409,-2.492865,0.3825021,0.2992464
0.4543126,-0.04726567,-0.03570681,-0.5283674,0.1534137,0.005245427,-2.49711,0.3167213,0.2137549
0.5510132,-0.08447429,-0.007387201,-0.4323344,0.1152313,0.03368013,-2.353466,0.1123682,0.1240779
0.6161886,-0.09054213,-0.001379735,-0.367748,0.1081308,0.03978432,-1.986501,0.05932376,0.1905135
0.7379615,-0.1282866,-0.02404988,-0.2464689,0.06929639,0.01719202,-1.66606,0.1104213,0.1246083
0.7716958,-0.1869834,-0.01582128,-0.2131228,0.009455028,0.02547927,-1.535085,0.03892851,0.09690231
0.7829613,-0.2598797,-0.04514366,-0.202134,-0.06463511,-0.003803493,-1.421879,0.1211041,0.2507416
0.7686529,-0.3618291,-0.1036265,-0.2166037,-0.167819,-0.06226458,-1.139958,0.1423541,0.3757316
0.8049871,-0.4134659,-0.152522,-0.1803129,-0.2207187,-0.1111531,-0.8711109,0.1568217,0.4985131
1.142759,-0.5294187,-0.2377114,0.157533,-0.3379473,-0.1963448,-0.9077614,0.3130895,0.6825529
1.491584,-0.7390018,-0.3114663,0.5065394,-0.5487993,-0.2701022,-0.6728665,0.5760282,0.6949773
1.508194,-0.8925523,-0.2928397,0.5234151,-0.7035854,-0.2514671,-0.06383681,0.8856021,0.02148732
1.551099,-1.011962,-0.1632616,0.5666376,-0.8241655,-0.121858,0.4610921,0.6917703,-0.6937711
1.835636,-0.9344179,-0.0008387384,0.8515111,-0.7476885,0.04062512,0.9048163,0.4203171,-0.4775241
1.87285,-0.5447308,0.142359,0.8890398,-0.3589341,0.1839123,0.6604131,0.676137,-0.2835674
1.68602,-0.1727442,0.1904855,0.7024634,0.01227412,0.2321498,-0.2555355,0.6779205,-0.6116043
1.46195,0.08025527,0.1474196,0.4785483,0.2646504,0.1892052,-0.7480872,0.1129789,-0.5673327
1.036606,0.1737128,0.1395688,0.05324012,0.357625,0.1814744,-0.9911957,-0.5265243,-0.3151928
0.8612867,-0.05627752,0.03392193,-0.1221688,0.12727,0.07593673,-1.1909,-0.7712484,-0.09789904
0.9485319,-0.3223542,-0.1019132,-0.03513081,-0.1390706,-0.05980518,-0.7845303,-0.4957664,0.2151341
0.8642993,-0.4260146,-0.0697029,-0.1196755,-0.2429015,-0.02751819,-0.1650995,-0.3643996,0.1498293
0.7618234,-0.3995927,-0.06552376,-0.2225547,-0.2165548,-0.02327645,0.1234052,-0.4899866,0.005109174
0.6505672,-0.2476758,-0.09508087,-0.3342886,-0.06461452,-0.05278253,0.04095194,-0.4291356,0.0863527
0.545297,-0.1365851,-0.08425798,-0.44009,0.0465977,-0.04191754,-0.1578651,-0.4328034,0.05401111
0.5500322,-0.08945695,-0.107104,-0.4359147,0.09393921,-0.06472747,-0.118527,-0.4607015,0.1391635
0.6462978,-0.1238052,-0.09191065,-0.340213,0.05988615,-0.04950095,0.1923661,-0.3944893,0.2398622
0.8392992,-0.163911,-0.04179667,-0.1477588,0.02014737,0.0006458333,0.7573508,-0.4661815,0.2972947
0.9891611,-0.08967324,-0.0227605,0.001585316,0.09481483,0.01971564,0.943207,-0.4273213,0.4511724
1.063781,-0.06447795,-0.06314195,0.07572034,0.1204934,-0.02063143,0.4745974,-0.1368777,0.3175264
1.05876,-0.0122442,-0.1254895,0.07024594,0.1732535,-0.08294348,-0.001508091,0.3290338,0.02656626
0.9167288,0.0557122,-0.1123242,-0.07221133,0.2417668,-0.06973935,-0.4752757,0.6346937,-0.300623
0.674939,0.03730234,-0.04296215,-0.3143987,0.2239304,-0.0003325097,-0.7270488,0.4664367,-0.4762968
0.4836603,0.07749021,0.05311916,-0.5060373,0.2646936,0.09580036,-0.5530725,0.2556465,-0.1803431
0.5124886,0.08507247,0.1192232,-0.4775135,0.2728388,0.1619596,-0.4351191,-0.02734187,0.09166501
0.6481529,0.06976308,0.04684655,-0.3420782,0.2580656,0.0896359,-0.3570999,-0.3950468,0.33558
0.8430987,0.06093203,-0.1146328,-0.1472707,0.2497309,-0.07179785,-0.3923644,-0.2517616,0.6634308
1.060934,-0.1007173,-0.2779822,0.07052322,0.08852746,-0.2351085,-0.7264241,0.1621895,0.7049742
1.081065,-0.3288679,-0.3666896,0.0907052,-0.1392325,-0.3237759,-1.121356,0.5408922,0.6209743
1.000548,-0.5071439,-0.3152285,0.01032264,-0.3171688,-0.272261,-1.332023,0.8785129,0.3283206
1.000507,-0.6381175,-0.2289261,0.01049082,-0.4478398,-0.1858779,-1.208842,0.9193487,-0.4120536
1.134525,-0.7137857,-0.05454922,0.1447855,-0.5232214,-0.01138439,-0.9330198,0.8167348,-1.21794
1.404168,-0.6604841,0.2271221,0.4147602,-0.469625,0.2704403,-0.6584054,0.5412627,-1.407461
1.587843,-0.493209,0.2500117,0.5988031,-0.3020244,0.2935112,-0.5101694,0.01681273,-0.7646935
1.571827,-0.2697986,0.08995132,0.5831626,-0.07824192,0.133646,-0.7391808,-0.1505321,-0.04484153
1.576268,-0.1132413,0.05522579,0.5879553,0.07873939,0.09911705,-1.13349,0.1987469,0.2153738
1.658804,-0.3093026,0.03013734,0.6707911,-0.116848,0.07421923,-1.393931,0.5360627,0.1427252
1.568122,-0.5480405,0.03997414,0.5803255,-0.3550638,0.08423583,-1.219261,0.5319642,-0.111638
1.307665,-0.4932071,0.08908224,0.319979,-0.2996541,0.1335086,-0.6913374,0.3977624,-0.2648645
1.025921,-0.429251,0.06799195,0.03822452,-0.2350584,0.1125632,-0.489657,0.3543327,-0.1439489
0.7519617,-0.2992901,0.0544531,-0.2358677,-0.1043875,0.09914436,-0.4638296,0.2990112,0.1178123
0.6134744,-0.1047562,0.01625233,-0.3745959,0.09092778,0.06103496,-0.4972133,0.3056797,0.3027383
0.5481782,-0.06311491,-0.01574837,-0.4402183,0.1334152,0.0290948,-0.8453696,0.3067986,0.4103136
0.4910299,-0.07407414,-0.006254366,-0.4977506,0.1233555,0.03861794,-1.11484,0.23082,0.4432811
0.5318258,-0.1419964,-0.01261214,-0.4573676,0.0563738,0.03225818,-1.305621,0.2503793,0.2799759
0.5467904,-0.2702646,0.05373913,-0.4428176,-0.07092211,0.09857642,-1.287908,0.1405339,0.06926582
0.5772343,-0.3652032,0.1142604,-0.4127651,-0.1648611,0.1590321,-0.8804903,-0.1922421,-0.2169652
0.6844192,-0.3444005,0.08831585,-0.3059278,-0.1430312,0.1329861,-0.3909339,-0.4913349,-0.5388553
0.7503554,-0.2397903,0.06895539,-0.2402793,-0.03736435,0.1134839,0.1616154,-0.5460195,-0.6146971
0.792203,-0.1824735,0.05194702,-0.1986484,0.02103801,0.09629056,0.2653948,-0.3414441,-0.6260943
0.7424829,-0.0721943,0.04427101,-0.2485069,0.132427,0.08838449,-0.1137514,-0.2322042,-0.6933384
0.6789969,0.0124204,0.04712322,-0.3120458,0.2181668,0.09096054,-0.4496015,-0.2961794,-0.6984738
0.7527867,-0.06850037,0.06513447,-0.238216,0.1383743,0.1086489,-0.7116649,-0.3341112,-0.5651077
0.8123524,-0.2031902,0.1395141,-0.1785108,0.004804956,0.1826574,-0.4524493,-0.3898879,-0.283149
0.838738,-0.3753156,0.1914138,-0.1518828,-0.1662135,0.2341347,0.1839688,-0.5807619,0.003007504
0.9380567,-0.4393742,0.06916929,-0.05221856,-0.2291769,0.1114119,0.649628,-0.7695336,0.1911135
1.138119,-0.3761614,-0.2155494,0.148288,-0.1648742,-0.1738425,0.7638278,-0.5421461,0.2341172
1.337761,-0.4053344,-0.3849231,0.3484613,-0.1929551,-0.3438016,0.4620285,-0.05506507,0.2706851
1.346093,-0.4478662,-0.3165093,0.3573932,-0.234386,-0.2760066,0.4110594,0.1444789,0.1795984
1.354054,-0.4591897,-0.209591,0.365998,-0.2445925,-0.1697223,0.5942304,0.05829252,-0.1998407
1.533567,-0.5198709,-0.1784441,0.5461746,-0.3041323,-0.13921,0.7378667,-0.1424284,-0.2743134
1.616997,-0.5379626,-0.185324,0.6302601,-0.321049,-0.1467146,1.141089,-0.1803206,0.1024148
1.529205,-0.4491303,-0.1670768,0.5430859,-0.2309984,-0.1290736,1.289929,0.2504221,0.2648354
1.323505,-0.2074293,-0.04636249,0.3379391,0.01197011,-0.008940569,1.097646,0.6518905,-0.1961159
1.057947,0.09513005,0.09350677,0.07285107,0.3158435,0.130375,0.8177156,0.2513242,-0.7205496
0.983368,0.1053978,0.06178171,-0.001347717,0.3274579,0.09812114,0.326777,-0.6378199,-0.4826291
0.9504034,-0.03171086,-0.03381822,-0.03402022,0.1917085,0.002012596,0.1221614,-1.2309,-0.0166319
0.779865,0.0277828,-0.08150296,-0.2043473,0.2525559,-0.04616313,0.2124075,-1.313541,0.307989
0.7982408,-0.02987182,-0.173294,-0.1858298,0.1962341,-0.1384264,0.2654187,-0.7358863,0.7358946
0.905187,-0.2179796,-0.1934024,-0.07879865,0.00942619,-0.1589836,0.5140288,-0.06449055,0.7097612
0.8430456,-0.2892935,-0.1739156,-0.1409004,-0.06062734,-0.1399159,0.7970171,-0.08565574,0.5115287
0.8465726,-0.3489415,-0.1995793,-0.1373698,-0.1190543,-0.1659621,0.9634557,-0.1246059,0.4891886
0.8616198,-0.3149473,-0.1119864,-0.1223457,-0.08387524,-0.07870931,1.288264,0.1123648,0.2096604
0.7752287,-0.2700705,-0.03092457,-0.2087772,-0.03784559,0.002058238,1.638821,0.153233,0.01022157
0.7307495,-0.1838131,-0.002905116,-0.2533038,0.04953459,0.02982914,1.684727,0.1729015,-0.180778
0.6664288,0.08138226,0.03683143,-0.3176665,0.31582,0.06935963,1.426927,0.2245011,-0.34405
0.6637047,0.1947532,-0.03607092,-0.3204131,0.4302381,-0.003710691,1.03251,0.2660662,-0.007694202
0.7123541,0.1936197,-0.1010588,-0.2717523,0.4300915,-0.0688318,0.6556439,0.3555963,0.3349236
0.6790505,0.1309774,-0.1019861,-0.3049975,0.3683566,-0.06985833,0.3835685,0.4729084,0.4309669
0.7049973,-0.0361959,-0.09898495,-0.278934,0.2019948,-0.06692144,0.3289619,0.5590499,0.2613341
0.667238,-0.06263853,-0.04602872,-0.3165076,0.1762576,-0.01399371,0.3353674,0.379876,-0.1257525
0.5745682,-0.08124883,-0.02516247,-0.4089122,0.1582418,0.006879237,0.08665697,0.09898738,-0.307672
0.6320437,-0.1702813,-0.01718969,-0.3510803,0.0696909,0.01489184,-0.0262085,-0.007030903,-0.3806175
0.7550164,-0.2520219,0.03134908,-0.2276495,-0.01167937,0.06350029,0.2750323,-0.1128906,-0.4026772
1.107749,-0.2771978,0.05474616,0.1256471,-0.03659128,0.08699243,0.3867881,-0.1993995,-0.4302676
1.689119,-0.2057329,-0.0176641,0.7076784,0.0350387,0.0146974,-0.06360328,-0.03436082,-0.497517
1.979815,-0.2299904,-0.1046131,0.9991012,0.01085398,-0.07211992,-0.6090123,0.1607477,-0.3672601
1.810133,-0.3138723,0.0242875,0.8301675,-0.07304092,0.05692753,-0.5788626,0.1648714,-0.2598682
1.692782,-0.4558661,0.2000423,0.7135377,-0.2151251,0.2328414,-0.2023833,0.1704134,-0.2058044
1.85533,-0.5947068,0.2071617,0.8767362,-0.3541197,0.2401242,0.109649,0.1166848,-0.1222344
1.832105,-0.4629178,0.1769519,0.8540546,-0.2225302,0.2100704,0.6459842,-0.02357582,-0.09906682
1.638192,-0.2688811,0.09006596,0.6605414,-0.02872209,0.1233223,1.008159,0.05593446,-0.02056064
1.426544,-0.1323088,-0.01343556,0.4491206,0.1076017,0.01993314,0.6367565,0.293966,0.05411386
1.001223,-0.01479981,0.0003548068,0.02383829,0.224843,0.0338076,0.09608534,0.3959573,0.2225096
0.6403976,-0.01314851,0.07187293,-0.3371328,0.2262017,0.1053809,-0.1562125,0.2698425,0.4095514
0.5456746,-0.02738815,0.1258729,-0.4321673,0.2116365,0.1594052,-0.3455111,0.05598287,0.3294406
0.6266054,-0.05907502,0.1124968,-0.3516837,0.1795832,0.1460184,-0.5234058,-0.002833256,0.1709248
0.7459964,-0.1131777,0.06018242,-0.2328456,0.1250674,0.09365378,-0.5790344,0.06388936,-0.026171
0.7812787,-0.1208298,0.03585152,-0.1981974,0.116952,0.06922997,-0.6313049,0.08211845,-0.1742488
0.8484377,-0.08910228,0.0379929,-0.1317346,0.148164,0.07123454,-0.567352,0.08480153,-0.1498885
0.8107288,-0.0141171,0.04532682,-0.1701863,0.2225796,0.0783875,-0.4297094,0.03016966,-0.1955213
0.6708776,-0.0223956,0.03222041,-0.3108125,0.2136733,0.06505592,-0.5306073,-0.1195323,-0.2395955
0.5330391,-0.08581895,0.00930732,-0.4494405,0.1495597,0.04187376,-0.5977062,-0.2230768,-0.1540392
0.3529372,-0.1246996,-0.007034065,-0.6303235,0.1099236,0.02522061,-0.5299722,-0.3392299,0.02321848
0.4028725,-0.2246597,0.001364596,-0.5811326,0.009143085,0.03326681,-0.3779869,-0.3961122,0.1944946
0.5421439,-0.2629567,0.02345524,-0.4425404,-0.03003532,0.05496647,-0.08214407,-0.2443507,0.08368465
0.5906897,-0.2235585,0.0003479752,-0.3945849,0.008426937,0.0314315,-0.0016507,-0.2298212,-0.07105888
0.622272,-0.2225406,-0.05364385,-0.3634867,0.008461222,-0.02302266,0.09593644,-0.5929022,0.1342923
0.6709735,-0.2362661,-0.1582097,-0.3151498,-0.006289589,-0.1280814,0.37241,-0.9118231,0.4958544
1.195141,-0.3765647,-0.3010657,0.2087794,-0.1476484,-0.2714527,0.2566112,-0.5119406,0.7040715
1.836597,-0.6446632,-0.3149389,0.8501128,-0.416831,-0.285851,0.1746307,0.5580818,0.4175572
1.819638,-0.7583104,-0.2147417,0.833116,-0.5315672,-0.1861737,0.7687845,1.146976,-0.1814952
1.618708,-0.6036865,-0.1191762,0.6321896,-0.3780119,-0.09111035,1.475085,0.3863484,-0.2750479
1.691538,-0.3756865,0.005376956,0.7050214,-0.1510376,0.03296552,1.646392,-0.4395335,-0.1041771
1.696727,-0.08876186,0.09877659,0.7101765,0.1349169,0.1259137,1.296871,0.148599,-0.2018944
1.51948,0.2721972,0.08033931,0.5328258,0.4949595,0.107047,0.7170653,0.5793727,-0.3507307
1.318094,0.2959035,0.08704125,0.3312421,0.517787,0.1133357,0.02116823,-0.01354265,-0.4743955
1.059577,0.07688933,0.1448692,0.07241967,0.2979091,0.1707604,-0.5320058,-0.2820868,-0.2541252
0.917812,-0.0123311,0.07203133,-0.06976263,0.2078209,0.09752269,-0.4891574,-0.5708714,0.1785788
0.8910192,-0.1984563,-0.04397506,-0.09707535,0.0208132,-0.01888498,-0.2090787,-0.6481556,0.2594209
0.747418,-0.3073499,-0.03412063,-0.2412864,-0.08897978,-0.009434649,0.001352075,-0.1608584,0.3125273
0.6915874,-0.1882251,-0.03019917,-0.2977995,0.02923216,-0.005918839,0.3742265,-0.3023868,0.3632409
0.6598961,-0.1705494,-0.06660283,-0.3302258,0.0459858,-0.04272778,0.5619187,-0.4098087,0.2929192
0.6424295,-0.08694018,-0.0836074,-0.3484581,0.1286652,-0.0601348,0.5372374,-0.3256799,0.404341
0.7764104,0.01535541,-0.1076828,-0.2152526,0.2300212,-0.0846063,0.5650734,-0.4009262,0.5316369
0.8131084,-0.04230172,-0.09914094,-0.1793228,0.1714097,-0.07645011,0.5320972,0.06790185,0.565071
0.8558838,-0.0055933,-0.09072367,-0.1372962,0.2071427,-0.06840373,0.5093965,0.4070444,0.4601372
0.8952826,0.0546418,-0.09273681,-0.09861788,0.2663751,-0.07076925,0.3698469,0.6163015,0.1851662
0.7900434,0.1033608,-0.05911745,-0.2045422,0.3140564,-0.03748074,0.1110146,0.7845787,0.02165888
0.6737077,0.182844,-0.02632941,-0.3215196,0.3924573,-0.005000075,-0.08719292,0.478828,0.009072386
0.6085651,0.163861,-0.004722395,-0.3872486,0.3723357,0.01632332,-0.3337962,0.3410928,0.1330489
0.7374949,0.1435757,-0.05337062,-0.2588356,0.3508437,-0.03258547,-0.6820715,0.3270794,0.2749651
0.9309062,0.07469077,-0.1611713,-0.06586,0.2806739,-0.1406234,-1.164978,0.6647327,0.1734098
1.021011,-0.1286508,-0.2042605,0.02389364,0.07596319,-0.183923,-1.453118,1.16646,-0.07595748
0.9943149,-0.362092,-0.175486,-0.003070741,-0.1589295,-0.1553262,-1.288706,0.9073363,-0.4390393
0.9820456,-0.5631885,-0.0599756,-0.01553153,-0.3615478,-0.03995469,-0.9948119,0.5358629,-0.7667723
1.385485,-0.6016239,0.08196366,0.3877859,-0.4015539,0.1018862,-0.8181413,0.3523482,-0.7636752
1.827258,-0.4470114,0.07373021,0.8294904,-0.2485357,0.09359151,-1.075428,0.2760027,-0.7321862
1.827458,-0.2211932,0.002578862,0.8296408,-0.02431437,0.02240981,-1.887938,0.4557352,-0.7910088
1.781258,-0.1072337,0.007923638,0.783371,0.0880577,0.02774989,-2.666142,0.4559112,-0.6797535
1.838694,-0.2425027,-0.006994336,0.8406751,-0.04878505,0.01284937,-2.733816,0.4348517,-0.5591195
1.714748,-0.4024081,-0.0287186,0.7164995,-0.2102464,-0.008837817,-2.134368,0.5165535,-0.4363675
1.404573,-0.3599125,-0.006492611,0.405968,-0.1692805,0.01344299,-1.680211,0.5069127,-0.170779
1.094822,-0.2205784,-0.02081141,0.09571403,-0.03143954,-0.0008048422,-1.75311,0.5998443,0.006481093
0.814613,-0.06103032,-0.04414856,-0.185144,0.1266576,-0.02405627,-1.954996,0.665589,0.1272478
0.6778709,0.05744732,-0.07770831,-0.3226682,0.2437252,-0.05751611,-2.236723,0.5466068,0.423676
0.6916004,0.03287454,-0.1390738,-0.309831,0.2177758,-0.1187665,-2.702359,0.4205164,0.665503
0.7042775,-0.09934207,-0.1457691,-0.2981302,0.08420706,-0.1253283,-2.907855,0.4025563,0.663587
0.8170937,-0.3399854,-0.1053416,-0.1863508,-0.1577684,-0.08474528,-2.680226,0.4749559,0.572997
0.8930993,-0.5571122,-0.03935411,-0.1114229,-0.3762028,-0.01857723,-2.275253,0.4799126,0.320493
0.846048,-0.5505851,0.006872747,-0.1595784,-0.3709447,0.02785563,-1.673247,0.3488114,-0.09080138
0.7948554,-0.4433521,0.003150747,-0.2118888,-0.2649242,0.02436282,-1.178122,0.1645286,-0.3352422
0.6370181,-0.2810556,0.02375483,-0.3708432,-0.1037692,0.04521579,-1.113283,0.03987766,-0.4362199
0.5376573,-0.117516,0.05166408,-0.4713021,0.05870724,0.07338951,-1.046426,-0.03254603,-0.5212115
0.5878458,-0.0900574,0.06168291,-0.4221705,0.08518007,0.08368355,-0.9405673,-0.3263015,-0.4637259
0.6416394,-0.04763035,0.06162294,-0.3693708,0.1266929,0.08390412,-0.9472798,-0.7499174,-0.3216725
0.7257976,-0.01730363,0.02524694,-0.286125,0.1561689,0.04780881,-0.8897519,-0.8111205,-0.1650979
0.8140577,-0.09815539,0.002437343,-0.1986828,0.07452105,0.02527602,-0.9205449,-0.5485781,0.03419679
0.8428351,-0.1622607,0.06897207,-0.1706202,0.009667157,0.09208065,-0.8680812,-0.3869089,0.06868455
0.8254628,-0.1908727,0.1792147,-0.1885998,-0.01964987,0.2025822,-0.5958571,-0.4294175,-0.08664002
0.8363112,-0.1469692,0.2075753,-0.1782478,0.02359049,0.2311833,-0.3853085,-0.5618775,-0.2383322
0.8495901,-0.07659769,0.1664993,-0.1653519,0.09333891,0.1903201,-0.3155278,-0.7200943,-0.3492929
0.8727618,-0.1201231,0.04133144,-0.1424481,0.04922663,0.06532861,-0.4624444,-0.7680169,-0.2283591
0.9733191,-0.1746152,-0.2411259,-0.042044,-0.005819899,-0.2169915,-0.5625317,-0.7097562,0.1648388
1.036431,-0.2842555,-0.4117119,0.02102606,-0.1159838,-0.3874727,-0.5648485,-0.5151488,0.6170547
1.128931,-0.6882921,-0.3152596,0.1135881,-0.5205085,-0.290933,-0.566581,0.2689969,0.8292345
1.262814,-1.098681,-0.2528883,0.2476254,-0.9313334,-0.2284744,-0.004331513,1.130616,0.2838963
1.235914,-1.013904,-0.2671356,0.2209572,-0.846907,-0.2426209,0.9735809,0.8228847,-0.5268888
1.209893,-0.7279373,-0.1811221,0.1952263,-0.5611712,-0.1564822,1.526971,-0.03243243,-0.6271053
1.351816,-0.601802,-0.1231604,0.337482,-0.4351182,-0.0983631,1.497243,-0.3240498,-0.316025
1.479946,-0.3879573,-0.154744,0.4659691,-0.2211917,-0.1297527,1.533158,-0.3129902,-0.06544991
1.561043,-0.2486472,-0.1518118,0.5474239,-0.08163097,-0.1265868,1.721671,-0.006872349,0.0138218
1.655449,-0.1278664,-0.1311826,0.6421603,0.0395647,-0.1056813,1.243314,0.2620022,-0.2375987
1.492182,0.2020503,-0.09876848,0.4791704,0.3700473,-0.07294652,0.3996012,-0.006732838,-0.5158
1.051571,0.114396,-0.02500653,0.03875941,0.2830882,0.001180682,-0.01405839,-0.3091882,-0.4869481
0.7294671,-0.08795186,0.02799129,-0.2832284,0.08154021,0.05458584,0.03749666,-0.7400287,-0.2377728
0.6183217,0.002653822,-0.006028916,-0.3943318,0.17303,0.02101014,0.2988285,-1.021806,0.1023938
0.6920864,-0.1209993,-0.07674935,-0.320579,0.0503295,-0.04923369,0.406986,-0.6489618,0.4499879
0.8576621,-0.131701,-0.1174611,-0.1550485,0.0406364,-0.08943963,0.5693557,-0.360022,0.5637738
0.9092811,-0.1145116,-0.1837543,-0.103493,0.05888032,-0.1551977,0.715018,-0.222644,0.4287544
0.8745452,-0.2310019,-0.1749308,-0.1383012,-0.05651785,-0.1458075,0.6199867,-0.1457438,0.3599797
0.7927403,-0.120055,-0.08290871,-0.2201792,0.05555266,-0.05318399,0.6831463,-0.1730061,0.3253524
0.7715762,-0.1564813,-0.09264619,-0.2414079,0.02027541,-0.06228445,0.7256783,0.09458529,0.2374303
0.8288379,-0.1492512,-0.06199275,-0.1841917,0.02867381,-0.03095928,0.7746006,0.3341976,0.1003843
0.7973357,-0.02145859,0.003050605,-0.2157105,0.1576469,0.03478808,0.9731029,0.3673982,-0.1423183
0.7467324,-0.06542657,-0.03139653,-0.2662926,0.1148632,0.001073269,0.9886014,0.226756,-0.1829823
0.6720581,0.04690365,-0.03797073,-0.3408978,0.2283709,-0.004744806,0.948233,-0.04384595,0.06677922
0.6313714,0.1073001,-0.06867925,-0.3814557,0.2899259,-0.03467713,0.7990921,-0.02765017,0.2939507
0.7205409,0.04022335,-0.1207584,-0.2920848,0.2239746,-0.0859623,0.5558695,0.1303567,0.3438248
0.7345418,-0.01828214,-0.1448491,-0.2777988,0.1665484,-0.1092416,0.3746633,0.212759,0.2142792
0.714477,-0.179178,-0.1838173,-0.297486,0.006676454,-0.1473795,0.1090558,0.1939382,0.0840378
0.7442824,-0.2599739,-0.1413114,-0.2672037,-0.07315384,-0.1040219,-0.02352019,0.05133168,-0.07955453
0.8780171,-0.3434088,-0.06846547,-0.1328876,-0.1556787,-0.03030104,0.1029174,-0.02021231,-0.4263576
1.296095,-0.4009725,0.03114124,0.2858746,-0.2123806,0.07020295,0.2784909,-0.1242249,-0.6574053
1.74311,-0.3141211,0.1279075,0.7336615,-0.1247063,0.1678836,0.2706932,-0.2537801,-0.5973848
1.81666,-0.2589404,0.07204294,0.8080395,-0.06873268,0.1129415,0.1729061,-0.2387244,-0.4552215
1.57737,-0.234032,0.05474328,0.5695896,-0.04305627,0.09656286,0.1462205,-0.1601873,-0.28051
1.464872,-0.2982927,0.1069521,0.4579092,-0.1065704,0.1496828,-0.001269519,0.04231356,-0.0979678
1.573051,-0.4241309,0.1032114,0.566851,-0.2316791,0.1468348,-0.03104688,0.2347803,-0.1336408
1.540427,-0.4278785,0.1314649,0.5349124,-0.2347067,0.1759545,0.238688,0.1069247,-0.2786695
1.275024,-0.3277639,0.1344103,0.2700936,-0.1338722,0.1797303,0.5875426,-0.1475066,-0.2441133
0.951418,-0.2050401,0.09488008,-0.05304253,-0.01042207,0.1409864,0.7659928,-0.2055223,-0.07047417
0.769614,-0.1021087,0.05719284,-0.2344893,0.0932434,0.1040345,0.5500545,-0.1117128,0.2074386
0.6679465,-0.0008078198,0.02314369,-0.3358995,0.1952816,0.07066506,0.3271245,-0.03248315,0.4065965
0.5632829,0.04367861,0.05517442,-0.4403848,0.2404993,0.103317,0.180105,-0.09037402,0.4456635
0.6330719,-0.03136715,0.07093399,-0.3704724,0.1661669,0.1196371,-0.1406845,-0.1572404,0.5163087
0.671604,-0.102596,0.04886323,-0.3318482,0.09562332,0.09806359,-0.3344601,-0.01700344,0.3710405
0.6181894,-0.1236378,0.06367508,-0.3851809,0.07523162,0.1133071,-0.3985535,0.0846819,0.06692779
0.6608343,-0.1366801,0.08733654,-0.3424455,0.06280032,0.1373324,-0.4088898,-0.0360853,-0.1161395
0.5992134,-0.1108791,0.1232664,-0.4039491,0.08917046,0.1735556,-0.2418908,-0.4258002,-0.2783866
0.5464812,-0.09572492,0.1184829,-0.4565198,0.1048493,0.1689915,-0.08143218,-0.9993667,-0.2366838
0.6211236,-0.1345425,0.03028013,-0.3816539,0.0665091,0.08093079,-0.08003621,-1.033821,-0.06600817
0.6937968,-0.2068153,-0.03820787,-0.3086797,-0.005335228,0.01250682,0.03656631,-0.5396972,0.0264065
0.8689175,-0.3477756,-0.04067049,-0.1331695,-0.1459146,0.01003268,0.4813341,-0.3273061,0.09308964
1.008133,-0.4549139,-0.08091768,0.006527118,-0.2527131,-0.03029682,0.9026256,-0.4621204,0.07635947
1.047703,-0.4181955,-0.1808824,0.04666665,-0.2156845,-0.1304082,1.213431,-0.6278552,0.2319003
1.149667,-0.3772623,-0.2102761,0.1492785,-0.1744585,-0.1600035,1.394911,-0.6139664,0.4426467
1.233461,-0.3728488,-0.2846142,0.233787,-0.1697588,-0.2345866,1.243379,-0.3889311,0.3235507
1.305539,-0.3244498,-0.4156747,0.3066293,-0.1210718,-0.3659207,1.180465,-0.1744838,0.1629998
1.437654,-0.3484448,-0.2868645,0.4395373,-0.1447701,-0.2373956,1.211921,-0.1777481,0.07480184
1.578854,-0.4513039,-0.1367094,0.5815372,-0.2473173,-0.08752175,1.212624,-0.242584,0.006664273
1.678361,-0.4501906,-0.21554,0.6818203,-0.2458691,-0.1666197,1.578765,-0.08137591,0.04602008
1.69184,-0.337177,-0.1891132,0.6960196,-0.1324888,-0.1404391,1.826185,0.02073792,-0.01154525
1.587213,-0.1426958,-0.07084106,0.5920264,0.06239613,-0.02238633,1.449106,-0.0146606,-0.1977521
1.35011,0.02898717,-0.002184695,0.3554423,0.2345175,0.04608017,0.9571455,0.03960338,-0.2890017
1.01857,0.04122771,0.07068552,0.02429014,0.2472209,0.118788,0.8643768,-0.0881191,-0.2342764
0.7642418,0.03118453,0.05655495,-0.2297819,0.2376507,0.1045174,0.9387427,-0.4572059,-0.03885694
0.7019143,0.03352932,-0.02179733,-0.2919726,0.2404642,0.0260412,0.8173148,-0.8107388,0.2823098
0.6917404,-0.02709783,-0.1205344,-0.3021089,0.1802884,-0.07280719,0.7816336,-0.7838423,0.5830265
0.7111921,-0.09291262,-0.1774137,-0.282697,0.1148973,-0.1297848,0.8801133,-0.3777413,0.6613529
0.8002428,-0.1609393,-0.1280067,-0.1937432,0.04725984,-0.08045941,1.00669,-0.06141199,0.5075642
0.841379,-0.2166848,-0.1195084,-0.1527445,-0.008133627,-0.07202214,1.277896,0.1984842,0.2885882
0.8185545,-0.2008957,-0.07663428,-0.1757341,0.007970375,-0.02918575,1.434957,0.2566697,0.03330092
0.7326974,-0.08480091,0.03980606,-0.2617721,0.1243438,0.08724047,1.412875,0.1332973,-0.2265094
0.6590391,0.04593757,0.02636689,-0.3356139,0.2553223,0.07380799,1.328466,0.2385169,-0.2847531
0.6188469,0.08418308,-0.02575302,-0.3759765,0.293762,0.02171096,1.214659,0.2438355,-0.05290326
0.5421111,0.04311296,-0.03666462,-0.4528514,0.2528301,0.01083474,1.165365,0.1798715,0.2427954
0.5332677,-0.02087911,-0.07841027,-0.4617836,0.1889105,-0.03086497,1.111986,0.1526414,0.2650776
0.551971,-0.03748628,-0.1063437,-0.443099,0.172303,-0.05874216,0.93825,-0.01441225,0.1031769
0.5790699,-0.09180919,-0.1074207,-0.4159308,0.1179029,-0.05975148,0.5155873,-0.02013437,-0.002558509
0.6792336,-0.2134934,-0.06629331,-0.3155946,-0.003936315,-0.01854328,0.2161146,-0.06752693,-0.2401773
0.8904084,-0.2566099,0.05787693,-0.1041345,-0.04728275,0.1057208,0.5387477,-0.3044034,-0.6839932
1.33124,-0.2280743,0.1578053,0.3370948,-0.01904542,0.2057523,0.7585887,-0.5005111,-0.9267941
1.755908,-0.1700125,0.0536741,0.7622565,0.03865656,0.1017259,0.1114742,-0.5306771,-0.6092687
1.918036,-0.1652307,-0.07754812,0.9249396,0.04302215,-0.02939657,-0.5038188,-0.0514916,-0.1595046
1.925999,-0.3224925,0.05762261,0.9334711,-0.1147078,0.1058655,-0.2911884,0.5361573,-0.09791333
1.82255,-0.5694499,0.232918,0.8305566,-0.3621769,0.2812402,0.01551809,0.5603256,-0.05797271
1.66474,-0.6586442,0.2790721,0.673203,-0.4519097,0.3274527,0.2748586,0.2558418,-0.02078727
1.553821,-0.4673258,0.2789577,0.5626275,-0.2611352,0.3273628,0.7057035,0.08867136,-0.1335965
1.383615,-0.2234346,0.1450535,0.3926288,-0.0177752,0.1934357,0.5838979,0.1497574,0.0235321
1.02711,-0.0174698,0.01387546,0.03617992,0.1876788,0.06217837,0.2111486,0.175681,0.2468467
0.6883457,0.1101154,0.01429415,-0.3026783,0.3147699,0.06245817,0.05211541,0.1048068,0.4464126
0.4896414,0.05775785,0.02683139,-0.5016091,0.2619238,0.07479751,-0.3316299,0.03428662,0.7924366
0.4043491,-0.005104313,0.032364,-0.5872315,0.1985659,0.08007445,-0.5689057,-0.03635379,0.8473672
0.4932754,-0.09889683,0.02425751,-0.498704,0.1042606,0.07165555,-0.6358274,0.08365145,0.6067906
0.5691172,-0.2220793,0.05116746,-0.4232966,-0.01945626,0.09819727,-0.7769188,0.246178,0.2979426
0.615029,-0.214899,0.1060327,-0.3778273,-0.01283192,0.1526388,-0.5064789,0.06755244,-0.01463514
0.6894134,-0.2051933,0.1223346,-0.3038708,-0.003700577,0.1684602,-0.04319948,-0.3545102,-0.240057
0.6454271,-0.2139686,0.1273886,-0.348252,-0.01306535,0.1729743,0.2215477,-0.7677211,-0.4215512
0.6305084,-0.2041349,0.0942269,-0.3635167,-0.003832894,0.1392109,0.08000563,-0.8622858,-0.3428832
0.6277917,-0.2158234,0.04479585,-0.3665149,-0.01613168,0.0891145,-0.2353879,-0.5916718,-0.1248927
0.5708676,-0.2163375,-0.006588169,-0.4236408,-0.01726207,0.03700228,-0.06793619,-0.4541074,-0.04523204
0.668818,-0.2673852,-0.00306029,-0.3257981,-0.06892874,0.03974204,0.04599443,-0.4653996,0.1316009
0.8360127,-0.3468848,0.0267789,-0.1586056,-0.1490455,0.06873719,0.1845917,-0.4154807,0.2651685
0.9689148,-0.3876453,-0.1243114,-0.02559543,-0.1904142,-0.08324849,0.7611255,-0.3853454,0.2346274
1.15988,-0.4288603,-0.2559394,0.1655842,-0.232219,-0.2158156,0.9207726,-0.1093925,0.2629408
1.354997,-0.4904753,-0.1845378,0.3610102,-0.2943939,-0.1453848,0.9270005,0.2724708,0.1730612
1.386903,-0.5421925,-0.09682741,0.3932982,-0.3466281,-0.05866414,1.103519,0.3020073,-0.1185055
1.36794,-0.5103416,-0.07017647,0.3747672,-0.3152372,-0.03301209,1.203984,0.1075821,-0.327158
1.56821,-0.421642,-0.1318345,0.5754922,-0.2269272,-0.09567153,1.47637,-0.05081824,-0.2073356
1.738807,-0.3507632,-0.1959935,0.7465403,-0.156358,-0.1608276,1.444611,0.00822387,0.05769884
1.650407,-0.2936296,-0.1551721,0.6585527,-0.09944879,-0.1209905,1.281864,0.07976777,0.04593958
1.566897,-0.2066994,-0.08755066,0.5753837,-0.01265679,-0.05433238,1.359196,-0.03021375,-0.1875431
1.464363,-0.09032624,-0.03796239,0.4730921,0.1036608,-0.005681008,1.100565,-0.1912361,-0.5144435
1.080699,-0.007818367,0.006550119,0.08955347,0.1861878,0.03792345,0.7959316,-0.5634666,-0.6866059
0.6460261,0.08545316,0.04285498,-0.3451154,0.2795402,0.07334875,0.5901542,-0.9619216,-0.3744445
0.6485828,0.1032224,0.03208245,-0.3426634,0.2974357,0.06172297,0.399807,-1.055965,0.007344815
0.8390543,-0.02339364,-0.0442968,-0.1523833,0.1709743,-0.01548556,0.6515958,-0.9103017,0.3317262
0.8138226,-0.1067922,-0.1466155,-0.1778732,0.08774487,-0.1186096,0.9371234,-0.5908842,0.7467019
0.9049433,-0.2061176,-0.2083696,-0.08706295,-0.01140546,-0.1811413,1.018152,-0.2500353,0.8269361
0.9570246,-0.2475576,-0.1657122,-0.03533327,-0.05266738,-0.139227,1.156157,0.1324965,0.5166381
0.7783613,-0.1753165,-0.07030369,-0.2143804,0.0197545,-0.04452002,1.244267,0.3663525,0.1149417
0.7805367,-0.2126367,-0.01256869,-0.2126112,-0.01738201,0.0125584,1.340771,0.2570715,-0.1257836
0.6783882,-0.07769666,-0.001944673,-0.3151747,0.1177434,0.02257072,1.299297,0.2434138,-0.1210632
0.4651473,0.1673856,-0.0001637541,-0.5288227,0.3630076,0.02378269,1.002025,0.2430274,-0.02094235
0.5261462,0.1513633,0.01729026,-0.4682019,0.3471524,0.04070772,0.7912207,0.01751079,0.2088725
0.6029967,0.06395337,-0.005746584,-0.3916775,0.2598789,0.01717891,0.7268993,-0.1566892,0.5059072
0.6862289,-0.05455279,-0.08294784,-0.3087003,0.1414654,-0.06047954,0.599102,-0.1702046,0.5845742
0.7386599,-0.1343496,-0.1674823,-0.2564393,0.06171004,-0.1454362,0.1914909,0.06215208,0.2487386
0.7091041,-0.1476513,-0.2083232,-0.2860709,0.04839625,-0.1866606,-0.1671899,0.2822147,-0.2217782
0.8958452,-0.2376924,-0.08458202,-0.09930444,-0.04170931,-0.06325862,0.047442,0.1075707,-0.5567545
1.290593,-0.2524896,0.05155111,0.2955696,-0.05661952,0.07258244,0.2351655,-0.2271032,-0.9498459
1.761262,-0.1641906,-0.03379209,0.7664508,0.03152307,-0.01300714,-0.05856216,-0.401086,-0.8153021
2.001453,-0.07510316,-0.07553383,1.006907,0.1204144,-0.05495261,-0.2837845,-0.2195814,-0.05118335
1.895746,-0.1981153,0.06720544,0.9014719,-0.002832871,0.08762332,-0.3366237,0.1739735,0.2186021
1.777683,-0.4722979,0.1894653,0.7836377,-0.2772867,0.2097559,-0.293987,0.2971372,0.1078665
1.704935,-0.5120562,0.2421109,0.7110367,-0.3173423,0.2623008,-0.05154229,0.1790722,-0.05374662
1.619846,-0.4068692,0.1766672,0.625978,-0.2124631,0.1967704,0.1971989,0.0710842,-0.2795776
1.383157,-0.2132938,0.04091578,0.3891777,-0.0191922,0.06093494,0.3869169,0.01735607,-0.03009928
0.9423102,-0.007360536,-0.01867186,-0.0519343,0.1864457,0.001259197,0.3597529,0.1856486,0.2979316
0.6321225,0.003940951,-0.02330342,-0.3625385,0.1974582,-0.003466432,0.06771587,0.3948528,0.4482944
0.4368844,0.01147261,0.005931152,-0.558323,0.2046987,0.02566829,-0.2072329,0.3017314,0.7165202
0.2933342,0.01005079,0.0429993,-0.7025157,0.2029743,0.06263066,-0.5277328,0.1863661,0.7629105
0.4484374,-0.09325808,0.09166196,-0.548112,0.09934328,0.1111799,-0.6773613,0.1667152,0.5913671
0.6221599,-0.1827257,0.1492708,-0.3751099,0.009529025,0.168664,-0.5541702,-0.005678456,0.2360843
0.6688984,-0.2156154,0.1313248,-0.3290846,-0.02373238,0.1505762,-0.5020364,-0.1807237,-0.2214487
0.7965887,-0.152824,0.116804,-0.2020804,0.03866453,0.1358905,-0.3000399,-0.2757403,-0.3606468
0.7553819,-0.06633851,0.1093232,-0.243932,0.1247344,0.1282163,-0.06897269,-0.4071559,-0.3487064
0.6595231,-0.05100201,0.03512544,-0.3403825,0.1396327,0.05379283,-0.1279988,-0.5193273,-0.3824169
0.6482649,-0.105189,-0.001674295,-0.3521668,0.08498196,0.01673354,-0.2743375,-0.5810722,-0.281171
0.5361125,-0.219174,-0.007562305,-0.4647651,-0.02949417,0.01055303,-0.4061824,-0.4353851,-0.01499822
0.560694,-0.3580255,-0.01121233,-0.4405329,-0.1688617,0.006579842,-0.2705822,-0.2316677,0.25704
0.6665197,-0.4388334,-0.02135124,-0.334944,-0.2502025,-0.003910205,0.1171674,-0.4007695,0.4584426
0.8550887,-0.4208425,-0.1318229,-0.1464879,-0.2327488,-0.1147574,0.4280258,-0.5125749,0.490586
1.265131,-0.4407643,-0.2651102,0.2635669,-0.2531982,-0.2484379,0.5479556,-0.1579569,0.3951728
1.479477,-0.5295861,-0.3252755,0.4780391,-0.3425242,-0.3090027,0.4339708,0.2916068,0.3457553
1.419124,-0.5591918,-0.3223221,0.4179006,-0.3725953,-0.3064399,0.5329887,0.5663196,0.01497675
1.451416,-0.5466215,-0.1871157,0.4504674,-0.3604357,-0.1716004,1.190874,0.4382201,-0.3795106
1.744123,-0.5381241,-0.009122748,0.7434784,-0.3522782,0.006059882,1.962993,-0.04022953,-0.2221778
1.911197,-0.5202426,-0.05375474,0.910852,-0.3346518,-0.03886656,2.154598,-0.2764922,-0.005811444
1.776709,-0.4127645,-0.1528443,0.776618,-0.2273322,-0.1382117,1.757243,0.1037965,-0.1026077
1.678537,-0.1412535,-0.08046339,0.6786154,0.044123,-0.06604592,1.390564,0.4845109,-0.3764446
1.326455,0.1124957,-0.05122628,0.3265881,0.2979156,-0.03698131,0.9271539,-0.1370255,-0.6844222
0.7947056,0.1289261,-0.01083588,-0.2052359,0.3144742,0.003279447,0.5959075,-1.034414,-0.4128529
0.7423343,-0.05065264,0.03906797,-0.2578077,0.1350888,0.05309449,0.9714971,-1.133299,0.248372
0.9290691,-0.2622572,-0.09055125,-0.07138157,-0.07627251,-0.07657579,1.349714,-1.005727,0.4939782
0.5756411,0.09483052,-0.1402817,-0.3774602,0.3091283,-0.122266,0.06187077,-1.168329,-0.01799113
0.6763891,0.05955545,-0.1566367,-0.2759336,0.2745123,-0.1384678,0.2061538,-0.665906,0.339197
0.8708043,-0.04730745,-0.131858,-0.08078767,0.1683467,-0.11348,0.374034,-0.0517454,0.496037
0.8808837,-0.09788922,-0.08000897,-0.07001401,0.1184847,-0.06136458,0.4809799,-0.04931465,0.4800044
0.921886,-0.1697825,-0.01602362,-0.02834836,0.04732226,0.002943834,0.5377657,0.005047266,0.427223
0.7576841,-0.1403282,-0.01553387,-0.1919137,0.07751083,0.003810159,0.5891368,0.05679314,-0.0404628
0.5707009,-0.1455561,-0.02585259,-0.3782799,0.07301494,-0.006083102,0.7793035,0.08848896,-0.4206847
0.5477198,-0.1031349,-0.04477829,-0.4006499,0.1161599,-0.02453899,0.8847846,0.2412886,-0.3463746
0.5247368,0.1455823,-0.1080605,-0.42301,0.3655847,-0.08731036,0.5920532,0.3909887,-0.130887
0.5745954,0.2598167,-0.1682294,-0.3724983,0.480497,-0.1469288,-0.07045474,0.6584652,0.1705138
0.6060745,0.08691289,-0.1406231,-0.3403198,0.3082225,-0.118731,-0.7453525,0.6693133,0.4073109
0.6147293,-0.2508669,-0.05305594,-0.330906,-0.02899221,-0.03053036,-0.8610675,0.5576797,0.3886019
0.6581002,-0.4874781,0.01453838,-0.2867056,-0.2651063,0.03773843,-0.5658739,0.4751468,0.02470179
0.8052287,-0.5423181,0.1226179,-0.1386694,-0.3195076,0.1465282,-0.3818689,0.1278131,-0.5782271
1.119525,-0.5106577,0.182952,0.1766136,-0.2874507,0.2075992,-0.1371924,-0.321537,-0.9521815
1.584167,-0.278657,0.05527749,0.6423106,-0.05507988,0.08067644,-0.004946718,-0.6436307,-0.6569654
2.106871,-0.05375883,-0.1090084,1.166107,0.1701705,-0.08285181,-0.5634018,-0.1793523,-0.06737752
2.055902,-0.1345598,-0.08187965,1.116218,0.0897033,-0.05496298,-1.270293,0.7677389,0.1123709
1.604548,-0.4443156,0.1446487,0.6658786,-0.21974,0.1723266,-1.292233,0.9484332,0.08860628
1.56693,-0.6767408,0.3089361,0.6291639,-0.451869,0.3373703,-0.8457673,0.5741128,-0.06675797
1.546456,-0.5947486,0.254352,0.609453,-0.3695818,0.2835246,-0.5164648,0.3256825,-0.2495381
1.317977,-0.3804644,0.1402308,0.3815728,-0.154986,0.170109,-0.5436463,0.3091308,0.02526073
0.9827673,-0.1385367,0.07132532,0.04678567,0.08728018,0.1018649,-0.7884613,0.3081371,0.3427817
0.553483,0.07205157,-0.0200251,-0.3822513,0.2982328,0.01112611,-1.108336,0.2234383,0.5518375
0.5629879,0.03853917,-0.05790898,-0.3726556,0.2650995,-0.02619716,-1.478867,0.2658758,0.6738416
0.5306894,-0.01295989,-0.03895238,-0.4049917,0.2139793,-0.006729119,-1.67165,0.2587432,0.4760547
0.2784478,0.04384893,-0.08703808,-0.6573682,0.2711529,-0.05434944,-1.654001,0.3458816,0.2604526
0.4533689,-0.01933225,-0.04361571,-0.4826459,0.20831,-0.01050428,-1.659001,0.6523988,-0.04903009
0.4531275,-0.01307198,0.03204299,-0.4831168,0.2148708,0.06553744,-1.737292,0.6239421,-0.4272567
0.350658,0.07944109,0.003277591,-0.585817,0.3076368,0.03711618,-1.933324,0.3043873,-0.5569081
0.4658813,-0.01510668,0.007740276,-0.4707981,0.2132843,0.04188381,-2.095822,-0.02814658,-0.474603
0.3028097,-0.1198272,-0.03271705,-0.6340214,0.1086929,0.001692289,-1.871045,-0.191336,-0.1703429
0.2487414,-0.2658206,-0.03446513,-0.6881626,-0.03724119,0.000171889,-1.455387,-0.1196017,0.2195807
0.3377099,-0.4591513,-0.01547581,-0.5991611,-0.2305786,0.01935249,-1.149457,-0.1977249,0.4429163
0.5767502,-0.4589731,-0.179747,-0.3599585,-0.2304625,-0.1447612,-0.7830364,-0.160658,0.4049487
1.344661,-0.5063024,-0.3102473,0.408254,-0.277894,-0.2751315,-0.5331336,0.2902917,0.3475613
1.906866,-0.5973118,-0.3499082,0.9708878,-0.369029,-0.3146781,-0.6052999,0.7207783,0.2470747
1.843349,-0.6009734,-0.3299658,0.9078827,-0.372821,-0.2946223,-0.5182591,0.8379,-0.2109546
1.664552,-0.6424039,-0.1895058,0.729633,-0.4143671,-0.1540352,-0.1791989,0.715928,-0.5511413
1.642185,-0.6762081,-0.04147074,0.7078001,-0.4482524,-0.005850267,0.1751265,0.4389263,-0.446166
1.575184,-0.7360514,-0.03100845,0.641282,-0.5081223,0.004787847,0.8003966,-0.1531089,-0.1873444
1.547346,-0.6772276,-0.1561996,0.6138427,-0.4492503,-0.1202022,1.315378,-0.4583172,-0.0417309
1.658737,-0.4048656,-0.1962064,0.7255219,-0.1767483,-0.1599816,1.017044,-0.1759397,-0.2388285
1.43428,-0.169459,-0.2106588,0.5012143,0.05889797,-0.1741765,0.5687653,-0.2466395,-0.4588838
1.061836,-0.1120211,-0.2068451,0.1287628,0.1166718,-0.1700696,0.5844634,-0.4456227,-0.3524367
0.7860833,-0.1611223,-0.08022982,-0.1471592,0.06799217,-0.04312101,0.6231693,-0.4762263,-0.1861346
0.5333564,-0.08720686,-0.07356637,-0.4002045,0.1424026,-0.03608231,0.6734945,-0.6349654,-0.1025271
0.5767282,-0.002197383,-0.0940887,-0.3572769,0.2279676,-0.05618859,0.8021287,-0.4562793,0.000246784
0.6494106,-0.01443919,-0.07036596,-0.2851365,0.2163267,-0.03201083,0.8761522,-0.179208,0.1242394
0.7097775,0.03116764,-0.07232453,-0.2253845,0.2625638,-0.03347733,1.024218,-0.01680383,0.3247811
0.8181555,0.03156398,0.01269647,-0.1176743,0.2636035,0.05207004,1.044188,0.1903394,0.5102866
0.6917253,0.07013148,0.03531761,-0.2448096,0.3028112,0.07524728,1.000218,0.1012239,0.5059493
0.5744325,0.1391391,0.01137866,-0.3628292,0.3724393,0.0518879,0.9795744,-0.07889618,0.5025349
0.5028454,0.09564867,-0.00499392,-0.4351461,0.3295323,0.03611203,0.7440514,-0.2452323,0.5433722
0.5458233,0.05993909,-0.07495357,-0.392879,0.2943529,-0.03323861,0.5352288,-0.3450108,0.5633785
0.7812061,-0.06607741,-0.1282252,-0.1581681,0.1688001,-0.08589137,0.3285819,-0.07910214,0.6198516
0.8862647,-0.2155391,-0.2029283,-0.0537297,0.0197281,-0.159965,0.1436463,0.2941074,0.5569351
0.8833897,-0.2896038,-0.1969278,-0.05716835,-0.054022,-0.1533209,0.2095649,0.6242439,0.3714634
0.7747534,-0.3565313,-0.06477516,-0.1663099,-0.1207049,-0.02050667,0.341353,0.7168051,0.01533638
0.7346429,-0.2735708,0.06955294,-0.2068642,-0.03756191,0.1145016,0.4593032,0.4306002,-0.5005608
1.083306,-0.1975984,0.1143131,0.1414196,0.03853807,0.1599554,0.1751681,0.06983299,-0.7193872
1.643331,-0.2256492,0.02110718,0.7011253,0.01056416,0.06744808,-0.4944046,-0.2517929,-0.479751
2.023103,-0.1964918,-0.02137604,1.080611,0.03975025,0.02566091,-0.9148703,-0.2052958,-0.1409668
1.949033,-0.2159421,0.01224072,1.006245,0.02028267,0.05996619,-1.061569,0.2398019,-0.04944135
1.766349,-0.3623151,0.04731078,0.8232063,-0.1261507,0.0957132,-0.9741507,0.44839,-0.07373765
1.753098,-0.5053203,0.1127492,0.8095001,-0.2692526,0.1618118,-0.8957159,0.3357418,-0.09350414
1.693069,-0.4309615,0.09122083,0.7488796,-0.1950149,0.1409199,-0.9811972,0.2365158,-0.1474304
1.541857,-0.243603,0.04668827,0.5969137,-0.007790218,0.09699296,-0.8856729,0.3595083,0.01746016
1.21861,-0.1706173,0.04448506,0.2727303,0.06505547,0.09535893,-0.8589474,0.5391685,0.3025302
0.8569783,-0.06097803,-0.009779633,-0.090025,0.1745486,0.04162312,-1.100984,0.5532484,0.5124589
0.5117976,0.09019384,-0.07972617,-0.4365051,0.3255622,-0.02783645,-1.486082,0.5504699,0.6906386
0.1633774,0.1591094,-0.1330446,-0.7863703,0.3942961,-0.08070846,-1.967283,0.4623908,0.7236077
0.196168,0.1440765,-0.1086184,-0.7551266,0.3790429,-0.05587256,-2.231987,0.3471749,0.6145073
0.2581758,0.05673176,-0.0411698,-0.6947191,0.2914235,0.01195344,-2.314196,0.2914944,0.3473481
0.1772346,0.02636704,-0.04681668,-0.7772673,0.2607174,0.006654214,-2.35587,0.05911693,0.04335015
0.3729736,0.02645605,-0.04445599,-0.5831001,0.2603893,0.009333992,-2.2761,-0.2811107,-0.04556829
0.4843163,-0.01842038,-0.07747208,-0.4732584,0.2150132,-0.02339062,-2.244427,-0.5019467,0.04969746
0.5212051,-0.122658,-0.2052142,-0.4377726,0.1101891,-0.1508665,-2.25097,-0.2468954,0.2857847
0.5934937,-0.325684,-0.2557913,-0.3667684,-0.09350948,-0.2011968,-2.06091,0.2933741,0.482079
0.4382132,-0.4507373,-0.2082872,-0.5231978,-0.2193138,-0.1534567,-1.499901,0.5509089,0.4084698
0.4998552,-0.4541602,-0.1554626,-0.462553,-0.2235516,-0.1003982,-0.9059423,0.6692338,0.2486222
1.025269,-0.4851877,-0.1877158,0.06202798,-0.2554402,-0.1324132,-0.9175105,0.6570899,0.2446585
1.718046,-0.6369564,-0.3129209,0.7541339,-0.408097,-0.2573695,-0.9559625,0.6753063,0.1962893
1.970686,-0.8502585,-0.2887397,1.006234,-0.6222917,-0.2329206,-0.298661,1.029775,0.01566037
1.737542,-0.831647,-0.1033051,0.7726354,-0.604549,-0.04719084,0.5224771,1.147765,-0.09553566
1.844575,-0.6501599,-0.0285365,0.8792483,-0.4238772,0.02790428,1.104189,0.6618379,-0.2486387
1.973945,-0.4624461,-0.08922375,1.008186,-0.2369011,-0.03242601,1.206096,0.1147462,-0.3269956
1.796367,-0.1114001,-0.1488577,0.8301188,0.1134967,-0.09167476,0.7386153,0.01805937,-0.2495359
1.680274,0.1250352,-0.1359034,0.7134404,0.3493718,-0.07830748,0.1039266,0.1326971,-0.3286522
1.277359,0.01168526,-0.09037715,0.3098127,0.2355357,-0.03233988,-0.5929817,0.1457494,-0.3664922
0.8367349,-0.1495379,-0.05952391,-0.1316643,0.07388385,-0.00101742,-0.7571931,-0.0202744,-0.2316552
0.6959463,-0.2622002,-0.01991153,-0.273439,-0.03916067,0.03908962,-0.2868172,-0.3890589,-0.1460866
0.5650011,-0.3195353,-0.03772292,-0.4054833,-0.09683542,0.02179446,-0.06368549,-0.6867367,-0.1601573
0.5658317,-0.2303433,-0.09155088,-0.4058367,-0.007940297,-0.03149964,0.2401934,-0.735031,-0.2153018
0.5783892,-0.1357205,-0.1130641,-0.3945188,0.08642765,-0.05246389,0.5440834,-0.4993763,-0.1945341
0.5451177,-0.05421063,-0.1448869,-0.4290572,0.1677203,-0.08372304,0.4350991,-0.1727866,-0.1739866
0.6141759,0.06246241,-0.096131,-0.3612668,0.2842052,-0.03438855,0.5503847,0.1034032,-0.1183287
0.6132048,0.07603972,-0.008152256,-0.363483,0.2976103,0.05418345,0.6055788,0.3519149,0.0239965
0.5899811,0.08460442,-0.01599396,-0.3879079,0.306004,0.0469468,0.5149324,0.3234935,0.09672794
0.5814974,0.1933085,-0.05739304,-0.3975295,0.4145222,0.006160299,0.5336471,0.1909931,0.2564537
0.603821,0.2622191,-0.1537056,-0.3762618,0.4832149,-0.08953519,0.02159606,0.1100516,0.5028714
0.7014688,0.2508393,-0.2641792,-0.2795719,0.4715656,-0.1993866,-0.888497,0.1247646,0.5372326
0.7292227,0.1309089,-0.2849098,-0.2526653,0.3512952,-0.2194851,-1.510055,0.4994871,0.2484238
0.691913,-0.2319584,-0.2763692,-0.2907031,-0.01199561,-0.2102949,-1.506193,0.9069841,-0.2712508
0.589042,-0.6957452,-0.3023884,-0.3941745,-0.4762887,-0.2356389,-1.141667,0.9986022,-0.7720936
0.62252,-0.7264013,-0.3181128,-0.3611597,-0.5075159,-0.2506543,-0.7300418,0.7517544,-1.031824
1.24296,-0.4571424,-0.17832,0.2589603,-0.2388662,-0.110112,0.05034137,0.4308871,-0.8214684
2.015195,-0.3323261,-0.02115433,1.031007,-0.1146743,0.04784708,0.37741,0.3037813,-0.5066002
2.034624,-0.07047922,-0.08826924,1.050341,0.1465449,-0.01843295,-1.132822,0.2703441,-0.5874213
1.808025,-0.0326244,-0.1835018,0.8236868,0.1837704,-0.1127936,-3.383112,0.3022616,-0.3855742
2.049448,-0.308791,-0.20413,1.06504,-0.09303032,-0.1325149,-3.899626,0.1343436,0.05271602
2.058811,-0.2129371,-0.2514395,1.074273,0.002184004,-0.1788814,-2.988801,-0.02219572,-0.03001121
1.804652,-0.2994355,-0.2356235,0.8198729,-0.08495611,-0.1620838,-2.519626,0.3677022,0.03018665
1.537626,-0.5024816,-0.2048665,0.5524585,-0.2886401,-0.1303038,-2.204195,0.9334832,0.4056257
0.9573339,-0.3231808,-0.2175433,-0.02839069,-0.1099641,-0.1419142,-2.009113,1.217452,0.6674682
0.7388776,-0.2909266,-0.1501819,-0.247574,-0.07831185,-0.0734423,-2.422183,1.073258,1.098277
0.6019969,-0.181655,-0.09827704,-0.3853325,0.03038573,-0.02038398,-2.71053,0.8363236,1.306327
0.2129275,0.01614842,-0.1418146,-0.7753997,0.2276429,-0.06272824,-3.086349,0.7535759,1.143247
0.4546571,0.04366402,-0.1701868,-0.534749,0.2546333,-0.0898708,-3.423434,0.6303102,1.024132
0.5732716,0.00263094,-0.1787433,-0.4172551,0.2130852,-0.09716372,-3.172119,0.7758935,0.6742467
0.4262248,-0.2418495,-0.1772087,-0.565431,-0.03190992,-0.09433268,-2.949389,1.011256,0.2811331
0.5663312,-0.2342176,-0.1437081,-0.4264333,-0.02479576,-0.05950422,-2.596727,1.043815,0.110946
0.3488558,-0.1119293,-0.08610589,-0.6449693,0.09697226,-0.0005449452,-2.28963,1.14673,-0.1801885
0.2855219,-0.2121803,-0.05603606,-0.7092875,-0.003800873,0.03090685,-2.481444,1.045343,-0.4433399
0.3846239,-0.1690199,-0.05740725,-0.6110634,0.03883494,0.03093654,-2.415807,0.7786909,-0.4939863
0.251346,-0.2126973,0.009289567,-0.7450834,-0.005368883,0.09904611,-2.072256,0.5337364,-0.4207579
0.4510551,-0.2451875,0.1154367,-0.5459543,-0.03838631,0.2066091,-1.643805,0.08113182,-0.2974551
0.6377106,-0.1821429,0.1655602,-0.3596955,0.02413217,0.2581396,-1.185799,-0.3589631,-0.2808112
0.8488065,-0.2868156,0.09914641,-0.1488021,-0.08106325,0.19311,-1.103783,-0.5530146,-0.228292
1.065875,-0.357545,-0.1349142,0.06825766,-0.1523085,-0.03960126,-0.8590336,-0.4936022,0.009451674
0.9992452,-0.5854352,-0.5059681,0.001802628,-0.3806999,-0.4093438,-0.4425715,-0.1928641,0.4483986
1.333569,-0.9175688,-0.7369898,0.3364679,-0.7133043,-0.6390814,-0.4170875,0.5710155,0.7096301
1.706279,-1.000225,-0.4555728,0.7096629,-0.7963743,-0.3563862,0.05422483,1.394911,-0.009821331
1.614047,-0.9271717,-0.01941905,0.6180215,-0.7236453,0.08105815,1.143316,0.9623321,-0.902168
1.551051,-0.7585439,0.04914874,0.555682,-0.5552194,0.1509329,1.665525,-0.01346464,-0.7431174
1.647124,-0.5903401,-0.008366907,0.6524398,-0.3870714,0.09473312,1.51919,-0.2182274,-0.483008
1.752855,-0.38876,-0.05075857,0.7588473,-0.1853873,0.05365627,1.381026,-0.3568877,-0.4932008
1.781673,-0.1352504,-0.105348,0.7882949,0.06838832,0.0003732544,1.177553,-0.4701367,-0.09477409
1.676217,0.0408852,-0.08409753,0.6833867,0.2449428,0.022917,0.5718541,-0.2978838,-0.03933676
1.220477,0.1150531,-0.06143009,0.2280818,0.3196632,0.04686085,-0.04847295,-0.3167092,-0.4004171
0.7070968,-0.005782675,-0.007028626,-0.284991,0.1994897,0.1025176,-0.1721251,-0.6854525,-0.4052946
0.5729752,-0.2016339,0.0281104,-0.418924,0.004388973,0.1388849,0.1318967,-1.460386,-0.3275388
0.4998796,-0.3257141,-0.01468581,-0.4919267,-0.118866,0.09728304,0.6736825,-1.778983,-0.04350151
0.5256256,-0.3798706,-0.08249295,-0.4661542,-0.1721285,0.03063002,1.218248,-1.338439,0.4600155
0.7933102,-0.3436651,-0.2264171,-0.1984824,-0.1349609,-0.1121831,1.537094,-0.8544298,0.6380823
1.0175,-0.2928108,-0.2768735,0.0256744,-0.08307675,-0.1615695,1.555632,-0.2031485,0.6436193
1.082812,-0.2094396,-0.166187,0.09093955,0.001389407,-0.04984859,1.410788,0.2114508,0.4911675
0.9599962,-0.1378662,-0.07528363,-0.03193494,0.07411723,0.042058,1.308072,0.27095,0.0994985
0.7431543,-0.1093233,-0.01028514,-0.2488473,0.1038651,0.1080285,1.187162,0.5516036,-0.3173542
0.54051,-0.008507565,0.04090681,-0.4515648,0.2059243,0.1601571,1.128933,0.5783134,-0.5361528
0.3695365,0.1026941,0.0419699,-0.6225958,0.3183935,0.1621152,0.9665696,0.2677904,-0.453285
0.3585591,0.174397,-0.01308761,-0.6335898,0.3913692,0.1079038,0.4955029,-0.03132219,-0.3621682
0.5478897,0.1635101,-0.09859382,-0.4442075,0.3817391,0.02318978,0.1508047,-0.244207,-0.1805614
0.7058749,-0.009194122,-0.2122013,-0.2860808,0.210255,-0.08968079,-0.07008763,-0.04243627,0.1681152
0.6811418,-0.2730872,-0.2830677,-0.3105692,-0.05246889,-0.1598619,-0.317157,0.3103906,0.2516797
0.6740029,-0.4839677,-0.1659783,-0.317352,-0.2622347,-0.042132,-0.244906,0.2628278,-0.05862815
0.9317538,-0.4965675,0.01746544,-0.0591281,-0.2737665,0.1419125,0.4341285,-0.1950633,-0.7374442
1.469402,-0.3655456,0.07599968,0.479106,-0.1417117,0.2010069,1.124293,-0.7553794,-1.240672
1.956876,-0.1878385,0.01458291,0.9672577,0.03700283,0.1401037,0.6728171,-0.7240967,-0.8386875
2.036155,-0.03982946,-0.01222043,1.047262,0.1859954,0.1137611,-0.2296058,-0.0860878,-0.1808189
1.945606,-0.2099291,0.147432,0.9574323,0.01685081,0.273816,-0.5754655,0.2270811,-0.1357241
1.996964,-0.5669282,0.2870459,1.009452,-0.3392241,0.4137663,-0.7378579,0.1032451,-0.3158033
1.886135,-0.6387809,0.209007,0.8991774,-0.4101762,0.3359852,-0.1037502,-0.009778732,-0.3427605
1.508108,-0.4184234,0.09422141,0.5215572,-0.1889267,0.2213663,0.9189265,0.08370863,-0.1924899
1.061574,-0.1022743,0.03482091,0.07525887,0.1281168,0.1620329,0.7366723,0.4130734,0.200691
0.5611718,0.1108761,-0.007569147,-0.4250831,0.3421632,0.1196071,0.1273989,0.6731726,0.4773982
0.2885567,0.1756864,-0.01237876,-0.6977921,0.4078577,0.1146589,-0.3486094,0.5813609,0.5652202
0.2854912,0.1878922,-0.0268801,-0.7010686,0.4209166,0.09991762,-1.008476,0.1789496,0.5643306
0.3108495,-0.003074663,-0.03563961,-0.6759951,0.2307518,0.09081941,-1.231329,-0.02514144,0.3750555
0.4144922,-0.2468133,0.005466349,-0.5726701,-0.01224959,0.1314907,-1.128047,0.08554072,0.1923143
0.4762398,-0.2432123,0.02057913,-0.5112378,-0.007980198,0.1460751,-0.9486406,0.09686564,-0.04524646
0.4944103,-0.1808778,0.02835074,-0.493351,0.05495554,0.153226,-0.7307486,0.05480012,-0.2650067
0.5344267,-0.1983086,0.05047751,-0.4535621,0.0380609,0.1746403,-0.6310128,-0.02593206,-0.2952182
0.4949093,-0.2405046,0.03893024,-0.4932296,-0.003662505,0.162289,-0.3083369,-0.2636725,-0.2220436
0.4907074,-0.3295692,0.03140043,-0.4974844,-0.09231508,0.1538641,0.07755134,-0.8272524,0.1392365
0.5517958,-0.4344207,0.01322401,-0.4363341,-0.1968091,0.1347024,0.3538863,-1.26585,0.4509231
0.6760041,-0.4158532,-0.03343385,-0.311934,-0.1779287,0.08697119,0.5868451,-0.7924926,0.3130053
0.791773,-0.2856096,-0.07963007,-0.1958345,-0.04740635,0.03961726,0.6547558,-0.224382,0.148712
0.869182,-0.1836831,-0.1470007,-0.1179537,0.05477162,-0.02898921,0.6475966,-0.2136178,0.2640864
1.253617,-0.1664538,-0.234099,0.267089,0.07222711,-0.1173925,0.3526684,-0.1846352,0.4598954
1.774997,-0.4021852,-0.2554836,0.7891944,-0.1633034,-0.1401392,-0.0139225,0.1117663,0.5242316
1.811671,-0.7924458,-0.1275075,0.8266761,-0.5533821,-0.01356899,0.2079772,0.5658266,0.3484746
1.511998,-0.8971884,0.04816814,0.5278485,-0.6579431,0.1606665,0.9377689,0.6200254,-0.003961816
1.454484,-0.6878124,0.151083,0.4711781,-0.4483591,0.2621098,1.611048,0.06414272,-0.1274587
1.662738,-0.397976,0.08286854,0.6802427,-0.1582647,0.1923895,1.715755,-0.5332426,-0.1752054
1.897895,-0.1174364,-0.1588868,0.9161457,0.1225938,-0.05090905,1.503138,-0.7514842,-0.1988106
1.896801,0.05325168,-0.23288,0.9156969,0.293658,-0.1264795,1.048086,-0.4051157,0.03699474
1.393279,-0.04809689,-0.09883935,0.4126803,0.1927294,0.005958947,0.1800498,0.03307468,-0.2185315
0.7926542,-0.2310665,0.02724562,-0.1875984,0.01020885,0.1304247,0.1184971,-0.08145507,-0.5273293
0.6668316,-0.2255749,0.1305006,-0.3132332,0.01616948,0.2320458,0.7667111,-0.6226825,-0.2195494
0.7384322,-0.212719,0.06725196,-0.241583,0.02950973,0.167146,0.8467996,-1.157463,-0.09034195
0.5939113,-0.1809555,-0.0730483,-0.3861683,0.0617689,0.02517431,1.095593,-1.088715,0.09057956
0.5645419,-0.09683948,-0.1138927,-0.4156908,0.1463871,-0.01736074,1.411746,-0.6058206,0.3159989
0.7328285,-0.09546736,-0.1007084,-0.2476203,0.1482608,-0.005881556,1.254649,-0.3622726,0.1639301
0.6925589,-0.01649559,0.01918991,-0.2881467,0.2277247,0.1123025,1.401637,-0.02404331,0.07312665
0.6558885,0.04049,0.09296682,-0.325096,0.2851823,0.1843582,1.514698,0.0912751,-0.05039433
0.5993454,0.04445841,0.0498867,-0.3819215,0.2895899,0.1395486,1.525187,-0.2924621,-0.09815757
0.3516264,0.1708905,0.02091224,-0.629906,0.4164142,0.1088339,1.486358,-0.4295778,0.1650627
0.339548,0.2129683,-0.04135041,-0.6422075,0.4588214,0.0448196,1.070531,-0.4419833,0.4475905
0.4833626,0.153314,-0.1160686,-0.4985458,0.3994157,-0.03165975,0.7692744,-0.2344912,0.5918188
0.6855564,0.08589253,-0.1737385,-0.2964115,0.3321457,-0.09109507,0.1914274,0.3258533,0.4907699
0.9094798,-0.0555261,-0.1754562,-0.0724406,0.19077,-0.0945747,-0.4756773,0.7542549,0.1921329
0.8533204,-0.2278643,-0.08356932,-0.1284423,0.0183609,-0.004437844,-0.5546544,0.8732331,-0.4012932
0.8239412,-0.3813987,0.02481053,-0.1575552,-0.1353549,0.1022097,-0.5497761,0.2377201,-1.060626
1.046998,-0.4206393,0.07421902,0.06587348,-0.1748769,0.1499047,-0.5522039,-0.4689599,-1.084513
1.496899,-0.3607205,0.01929992,0.5162425,-0.1153248,0.09328888,-0.7146064,-0.2459042,-0.7174502
1.996216,-0.3347009,-0.01554283,1.016098,-0.08974282,0.05676387,-0.9979716,0.2857165,-0.4638532
2.005818,-0.2922931,-0.001306176,1.026267,-0.0478319,0.06933196,-1.164481,0.6963084,-0.3217117
1.753107,-0.2237817,-0.004260825,0.7740989,0.02013234,0.06472255,-1.398183,0.8210173,-0.4020605
1.654598,-0.194926,0.04876699,0.6760641,0.04839645,0.1161092,-1.514582,0.6299144,-0.4524085
1.446445,-0.1338927,0.08799638,0.4682815,0.108797,0.1537097,-1.620357,0.566256,-0.1839035
1.289891,-0.08450368,0.08090757,0.3119721,0.1575126,0.1450011,-1.582333,0.496392,0.09309075
1.267791,-0.0977207,0.06204695,0.2899786,0.1435799,0.1245263,-1.374822,0.3644986,0.2763183
0.9758203,-0.04352474,-0.002616181,-0.002030192,0.1970151,0.05825208,-1.455603,0.4357422,0.4083056
0.7196477,0.0431537,-0.06737055,-0.2583794,0.2828836,-0.008110582,-1.59039,0.4623937,0.4267005
0.6221117,0.1135328,-0.1439087,-0.356215,0.3523969,-0.08625118,-1.90083,0.4206742,0.4244208
0.4204062,0.1554198,-0.2112968,-0.5583179,0.3933527,-0.1552296,-2.267416,0.5284739,0.4127436
0.4015718,0.06448092,-0.2101642,-0.5776161,0.3014061,-0.1556658,-2.254436,0.5745329,0.4292115
0.4588373,-0.063463,-0.1802304,-0.520847,0.1723696,-0.1272694,-2.197068,0.6099634,0.4398781
0.4264034,-0.1320265,-0.1508422,-0.5537779,0.1026254,-0.09937793,-2.099781,0.7169434,0.3536137
0.4611808,-0.1587157,-0.1294227,-0.5194687,0.07466916,-0.07940751,-2.035844,0.6907852,0.2504171
0.4639839,-0.1763563,-0.08736379,-0.5170784,0.05568006,-0.03874499,-1.953418,0.5487537,0.1813441
0.49745,-0.3097562,-0.03466969,-0.4839457,-0.07914279,0.01260823,-1.578646,0.3816653,0.2458805
0.5391047,-0.4850159,0.01256656,-0.4425245,-0.255889,0.05855941,-1.01529,0.4598086,0.250475
0.5171262,-0.4705681,0.07293335,-0.4646188,-0.2429749,0.1176945,-0.2948086,0.5740692,-0.0779098
0.5387432,-0.3045226,0.05662937,-0.4429846,-0.07849208,0.1002076,-0.1928356,0.2852316,-0.3423666
0.7151484,-0.2389841,-0.05282872,-0.2664168,-0.01453071,-0.01038957,-0.5507827,0.05232387,-0.154333
1.317581,-0.4008527,-0.2022971,0.3363278,-0.1779812,-0.1609546,-0.4543904,0.1943233,0.1946829
1.967101,-0.6648517,-0.3846757,0.9862913,-0.4435549,-0.3443827,-0.6356206,0.7614742,0.1816995
1.885781,-0.7921805,-0.3948803,0.9055077,-0.5724317,-0.3555779,-0.6621836,1.215342,-0.3344274
1.505229,-0.7663647,-0.1075848,0.5255331,-0.5481105,-0.06920091,0.09524677,0.3793832,-0.9610441
1.494317,-0.7342565,0.1322422,0.515198,-0.5174155,0.1697866,0.532031,-0.7456439,-0.9875954
1.541216,-0.5967324,0.03749108,0.5626417,-0.3811983,0.07427125,0.7628874,-0.7934458,-0.4258011
1.669096,-0.3441019,-0.1371122,0.6910085,-0.129751,-0.1010279,0.9774457,-0.8161742,-0.05591329
1.86346,-0.2140931,-0.1256378,0.8857681,-0.0007939812,-0.0901842,0.6712949,-0.7521801,0.03981522
1.542974,-0.1722412,-0.02397949,0.5655563,0.04013553,0.01090889,0.2293755,-0.1336478,-0.03514632
1.111327,-0.110942,0.09405418,0.134036,0.1006342,0.1284409,0.1409247,-0.4034195,-0.1816124
0.8934476,-0.1263155,0.1153754,-0.083873,0.08457223,0.1493176,0.2401231,-1.108339,-0.1530538
0.5451081,-0.1701992,-0.001675129,-0.432388,0.04010165,0.03187133,0.1164399,-1.337805,-0.2203778
0.398004,-0.1195332,-0.05438919,-0.57979,0.09027308,-0.02119652,0.1410033,-1.576107,-0.01632923
0.5449723,-0.09582996,-0.1324993,-0.4332092,0.1135649,-0.09962105,0.3366671,-1.179151,0.5014139
0.6466715,-0.1460937,-0.2217502,-0.3319551,0.0629632,-0.1891457,0.3827844,-0.6386737,0.5629141
0.7579862,-0.1665291,-0.1566994,-0.2211176,0.0422548,-0.1243234,0.6211437,-0.5010916,0.4113045
0.8587875,-0.1779308,-0.102554,-0.1208077,0.03063809,-0.07035703,0.6884527,-0.1605642,0.2575946
0.7681094,-0.1234946,-0.02259674,-0.2119791,0.08491118,0.009472583,0.6634816,-0.2268977,0.0991989
0.6494348,-0.003383776,0.04032861,-0.3311372,0.2049037,0.07231983,0.7874556,-0.3067784,0.1368821
0.6766825,0.06611327,-0.02684331,-0.3043493,0.2743168,0.005114793,0.6541725,-0.2148327,0.2907646
0.7409945,0.1165176,-0.05085243,-0.2404589,0.3246572,-0.01888708,0.5392571,-0.3945256,0.4938756
0.8870636,0.1291556,-0.08635991,-0.09476122,0.3372352,-0.05434975,0.2434765,-0.1004929,0.4579492
0.963065,0.088633,-0.1050315,-0.01907532,0.2966396,-0.0729399,-0.1918758,0.2642902,0.2720276
0.8293959,0.03045966,-0.03407252,-0.1530023,0.2383657,-0.001863277,-0.3351518,0.4035246,0.1620387
0.730113,-0.05499884,-0.02578846,-0.2524835,0.1527677,0.00657356,-0.3649943,0.4656054,0.01234261
0.6318572,-0.14194,-0.08406104,-0.3508716,0.06564151,-0.05151342,-0.2053695,0.2616491,0.03456455
0.5587877,-0.3046353,-0.1883936,-0.4239962,-0.09728561,-0.1556286,-0.1518368,0.2503921,0.1443766
0.6088063,-0.5604711,-0.2917368,-0.3739422,-0.3533942,-0.2587197,-0.1871931,0.3541043,0.07330935
0.8176933,-0.7321209,-0.2933655,-0.164917,-0.5253424,-0.2600551,-0.05815151,0.6789522,-0.3987891
1.349286,-0.7269734,-0.1247955,0.3669195,-0.5204951,-0.09114249,0.0353089,0.9784636,-1.215004
1.848512,-0.5395392,0.07053968,0.8664801,-0.3333374,0.1045878,0.1112471,0.304632,-1.442101
1.938621,-0.193019,-0.0243213,0.9569764,0.01294893,0.01017088,-0.3069602,-0.5854262,-0.9990543
1.867045,0.01783716,-0.1791707,0.8857942,0.2236196,-0.144191,-0.948272,-0.6348082,-0.6072259
1.897572,-0.1905101,-0.1370727,0.9166716,0.01512954,-0.1015639,-1.114948,-0.2637194,-0.2375227
1.933037,-0.4418413,-0.1234701,0.9523981,-0.2363075,-0.08738984,-1.149433,-0.03803067,-0.07221684
1.80814,-0.40825,-0.08555341,0.8276341,-0.2027835,-0.04885915,-0.7804616,0.2418067,-0.1268738
1.477756,-0.3818026,-0.01587339,0.497218,-0.1763578,0.02147591,-0.07358124,0.5115243,0.1183066
0.8460737,-0.2998662,-0.02991887,-0.1346798,-0.09439134,0.008122729,0.1542152,0.5777987,0.3873485
0.2603773,-0.007484042,-0.009588339,-0.7207683,0.1980741,0.02917778,0.09716673,0.7086532,0.618788
0.1199044,0.1785865,-0.04007178,-0.8617776,0.3842736,-0.0005541185,-0.2515267,0.6101389,1.057414
0.1328689,0.1963146,-0.09762759,-0.8494447,0.4021595,-0.0573356,-1.205981,0.2705681,1.196355
0.2546552,0.07582048,-0.1101041,-0.728334,0.2818313,-0.06901737,-1.972263,0.04101594,1.070522
0.4742298,-0.126992,-0.1780964,-0.5094348,0.07917531,-0.136195,-2.060099,-0.03190213,0.8963942
0.4945983,-0.1799492,-0.1409557,-0.4897069,0.0263559,-0.09821817,-1.796103,0.312421,0.4185281
0.5137239,-0.2561821,0.01658974,-0.4711609,-0.04976056,0.0601855,-1.193553,0.6591977,-0.09955875
0.6055841,-0.4118532,0.1504844,-0.3797977,-0.2053341,0.1949568,-0.4442951,0.6145564,-0.504104
0.5727934,-0.3548964,0.1952518,-0.4129852,-0.1482917,0.2406098,0.07495624,0.3457497,-0.7982578
0.5066001,-0.1926067,0.1018593,-0.4794599,0.01407928,0.148099,-0.002867393,-0.1029225,-0.7126447
0.4880831,-0.1145513,0.02817805,-0.4981274,0.09221505,0.07528405,-0.4173863,-0.3582385,-0.3356263
0.4938975,-0.1116416,-0.00961731,-0.492317,0.09520235,0.03833228,-0.3296722,-0.4444894,0.1387659
0.5041378,-0.2354655,-0.03078478,-0.4819195,-0.02855028,0.01798174,-0.04704072,-0.5624312,0.5541487
0.6217148,-0.4227767,-0.03872401,-0.3640118,-0.2157966,0.01083084,0.3453104,-0.431807,0.7379919
1.063053,-0.6115359,-0.2327293,0.07783617,-0.4044905,-0.1824144,0.9477124,0.09060255,0.6973099
1.574457,-0.8471489,-0.4006134,0.5899194,-0.6400217,-0.3495614,1.267749,0.6863311,0.2095243
1.569584,-0.8887743,-0.3154406,0.5858668,-0.681524,-0.2636628,1.581458,0.5255431,-0.5976225
1.397401,-0.5999893,-0.1689834,0.4146069,-0.3925474,-0.1164784,1.597548,-0.1704257,-0.7733133
1.650643,-0.3356571,-0.07621173,0.668836,-0.1279348,-0.02297052,1.447864,-0.4330221,-0.2018815
1.875567,-0.2909438,-0.1283194,0.8947754,-0.08284445,-0.07433082,1.564881,-0.2904623,0.1606864
1.859146,-0.2704823,-0.2027822,0.8793533,-0.06191046,-0.1480342,1.196166,0.1706425,-0.02856039
1.582993,-0.128677,-0.09455238,0.6041386,0.08045786,-0.03903141,0.6917311,0.4536369,-0.4547086
0.9062605,-0.0305768,0.01010715,-0.07174774,0.1792025,0.0664154,0.295966,-0.2140959,-0.7203756
0.4797033,-0.08362622,0.02368606,-0.4975599,0.1268656,0.08079257,0.1518482,-1.26266,-0.424533
0.3880445,-0.1424815,0.01477482,-0.5885584,0.06877734,0.07268452,0.6449567,-1.767151,0.2430182
0.3680019,-0.2334446,-0.1165289,-0.6079956,-0.02137508,-0.05781663,0.90083,-1.483609,0.7017836
0.65919,-0.3562654,-0.3081415,-0.3162262,-0.1433479,-0.2486288,1.233854,-0.7158688,0.8601851
0.9264839,-0.3974688,-0.3479792,-0.04835321,-0.183667,-0.2876627,1.760187,0.1406332,0.7306001
0.9584879,-0.3844571,-0.2278109,-0.01576245,-0.1697323,-0.1666779,1.782125,0.4738445,0.399254
0.8626023,-0.2926306,-0.08214709,-0.1110518,-0.07694099,-0.02017769,1.846325,0.08468237,0.1360464
0.7064343,-0.1517417,-0.001753131,-0.266612,0.06495417,0.06107408,1.825193,0.07502811,-0.2244225
0.5919087,0.003499091,0.008469309,-0.3805109,0.221237,0.07217161,1.634712,0.4006277,-0.4315054
0.3394461,0.2109524,0.002648212,-0.6323135,0.4297548,0.06723635,1.256294,0.2771949,-0.3039291
0.1963568,0.290939,-0.03534691,-0.7746875,0.5108074,0.03013131,0.2997646,-0.02353465,-0.2898685
0.3370357,0.1013411,-0.1458215,-0.6332103,0.3222524,-0.07945349,-0.1684137,-0.36447,-0.06343213
0.5007402,-0.1816782,-0.1777068,-0.4685982,0.04023253,-0.1104506,0.2832599,-0.1263767,0.1807699
0.73876,-0.3998512,-0.07141393,-0.2295441,-0.1769934,-0.003269796,0.7640386,0.2021266,-0.1817423
1.070041,-0.5527608,0.04884757,0.1029024,-0.3290042,0.1178788,0.9670293,-0.6142178,-0.6629153
1.521659,-0.4845046,0.1403765,0.5558067,-0.2598853,0.2102889,0.8855229,-1.139963,-0.8891188
1.928566,-0.2080457,0.06203538,0.9640913,0.01741294,0.1328137,0.221853,-0.5164345,-0.7586902
1.999752,-0.1096503,-0.0570066,1.036699,0.1166297,0.01461371,-0.6931509,0.1930583,-0.3963586
1.889675,-0.3092417,0.0796951,0.9280312,-0.08215961,0.1521277,-0.7031166,0.4738073,-0.06152161
1.698692,-0.5911708,0.1975639,0.7383942,-0.3633052,0.2707732,-0.0924451,0.2959491,0.1768155
1.492148,-0.621356,0.180992,0.5330911,-0.3927157,0.2549329,0.1485738,0.1313364,0.151375
1.345368,-0.3909866,0.1781757,0.3874179,-0.1615658,0.2527917,0.1554681,0.07509539,0.3036455
1.070154,-0.2099681,0.09666178,0.1131594,0.02024937,0.1718857,0.01546612,-0.11367,0.594734
0.7016865,-0.05761265,0.008957537,-0.2545053,0.1734186,0.08471528,-0.2097635,-0.1791524,0.4764369
0.5013531,-0.01191111,-0.05231927,-0.4541778,0.2199432,0.02389524,-0.4503292,-0.1506536,0.4366437
0.4167392,-0.08125199,-0.0855144,-0.5382474,0.1514232,-0.008918985,-0.609704,-0.1292619,0.467409
0.3544826,-0.08181274,-0.03723062,-0.6000448,0.1516697,0.03967322,-0.4590031,-0.007296319,0.2340841
0.3926564,-0.145892,-0.01925283,-0.5614631,0.08837501,0.05789026,-0.3363885,0.1735522,0.0380031
0.3774693,-0.1408537,0.01118599,-0.5762616,0.09416851,0.08850111,-0.3068886,0.2857608,-0.2414045
0.3100624,-0.06001108,0.04580375,-0.6432687,0.1757313,0.1232242,-0.4522296,0.2594715,-0.5540189
0.3174207,-0.08368001,0.03384915,-0.6354699,0.1527413,0.1113076,-0.7479922,0.04538023,-0.6066831
0.2712891,-0.07182435,0.0680469,-0.6810918,0.1652278,0.1454748,-0.4654252,-0.3620326,-0.4876261
0.257779,-0.1283072,0.07014127,-0.693995,0.1093214,0.1474683,-0.0007334005,-0.6985564,-0.2971443
0.3024769,-0.2172178,0.02285508,-0.6485672,0.02092894,0.1000094,0.1124141,-0.7851578,-0.1682333
0.4795839,-0.2280889,-0.07693905,-0.4705845,0.0105167,-2.933683e-05,0.1947862,-0.8060939,0.02641587
1.109404,-0.3358178,-0.3452506,0.1602691,-0.09681027,-0.2686527,0.1462465,-0.7778712,0.4387598
1.813499,-0.5531618,-0.5863872,0.8655456,-0.3138026,-0.5101548,0.1560716,-0.2535419,0.7069304
1.926727,-0.769086,-0.4917334,0.9800664,-0.5294114,-0.4158974,0.4028732,0.7570418,0.4868976
1.626125,-0.7495853,-0.1759289,0.6808149,-0.5096096,-0.1004967,0.8729374,1.049313,-0.08279159
1.53953,-0.6339139,-0.01424264,0.5955796,-0.3936265,0.06079309,1.514945,-0.1069591,-0.4611715
1.668962,-0.6512706,-0.1071917,0.7263395,-0.410639,-0.03254111,1.651307,-1.260502,-0.3174302
1.750206,-0.4567698,-0.2666167,0.8088439,-0.2157445,-0.1923381,1.636657,-1.004078,0.1301655
1.811077,-0.2078013,-0.2933494,0.8708699,0.03367683,-0.2194245,1.785854,-0.4053459,0.3652566
1.540723,-0.2297573,-0.2015912,0.6015284,0.01223356,-0.1279928,1.364829,-0.3500441,0.1259552
0.9752171,-0.2616704,-0.1285013,0.03686646,-0.01911225,-0.0551952,1.096907,-0.3388683,-0.1807175
0.6700723,-0.2809047,-0.07507928,-0.2676093,-0.03772983,-0.002027786,1.365585,-0.7138757,-0.2121496
0.5342215,-0.3025754,-0.1031497,-0.4029519,-0.05873845,-0.03031507,1.44986,-1.315456,-0.1573176
0.4411432,-0.251719,-0.1875627,-0.4956565,-0.007177628,-0.1149077,1.619641,-1.309215,-0.1707813
0.4949508,-0.2071939,-0.2074595,-0.4415791,0.03809057,-0.1349454,1.892138,-0.8763221,-0.1246025
0.5497561,-0.1160254,-0.1788119,-0.3865779,0.1300349,-0.1063965,2.156339,-0.2504242,-0.01820746
0.6014167,-0.01567668,-0.08288491,-0.334769,0.231183,-0.0105236,2.498026,0.09145454,-0.007939652
0.6067528,0.07392723,-0.04055158,-0.3293102,0.3215966,0.03180029,2.550776,-0.06116598,-0.03004381
0.425845,0.2000607,-0.04961071,-0.5101008,0.4485326,0.02277319,2.382904,-0.2016356,-0.03406887
0.2510243,0.2082077,-0.01836457,-0.6847869,0.4574542,0.05408844,2.18957,-0.3339591,0.04230716
0.2622118,0.09868596,-0.06146389,-0.6734195,0.3486568,0.01109063,2.020674,-0.3010261,0.3318402
0.3354894,-0.02832543,-0.09676097,-0.5998869,0.2223016,-0.02407641,1.639623,-0.1031937,0.7089988
0.43609,-0.2377095,-0.1174452,-0.4989301,0.01349435,-0.04460435,1.000351,0.05382477,0.779565
0.7216592,-0.4278293,-0.1006529,-0.2128848,-0.1761294,-0.02763028,0.8042623,0.3697533,0.1654287
1.182098,-0.4699873,0.0002374223,0.2481562,-0.2178643,0.07346588,0.7823126,0.3056192,-0.7714235
1.687487,-0.5398364,-0.01975922,0.7542593,-0.2873501,0.05369594,0.3613551,-0.4896766,-1.12165
2.033558,-0.5948131,-0.03812403,1.101123,-0.3420065,0.03557407,-0.00119629,-1.020243,-0.6411001
2.010338,-0.5378185,0.01372336,1.07872,-0.2847171,0.087676,0.02838132,-0.3637957,-0.2025793
1.936834,-0.5905071,0.05350246,1.006001,-0.3371191,0.1277161,0.1741338,0.420286,-0.3582223
1.943026,-0.5832932,0.1399002,1.012892,-0.3296107,0.2143745,0.1128526,0.05329277,-0.3890568
1.564355,-0.3387734,0.08703029,0.6347885,-0.08477456,0.1617558,0.1280621,-0.1182658,-0.1459002
0.9748454,-0.07100853,-0.04465054,0.0456827,0.183335,0.0303085,0.1433319,0.2804792,0.115839
0.6200011,0.1084832,-0.07925467,-0.308927,0.3631947,-0.004084184,-0.2548351,0.1219167,0.5698809
0.4886755,0.1154903,-0.1133433,-0.4401721,0.370578,-0.03798371,-0.7961492,0.1624403,0.6868102
0.4019161,0.06015598,-0.09093055,-0.5269765,0.3156089,-0.01540252,-1.359458,0.3195054,0.5310912
0.2219323,0.0160641,-0.04219994,-0.7070964,0.2718538,0.0334779,-1.55055,0.2159798,0.5397934
0.223535,-0.04061462,-0.02927949,-0.7056825,0.2154694,0.04653003,-1.242931,0.4978301,0.2778781
0.3524756,0.005471748,0.03206206,-0.5769447,0.2617967,0.1079839,-1.125466,0.5133569,-0.02193945
0.3105363,0.01644319,0.08884912,-0.6190657,0.2729462,0.1648608,-1.10603,0.4011356,-0.1788364
0.3646426,0.007729059,0.09355277,-0.5650899,0.2643378,0.1696265,-1.148026,0.4787766,-0.4513614
0.3992687,0.02087315,0.02654394,-0.5305162,0.2775065,0.1026459,-1.384206,0.1751,-0.4890965
0.3122349,-0.08872811,-0.1160783,-0.6175007,0.1678411,-0.0399855,-1.48463,0.05275476,-0.247371
0.3597415,-0.1723827,-0.20616,-0.5698211,0.08402946,-0.1301127,-1.410676,0.1968039,0.04999707
0.3326901,-0.2395808,-0.152596,-0.596555,0.01658172,-0.07662442,-1.034001,0.1169167,0.2284791
0.2833444,-0.3251228,-0.07976019,-0.6454194,-0.06929758,-0.003887962,-0.4665098,-0.4150927,0.3120041
0.5146337,-0.3939653,-0.1824758,-0.4134677,-0.1385565,-0.1067215,-0.04409727,-0.7678243,0.6832255
1.213919,-0.718825,-0.4255265,0.2866681,-0.4638978,-0.3499021,0.267382,0.5213875,0.8687857
2.016455,-1.147405,-0.5904395,1.090228,-0.893001,-0.5149436,0.6659055,1.736511,0.202138
1.931707,-1.098639,-0.4015606,1.006629,-0.8447623,-0.326172,1.481112,0.4329076,-0.6561049
1.68343,-0.7829562,-0.1050756,0.7595676,-0.529569,-0.02975561,2.148798,-1.057972,-0.8070957
2.059403,-0.6797173,-0.2389416,1.136767,-0.4267486,-0.1636428,2.023698,-0.7457782,-0.5113454
1.914363,-0.3754288,-0.309436,0.9929092,-0.1227866,-0.2341072,1.878061,-0.5505867,-0.4353238
1.525433,0.06012989,-0.07493847,0.6050683,0.3125437,0.0004757429,1.608807,-0.8073762,-0.4586231
1.419387,0.05397609,-0.06750971,0.4999789,0.3062504,0.008046603,0.8818211,-0.6543523,-0.3341343
1.002805,-0.06017222,-0.02529863,0.08420176,0.1920329,0.05045295,1.008838,-0.9349301,-0.04673526
0.7254371,-0.06984437,0.05740411,-0.1925204,0.1823442,0.1333977,1.389827,-1.264934,0.4012299
0.6268199,-0.07965603,-0.08401174,-0.2906389,0.1725544,-0.007736881,1.012012,-1.068231,0.5627566
0.5770769,-0.07982138,-0.1857748,-0.3400103,0.1724373,-0.1091852,1.091799,-0.6967009,0.4768264
0.637209,-0.126178,-0.2289392,-0.2796103,0.1261445,-0.1520023,1.151724,-0.07332405,0.5636533
0.4715543,-0.1141298,-0.1471651,-0.4450772,0.1382632,-0.06984608,0.9180185,0.07836912,0.5199228
0.4871865,-0.07974953,-0.03703254,-0.4293132,0.1727126,0.04070458,1.199412,-0.2230521,0.3992124
0.5270746,-0.007678555,-0.05058596,-0.389324,0.2448426,0.02760287,1.204938,-0.2532521,0.3786442
0.5472044,0.1169164,-0.04498231,-0.3691012,0.369476,0.03368705,1.199045,-0.3062668,0.1781196
0.8355387,0.1720474,-0.1328472,-0.08066332,0.4246103,-0.05367295,1.140477,-0.2951474,0.1004973
0.8852108,0.2037209,-0.2415438,-0.03086688,0.4562346,-0.1618423,0.4412425,0.0686325,0.281805
0.9008374,0.1675183,-0.2596316,-0.01509223,0.4199122,-0.1793783,-0.0925263,0.8196065,0.3885601
0.8384299,0.1038038,-0.2381879,-0.0773284,0.3559907,-0.1573538,-0.696119,1.543618,0.352432
0.5967831,-0.008263749,-0.1780887,-0.3187786,0.2436165,-0.09664012,-1.39342,1.576715,0.06100979
0.529592,-0.2579042,-0.1133295,-0.38574,-0.006436753,-0.03123066,-1.546218,1.299409,-0.4192209
0.4416862,-0.4322607,0.09665457,-0.4733687,-0.1813089,0.1794374,-1.088084,0.9100454,-0.8191059
0.6403497,-0.4087306,0.2164724,-0.2743646,-0.1583853,0.2999644,-0.3678787,-0.02487823,-0.9437274
1.319058,-0.2482549,-0.006579376,0.4047564,0.001407736,0.0776338,-0.3275596,-0.6330433,-0.6962501
2.010411,-0.09703242,-0.172228,1.096582,0.1518822,-0.08729259,-1.013665,-0.04337416,-0.2496262
2.078943,-0.08979835,-0.09362665,1.165606,0.1583067,-0.007971665,-2.304282,0.6598516,0.1576949
1.813537,-0.3771937,0.007268452,0.9006553,-0.1299584,0.09363937,-3.331569,0.8836555,0.2166411
2.036728,-0.7283936,0.03594887,1.124212,-0.4820798,0.1230285,-2.74315,1.072246,-0.1722842
1.972269,-0.5683317,0.07314619,1.059983,-0.3229719,0.1609206,-2.180983,0.9360195,-0.5150922
1.635904,-0.2559627,0.04527313,0.7236673,-0.01156805,0.1337207,-2.546975,0.7722667,-0.4317221
1.496681,-0.1071106,-0.05724677,0.5842805,0.13632,0.03184527,-2.514612,0.8739301,-0.1396808
0.9414804,0.1438941,-0.08760982,0.02868681,0.3863615,0.002094061,-2.624186,0.7455708,0.1243857
0.6144974,0.1845595,-0.170565,-0.2989157,0.4260542,-0.08028223,-3.229523,0.6603755,0.3955096
0.5200312,0.1322236,-0.2631498,-0.3942056,0.3727205,-0.1723177,-3.454152,0.6209322,0.5966096
0.264934,0.1862462,-0.2669837,-0.6502961,0.4257042,-0.1756254,-3.491385,0.4594154,0.656476
0.3572209,0.0811651,-0.3175003,-0.5591314,0.3195285,-0.2256299,-3.556526,0.5311736,0.6252887
0.3626217,0.07783499,-0.3517403,-0.5549397,0.3150363,-0.2593617,-3.584704,0.6406214,0.5288665
0.369819,0.09776064,-0.3776757,-0.5489995,0.3337233,-0.2847816,-3.788048,0.737022,0.379614
0.528074,-0.01573709,-0.4303803,-0.392015,0.2189033,-0.3369511,-4.044246,0.8695301,0.1809812
0.4794924,-0.05105277,-0.4326003,-0.4418517,0.1821774,-0.3386035,-4.337122,0.8544473,0.1839399
0.50613,-0.1710273,-0.4213962,-0.4164289,0.06070478,-0.3267861,-4.519375,0.8940259,0.362671
0.4766819,-0.3259599,-0.3839878,-0.4470292,-0.09580887,-0.2887069,-4.385365,0.995966,0.4122577
0.4303899,-0.4870555,-0.2940851,-0.4943893,-0.2585569,-0.1980664,-4.038726,0.9931034,0.4559646
0.50685,-0.7036878,-0.199684,-0.4188928,-0.4768938,-0.1028552,-3.351306,0.8715455,0.4449113
0.5486655,-0.7123102,-0.1878157,-0.3779185,-0.4872466,-0.09010378,-2.539548,0.6286713,0.4421616
0.7527516,-0.5900663,-0.22849,-0.1745379,-0.3667293,-0.1298238,-1.681958,0.4299024,0.788335
1.089847,-0.5483657,-0.2429191,0.1619917,-0.3267256,-0.1432294,-1.013335,0.5170758,1.31624
1.480781,-0.7117084,-0.276453,0.5524913,-0.4917133,-0.1756713,-1.441326,0.9537259,1.51411
1.655066,-0.9843393,-0.1995003,0.7264463,-0.7659133,-0.09755857,-1.870638,1.515984,0.8143313
1.332319,-1.003854,0.08372321,0.4034395,-0.7868914,0.18689,-0.9458536,1.502394,-0.2476743
1.119436,-0.7440914,0.2567678,0.1903351,-0.528452,0.3612136,-0.239555,0.02066475,-0.4882472
1.564195,-0.2984872,-0.08374652,0.6348888,-0.08400799,0.02201475,-0.5266088,-1.661714,-0.1107123
2.064526,0.07167043,-0.60021,1.135005,0.2851594,-0.4931085,-0.680494,-1.101021,0.2502417
1.835887,0.008656438,-0.5247058,0.9060996,0.2213136,-0.4162353,-0.894551,0.4116879,0.3636025
1.165581,-0.1629367,-0.1515359,0.2354373,0.04902831,-0.04165588,-1.43725,0.8036384,-0.03443695
0.5765795,-0.1406615,0.007466512,-0.3540314,0.0707352,0.1188013,-1.576135,0.6825407,-0.5693175
0.3929199,-0.1396545,0.08051082,-0.5382594,0.07128614,0.1933381,-1.174129,0.007460799,-0.5425464
0.5165273,-0.1335624,0.02677653,-0.4152944,0.07702389,0.1411206,-0.6046607,-0.708361,-0.1887514
0.476301,-0.06182975,-0.02493293,-0.4562063,0.1484932,0.09093852,-0.2190737,-0.543126,0.09319014
0.7903543,-0.02993178,-0.1060886,-0.1428553,0.180207,0.01130999,-0.06034939,-0.09724122,0.5766636
1.307001,-0.01679675,-0.2723839,0.373087,0.1932237,-0.1534645,-0.02562272,0.5790399,0.9571701
1.262876,-0.08707905,-0.215176,0.3282548,0.1228755,-0.09474288,-0.1753649,0.8534241,0.9254705
1.197936,-0.1471967,-0.1857504,0.2625912,0.06273293,-0.06380933,-0.4743587,0.7353802,0.8125356
1.149734,-0.02645893,-0.2340701,0.2136385,0.183478,-0.1106258,-1.033866,1.056089,0.5686619
1.025154,0.1138029,-0.2830766,0.08827113,0.3237693,-0.1581324,-2.051933,1.076206,0.350369
1.090543,0.1348375,-0.4489262,0.152835,0.3448412,-0.3224816,-3.131684,1.1343,0.2101768
1.068214,-0.06203428,-0.3929212,0.1296392,0.147999,-0.2649683,-3.337752,1.282045,0.02580189
1.043656,-0.4068895,-0.3068674,0.1041711,-0.1968442,-0.1773893,-2.643417,1.009403,0.07645233
0.9960945,-0.6128509,-0.3216551,0.05565788,-0.4028087,-0.1906285,-1.967468,0.8800201,0.172161
0.9040526,-0.6312284,-0.1969926,-0.03737693,-0.4211899,-0.06439086,-1.547005,0.5437625,0.2413653
0.9299812,-0.5250202,-0.2005358,-0.01247713,-0.3149667,-0.06633201,-1.370621,0.3985343,0.3098493
0.922885,-0.4047738,-0.2457617,-0.02063201,-0.1946699,-0.1099308,-1.464922,0.7021391,0.2139468
0.936116,-0.3642165,-0.2102118,-0.008483465,-0.1540159,-0.07273091,-1.545702,0.6834757,0.2226419
0.9191321,-0.3626988,-0.234193,-0.02656808,-0.152349,-0.0950406,-1.681832,0.6684807,0.2972388
0.8951443,-0.4383882,-0.2196701,-0.05166953,-0.2278325,-0.07882635,-1.7815,0.6724914,0.3067789
0.9554848,-0.5958819,-0.2078719,0.007550103,-0.3850572,-0.0653189,-1.539674,0.6238259,0.2494305
0.9526699,-0.7190273,-0.1861271,0.003611551,-0.5078599,-0.04184923,-1.103116,0.5916029,0.06732968
0.8912358,-0.7444263,-0.1071892,-0.05894516,-0.5328264,0.03882565,-0.6016674,0.3674226,-0.01196059
1.957216,-0.1731234,0.2707747,0.9939,0.02896301,0.2783748,-1.701044,0.9685549,0.3611182
1.808792,-0.5747672,0.3120938,0.8463858,-0.3728415,0.3200819,-1.312397,1.065917,0.3362733
1.606248,-0.5894993,0.3026042,0.6446314,-0.3877522,0.3109594,-1.172054,0.8210015,0.1950025
1.345391,-0.3673118,0.2696933,0.3844145,-0.1657437,0.2783791,-0.8056333,0.6484581,0.227747
1.070224,-0.1792368,0.1335939,0.1097194,0.0221653,0.1425614,-0.6968003,0.6716387,0.2427777
0.7939381,-0.07193297,0.1221543,-0.1662646,0.1293201,0.1313463,-0.8270646,0.5347366,0.2171684
0.6190565,-0.04715881,0.1350636,-0.341001,0.1539586,0.1444182,-0.7698496,0.3094851,0.3160129
0.5394221,-0.0141386,0.07496199,-0.4206246,0.1868489,0.08441489,-0.8595154,0.2975875,0.4005643
0.4257772,0.009916683,0.1101313,-0.534364,0.2107714,0.1196163,-0.9323697,0.3503665,0.4768348
0.3670203,-0.01328184,0.1042299,-0.5932883,0.1874277,0.11368,-1.039553,0.470534,0.4939731
0.3777146,-0.01209964,0.08631577,-0.5828004,0.1884437,0.09566321,-1.356529,0.60995,0.316536
0.4188845,-0.01285943,0.1367273,-0.5418426,0.1874886,0.1459038,-1.435969,0.5744195,0.03052723
0.5028251,-0.02904124,0.1302633,-0.4580903,0.1710756,0.1391997,-1.451417,0.4384783,-0.3755239
0.5690155,-0.03354853,0.1407626,-0.39204,0.1662952,0.1493883,-1.668533,0.2513936,-0.6663465
0.6110859,-0.0980473,0.1452652,-0.3500424,0.1014767,0.153508,-1.667558,-0.0691269,-0.6196694
0.5995365,-0.2337251,0.1329605,-0.3615824,-0.03456905,0.1407468,-1.328353,-0.402,-0.3719569
0.5443431,-0.3617144,0.1469824,-0.4166711,-0.1629715,0.1542378,-0.8530478,-0.7260246,-0.01650623
0.5209131,-0.4116513,0.1050024,-0.4398882,-0.2133578,0.1116517,-0.3663838,-1.352084,0.2314647
0.5476234,-0.3644428,0.03121583,-0.4128436,-0.1666224,0.03718471,-0.009168795,-1.918998,0.3115768
0.7552854,-0.3328253,-0.1553845,-0.2047151,-0.1354894,-0.150166,0.1234096,-1.649702,0.3512836
1.277372,-0.4101802,-0.4078765,0.3179722,-0.2133295,-0.4034672,0.0301468,-0.5053436,0.1479907
1.764298,-0.5089833,-0.4337571,0.8056164,-0.3126073,-0.4301959,0.03170954,0.8160509,-0.3299743
1.781358,-0.5834426,-0.2158892,0.823476,-0.3875167,-0.2131916,0.4078109,0.9630504,-0.5602514
1.750842,-0.6312381,0.06748926,0.7937946,-0.4357204,0.06932601,0.8008512,0.07191281,-0.3741696
1.903864,-0.4764744,0.1935007,0.9476394,-0.2813053,0.1944858,0.8582658,-0.1621461,-0.2296993
1.813864,-0.1224722,0.04224912,0.8584024,0.07242043,0.04238933,0.6458321,-0.03537956,-0.2160852
1.744568,0.1456772,-0.09953376,0.7897685,0.3403659,-0.1002341,0.1423469,-0.07198233,-0.2154749
1.543786,0.1954976,-0.01308833,0.5895111,0.3900412,-0.0146231,-0.5791606,0.08821801,-0.3285688
0.8731129,0.06298651,0.03465629,-0.08079865,0.2574238,0.03229693,-0.7842031,-0.1865932,-0.3753018
0.534471,-0.1265128,0.01562325,-0.4192396,0.06783939,0.01245085,-0.2360939,-0.8288635,-0.1408042
0.5075655,-0.2720116,0.06612676,-0.4460866,-0.07773304,0.06215311,0.3088928,-1.537702,0.2478253
0.4908364,-0.3704827,-0.06272591,-0.4628694,-0.1762671,-0.06748894,0.8070988,-1.885738,0.4813703
0.7833679,-0.3604496,-0.2750791,-0.1704738,-0.1662816,-0.2806165,1.186851,-1.10147,0.3861486
1.035532,-0.2642993,-0.3152129,0.08149269,-0.07015675,-0.3215002,1.1278,0.05538234,0.0780289
1.05971,-0.1580819,-0.2579579,0.1054211,0.03606122,-0.2649565,1.206971,0.9332473,-0.2257163
0.8082502,-0.04524822,-0.09871612,-0.1463377,0.1489204,-0.1063745,1.22941,1.05857,-0.2366868
0.4194238,0.0809696,0.03324968,-0.5355045,0.2751819,0.02499023,0.9344121,0.5548624,-0.05236122
0.3259601,0.2276703,0.008316689,-0.6293295,0.4219318,-0.0004844768,0.598155,0.4684954,-0.0404695
0.3241397,0.2661749,-0.0508008,-0.6315018,0.4604731,-0.06008654,-0.02571126,0.1373172,-0.01678233
0.4450915,0.1823502,-0.06941975,-0.5108614,0.3766524,-0.07913421,-0.3932643,-0.2251652,0.1272976
0.7701321,0.05359757,-0.0978135,-0.1860661,0.2478525,-0.1079003,-0.4024746,0.1017647,0.2798323
0.9657201,-0.2296452,-0.1476513,0.009355954,-0.03549948,-0.1580522,-0.6306099,0.2671936,0.41845
0.9703815,-0.5035295,-0.1083419,0.01393202,-0.3095548,-0.1189955,-0.6198632,0.4114012,0.151371
0.9125856,-0.5137034,-0.04528749,-0.04387306,-0.3199494,-0.05612977,-0.116881,0.1587677,-0.4647155
1.096414,-0.2914082,-0.01755241,0.1400166,-0.09790738,-0.02851888,0.3363766,-0.4981339,-0.9563766
1.583329,0.05608426,0.009166729,0.627051,0.2493111,-0.001861392,-0.1254782,-0.3149522,-1.053659
2.01953,0.2206,-0.02506687,1.063406,0.4135306,-0.03609727,-1.151438,0.07638243,-0.3897757
1.984227,0.05160324,-0.0004049366,1.028245,0.2442041,-0.01138156,-1.553065,0.51689,0.5166
1.653091,-0.1886957,0.1010587,0.6971925,0.003530918,0.09018803,-1.520146,1.158604,0.7372329
1.486038,-0.3430839,0.181867,0.530125,-0.1512783,0.171148,-1.331283,0.976865,0.4989396
1.152925,-0.3565158,0.2239856,0.196874,-0.1651712,0.2134539,-1.074451,0.5659469,0.3971672
0.9466172,-0.2384559,0.1951896,-0.009703148,-0.04760151,0.1848685,-0.9824647,0.4411311,0.4356857
1.110996,-0.1472419,0.1662304,0.1542756,0.04310123,0.156131,-0.9498689,0.2015192,0.4249143
0.8940484,-0.08984447,0.07615117,-0.06319418,0.09996983,0.06627494,-1.091093,0.2130442,0.5298382
0.68882,-0.07621852,-0.02292184,-0.2690577,0.1130489,-0.03257953,-1.141845,0.3511941,0.6507165
0.6652966,-0.1170718,0.004477601,-0.2933117,0.07162861,-0.00496807,-1.129938,0.4564342,0.5058182
0.4577183,-0.06452003,0.004385161,-0.5016924,0.1235913,-0.004854775,-1.268589,0.6589295,0.3340751
0.479919,-0.02569606,0.01109395,-0.4803384,0.1618017,0.002053738,-1.272526,0.7023202,0.1540673
0.5335782,-0.04249491,0.07600679,-0.4275409,0.1443614,0.06715984,-1.333433,0.6748377,-0.1021538
0.5229488,-0.001444801,0.09180527,-0.43902,0.184738,0.08314322,-1.296301,0.4532149,-0.3243828
0.6096486,-0.01308315,0.08594813,-0.3531343,0.1723897,0.07745928,-1.235022,-0.003563106,-0.4718904
0.5689685,-0.02256785,0.04657131,-0.3945725,0.1621544,0.03824056,-1.52353,-0.1715332,-0.3364752
0.5113651,-0.06956378,-0.01420019,-0.4528599,0.1143638,-0.02238991,-1.672516,-0.1309578,0.01741375
0.4973392,-0.2822676,-0.03225397,-0.4674774,-0.09917928,-0.04031942,-1.583531,-0.1030084,0.4349972
0.6709156,-0.4775737,-0.08412226,-0.2943832,-0.2953631,-0.09207778,-1.262768,-0.0001154366,0.6581005
0.9510679,-0.5538586,-0.245263,-0.01459242,-0.3725496,-0.2531179,-0.6346308,0.1411624,0.4257175
1.038771,-0.5667909,-0.3662605,0.07287028,-0.3863872,-0.3740141,-0.04128315,0.2706068,0.2289389
1.378188,-0.7050702,-0.3520597,0.4121586,-0.5255528,-0.3596969,0.409229,0.356825,0.05441797
1.86342,-0.874597,-0.330403,0.8973502,-0.6959212,-0.3378919,0.9534146,0.3239188,-0.3853985
1.756385,-0.7497922,-0.2063952,0.7903265,-0.5718844,-0.2136895,1.54469,0.05113431,-0.5031279
1.547715,-0.5121949,0.003502542,0.5816759,-0.3349549,-0.003541499,1.616018,-0.2309731,-0.3024918
1.740882,-0.3118562,-0.03471693,0.7748331,-0.1351661,-0.04145331,1.564152,-0.3581383,-0.08790418
1.746996,-0.08525439,-0.1227902,0.7808729,0.09100891,-0.1291634,1.567468,-0.4801269,0.2353131
1.675901,0.1268314,-0.04213147,0.7096078,0.3027841,-0.04808731,0.8476946,-0.3959635,0.257803
1.614873,0.3045141,-0.06064375,0.6482802,0.480255,-0.06612908,-0.02364431,-0.1787941,-0.01521612
1.112445,0.2907626,-0.02808253,0.1454035,0.4663653,-0.03304604,-0.4019613,-0.2288735,-0.04533591
0.7394319,0.1184443,0.1207643,-0.2282152,0.2939552,0.1163703,-0.2929121,-0.6404322,0.1345022
0.6356512,-0.02093109,0.09941542,-0.3327452,0.1545123,0.09563159,-0.01796618,-1.131493,0.4371999
0.5756944,-0.1502429,0.03468029,-0.39357,0.02514402,0.03153876,0.05619853,-1.071321,0.7688872
0.8074341,-0.1883205,-0.06032499,-0.1627896,-0.01298497,-0.06279903,0.3476003,-0.5127171,0.8859259
0.9644645,-0.1574879,-0.1770838,-0.006787481,0.01779977,-0.1788677,0.4727815,-0.04420114,0.8482685
0.998097,-0.1864343,-0.135006,0.02576116,-0.01119135,-0.1360753,0.356361,0.2427446,0.6680679
0.9420098,-0.1576428,-0.07604292,-0.03145759,0.01755827,-0.07636981,0.4802456,0.4013162,0.3547402
0.7171506,-0.0658127,-0.01176067,-0.2574876,0.1093485,-0.01131615,0.4773622,0.5487344,0.1224115
0.6221833,0.0771753,0.04894489,-0.3536512,0.2522944,0.05018787,0.4628755,0.6292567,0.05668995
0.5162625,0.2469927,0.02881462,-0.4607737,0.422058,0.03087852,0.1232172,0.4535474,0.1010929
0.5099461,0.2481344,0.004310693,-0.4682731,0.4231186,0.007212549,-0.6797694,0.2482312,0.104538
0.6301802,0.1470407,-0.105908,-0.3491789,0.3218988,-0.1021551,-1.161874,0.1014203,0.09464839
0.6672553,0.006718505,-0.2306038,-0.3131797,0.1813907,-0.2259869,-1.366971,0.1791727,0.2248894
0.783742,-0.2361918,-0.2568556,-0.1976896,-0.06177249,-0.2513572,-1.423028,0.5914348,0.3111489
0.7755285,-0.4766171,-0.248434,-0.2068099,-0.3025146,-0.2420288,-1.280824,0.8042113,0.07705428
0.7329458,-0.5684429,-0.1623775,-0.2502021,-0.3947071,-0.1550325,-0.8861746,0.6261487,-0.483781
0.8955887,-0.4529817,0.005473775,-0.08826574,-0.2796422,0.01379584,-0.2949963,0.1695694,-1.00074
1.279074,-0.3606221,0.1238521,0.2946163,-0.1876892,0.1331865,-0.1241985,-0.2131615,-1.018764
1.879538,-0.3116878,0.03631206,0.8945673,-0.1391572,0.04668667,-0.6294835,-0.03992039,-0.558458
2.02865,-0.09053722,-0.05843574,1.043221,0.08160359,-0.04700125,-1.389479,0.3681112,0.01343055
1.813917,-0.009031012,0.06357,0.8280369,0.162734,0.07607837,-1.836875,0.7205187,0.2552353
1.870143,-0.2160104,0.1104039,0.8837732,-0.04461062,0.1239945,-2.063507,0.9625774,-0.08502304
1.773771,-0.357901,0.04546902,0.7868317,-0.1868574,0.06014277,-2.272569,1.074716,-0.4367634
1.492003,-0.3164367,0.06355845,0.5043801,-0.1457355,0.0793086,-2.094083,1.278493,-0.2640584
1.307936,-0.2034968,0.08727031,0.3194934,-0.0331174,0.1040835,-1.81791,1.247705,-0.04644592
0.9679719,-0.09115396,0.1000189,-0.02143555,0.07892795,0.1178751,-1.914097,0.9551413,0.1241085
0.6742174,-0.01471875,0.05653268,-0.3162936,0.1550879,0.07540521,-2.010451,0.9234734,0.4419553
0.5722533,-0.008136556,-0.02286797,-0.4194798,0.161411,-0.003011052,-1.966202,0.9378749,0.5790607
0.4185821,0.03160922,-0.0128355,-0.5744615,0.2009054,0.007971273,-2.013617,0.8052812,0.7074405
0.3454821,0.1229157,0.001503069,-0.6489252,0.2919584,0.02322436,-1.992498,0.6449364,0.7927579
0.3870777,0.1026819,-0.02630401,-0.6087082,0.2714575,-0.003704059,-1.982958,0.3744674,0.6577169
0.3806794,0.02683122,-0.0838687,-0.6164634,0.1953145,-0.06042578,-2.137987,0.1373015,0.7241254
0.3822213,-0.09787488,-0.1500551,-0.6162225,0.07028197,-0.1258027,-2.090955,0.05442415,0.8933585
0.4534926,-0.2778174,-0.1117704,-0.5461657,-0.1100238,-0.08673761,-1.733534,0.2333261,0.9458378
0.6091806,-0.3519653,-0.02517774,-0.3915795,-0.1845674,0.0006107505,-1.219135,0.5763498,0.6309232
0.7316938,-0.3713442,0.05119539,-0.2700367,-0.2043646,0.0777167,-0.9283367,0.6103375,-0.10593
0.6947865,-0.3444303,0.1506318,-0.3077717,-0.1778792,0.1778606,-0.7646148,0.4608225,-0.5189717
0.6973164,-0.253807,0.1043812,-0.305919,-0.08768355,0.1322861,-0.2889896,0.3527667,-0.5311956
0.956004,-0.2280601,-0.08581723,-0.0477535,-0.06235575,-0.05727312,-0.3676177,0.3700429,-0.2246581
1.38848,-0.3505047,-0.2049214,0.3843527,-0.1852048,-0.1757756,-0.9993431,0.8053421,0.4196279
1.696307,-0.6669279,-0.2622457,0.6919419,-0.5020093,-0.2325295,-1.178645,1.265263,0.5500449
1.655814,-0.9399737,-0.2108841,0.6513098,-0.7753953,-0.1806187,-1.004285,1.083085,-0.05141886
1.497386,-0.9671781,-0.0614121,0.492804,-0.8028696,-0.0306092,-0.3087848,0.3536936,-0.5226948
1.506037,-0.9163899,-0.01296235,0.5014037,-0.7522467,0.01837111,0.5205793,-0.2257226,-0.3007795
1.580048,-0.8656694,-0.07054358,0.5753613,-0.7015545,-0.03868577,0.8482773,-0.286965,-0.03617771
1.598549,-0.6635677,-0.1182197,0.5937783,-0.4993175,-0.08584365,1.121777,0.01631049,-0.3305735
1.396443,-0.2522652,0.06923873,0.3915319,-0.08769943,0.1021277,0.7975693,0.1972462,-0.7514086
1.086288,0.02664427,0.3008513,0.08116283,0.1917063,0.3342445,-0.1468734,-0.4549566,-1.163849
1.031871,0.1029098,0.1989608,0.02644951,0.2686339,0.2328394,-0.637867,-1.342963,-1.015628
0.9617328,0.2861874,0.1307812,-0.0440649,0.4527143,0.1651138,-1.13845,-1.395067,-0.1751737
0.8959526,0.2764525,0.1014854,-0.1102932,0.4438924,0.1362309,-1.570092,-0.9797767,0.2367749
1.035039,-0.0137843,-0.1459624,0.02828168,0.1546482,-0.11085,-1.179814,-0.58207,0.3633506
0.9173215,-0.1738689,-0.1868876,-0.09000133,-0.0043872,-0.1514524,-0.7734405,-0.3065855,0.3066521
0.7889758,-0.3372971,-0.02609654,-0.2189586,-0.1667213,0.009623742,-0.381973,-0.2798285,-0.04975305
0.8575266,-0.4205115,0.04816245,-0.1510535,-0.2487988,0.08413498,0.1662177,-0.3090302,-0.204576
0.7077579,-0.2200787,0.09162603,-0.3014879,-0.04718439,0.127818,0.1448252,-0.2635527,-0.3632321
0.5639364,-0.08045236,0.06998611,-0.4459789,0.09366799,0.1063617,0.2403244,-0.2993826,-0.02983599
0.5219544,-0.02739242,0.01203107,-0.4886136,0.1479917,0.04855107,0.5601848,-0.3686544,0.6455632
0.526047,-0.03454903,-0.0367652,-0.4851328,0.142125,-0.0001412915,0.5223191,-0.2314605,0.8056865
0.635042,-0.1052536,-0.108695,-0.3766862,0.07272432,-0.07200626,0.4864236,-0.05920321,0.8263385
0.6677096,-0.05901621,-0.1576987,-0.3444845,0.1202693,-0.1209796,0.1527534,0.06614582,0.5523249
0.6938056,-0.1095421,-0.1886131,-0.3187574,0.07104555,-0.1518909,-0.2162436,0.262649,0.1899791
0.6177236,-0.2086601,-0.1725995,-0.3950997,-0.0267829,-0.1358931,-0.2237106,0.2747073,0.01923366
0.4561835,-0.2246169,-0.1325986,-0.5567789,-0.04146657,-0.09591839,-0.342613,0.2211585,-0.2519499
0.4922838,-0.3095623,-0.1753343,-0.5206812,-0.1251561,-0.1386834,-0.4534539,0.3258793,-0.3804246
0.6108241,-0.2979769,-0.1782706,-0.4019908,-0.11233,-0.1416457,-0.5909888,0.2738871,-0.790418
0.9647051,-0.2404762,-0.04518947,-0.04779678,-0.05360088,-0.008581077,-0.8328388,0.01501501,-1.27894
1.606102,-0.2286568,0.1181635,0.5940715,-0.04056366,0.1547669,-1.178197,-0.3383028,-1.174247
2.00547,-0.1573571,0.1746792,0.9940425,0.0319433,0.211285,-1.742335,-0.6201394,-0.7258738
2.004682,-0.184377,0.05152283,0.9939407,0.00611771,0.0881303,-2.187506,-0.166579,-0.2849307
1.959109,-0.4411332,-0.01778054,0.9490799,-0.249458,0.01882103,-2.091547,0.7944315,-0.3902007
2.01423,-0.7985619,0.1066101,1.004887,-0.6057142,0.1431944,-1.369808,1.005058,-0.543781
1.864644,-0.7962191,0.1713536,0.8559095,-0.6021887,0.2079051,-0.6286583,0.55829,-0.1762934
1.373429,-0.3618095,0.09215352,0.3651842,-0.1665644,0.1286501,-0.2399628,0.3876423,0.2406344
0.7095541,0.0198917,0.01920152,-0.2983384,0.2163952,0.05561512,-0.5188427,0.5388123,0.827098
0.3030631,0.1780994,-0.02763535,-0.7046094,0.3758991,0.008664438,-1.434782,0.6740984,1.291461
0.3553907,0.1394782,-0.1413907,-0.6521635,0.3385927,-0.1052344,-2.080151,0.6390505,1.258094
0.3144154,0.0775703,-0.2108275,-0.6930824,0.2779966,-0.1748391,-2.62945,0.6199391,0.9985817
0.3022257,-0.01862968,-0.1306608,-0.7052381,0.1830864,-0.09485664,-2.809723,0.6158728,0.4171145
0.55518,-0.3089347,-0.06270718,-0.4522365,-0.1059634,-0.02709575,-2.267923,0.4841135,-0.001650664
0.5123066,-0.411465,-0.003221466,-0.4950203,-0.2072757,0.03219318,-1.767597,0.3690172,-0.05817039
0.4662897,-0.3289542,0.05046141,-0.5408822,-0.1235792,0.08567599,-1.12686,0.1862545,-0.2843856
0.6237521,-0.3397934,0.04176753,-0.3831794,-0.133258,0.07677695,-0.7567843,0.1029693,-0.4856194
0.6602742,-0.2553526,0.08685893,-0.3463147,-0.04767657,0.1216549,-0.7683386,0.1131706,-0.7300477
0.7497664,-0.1476916,0.07612847,-0.256367,0.06110719,0.1106987,-0.5947503,-0.15813,-0.9046991
0.6832416,-0.149673,-0.01509245,-0.3223166,0.06022939,0.01923631,-0.6175185,-0.2776273,-0.5424529
0.5046289,-0.2103094,-0.03004204,-0.500228,0.0006735017,0.004027841,-0.5180664,-0.02069477,-0.1803777
0.5486191,-0.3115383,0.01118846,-0.4554009,-0.09949996,0.04498264,-0.3760882,0.2304012,-0.07069499
0.6051396,-0.3760343,0.06932287,-0.3978969,-0.1629642,0.1028248,-0.2978685,0.2290912,0.01425715
0.7602288,-0.44008,-0.01832801,-0.2416698,-0.2259965,0.01486402,0.1821578,0.0002483132,0.1018014
1.119556,-0.5332067,-0.1846105,0.11895,-0.3181192,-0.1517454,0.6941316,-0.06399534,0.1375352
1.539302,-0.5982978,-0.1928357,0.5401303,-0.3822036,-0.1603093,1.077078,0.09150612,-0.1030467
1.733546,-0.5461357,-0.1658901,0.7359196,-0.3290183,-0.1337058,1.19897,0.1308784,-0.4277678
1.618819,-0.4442162,-0.1574811,0.6228077,-0.2260456,-0.1256336,1.145417,-0.2834661,-0.5384712
1.752911,-0.4834005,-0.176709,0.7585399,-0.2641368,-0.1451852,1.150817,-0.6801829,-0.319045
1.924124,-0.4711152,-0.1910346,0.9313741,-0.2507112,-0.1598146,1.127378,-0.1475436,-0.09665697
1.647879,-0.2895407,-0.03650009,0.6566892,-0.06794394,-0.005557847,1.142286,0.4020645,-0.4515401
1.243185,-0.1147396,0.1405589,0.2534539,0.1081025,0.1712514,0.9218389,0.06697323,-0.8935142
0.8017427,-0.0153173,0.1699551,-0.1866471,0.208815,0.2004211,0.7221974,-0.4592225,-0.8909996
0.5543895,-0.06031406,0.09863955,-0.4327758,0.1651397,0.1288932,0.8424473,-1.256501,-0.490973
0.6462832,-0.1072356,0.003266752,-0.3397567,0.1195564,0.03331398,0.9837679,-2.041468,0.189467
0.6989274,-0.1107926,-0.1438865,-0.2860637,0.1173418,-0.1140433,1.212808,-1.776525,0.6367699
0.7608313,-0.2268524,-0.3150513,-0.2231687,0.002618891,-0.2854067,1.398604,-1.236287,0.8343432
0.8562178,-0.2880972,-0.3131162,-0.1268345,-0.05730031,-0.2836552,1.452628,-0.9297725,0.9219459
0.8786634,-0.3192743,-0.2278468,-0.1034748,-0.08716528,-0.1985421,1.507334,-0.3235357,0.7602084
0.9079939,-0.3709305,-0.1654564,-0.07325733,-0.1375215,-0.1362703,1.659999,0.0253061,0.6139552
0.8313279,-0.2616198,-0.06809615,-0.1490589,-0.02692115,-0.03898463,1.940226,0.2752103,0.3078035
0.7085098,-0.1451244,-0.01894892,-0.2710291,0.09085435,0.01013364,2.017387,0.6927072,-0.2068469
0.6737574,-0.07343944,0.0006712678,-0.3049406,0.1638054,0.02976846,1.6711,0.5643195,-0.4368486
0.6016243,0.1078891,0.006060132,-0.376227,0.3463767,0.03521161,1.055917,0.4151697,-0.5376543
0.5165443,0.2824981,-0.007243475,-0.4604396,0.5221895,0.02199745,0.6942737,0.3764715,-0.573418
0.5830049,0.1946148,-0.06431139,-0.3930738,0.4354499,-0.03494973,0.5266016,0.1622863,-0.3887058
0.708715,-0.05204565,-0.1968954,-0.2664054,0.1898524,-0.1673833,0.1038976,0.3551515,-0.2199868
0.7111302,-0.1397388,-0.184025,-0.2629678,0.1031282,-0.1543303,-0.1118733,0.5617287,-0.198411
0.7210454,-0.207229,-0.0280221,-0.2519592,0.03650837,0.00189067,0.1523715,0.4522975,-0.4732311
0.8851702,-0.2141377,0.1103691,-0.08666589,0.03037206,0.1405355,0.6880218,0.05831262,-0.9474419
1.245629,-0.01828371,0.1621514,0.2750342,0.2269022,0.1926007,1.028447,-0.7312945,-1.084333
1.775945,0.05915357,0.01219977,0.806649,0.3049173,0.0429516,0.3009339,-0.9601142,-0.6999692
2.037816,0.01670001,-0.07896609,1.069841,0.2629365,-0.04789951,-0.8502786,-0.16519,-0.1282641
1.923281,-0.2021909,0.1204158,0.9565982,0.04440693,0.1518055,-0.9308887,0.7023203,0.2049947
1.841364,-0.5865082,0.3694014,0.8758962,-0.339659,0.4011161,-0.5100727,0.7999051,0.1759084
1.734194,-0.6386164,0.4352989,0.7698157,-0.3916121,0.4673262,-0.321253,0.3340156,-0.1194533
1.502947,-0.3642903,0.2813652,0.5394996,-0.1172057,0.3136729,0.2396364,0.1086106,-0.3507645
1.255482,-0.04323083,0.08964132,0.292782,0.2038748,0.1221802,0.4988175,0.2821579,-0.1425549
0.9390108,0.1238616,0.007637124,-0.02313502,0.370932,0.04034927,-0.06758168,0.4170936,0.1223321
0.6952412,0.09828591,-0.01471915,-0.2665377,0.3452563,0.01810679,-0.5402922,0.3766629,0.1612464
0.5614686,0.05789854,-0.009377618,-0.400112,0.304692,0.02350458,-0.8276227,0.3738737,0.376646
0.4159366,-0.02555173,-0.01325088,-0.5455859,0.2209776,0.01963286,-0.9471285,0.3913757,0.5516123
0.3874812,-0.0749191,-0.01726014,-0.5740899,0.1712523,0.01557334,-0.8774969,0.352356,0.3744122
0.4119459,-0.08186046,0.01238922,-0.5497445,0.1638564,0.04512343,-0.8545326,0.3614044,0.1436367
0.3676809,-0.1388691,0.03090018,-0.5941651,0.1062965,0.0634882,-0.718576,0.3232563,-0.1333075
0.3747292,-0.1380861,0.03492032,-0.5872761,0.1064327,0.06731644,-0.7123321,0.221629,-0.2589431
0.3899814,-0.1655704,0.04668912,-0.5721559,0.07820942,0.07884811,-0.6534356,0.01528232,0.04203388
0.369241,-0.2429463,0.06527152,-0.5929725,6.622942e-06,0.09714823,-0.2593362,-0.278743,0.2828332
0.4160647,-0.2450467,0.06955652,-0.5461434,-0.00300212,0.1011054,-0.06965616,-0.2935065,0.2600265
0.5664783,-0.2105416,0.04988096,-0.3956203,0.03052106,0.08105569,-0.03543832,-0.2093252,0.09036285
0.7314125,-0.1718412,0.04556831,-0.2304569,0.06817284,0.07632241,0.1470306,-0.3004794,-0.09213469
0.787649,-0.1231438,0.01850891,-0.1738639,0.1157602,0.04879638,0.2746786,-0.3731655,0.1717923
1.066278,-0.1994663,-0.1127116,0.1052478,0.03826961,-0.08293452,0.09121083,-0.3623413,0.6133618
1.745017,-0.5468392,-0.247491,0.7845846,-0.3103234,-0.218262,0.02114073,-0.07075848,0.6161065
1.976779,-0.854249,-0.176108,1.017025,-0.6189897,-0.147454,0.897991,0.2283707,0.1086796
1.489219,-0.6990418,0.05697686,0.5301775,-0.4650486,0.08503954,2.053633,-0.1969001,-0.5922854
1.190548,-0.3228253,0.1913087,0.2322129,-0.09008009,0.2187677,2.22572,-0.8312636,-0.7089705
1.340814,-0.1250236,0.1520095,0.3831541,0.106508,0.178849,1.824869,-0.9399643,-0.293346
1.572024,0.06513505,0.05744228,0.614989,0.2954889,0.08364044,1.466568,-0.8504615,-0.02754204
1.756106,0.2949813,-0.01093431,0.799621,0.5241834,0.01459747,0.6808811,-0.464788,0.09560324
1.682703,0.2355604,-0.04849639,0.7266625,0.4636184,-0.02365529,-0.08404078,0.03190439,-0.1033669
1.233126,0.02503458,0.04373982,0.2773966,0.2519361,0.06786879,0.06964823,-0.44812,-0.3852416
0.7232277,-0.09030403,0.1997971,-0.232339,0.1354146,0.2231936,0.355136,-1.352495,-0.1266438
0.5697806,-0.1644908,0.1054905,-0.3857645,0.06001276,0.1281313,0.4170113,-1.476692,0.1766152
0.7239981,-0.1407367,-0.07591891,-0.2316445,0.0825193,-0.05405999,0.6593141,-0.9810443,0.3525077
0.7472842,-0.0822211,-0.1454068,-0.2085513,0.1397562,-0.1243541,0.6976541,-0.2958242,0.630935
0.6717366,-0.06689472,-0.1902027,-0.2843669,0.1537727,-0.1699729,0.7686169,-0.1028421,0.6345361
0.6929606,0.01458779,-0.08931925,-0.2634672,0.2339124,-0.069919,0.9268441,-0.4528502,0.5279702
0.6264723,0.039341,-0.01892659,-0.3303168,0.2572858,-0.0003543416,0.8639199,-0.4886116,0.5073009
0.6003314,-0.04682879,-0.05253129,-0.3568369,0.1696941,-0.03478068,1.006923,-0.3316748,0.368133
0.650216,-0.04472397,-0.02152299,-0.3073301,0.1703309,-0.004584687,1.209147,-0.303736,0.2923307
0.590536,0.06591792,-0.06667044,-0.367368,0.2794561,-0.05053249,1.207282,-0.3979201,0.3496726
0.7232665,0.2507568,-0.1384863,-0.2349593,0.4627245,-0.1231333,0.8359192,-0.5257317,0.4067767
1.007287,0.3536268,-0.276632,0.04878763,0.5639593,-0.2620425,0.02315997,-0.2861685,0.370052
1.097327,0.2046618,-0.4285674,0.1386033,0.4132792,-0.414709,-0.5889291,0.1220892,0.1972279
0.9455572,-0.04442312,-0.3485868,-0.01334533,0.1623869,-0.3354112,-0.9519133,0.5147782,-0.01262805
0.6823567,-0.3677555,-0.2753757,-0.2766832,-0.1628473,-0.2628186,-1.087638,0.9447222,-0.2461947
0.6382248,-0.6633465,-0.2471771,-0.3209072,-0.4604221,-0.2351612,-0.7923291,1.108924,-0.5690151
0.7564687,-0.7197441,-0.1559926,-0.2026998,-0.5188599,-0.144432,-0.4105997,0.9702159,-0.8900957
1.120194,-0.6483232,-0.005302187,0.1610516,-0.4495028,0.00589293,-0.004300751,0.6095015,-0.9180371
1.830028,-0.3133423,0.195866,0.8709663,-0.1165796,0.2067829,-0.01949093,0.3415968,-0.7729665
2.057529,0.2161115,0.08114969,1.098573,0.4108395,0.09186608,-1.141861,0.4772605,-0.5950748
1.777679,0.305532,-0.1351758,0.8188077,0.4982461,-0.1245921,-2.80706,0.6830547,-0.07568629
1.730952,0.06870767,-0.03723788,0.7720975,0.2594144,-0.02672425,-3.798087,0.7208672,0.1712537
1.750779,-0.1170396,-0.0249741,0.7918346,0.07165317,-0.0144698,-3.653655,0.6274311,-0.3118937
1.643407,-0.4605213,-0.09638634,0.6842353,-0.2738506,-0.08583288,-3.012552,0.5031368,-0.5230336
1.47435,-0.6044902,-0.03612283,0.5147863,-0.4198388,-0.02546384,-2.299627,0.5303321,-0.001261871
1.120326,-0.3072529,-0.07085716,0.1601904,-0.1245989,-0.06003798,-1.853826,0.6115969,0.6606301
0.7919977,-0.1186611,-0.1031406,-0.1688929,0.06203311,-0.09210824,-2.146527,0.5908174,0.9884943
0.6827668,0.05514325,-0.1243857,-0.2790468,0.2339205,-0.1130877,-2.500388,0.5419572,1.099374
0.6200536,0.2038229,-0.2233522,-0.3428267,0.3807207,-0.2117348,-2.824414,0.3990774,1.116021
0.6181915,0.037516,-0.2309544,-0.3458706,0.2125605,-0.2189606,-3.374784,0.2511634,0.888067
0.6404811,-0.08452008,-0.2502374,-0.324849,0.08868709,-0.2378046,-3.297695,0.4028343,0.6298274
0.5620651,-0.2391971,-0.2764959,-0.4045916,-0.06781543,-0.2635553,-2.921903,0.5846518,0.4542736
0.5056992,-0.3980485,-0.2183556,-0.4623156,-0.2284766,-0.2048325,-2.625886,0.6118761,0.3417121
0.4713288,-0.3002107,-0.1729286,-0.4980475,-0.1324231,-0.1587436,-2.121293,0.7739466,0.2814071
0.4759522,-0.3023781,-0.06868207,-0.4947605,-0.1363378,-0.05375422,-1.941986,0.9809912,0.05713377
0.5116814,-0.3094028,0.03937257,-0.4603158,-0.1450632,0.05512132,-1.798103,0.9645284,-0.1386709
0.4725061,-0.2427797,0.07187446,-0.5006989,-0.08008619,0.08851468,-1.476286,0.6218384,-0.2256179
0.4916664,-0.3062558,0.123779,-0.4826469,-0.145147,0.1413704,-1.316179,0.1381787,-0.3144031
0.5539007,-0.3024247,0.1863722,-0.4214013,-0.142833,0.2049613,-0.9245458,-0.2224569,-0.3274065
0.6417423,-0.2901174,0.1820913,-0.3344114,-0.1319692,0.2017101,-0.5122928,-0.5899816,-0.3984571
0.8375191,-0.3215579,0.04279036,-0.1393387,-0.1647736,0.06345636,-0.3214318,-0.7625013,-0.3961003
0.9626848,-0.3142069,-0.1738394,-0.01472594,-0.1587011,-0.1521182,-0.1516024,-0.33823,-0.1139156
1.007784,-0.3522707,-0.3785554,0.029967,-0.1979526,-0.3557718,-0.1226866,0.3417805,0.3633148
1.26827,-0.4342239,-0.4663208,0.2901818,-0.2809961,-0.4424588,-0.206154,0.8780008,0.5987184
1.672627,-0.579945,-0.3500932,0.6943843,-0.4277012,-0.3251223,-0.1785793,0.9754723,0.07939527
1.667881,-0.6937286,-0.1395774,0.6895677,-0.5423489,-0.1134544,0.4639389,0.4917123,-0.5244753
1.479038,-0.6888472,0.06970867,0.5006999,-0.5381941,0.0970312,1.32172,-0.009922247,-0.5232223
1.585456,-0.558062,0.1101335,0.6071059,-0.4079796,0.1386978,1.381458,-0.3091583,-0.3644151
1.529717,-0.275895,-0.02025341,0.5513357,-0.1262146,0.009584791,1.211569,-0.4676812,-0.160191
1.434365,-0.02936932,-0.08749994,0.4559072,0.1200796,-0.05636492,1.036372,-0.4166299,0.1007127
1.376153,0.1000219,-0.1630602,0.3975504,0.2493994,-0.1306097,0.2573131,-0.2987467,0.009215337
0.8104534,0.005060081,-0.1387511,-0.1683754,0.1545074,-0.1049672,-0.2126069,-0.147038,-0.172893
0.3121243,-0.2941792,0.01506462,-0.6670093,-0.144539,0.05019943,0.04906099,-0.6217293,-0.04414856
0.2923318,-0.3968654,-0.0445109,-0.6871604,-0.2469188,-0.008010582,0.4520343,-1.527507,0.1572449
0.4755906,-0.4900823,-0.1482821,-0.5042785,-0.3397162,-0.1104059,1.329637,-1.582824,0.4094543
0.7451934,-0.7008355,-0.2111722,-0.2350397,-0.5499302,-0.1719113,2.296021,-1.251463,0.4936339
0.8087013,-0.5770796,-0.3021094,-0.1718629,-0.4255042,-0.2614522,2.659937,-0.7718417,0.03786659
0.6516691,-0.1923634,-0.2088613,-0.3291816,-0.0399768,-0.1667905,2.858132,0.1321932,-0.4211156
0.3838468,0.1917107,-0.08732505,-0.5972331,0.3450473,-0.04381906,2.81254,0.3772354,-0.4473508
0.2404002,0.3534796,-0.01649571,-0.7408315,0.5078859,0.02846733,2.331704,-0.04387947,-0.01637876
0.3762758,0.2909952,-0.03558634,-0.6050035,0.4465603,0.01085127,1.504764,-0.1088055,0.5014863
0.5220989,0.3767871,-0.1799094,-0.4590982,0.5335661,-0.1319846,0.4896551,0.186309,0.4196196
0.7012661,0.2710623,-0.1263626,-0.2797017,0.4290781,-0.07694035,-0.03099219,0.3108939,0.1786534
0.8162865,-0.1418778,-0.0463928,-0.1642969,0.01737094,0.004536192,-0.2010303,0.1358875,0.05155873
0.8727522,-0.2765031,-0.008203556,-0.1072916,-0.1160396,0.04423875,-0.2318089,-0.1898618,-0.4013922
1.177235,-0.3133739,0.1224447,0.1978791,-0.1517158,0.1764006,0.006099132,-0.6451211,-0.6816873
1.603559,-0.3984611,0.04223233,0.6250214,-0.2356237,0.09769312,-0.09098669,-0.865278,-0.4279995
1.928755,-0.3403216,-0.04353623,0.9511332,-0.176313,0.0134115,-0.2375571,-0.3547463,-0.05313341
1.929914,-0.3535974,0.0114038,0.9532584,-0.1884181,0.069814,-0.1984336,0.4303052,0.1227533
1.804987,-0.4118716,0.05776829,0.8292955,-0.2455152,0.1176113,-0.3967999,0.5359573,0.06909457
1.804706,-0.4222057,0.2268388,0.8299268,-0.2546582,0.2880776,-0.3658482,0.07464046,-0.02587892
1.645787,-0.4025096,0.2774275,0.6718283,-0.2337489,0.3400134,-0.1846471,-0.2178679,-0.006801018
1.496811,-0.2928318,0.1281505,0.523548,-0.122829,0.1920206,-0.07512491,-0.1604647,0.1885807
1.281411,-0.2077802,0.007217898,0.3086935,-0.03650297,0.07229769,-0.02311823,0.1647663,0.3649329
0.7806111,-0.1256533,-0.09897532,-0.1917186,0.04692903,-0.03276538,-0.4282033,0.4540096,0.2768465
0.5485278,-0.05740083,-0.1227608,-0.4235658,0.1165114,-0.05549918,-0.8108995,0.5023839,0.1517293
0.5270411,-0.09679589,-0.08588059,-0.4449445,0.07846216,-0.01764165,-0.8552196,0.4361561,0.1967418
0.419007,-0.1212566,-0.04581423,-0.552968,0.05535384,0.02333195,-0.7445699,0.3678226,0.1476011
0.4092798,-0.132099,0.0455036,-0.5627494,0.04586259,0.115489,-0.5263781,0.3344797,-0.06314213
0.4495505,-0.1477923,0.1135582,-0.5225649,0.03151306,0.1843137,-0.3884904,0.2434326,-0.2678388
0.5328286,-0.1196912,0.1102592,-0.4393751,0.06094493,0.1817115,-0.2587338,0.211415,-0.4960027
0.6015194,-0.09874963,0.0568868,-0.3707496,0.08319915,0.1289573,-0.3914921,0.1430905,-0.5354981
0.5598863,-0.09723587,0.01086821,-0.412405,0.0860015,0.08347453,-0.5719362,-0.1029396,-0.3401816
0.4789466,-0.1253491,-0.006711942,-0.4933055,0.05914705,0.06634673,-0.3919563,-0.2389482,-0.1138929
0.4244928,-0.2438112,-0.03892574,-0.5476401,-0.05809043,0.03450265,-0.3073674,-0.3074988,0.2118451
0.5597216,-0.4160392,-0.05810342,-0.4121924,-0.2291279,0.01561444,-0.1530051,-0.2314654,0.335399
0.7732089,-0.4238392,0.0005487644,-0.1983717,-0.2357656,0.07447901,0.1855603,-0.1015079,0.1351685
0.8981488,-0.242917,0.07462202,-0.07297694,-0.05370051,0.1486896,0.3463576,-0.3221883,0.08068983
1.15993,-0.1724351,-0.01994022,0.1893768,0.0179098,0.0541901,0.1943543,-0.4023321,0.3127041
1.550363,-0.3376412,-0.2428163,0.5804859,-0.146181,-0.1686961,-0.06924015,0.01683114,0.4591442
1.644866,-0.5383707,-0.3434143,0.6757396,-0.3458054,-0.2693685,0.2405375,0.2658009,0.1021478
1.52494,-0.5673197,-0.1892715,0.5566023,-0.3736502,-0.115351,0.8182444,-0.2902218,-0.3063285
1.682108,-0.567341,-0.005132764,0.7145604,-0.3725536,0.06862389,1.14978,-0.9440761,-0.2138902
1.837172,-0.6128152,-0.113865,0.8703797,-0.4168811,-0.04030458,1.446971,-0.7700572,-0.0390321
1.75357,-0.4159335,-0.2105499,0.7874579,-0.2188098,-0.1372142,1.567449,-0.5738468,0.03836016
1.742979,-0.143705,-0.1109815,0.7774341,0.05465899,-0.03789306,1.512244,-0.673519,0.1324244
1.587525,-0.0995915,-0.1189058,0.6224021,0.1000617,-0.04608083,1.157201,-0.4622224,0.01844586
1.167023,-0.07787109,-0.07361472,0.2021515,0.1231108,-0.001065119,0.6301142,-0.4826863,-0.1594391
0.8198216,-0.06452806,0.001705156,-0.1449771,0.1378098,0.07396983,0.5261778,-0.7769119,-0.1244678
0.6572004,-0.1705567,-0.07479078,-0.3076938,0.03315302,-0.002820219,0.7575841,-0.9763734,0.04703626
0.5830132,-0.2593406,-0.0924544,-0.3821229,-0.05425197,-0.02078689,1.112759,-1.236898,0.318138
0.6079093,-0.3112253,-0.1510194,-0.3575871,-0.1047547,-0.07966196,1.366943,-1.076182,0.4679177
0.8181283,-0.342796,-0.2262347,-0.14782,-0.1349408,-0.1551899,1.575118,-0.5648813,0.322169
0.9141276,-0.3040543,-0.1727064,-0.05234365,-0.09481006,-0.1019705,1.81814,-0.1127546,0.1452609
0.7507642,-0.2147091,-0.1280477,-0.216287,-0.004070475,-0.05761063,1.836158,0.2290914,-0.04949624
0.5646273,-0.08006408,-0.06213388,-0.4030463,0.1319721,0.008018697,1.980531,0.06480924,-0.1817217
0.4332787,0.06279982,-0.04086245,-0.5350392,0.276229,0.0290211,2.083787,-0.1515889,-0.07386766
0.4750071,0.1736494,-0.06991092,-0.4939508,0.388453,-0.0002816797,1.889992,-0.222136,-0.03473551
0.5817217,0.2511443,-0.06148799,-0.3878457,0.4672848,0.007900657,1.665647,-0.4236241,-0.03657491
0.6055523,0.1828501,-0.1135983,-0.3645716,0.4002681,-0.04443695,1.13921,-0.1377859,0.05405766
0.6184541,-0.0582159,-0.09639887,-0.3521556,0.1604005,-0.02745094,0.6423495,0.2816886,0.0601009
0.5793877,-0.2970041,0.001961572,-0.391622,-0.07727911,0.07071038,0.6012346,0.2694008,0.009493422
0.7255381,-0.3478588,0.03311253,-0.2457726,-0.127115,0.1016748,0.7848911,-0.1436521,-0.333919
1.291859,-0.2580841,0.0480629,0.3203522,-0.03640445,0.116447,0.930346,-0.9510355,-0.8804199
1.881151,-0.2731503,0.01650186,0.9095414,-0.05061015,0.08471074,0.6391612,-1.128004,-0.8839219
1.918847,-0.2742007,-0.07060738,0.9471939,-0.05086947,-0.002575043,0.001894908,-0.4313125,-0.446709
1.793639,-0.2108817,-0.1349081,0.8219521,0.01317599,-0.06705499,-0.5210991,0.3583638,-0.14832
1.916948,-0.3817977,-0.03845413,0.9451923,-0.1570733,0.02921851,-0.5177934,0.7228008,-0.07160901
1.648756,-0.5283958,0.1502097,0.6768532,-0.3030566,0.2177004,-0.1969594,0.09725139,-0.1302359
1.412416,-0.4011172,0.1108479,0.4402558,-0.1752035,0.1781504,-0.1633139,-0.4841347,-0.05019471
1.537679,-0.2542751,0.003889834,0.5651265,-0.02781517,0.07099045,-0.1212647,-0.03863628,0.2736076
1.240712,-0.172534,-0.02827751,0.267619,0.05445002,0.03860266,-0.1588362,0.3879397,0.5025918
0.9834579,-0.1486862,-0.1303695,0.009668921,0.07879988,-0.06372922,-0.5964391,0.5759812,0.4286187
0.8118792,-0.1261265,-0.1542922,-0.1627559,0.101837,-0.08790866,-0.9005302,0.8014559,0.252304
0.4678229,-0.07034863,-0.1312129,-0.5077907,0.1580631,-0.06509784,-0.9772089,0.621794,0.2468107
0.4410434,-0.08163041,-0.1135322,-0.5356525,0.1471948,-0.04769216,-0.900642,0.4447182,0.2251925
0.3382728,-0.1229165,-0.03553876,-0.6395732,0.1062816,0.0300235,-0.7922241,0.4938629,0.06902893
0.2572885,-0.1279349,0.0009829176,-0.7217367,0.1015908,0.06626599,-0.7269342,0.3488399,-0.07427297
0.4022585,-0.09544476,0.06615113,-0.5779362,0.1343599,0.131152,-0.4585744,0.2135655,-0.2943941
0.3923986,-0.06071039,0.1116617,-0.5889202,0.1693209,0.1763734,-0.3343647,0.02203017,-0.3494276
0.4020836,-0.09067444,0.05051823,-0.5802832,0.1395269,0.1149276,-0.3122924,-0.2108007,-0.1288612
0.3289627,-0.1587269,0.005705654,-0.6543482,0.07158438,0.06979472,-0.2346688,-0.1795874,0.07891494
0.2533949,-0.2257729,-0.02255647,-0.7307285,0.004586945,0.04119136,-0.2750358,-0.2785365,0.2269916
0.3793149,-0.3201361,-0.03343884,-0.6054624,-0.08978647,0.02994622,-0.02743048,-0.4666145,0.1865817
0.6227772,-0.3987783,-0.0689853,-0.3624727,-0.1684912,-0.005983772,0.368088,-0.4886235,0.1871439
1.24018,-0.4362073,-0.1983038,0.2546486,-0.2060246,-0.1357039,0.7193014,-0.2596559,0.3161534
1.88626,-0.4949876,-0.3347876,0.9006252,-0.2649384,-0.2726005,1.026292,0.468096,0.1634506
1.91392,-0.508764,-0.3292382,0.928322,-0.278863,-0.2674638,0.95783,0.8459735,0.02579258
1.668837,-0.4513179,-0.1715019,0.683364,-0.221565,-0.1101268,0.9667807,0.1427107,0.06944966
1.752239,-0.4397829,-0.09888757,0.7669296,-0.2101648,-0.03788877,1.258891,-0.5939067,0.03887012
1.89591,-0.4839871,-0.166247,0.9107603,-0.2544793,-0.105597,1.552754,-0.4142227,0.04311451
1.843777,-0.4830484,-0.1907164,0.8587401,-0.2536158,-0.1303845,1.747039,-0.0437752,0.01008686
