accx,accy,accz,body_accx,body_accy,body_accz,body_gyrox,body_gyroy,body_gyroz
1.526028,-0.3871104,0.2544256,0.543416,-0.3424767,0.1184094,-0.3212102,0.2253932,-0.8326653
1.902178,-0.3301101,0.2571878,0.920443,-0.2858939,0.1216248,-0.3527254,0.6795901,-0.5052434
1.87759,-0.139636,0.2484444,0.8967509,-0.09582079,0.1133698,-0.4140171,0.9637497,-0.1279297
1.567913,-0.02729906,0.2950328,0.5879415,0.01614139,0.1604717,-0.4026983,0.6220281,-0.1719776
1.450057,-0.09594871,0.3365836,0.4708878,-0.0528541,0.2025504,-0.1844142,0.1116911,-0.2025482
1.502518,-0.2285665,0.3913056,0.5240579,-0.1857874,0.2578027,0.06714676,0.117062,-0.02032452
1.441875,-0.172008,0.3847649,0.4640101,-0.1295101,0.2517816,0.3754405,0.2279045,0.1670403
1.27753,-0.09217939,0.2928862,0.3001286,-0.04992329,0.1603989,0.539515,0.1086612,0.3293105
1.035803,-0.1159498,0.2580601,0.0587228,-0.07389319,0.1260352,0.4299118,0.07079271,0.3643455
0.8766535,-0.07075475,0.2139122,-0.100247,-0.02885438,0.08230943,0.3507148,-0.06203964,0.3755458
0.7737125,-0.07622272,0.1768981,-0.20314,-0.03443558,0.04567375,0.3202252,-0.1903499,0.4315674
0.7311228,-0.05347252,0.2084916,-0.245797,-0.01175659,0.07760021,0.1819367,-0.1061238,0.3333962
0.762425,0.01141741,0.18626,-0.214658,0.05310201,0.05565518,0.040766,-0.1355813,0.1734158
0.6668368,-0.03995294,0.1673347,-0.3104857,0.001736818,0.03696967,-0.005281263,-0.1867834,0.1046936
0.5713889,-0.0591969,0.1721185,-0.4062289,-0.01746903,0.04194651,-0.06555676,-0.2972432,0.1010787
0.5326794,-0.1067587,0.1513936,-0.4452664,-0.06496186,0.02136888,-0.09247362,-0.5398138,0.1061477
0.5393047,-0.09897037,0.1496062,-0.4389773,-0.05707426,0.01968416,-0.04996302,-0.5640408,0.06280057
0.5801551,0.001590275,0.1372765,-0.3984475,0.04361575,0.00741451,-0.08784361,-0.5458793,0.02377148
0.5450055,-0.03839002,0.1345201,-0.4338804,0.003793019,0.004677786,-0.09129051,-0.69313,0.03619704
0.6013398,-0.06544536,0.1327728,-0.3777727,-0.02307944,0.002912102,-0.06672534,-0.7878121,0.07392055
0.6819409,-0.0727444,0.1033688,-0.2973248,-0.03017234,-0.02654529,-0.1251504,-0.7354605,0.09807327
0.6878246,-0.04962076,0.09884113,-0.2915079,-0.006820505,-0.03115823,-0.1416712,-0.6812249,0.06690489
0.7282493,0.04443652,0.1496527,-0.2510545,0.0874851,0.0195398,-0.1254214,-0.7078883,-0.05954774
0.7638182,-0.02117916,0.2428991,-0.2153544,0.02213424,0.1126464,-0.01168801,-0.6752902,-0.2592391
0.8385014,-0.1101238,0.2501801,-0.1404336,-0.06653267,0.1197604,0.1444183,-0.6175351,-0.3359887
0.9772187,-0.1558272,0.1500276,-0.001372193,-0.1119461,0.01941157,0.1004378,-0.4739509,-0.2212947
1.297025,-0.2176975,0.02123386,0.3188779,-0.1735115,-0.109608,0.0007229442,-0.03084239,-0.07538428
1.640899,-0.224465,-0.08942477,0.6632783,-0.1799539,-0.2205168,0.04553496,0.4726323,0.01267306
1.57311,-0.2546662,-0.05288575,0.5960669,-0.2098033,-0.1842423,0.3597792,0.6528704,-0.09912562
1.474498,-0.1644915,0.02719513,0.4980496,-0.1192434,-0.1044294,0.7926573,0.4262914,-0.4555237
1.625456,0.09540366,0.04192356,0.6495866,0.1410732,-0.08996385,0.6873574,0.1940209,-0.6535145
1.612708,0.247241,0.1183525,0.6373711,0.2933637,-0.01378726,-0.02261585,0.2171402,-0.3802176
1.476438,0.1211045,0.1565572,0.5015576,0.1676997,0.02417813,-0.5186485,0.09073042,-0.0006671344
1.342316,-0.1053227,0.1160102,0.3677922,-0.05824771,-0.01659497,-0.3104083,-0.1840117,0.0550817
1.159902,-0.0936532,0.1228499,0.1856192,-0.04609674,-0.00996856,0.1081744,-0.4121367,0.0714555
1.116345,-0.04964469,0.09970567,0.1421792,-0.001605583,-0.03331297,0.2244308,-0.6445151,0.2811446
1.129221,-0.1188741,0.03860724,0.1550486,-0.0703508,-0.09459738,0.3312839,-0.5300398,0.3579925
1.018865,-0.08596663,0.01310775,0.04456275,-0.03695715,-0.1202658,0.4709388,-0.3221797,0.3153158
0.8705087,-0.05643691,-0.01025984,-0.1040396,-0.006938549,-0.1437808,0.4565073,-0.4167457,0.3304856
0.790237,0.03158064,-0.03020083,-0.1846644,0.0815698,-0.163842,0.4468201,-0.3100439,0.3105986
0.8279138,0.1588321,-0.02547089,-0.1474327,0.2093099,-0.159199,0.2810836,-0.08832506,0.2736898
0.8232416,0.1238172,0.006979031,-0.1526256,0.1747737,-0.126797,0.09436377,-0.004631709,0.2307907
0.7348615,0.08032162,0.02853558,-0.2415868,0.1317374,-0.1052446,0.0226892,0.1232174,0.2193797
0.6796126,0.03058176,-0.01623991,-0.2974606,0.08242971,-0.1499773,-0.2289003,0.1367328,0.300986
0.6358242,-0.01471638,-0.06116241,-0.3418993,0.03753195,-0.1948065,-0.3515019,0.1395396,0.4023258
0.664375,0.004794637,-0.02711496,-0.3140045,0.05740922,-0.1606109,-0.2256008,0.2283371,0.4365558
0.6973443,-0.02288623,0.05942539,-0.2816782,0.03005938,-0.07386342,-0.0201863,0.3883676,0.2917111
0.7182603,-0.02077639,0.1586885,-0.2613762,0.03246453,0.02566648,0.2466273,0.7054568,0.03107998
0.8022567,0.05708659,0.1996152,-0.1779513,0.1105866,0.06691602,0.3005894,0.7385006,-0.1512004
0.7890939,0.1571455,0.1424213,-0.1916333,0.210866,0.0100948,0.1028831,0.5022758,-0.1511208
0.7869697,0.209248,0.1124223,-0.1942164,0.2631444,-0.01948786,-0.198307,0.4592864,-0.008264419
0.9066283,0.1909311,0.1368786,-0.07495063,0.2449501,0.005423795,-0.3787283,0.4963539,0.08947266
0.97634,0.1933297,0.1081957,-0.005562835,0.2474089,-0.02276847,-0.3772388,0.5030978,0.1007578
0.9533774,0.1076015,0.05976399,-0.02878163,0.1616704,-0.07067724,-0.3887473,0.4530109,0.01908132
0.9310973,-0.1325403,0.05352928,-0.05125285,-0.07855604,-0.07635819,-0.3431721,0.378412,-0.2830371
1.094647,-0.3548464,0.1620536,0.1121671,-0.3010166,0.0327497,-0.2418211,0.4338984,-0.7456305
1.412102,-0.4091923,0.31164,0.4295473,-0.3555729,0.1829459,-0.261497,0.5516902,-0.9342663
1.671929,-0.2193341,0.2704296,0.6893341,-0.1659618,0.1423633,-0.5024566,0.6532047,-0.6170464
1.748857,-0.04515826,0.2406529,0.766227,0.007945263,0.1132222,-0.7062533,0.6056194,-0.3933288
1.667087,-0.1987698,0.3902337,0.6843932,-0.145948,0.2634361,-0.5068167,0.4166205,-0.4503922
1.625971,-0.3257059,0.4325033,0.6431477,-0.2731715,0.3063248,-0.121254,0.3192048,-0.1611887
1.489333,-0.1584701,0.3570902,0.5062883,-0.106219,0.2315027,0.1395324,0.2664227,0.2956826
1.18461,-0.05131622,0.3230945,0.2012296,0.0006646,0.198057,0.2054349,0.1833817,0.3706702
1.035225,-0.0496801,0.3273217,0.05138631,0.002046987,0.202783,0.08905301,-0.01027314,0.2946564
0.9734098,-0.02404508,0.3170361,-0.01100794,0.02744476,0.192937,-0.02001501,-0.2952029,0.3679374
0.8848723,-0.02309309,0.2486647,-0.1002363,0.0281747,0.1249392,-0.06065995,-0.3846843,0.447697
0.8565469,0.009008379,0.2405147,-0.1293516,0.06006735,0.1170924,-0.1307731,-0.3934795,0.4836448
0.8024375,-0.05387026,0.2834052,-0.184335,-0.003009155,0.1602132,-0.08875121,-0.4554879,0.5288147
0.7390492,-0.1763975,0.2761529,-0.2486644,-0.125724,0.1531155,0.08273576,-0.4410656,0.3941246
0.7185543,-0.1385733,0.2736336,-0.2701493,-0.08807481,0.1506725,0.108016,-0.4410329,0.1517899
0.6950766,-0.07893964,0.23394,-0.2946464,-0.02859947,0.1109748,-0.01707496,-0.4716763,0.02232786
0.6649643,-0.04153431,0.1715372,-0.3257879,0.008666321,0.04848693,-0.1631935,-0.546748,-0.02511669
0.6356316,-0.01365477,0.1504443,-0.3561402,0.03642487,0.0272299,-0.2007438,-0.6976537,0.04522611
0.6344379,-0.06566881,0.1367708,-0.3583242,-0.01569319,0.01331715,-0.1712291,-0.7072168,0.1158239
0.6590504,-0.08045111,0.1395874,-0.334654,-0.03056378,0.01582427,-0.3128197,-0.5211777,0.09289151
0.6655536,-0.06005348,0.1267758,-0.3290283,-0.01023886,0.002638073,-0.4215014,-0.3808796,0.08107048
0.6612213,-0.06675211,0.1054113,-0.3341583,-0.01699456,-0.01916059,-0.3445619,-0.4272706,0.02314835
0.671519,-0.07922138,0.1099611,-0.3245649,-0.02950532,-0.01509872,-0.2165975,-0.4570442,-0.06423114
0.6966078,-0.09482918,0.1328906,-0.3000752,-0.04513881,0.007294897,-0.1064506,-0.3450013,-0.1481248
0.7293642,-0.06792765,0.1873382,-0.2678026,-0.01824654,0.06116352,-0.1189441,-0.2942452,-0.2207372
0.7395768,-0.04580988,0.2302821,-0.2579508,0.003878595,0.1034881,-0.07502052,-0.3157286,-0.2669541
0.7359991,-0.08647337,0.247482,-0.2617606,-0.03676131,0.1200291,0.07566631,-0.256067,-0.3296311
0.8328804,-0.1272123,0.1901257,-0.1649784,-0.07746047,0.06197365,0.1061543,0.01398856,-0.2628404
1.183978,-0.16487,-0.01140407,0.1861523,-0.1150605,-0.1402938,0.1264474,0.4964978,-0.1373181
1.689518,-0.2363639,-0.1805825,0.6918453,-0.1864751,-0.3102409,0.2757067,0.7085994,-0.1483586
1.883614,-0.2585729,-0.1180267,0.8861829,-0.2085773,-0.2484704,0.5107752,0.4887687,-0.2400257
1.758931,-0.134753,0.03106522,0.7617859,-0.08461665,-0.1001649,0.6472146,0.3601018,-0.5011108
1.745748,0.03035834,0.07916583,0.7488891,0.0806732,-0.05284038,0.4255315,0.306807,-0.684846
1.621419,0.07209589,0.1035168,0.6248058,0.1226242,-0.029249,-0.005564975,0.006579393,-0.2979926
1.262846,-0.01187318,0.1067551,0.2664073,0.03889693,-0.02675059,-0.1508431,-0.3274249,0.2074162
1.122659,-0.0718308,0.1163412,0.1263056,-0.02079689,-0.01788256,0.09516857,-0.5086895,0.2189052
1.128708,-0.01411763,0.1717729,0.1323445,0.0371984,0.0368542,0.2754698,-0.5798713,0.1754443
1.067543,0.01936079,0.08084578,0.07107353,0.07097414,-0.05474439,0.1429599,-0.5937146,0.3698193
1.012522,-0.01432156,-0.005203621,0.01585418,0.03760019,-0.1414403,0.06915702,-0.6088165,0.4319377
0.903916,0.00985306,0.02865522,-0.09303922,0.0620899,-0.1081988,0.2235116,-0.618456,0.4381323
0.8106391,0.07395822,-0.03544852,-0.1866817,0.1265123,-0.1728849,0.2289239,-0.6094401,0.4506045
0.8434872,0.1508028,-0.07060934,-0.1542647,0.20367,-0.2085862,-0.008716877,-0.4400501,0.3180316
0.8998095,0.1931243,-0.01285985,-0.09842529,0.2462915,-0.1513279,-0.3230584,-0.09477097,0.2351741
0.8947928,0.1564874,0.03875836,-0.1039648,0.209931,-0.1001452,-0.5883697,0.1269061,0.2047304
0.8216212,0.1197381,0.07182747,-0.1776887,0.1734239,-0.06745188,-0.6933017,0.1899329,0.2174796
0.7078369,0.0730811,0.02283208,-0.2920432,0.126967,-0.1167619,-0.7633607,0.2164727,0.3044244
0.6624463,0.05144334,-0.008161136,-0.3380072,0.105482,-0.1480068,-0.724597,0.3095296,0.3223503
0.705374,0.1038413,0.05359853,-0.2956387,0.1579815,-0.08643382,-0.5691781,0.5611241,0.2915652
0.707006,0.1246099,0.1319579,-0.2945356,0.1787971,-0.008194919,-0.5379377,0.6665988,0.1522931
0.729015,0.1485296,0.1616562,-0.2730103,0.2027044,0.0214473,-0.5579417,0.5224981,0.0196125
0.8277248,0.2151536,0.1300803,-0.174727,0.2692509,-0.01012441,-0.8382789,0.4282364,0.06522699
0.9030523,0.2334492,0.07722157,-0.09976072,0.2873965,-0.06292293,-1.425702,0.4024918,0.1380295
1.002138,0.1982982,0.001106245,-0.0009677486,0.2520152,-0.138924,-1.745699,0.4640453,0.1878604
1.052347,0.1089512,-0.04382433,0.04901615,0.1623507,-0.1836854,-1.71454,0.6635582,0.1403798
0.9356583,-0.02657131,-0.04142846,-0.06783408,0.02642075,-0.181062,-1.659017,0.8416683,0.01654908
0.797818,-0.1549011,-0.03734818,-0.2057756,-0.1024035,-0.1766917,-1.536477,0.948041,-0.09503018
0.7843509,-0.272903,0.01420686,-0.2192809,-0.2209772,-0.1247806,-1.183608,0.9253211,-0.3180848
0.9598218,-0.3724748,0.09076279,-0.0437807,-0.3211831,-0.04780083,-1.024451,0.6618393,-0.6157877
1.324639,-0.3500814,0.1327229,0.3211331,-0.2994664,-0.005350825,-1.225177,0.2860413,-0.7690973
1.710758,-0.1594871,0.1397033,0.7074012,-0.1095725,0.002181263,-1.381228,0.1639251,-0.6541648
1.83565,-0.01317221,0.1709562,0.8324659,0.03603171,0.03404174,-1.666346,0.413456,-0.563313
1.71141,-0.04679972,0.2893659,0.7083845,0.001689284,0.1531076,-1.921472,0.5431257,-0.6776294
1.620339,-0.06536298,0.3566265,0.6174195,-0.01759076,0.2210626,-1.799047,0.3203301,-0.677639
1.467756,0.03256961,0.2520245,0.4648595,0.07962481,0.1171801,-1.722845,0.1465583,-0.5670988
1.167671,0.08521757,0.1391695,0.1646947,0.1315555,0.005058606,-1.752447,0.1379846,-0.3712809
1.016086,0.05359071,0.1203177,0.01291738,0.09920837,-0.01305249,-1.914586,0.09531031,-0.05424833
0.9705221,0.0332162,0.09735441,-0.03294923,0.0781074,-0.03527086,-2.276351,2.754435e-05,0.03187508
0.8550459,-0.000836947,0.07061937,-0.1488283,0.04331944,-0.06125776,-2.415762,-0.03721497,-0.02025652
0.8036421,-0.05601924,0.06828847,-0.2007223,-0.01260629,-0.06283726,-2.433684,-0.05473598,0.02729362
0.82243,-0.1382761,0.04180196,-0.1824963,-0.09561303,-0.08856817,-2.466896,-0.1223698,0.0160515
0.8451528,-0.23208,0.02375616,-0.1603908,-0.1901677,-0.1058526,-2.293265,-0.06678695,0.0114248
0.8649919,-0.2286351,0.04762669,-0.1412099,-0.1874656,-0.0812126,-2.067574,0.06936737,0.03769524
0.8065789,-0.1898169,0.07858303,-0.2003089,-0.1493718,-0.049477,-1.869646,0.1012405,0.01418784
0.7048283,-0.1557469,0.08939979,-0.3027598,-0.1159985,-0.03787056,-1.739445,0.09548804,0.05387149
0.6377446,-0.1080208,0.06670091,-0.3705422,-0.06893507,-0.05976963,-1.788068,0.03586314,0.1359782
0.6191737,-0.1068359,0.04893633,-0.3897914,-0.0683742,-0.07672449,-1.784418,-0.03319755,0.2241065
0.6443977,-0.09372654,0.08466385,-0.365206,-0.05584767,-0.04017715,-1.684213,-0.01921817,0.277665
0.6550617,-0.08987742,0.1244527,-0.3551227,-0.05253836,0.0004412811,-1.531106,-0.02280725,0.2119151
0.6327755,-0.1330357,0.1291047,-0.3779156,-0.09619194,0.005930869,-1.217659,-0.0607905,0.1436949
0.6263152,-0.160795,0.1701655,-0.3847932,-0.1243999,0.04783427,-0.901961,-0.09527042,0.08328869
0.669369,-0.1846363,0.2364266,-0.3420536,-0.1486397,0.1149385,-0.6059557,-0.09549411,-0.0217085
0.7419448,-0.1692153,0.2486389,-0.2696773,-0.1335628,0.1279881,-0.2908763,-0.07620151,-0.1067828
0.8088355,-0.1128481,0.2458447,-0.2028636,-0.07748171,0.1260176,-0.1220694,-0.0769961,-0.2187841
0.8700026,-0.04991084,0.2548506,-0.1416472,-0.0147708,0.1358258,-0.06079766,0.0328415,-0.3152066
0.9544695,-0.02287789,0.1953515,-0.05700551,0.01209446,0.07710076,-0.0707876,0.4203432,-0.3103604
1.177849,-0.1396802,-0.03997493,0.1666688,-0.1048195,-0.157484,-0.1857833,1.046202,-0.2757642
1.539783,-0.299237,-0.2906458,0.5290042,-0.264432,-0.4074419,-0.1707364,1.394874,-0.2915166
1.740187,-0.378425,-0.2298942,0.7298886,-0.3436145,-0.3459934,0.3011316,1.116553,-0.4853854
1.722269,-0.3841777,-0.09492263,0.7124925,-0.3492901,-0.2103245,0.7496635,0.6172247,-0.8081161
1.713681,-0.1496171,-0.1235015,0.7044297,-0.1145705,-0.2381928,0.1817086,0.1236493,-0.8858227
1.630198,0.2551067,-0.04356588,0.621435,0.2903971,-0.1575243,-0.854921,-0.1957071,-0.5980694
1.500563,0.3479103,-0.007886187,0.4922202,0.3835191,-0.1210833,-1.207768,-0.1869735,-0.2661645
1.460095,0.09760515,-0.06918935,0.4520798,0.1335872,-0.1815927,-1.147893,-0.396382,-0.127893
1.316341,-0.07951032,0.02394274,0.3085415,-0.04311656,-0.08763149,-0.9999845,-0.7312352,-0.13898
1.199199,-0.1172719,-0.01206152,0.1914923,-0.0804357,-0.1227694,-0.7744896,-0.746013,-0.1701555
1.142444,-0.1284793,-0.08795323,0.134701,-0.09117122,-0.197756,-0.642526,-0.8024855,-0.1649942
0.924726,-0.1015471,-0.009840052,-0.08317878,-0.06373717,-0.1186967,-0.4672703,-0.850626,-0.1632543
0.8268162,-0.06228896,-0.03781608,-0.1813684,-0.023947,-0.1456834,-0.4003798,-0.7191783,-0.1377614
0.8393519,-0.01185477,-0.03305888,-0.1692157,0.02704779,-0.1398922,-0.5402119,-0.5854078,-0.02632894
0.8056614,0.03372851,-0.01191749,-0.2033753,0.07321654,-0.117671,-0.7022285,-0.4566783,0.1603628
0.8705843,0.04629353,-0.06620782,-0.1389905,0.08638614,-0.1708352,-0.8898624,-0.3928371,0.3330336
0.9186133,0.04698191,-0.03563317,-0.09155413,0.08769132,-0.139087,-0.9283206,-0.2102736,0.331992
0.9531072,-0.002804066,-0.01991441,-0.05769555,0.03852772,-0.1221465,-0.8116462,0.0522304,0.235456
0.9561386,-0.08764538,0.04071151,-0.05533306,-0.04569046,-0.06025083,-0.5438274,0.1321112,0.1526077
0.8892525,-0.1197732,0.1357014,-0.1229139,-0.07719613,0.03605403,-0.05899153,0.227382,-0.007724782
0.8970441,-0.09588027,0.1240574,-0.1158347,-0.05268106,0.02576436,0.2687123,0.2862687,-0.06881664
0.8520819,-0.07489123,0.08748764,-0.1615174,-0.0310687,-0.009419019,0.3626054,0.2380309,0.03893013
0.8048373,-0.05695111,0.01832738,-0.2094807,-0.01250365,-0.07716696,0.4160265,0.3156397,0.09339892
0.8074836,-0.02563494,-0.01551244,-0.2075402,0.01943828,-0.1095721,0.4025274,0.483038,0.1031679
0.7253994,-0.05053692,0.01614158,-0.2903051,-0.004838745,-0.07646237,0.4449233,0.6273944,0.05114607
0.709549,-0.1013027,0.04010721,-0.3067984,-0.05498187,-0.05102114,0.6201249,0.6905979,-0.0614531
0.7448575,-0.08187075,0.07315244,-0.2720812,-0.03492995,-0.01648261,0.7102258,0.6563452,-0.0929968
0.7520955,-0.00536688,0.06001142,-0.2653703,0.04219131,-0.02811601,0.6021116,0.5886755,-0.06539137
0.7651945,0.0769033,0.009062937,-0.2527233,0.1250742,-0.07754604,0.4079996,0.4708655,0.05875359
0.7498521,0.05410612,-0.04433722,-0.2684333,0.10288,-0.1294189,0.3038203,0.389145,0.2809633
0.7751322,-0.05176403,-0.07289736,-0.2434282,-0.002402557,-0.1564424,0.4451354,0.5185744,0.3428605
0.8172053,-0.114403,-0.02965335,-0.2015307,-0.06447206,-0.1116507,0.7307607,0.7259018,0.1276718
0.8827235,-0.1790553,0.064885,-0.1360842,-0.1285719,-0.01555246,0.9416933,0.7324692,-0.2770526
1.126316,-0.2626425,0.2592229,0.1075408,-0.2116187,0.1803547,0.9525009,0.3708601,-0.744823
1.590173,-0.3287367,0.4417036,0.5715248,-0.2771764,0.3644042,0.6996502,-0.02918341,-0.861096
1.97871,-0.3143782,0.4198848,0.9602576,-0.2622745,0.3441368,0.4074129,0.1531655,-0.348954
1.897752,-0.2431892,0.3345157,0.8795228,-0.1905242,0.2602823,0.2223654,0.3604187,0.1259912
1.669983,-0.2750028,0.2972649,0.6519577,-0.2217494,0.2244922,0.06335531,0.047407,0.07183277
1.602945,-0.2800861,0.2473322,0.5850666,-0.2262097,0.1759534,0.1964498,-0.05202523,0.09832572
1.422492,-0.2300849,0.2325085,0.4046741,-0.1755441,0.1624475,0.5309732,0.01220834,0.3653845
1.229062,-0.2504105,0.2489978,0.2112004,-0.1951582,0.1801712,0.5631441,-0.09073186,0.4657867
1.068588,-0.1921848,0.2363789,0.05056863,-0.1361697,0.1686972,0.5778702,-0.07584519,0.5571074
0.8380917,-0.1127757,0.2158002,-0.1801951,-0.05594459,0.1491684,0.6705802,-0.1123008,0.6412427
0.7040112,-0.05562689,0.1854784,-0.3146425,0.002072417,0.1197974,0.5330706,-0.1630754,0.6166977
0.5964703,0.001754255,0.1699918,-0.422629,0.06036933,0.1051602,0.4988524,-0.1743109,0.6550109
0.5672814,-0.07723091,0.1810605,-0.4523168,-0.01765922,0.1169758,0.504109,-0.2713878,0.6000212
0.6374605,-0.137068,0.1780513,-0.3826635,-0.07650478,0.1146107,0.4786073,-0.3040414,0.4560619
0.6398795,-0.1335551,0.1965355,-0.3807724,-0.07196875,0.1336359,0.6589358,-0.39645,0.3190564
0.7241402,-0.1372157,0.2333571,-0.2970203,-0.07457629,0.1708945,0.6756907,-0.464539,0.1348804
0.8202878,-0.07115213,0.2366016,-0.2013454,-0.007431441,0.1744709,0.5931671,-0.3909465,0.05945325
0.818863,-0.01598766,0.2050844,-0.2031947,0.04883932,0.1431786,0.531769,-0.3914499,0.0002019896
0.823508,0.006709723,0.1793588,-0.1989173,0.07266235,0.1175699,0.3765341,-0.4861956,-0.09136608
0.8161705,-0.04834063,0.218185,-0.2065584,0.01875009,0.1564056,0.3813402,-0.6316235,-0.1621971
0.8604034,-0.1615115,0.2577139,-0.1625584,-0.09327578,0.1958368,0.3602005,-0.6325531,-0.2490315
0.8845771,-0.1642615,0.2184414,-0.1385424,-0.09487582,0.1563588,0.285978,-0.4658823,-0.1226356
0.8056662,-0.1293515,0.1420201,-0.2175321,-0.05881062,0.07962437,0.3442455,-0.3996854,0.04327878
0.7397377,-0.1063761,0.07838989,-0.2834562,-0.03467452,0.01557601,0.4202422,-0.5257468,-0.02938835
0.7016598,-0.0705527,0.09565703,-0.32144,0.002313979,0.03232576,0.5720428,-0.6825214,-0.2030687
0.6538688,-0.04403337,0.1626544,-0.3690385,0.03000007,0.09871306,0.6933633,-0.6011353,-0.4291115
0.6064703,-0.02487481,0.1688244,-0.4161357,0.05032302,0.1041853,0.7396131,-0.5313054,-0.5051221
0.6373204,-0.02572225,0.1653035,-0.3848646,0.05063268,0.09988259,0.7859224,-0.6073789,-0.4003237
0.7158179,0.01801365,0.1900226,-0.3058165,0.095513,0.1237386,0.7195765,-0.4890097,-0.3917853
0.8233364,0.04494493,0.2099303,-0.1976112,0.1235698,0.1427043,0.5467407,-0.2929928,-0.3501875
1.067398,-0.02477622,0.1958423,0.04727314,0.05494876,0.1275971,0.3183358,-0.02912137,-0.184969
1.434571,-0.1504884,0.05951124,0.415396,-0.06969362,-0.009828027,0.2814359,0.4475853,-0.1085672
1.763116,-0.3286525,-0.06750781,0.7449923,-0.2468178,-0.1380098,0.7286109,0.772309,-0.1683607
1.780538,-0.3388365,0.00561457,0.7635298,-0.2559851,-0.06610815,1.160325,0.6293877,-0.3539667
1.691823,-0.0959433,0.09473214,0.6759508,-0.01208919,0.02174206,0.8079121,0.3531223,-0.5007583
1.705023,0.07990534,0.09888129,0.6902642,0.1647521,0.02458567,0.1236323,0.2720331,-0.2926194
1.457263,0.04377139,0.1759296,0.4435612,0.1295967,0.1002955,-0.08665068,-0.01990616,0.02128216
1.144278,-0.05055307,0.2184629,0.1315503,0.03622914,0.14146,0.0581597,-0.4075872,0.05820954
1.037318,-0.07987542,0.1363069,0.02546849,0.007836653,0.05790554,0.3663356,-0.5260664,0.0989112
1.094829,-0.1230611,0.09465997,0.08376023,-0.03444821,0.01483197,0.6224694,-0.5896248,0.211449
1.223314,-0.159296,0.04773616,0.2129294,-0.06981108,-0.03354289,0.7058511,-0.4356449,0.1536557
1.025395,-0.1054233,-0.007724834,0.01559617,-0.01509324,-0.090473,0.7806896,-0.3661991,0.1437528
0.8556574,-0.05249991,-0.01037269,-0.1536515,0.03864961,-0.09459979,0.714154,-0.4364251,0.2084745
0.9420878,0.03745473,-0.06374092,-0.06681988,0.1293968,-0.1494472,0.5705042,-0.2114327,0.2185761
0.9178435,0.09037831,-0.04585864,-0.0907417,0.1830815,-0.1330342,0.4143413,-0.1605146,0.2832262
0.9608424,0.01694662,0.04833888,-0.04748975,0.1103727,-0.04028642,0.3258637,-0.008478882,0.236654
0.9334977,-0.003438916,0.09693214,-0.07464306,0.09066542,0.006883558,0.4275692,0.2903755,0.0902158
0.8140561,-0.007384354,0.121176,-0.1939467,0.08734945,0.02973379,0.3775511,0.1840971,0.06127987
0.7727953,-0.006612716,0.04965741,-0.2351124,0.08869882,-0.04314717,0.2975636,0.158601,0.1189113
0.6326165,0.04600473,0.01818264,-0.375225,0.1418395,-0.07595099,0.2794501,0.1880681,0.2499923
0.591311,0.02894472,0.05790107,-0.4164754,0.125245,-0.03752468,0.2033407,0.1781009,0.3251903
0.594089,-0.01152486,0.04533744,-0.4136335,0.08517982,-0.05133984,0.3449984,0.2414688,0.3215129
0.5798851,-0.04840844,0.06106092,-0.4277438,0.04863749,-0.03682437,0.485861,0.1534308,0.3480578
0.6728856,-0.06824041,0.01712563,-0.3346018,0.02908373,-0.08192153,0.4828596,0.1320439,0.3599417
0.7222567,-0.03254656,-0.03331734,-0.2850255,0.06499408,-0.1334769,0.4389681,0.2254238,0.3904737
0.8271712,-0.02257289,0.02415642,-0.1798316,0.07512381,-0.07706173,0.3481422,0.4583088,0.3244191
0.8973538,-0.0008230022,0.05556952,-0.1092897,0.09696975,-0.0466495,0.3973209,0.7660466,0.1463581
0.843045,0.03583628,0.06775199,-0.1631574,0.1336646,-0.03540815,0.4007991,0.8694359,0.04334336
0.8540942,0.04251418,0.0879225,-0.1515851,0.1403159,-0.01611858,0.2849325,0.8387034,-0.06127492
0.8621183,-0.003568465,0.1059793,-0.1429558,0.09414272,0.001116784,0.2384352,0.6232252,-0.2529062
0.8972652,-0.203853,0.1597588,-0.1071215,-0.1062962,0.05413244,0.2223482,0.2108895,-0.6422296
1.146764,-0.3763756,0.2546973,0.1431435,-0.2790309,0.1483608,0.2209446,0.02834956,-0.9578218
1.664645,-0.2820156,0.3073803,0.6618586,-0.1849278,0.2003799,0.07140573,0.5040857,-0.652777
1.985579,-0.1176454,0.3238426,0.9836652,-0.02084561,0.2162148,-0.1791231,0.9483351,-0.2512378
1.61295,-0.1061079,0.4373331,0.6119055,-0.009618329,0.3291022,-0.2061188,0.5177628,-0.3004801
1.25585,-0.215885,0.480007,0.2556332,-0.1197228,0.3711828,0.06083114,0.06425634,-0.2976817
1.440962,-0.3037886,0.3844324,0.4415057,-0.2079649,0.2750092,0.4402995,0.09841283,-0.06608333
1.446005,-0.1827504,0.3387868,0.4472239,-0.08726751,0.2287448,0.5889536,0.06508143,0.1707612
1.236307,-0.01361953,0.3128637,0.2381001,0.08152732,0.2021724,0.49677,0.02705843,0.2954255
1.195387,-0.07514778,0.2972759,0.1976428,0.01966959,0.1858979,0.419599,-0.0106395,0.2338801
0.9928597,-0.1073188,0.2676954,-0.004539338,-0.01282518,0.1555877,0.35553,-0.1924138,0.2426922
0.8157169,-0.04347358,0.2036942,-0.1814503,0.05070148,0.0908105,0.2757736,-0.2970384,0.3287233
0.7931703,-0.1013113,0.1969727,-0.2038672,-0.007449898,0.08326567,0.2321548,-0.3547097,0.3537239
0.6269513,-0.1240705,0.2033068,-0.3700419,-0.03051796,0.08872987,0.2492082,-0.4034769,0.414093
0.6311544,-0.1202931,0.2034549,-0.3658589,-0.0270435,0.08796265,0.3087162,-0.3532696,0.2954705
0.7093578,-0.09982722,0.204571,-0.287718,-0.006872982,0.0881195,0.3415527,-0.32598,0.06137645
0.6359995,-0.009454083,0.192639,-0.3611607,0.08321285,0.07518549,0.3165108,-0.3935002,-0.05101661
0.6434911,-0.04911178,0.1776818,-0.3537561,0.04327456,0.05918537,0.2648915,-0.5172964,-0.1066739
0.6068362,-0.08708469,0.1457926,-0.3904822,0.005025613,0.02621475,0.2041996,-0.6029538,-0.01478883
0.6106269,-0.06240187,0.1506028,-0.3867285,0.02943572,0.02990849,0.09402887,-0.5581289,0.07660842
0.6947608,-0.09934908,0.1578316,-0.3025806,-0.007781272,0.03598968,-0.05485666,-0.5121251,0.05299803
0.6799324,-0.06895419,0.1300692,-0.3173296,0.0223467,0.007052445,-0.1506759,-0.5586407,0.06556868
0.7488577,-0.04463022,0.1414039,-0.2482486,0.04640636,0.01718922,-0.1959867,-0.5470555,0.04836041
0.8475385,-0.0786413,0.1575314,-0.1493279,0.01213275,0.03209959,-0.2284945,-0.4204754,0.01694073
0.8542009,-0.06641044,0.1660071,-0.1423375,0.02410203,0.03934259,-0.1086975,-0.3014636,-0.03847262
0.8147612,-0.03404249,0.1960979,-0.1813598,0.05620864,0.0681876,0.1205977,-0.2562718,-0.1424907
0.7469052,-0.0009950529,0.2206018,-0.248708,0.08899344,0.0914341,0.1891398,-0.2389736,-0.2075859
0.746216,-0.0293091,0.2333584,-0.248796,0.06041294,0.102922,0.2440325,-0.1558619,-0.2600493
0.8065817,-0.08867202,0.1848575,-0.1877322,0.0007774922,0.05314078,0.4163662,0.02159132,-0.217414
1.05037,-0.1179658,0.02567792,0.05685236,-0.02879525,-0.1073292,0.4391089,0.3007519,-0.04013974
1.515024,-0.2153738,-0.1304378,0.5223904,-0.1264865,-0.2647391,0.3892023,0.5345129,0.1523075
1.788496,-0.309865,-0.07750358,0.7968134,-0.2212597,-0.2130907,0.5764778,0.510247,0.1868911
1.751438,-0.2385231,0.1079472,0.7607319,-0.15019,-0.02890456,1.018821,0.5110169,-0.1843062
1.721844,-0.003345581,0.1867072,0.7320994,0.08473264,0.04862025,1.283832,0.5351285,-0.7113535
1.679296,0.2479403,0.197106,0.6904565,0.335781,0.05781498,0.7336699,0.1640825,-0.7512874
1.438845,0.2751717,0.1861517,0.4508214,0.3627819,0.04568662,-0.1610561,-0.2375119,-0.2578506
1.232451,0.1389958,0.1641566,0.2451296,0.2263673,0.02254612,-0.3606026,-0.3873499,0.2513197
1.188532,0.07713975,0.1581907,0.2017858,0.164251,0.01546274,-0.2199637,-0.5597079,0.4034796
1.142729,-0.004986595,0.07778848,0.1564267,0.08183455,-0.06602863,-0.1748897,-0.6628033,0.328747
1.038534,-0.06603629,0.04371238,0.05254302,0.0204616,-0.1011632,0.08691993,-0.5888158,0.34927
0.8807062,0.04856901,0.08485792,-0.1051007,0.1347099,-0.06104115,0.2313771,-0.5178647,0.3742554
0.8068215,0.141054,0.06558849,-0.1789198,0.2268024,-0.08129482,0.112785,-0.4744982,0.318319
0.8725799,0.18309,0.0738819,-0.1131995,0.2684055,-0.07394265,-0.01564258,-0.3160227,0.3404279
0.9262445,0.2108734,0.08154163,-0.05966259,0.2957071,-0.06717785,-0.2623644,-0.1331743,0.3060467
0.9208151,0.1802418,0.06960305,-0.06529725,0.2645357,-0.07996221,-0.4757973,0.02087877,0.1885267
0.8875211,0.2121562,0.07429928,-0.09886417,0.2958435,-0.07606005,-0.63922,0.1660015,0.1455356
0.8253005,0.2059625,0.009549286,-0.1614152,0.2889682,-0.1415496,-0.9304243,0.09615058,0.1290512
0.7372867,0.1604367,-0.06424656,-0.2498045,0.2426787,-0.2160263,-1.169235,0.04222596,0.1409475
0.7299921,0.1693933,-0.07354946,-0.2575055,0.2507836,-0.2259449,-1.245891,0.1541079,0.1606256
0.7921544,0.09744269,-0.01289021,-0.1957647,0.1778894,-0.1658287,-1.161261,0.2090975,0.1849612
0.8211413,0.04502002,0.05243998,-0.1672008,0.1244299,-0.1009631,-0.9990358,0.3914421,0.2431996
0.8501587,0.07708825,0.04960203,-0.1385971,0.1553693,-0.1041842,-0.950923,0.5487138,0.2734207
0.8400766,0.1463189,0.04612932,-0.1490749,0.2233808,-0.1079579,-1.059309,0.5025289,0.3121459
0.8361831,0.2849885,0.05527053,-0.1533388,0.3607404,-0.09903518,-1.266194,0.5408111,0.3136387
0.8962542,0.3432813,0.05344418,-0.09360618,0.4176274,-0.1009976,-1.556115,0.562262,0.2904146
0.9169646,0.2509635,0.01225365,-0.07319754,0.3238003,-0.1422419,-1.913476,0.4684835,0.3372648
0.886738,0.09459201,-0.04642535,-0.1036862,0.16581,-0.2008915,-2.080307,0.3514837,0.3351025
0.8278539,-0.06225759,-0.04568652,-0.1627897,0.007232143,-0.2000377,-1.870169,0.2640181,0.2696559
0.7906656,-0.204817,-0.06579522,-0.2001502,-0.1371569,-0.2199423,-1.532828,0.266643,0.1688207
0.8561453,-0.3984075,-0.1030547,-0.1347901,-0.3326623,-0.2569046,-1.093579,0.246735,-0.05481308
1.159662,-0.6824542,-0.05891087,0.1686623,-0.6186847,-0.2123659,-0.5841838,0.2805437,-0.4654132
1.554129,-0.8678828,0.003201692,0.5631147,-0.8061157,-0.1497577,-0.4728342,0.4890437,-0.9087722
1.597825,-0.6438852,0.04900739,0.6068236,-0.5841059,-0.103355,-0.6162976,0.6498949,-1.072241
1.670131,-0.1969737,0.09375953,0.6791405,-0.1391318,-0.05790665,-0.8478081,0.6281114,-1.20329
1.999244,0.03219769,0.09715964,1.008227,0.08817303,-0.05371592,-1.628429,0.6722916,-1.395113
1.830843,0.02091794,0.07917156,0.8397241,0.07510181,-0.07082467,-2.345415,0.9261341,-1.093697
1.382094,-0.04471995,0.08779638,0.3907593,0.007744644,-0.0612375,-2.188108,0.9923238,-0.604384
1.183445,-0.03961527,0.1190773,0.1917587,0.01119949,-0.02891679,-2.04289,0.7558876,-0.4879063
1.043216,-0.07499467,0.1480943,0.05103642,-0.02576153,0.001211231,-2.315052,0.5814767,-0.4141109
1.099206,-0.1715392,0.1292197,0.1063945,-0.1238191,-0.01648837,-2.250057,0.539591,-0.1709359
1.105036,-0.1504538,0.09813671,0.111461,-0.1041754,-0.04633945,-2.168651,0.5742444,0.04170386
0.8836303,-0.1696545,0.1216348,-0.1108314,-0.1247424,-0.02155867,-2.235094,0.5641419,0.05600478
0.8108804,-0.2543175,0.1410567,-0.18458,-0.2106914,-0.0008091272,-1.970559,0.4455712,0.01547514
0.7611719,-0.2444218,0.1375645,-0.2353818,-0.2019953,-0.002934779,-1.792212,0.370557,0.04248868
0.7864629,-0.2176527,0.1138685,-0.2112585,-0.1763323,-0.02523163,-1.67257,0.3489238,-0.07231836
0.8103588,-0.1870312,0.06800979,-0.1885849,-0.1467177,-0.06966371,-1.468129,0.3435481,-0.1817451
0.6795931,-0.2149961,0.09226781,-0.320609,-0.175586,-0.04395538,-1.338105,0.1928587,-0.1996243
0.6954872,-0.2647671,0.129664,-0.3059902,-0.2261531,-0.005088452,-0.8934814,-0.1182725,-0.2845889
0.714952,-0.2128226,0.1235881,-0.2877975,-0.1748933,-0.009677356,-0.5180848,-0.2879145,-0.3282496
0.8102836,-0.1554072,0.1612863,-0.193717,-0.1180475,0.02951932,-0.4062246,-0.3051067,-0.4207188
0.964538,-0.09432988,0.1744054,-0.040679,-0.05742416,0.04414283,-0.2272856,-0.2322428,-0.5061441
0.8825547,-0.07566066,0.14946,-0.1238361,-0.03909561,0.02070177,-0.2458231,-0.1776574,-0.4608959
0.8563548,-0.1092755,0.1671637,-0.1511616,-0.07294202,0.03990377,-0.2326075,-0.3229082,-0.4406206
0.8348188,-0.1106769,0.1724704,-0.1737688,-0.07447022,0.04669739,-0.05957268,-0.4781062,-0.368279
0.7418094,-0.1724071,0.1712431,-0.2677872,-0.1362256,0.0469402,0.057179,-0.4913468,-0.2833127
0.7349589,-0.1902671,0.1707113,-0.2755749,-0.154011,0.04785668,0.1767525,-0.5069353,-0.2486517
0.6763724,-0.1109192,0.1266336,-0.3350157,-0.07448954,0.005200737,0.18896,-0.6434464,-0.214057
0.6018006,-0.05071253,0.08669425,-0.4103463,-0.01401275,-0.03334643,0.1813957,-0.8171181,-0.2708503
0.5993707,0.04511332,0.08197809,-0.4134256,0.08217431,-0.03670113,0.203413,-0.8837891,-0.3386712
0.7005011,0.06267668,0.1237848,-0.3128211,0.1001809,0.00643604,0.2029168,-0.8127688,-0.3498494
0.8355976,-0.0490126,0.1811629,-0.1781169,-0.01099377,0.06511264,0.3593853,-0.6459856,-0.2891749
0.897078,-0.113753,0.1848752,-0.1168907,-0.07515643,0.07008863,0.5470154,-0.5090031,-0.2084974
0.9017015,-0.1106153,0.1683485,-0.1123842,-0.07138263,0.05478692,0.5755174,-0.4246841,-0.2404823
0.8796548,-0.08497376,0.1545681,-0.1344139,-0.04504937,0.04218902,0.5943035,-0.2862906,-0.243286
0.9742398,-0.09853983,0.09651668,-0.03968203,-0.05787092,-0.01472465,0.6613436,0.001451388,-0.1332721
1.260432,-0.1675862,-0.04903303,0.2467796,-0.1261226,-0.1591811,0.6545534,0.4355772,0.02855001
1.636539,-0.2793911,-0.1852627,0.6232622,-0.237083,-0.2943569,0.7240733,0.7490909,0.1315681
1.765361,-0.3594315,-0.09833612,0.7525355,-0.3162257,-0.2064055,1.017449,0.7315876,-0.06867253
1.596312,-0.1922463,0.06419371,0.583974,-0.1480834,-0.04286963,1.195983,0.4767687,-0.4253543
1.531751,0.1020266,0.08540288,0.5199008,0.1472087,-0.02066779,0.9645788,0.1781,-0.5183432
1.466974,0.2028585,0.1413218,0.4555807,0.2491149,0.03623105,0.4608681,-0.09095137,-0.3145182
1.362202,0.08316358,0.1694233,0.351211,0.1305351,0.06529745,0.04605203,-0.3070276,-0.08629175
1.351179,-0.03202878,0.1082641,0.3405172,0.01648415,0.00508482,-0.02712488,-0.4066046,-0.005595775
1.221286,0.01156487,0.1424572,0.2108673,0.06123557,0.04020306,0.08594141,-0.5096936,0.06265753
1.160545,-0.03890914,0.07949557,0.1502755,0.01192894,-0.02185715,0.1724923,-0.5546176,0.2012049
1.149779,-0.1770109,-0.01246689,0.1395587,-0.1250004,-0.1129422,0.3920868,-0.4638056,0.2856543
0.9613935,-0.09395365,0.04360701,-0.04887411,-0.0407673,-0.05601287,0.7051553,-0.5089269,0.3713634
0.8274371,0.04879512,-0.01269944,-0.1829704,0.1031598,-0.1114825,0.6800163,-0.5203516,0.4264581
0.7892383,0.1421342,-0.05879975,-0.2213892,0.1976746,-0.1567605,0.466043,-0.3249386,0.3566416
0.8624234,0.1616397,0.01429026,-0.1484887,0.2183433,-0.08285789,0.4282226,-0.09977321,0.2858001
0.9158204,0.04456144,0.03930907,-0.09542647,0.102404,-0.05703192,0.4123333,0.1402972,0.2181072
0.7950352,0.009356228,0.03444144,-0.2165844,0.06830416,-0.06109556,0.3849858,0.1767729,0.2541319
0.735124,0.01130489,0.003229154,-0.2768938,0.07131891,-0.09150556,0.314071,0.09939133,0.4014326
0.6875584,-0.00556604,-0.003716794,-0.324868,0.05547099,-0.09764908,0.1963224,0.1839603,0.3895763
0.6632901,0.02891815,-0.00441162,-0.3495379,0.09093196,-0.09753883,0.2597206,0.2296011,0.2904647
0.712735,-0.02150585,0.0223815,-0.3004704,0.04143561,-0.06993558,0.4124987,0.2718113,0.1845781
0.7334406,-0.04538525,0.1026688,-0.2801022,0.01843275,0.01116811,0.5904448,0.3115911,0.1093378
0.8595898,0.004365155,0.0848101,-0.1542378,0.06900769,-0.005868783,0.7081778,0.3142124,0.1685707
0.9460068,0.0398491,0.06629676,-0.06804541,0.105263,-0.02355709,0.5839071,0.4400432,0.1757074
0.9236296,0.1148628,0.08332318,-0.09058398,0.1809921,-0.005704342,0.453196,0.4870763,0.1535386
0.93278,0.1335454,0.06764351,-0.08153127,0.2003289,-0.02055802,0.3868598,0.5434631,0.1611692
0.8791402,0.104928,0.0845563,-0.1352048,0.1722979,-0.00282113,0.2803149,0.6894262,0.06878175
0.836152,0.0432083,0.1004917,-0.1781614,0.1110912,0.01393476,0.2325447,0.5517186,-0.07581834
0.9455509,-0.137888,0.1767744,-0.0686634,-0.06956816,0.09103165,0.1803609,0.2768413,-0.3548978
1.26819,-0.2890336,0.2958946,0.2541408,-0.2203488,0.2109547,0.04095687,0.1395957,-0.6206249
1.676448,-0.2690867,0.3453924,0.6626189,-0.2000985,0.2612349,-0.1291999,0.2066602,-0.5242433
1.801636,-0.1681554,0.371983,0.7880545,-0.0989128,0.2885752,-0.2680687,0.5311594,-0.2967863
1.608822,-0.1419281,0.3235288,0.5954788,-0.07246927,0.2408249,-0.3249712,0.7062847,-0.1865034
1.469939,-0.1685758,0.246349,0.4567911,-0.09893152,0.1642915,-0.1818673,0.3800311,-0.1414717
1.445759,-0.2079909,0.3263078,0.4327386,-0.1381855,0.2448303,0.1526959,-0.009751985,-0.131565
1.272027,-0.2464327,0.4054784,0.2590466,-0.1764829,0.3245063,0.387,0.007242494,0.0199922
1.117756,-0.1714552,0.3243156,0.1047197,-0.1013695,0.2437645,0.5612595,-0.01117542,0.2849314
1.046073,-0.09119039,0.2805021,0.03287865,-0.02097069,0.2002789,0.6697476,-0.2899477,0.4077941
0.8600098,-0.0960278,0.2810292,-0.1534371,-0.02567255,0.2010345,0.4867665,-0.36796,0.4776864
0.801325,-0.06780385,0.2211259,-0.21246,0.002689577,0.1412566,0.3893552,-0.4514189,0.5543503
0.8078569,-0.04154346,0.2213935,-0.206336,0.02909058,0.1415451,0.3880349,-0.5902193,0.543115
0.7387859,-0.09339116,0.2492118,-0.2758679,-0.02261494,0.1692793,0.3058886,-0.5243443,0.488625
0.7818311,-0.1570468,0.2335058,-0.2333191,-0.08612693,0.153384,0.4678014,-0.5590413,0.3580091
0.7761524,-0.1531269,0.2142174,-0.239513,-0.08205991,0.1338014,0.6258306,-0.5693573,0.1866212
0.7309354,-0.1176066,0.1788659,-0.2852484,-0.04638607,0.09805199,0.6541127,-0.554627,0.06793812
0.7481748,-0.08504838,0.1755241,-0.2685157,-0.01366555,0.09421091,0.7255814,-0.6960605,-0.01839186
0.7267894,-0.06865281,0.189612,-0.2903813,0.002901628,0.1077019,0.7240371,-0.7033367,-0.04927839
0.752038,-0.09263768,0.1646756,-0.2655727,-0.02090283,0.08207426,0.7223837,-0.6821221,-0.05367108
0.7657264,-0.1000487,0.1420467,-0.2522717,-0.0281251,0.05866415,0.6672183,-0.6536456,-0.04428066
0.7452937,-0.09445154,0.1290193,-0.2730284,-0.02233103,0.04477038,0.6092136,-0.6070292,0.003068175
0.7701934,-0.08038644,0.1255396,-0.2483793,-0.008060719,0.04034497,0.6487568,-0.7034624,0.04488931
0.7845159,-0.04846044,0.1281066,-0.2342256,0.02407824,0.04189299,0.6568169,-0.7156586,0.07921124
0.8195714,-0.07402843,0.1174904,-0.1992501,-0.001270378,0.03019059,0.7058032,-0.5917151,0.09015901
0.8316828,-0.137902,0.1051638,-0.1871249,-0.06491922,0.01671653,0.7772893,-0.4560816,0.1119023
0.8225792,-0.1711386,0.08882491,-0.1961177,-0.09792491,-0.0008244472,0.8188269,-0.4369724,0.1525505
0.8398927,-0.1047149,0.09097204,-0.1785936,-0.03126185,7.255926e-05,0.7562923,-0.4373061,0.08077367
0.8087056,0.01356804,0.128857,-0.2094685,0.0872699,0.03666597,0.6472103,-0.3464345,-0.07604917
0.7947956,0.01095924,0.1831398,-0.2229628,0.08491706,0.08962109,0.7913867,-0.4210263,-0.2243674
0.8093539,-0.04290753,0.2372428,-0.2078828,0.03130885,0.1423632,1.005958,-0.4615078,-0.3331954
0.8096169,-0.04429976,0.2342431,-0.2069904,0.03017385,0.1379699,1.09845,-0.3467234,-0.3180654
0.896815,-0.05973284,0.1732131,-0.1190545,0.01499425,0.07551319,1.1086,-0.13843,-0.2083804
1.201435,-0.1156896,0.0276054,0.1864079,-0.04071401,-0.07155255,0.9620233,0.3702551,-0.1102134
1.694763,-0.2216314,-0.2179335,0.6806701,-0.1464114,-0.3185734,0.8478337,0.6706709,-0.0985246
1.923749,-0.26557,-0.2617352,0.910649,-0.1901052,-0.3638658,0.8814409,0.4904688,-0.2054608
1.730101,-0.1600751,-0.06333577,0.7180105,-0.08435867,-0.1669463,0.9054385,0.3948162,-0.3944017
1.56301,-0.06861921,0.03926304,0.5519004,0.007360809,-0.06580076,0.8567241,0.3119369,-0.5341922
1.431112,-0.05352082,0.1081499,0.4209236,0.02273576,0.001668493,0.7602586,-0.01829834,-0.3299938
1.242218,-0.03304245,0.2097539,0.2328657,0.04350162,0.1018934,0.6750374,-0.2067599,0.01976773
1.224517,0.01980621,0.1831072,0.2159027,0.09664516,0.07390525,0.6483513,-0.2609494,0.06579691
1.219256,0.07367844,0.1228576,0.2112739,0.1508145,0.01234907,0.604578,-0.4297712,0.1601555
1.162967,0.04824103,0.09590947,0.1555059,0.1256695,-0.01587191,0.4989873,-0.3616642,0.3550467
1.123637,-0.02097989,0.05527143,0.1165841,0.05672958,-0.057748,0.5639397,-0.2353252,0.2876191
0.9428528,-0.03560048,0.0534564,-0.06390349,0.04237383,-0.06076372,0.6768385,-0.3418608,0.2890027
0.8589324,0.02473714,0.05429175,-0.1476339,0.1029572,-0.06108832,0.4860589,-0.2692637,0.3736107
0.9248438,0.1072893,0.008092351,-0.08162748,0.1857323,-0.1084033,0.2854882,-0.1763686,0.3299073
0.9116554,0.09645932,0.01611081,-0.09480387,0.1750965,-0.1014519,0.2244782,-0.1487059,0.3238786
0.9441474,0.04460203,0.06815265,-0.06237195,0.1233979,-0.05042434,0.2167443,0.06677347,0.2487323
0.9325462,0.04444913,0.08416992,-0.07409585,0.1233624,-0.03536586,0.3274819,0.2109513,0.116133
0.8327568,0.02071266,0.101293,-0.1740615,0.09969822,-0.01914502,0.3581466,0.2340526,0.08632195
0.7704504,0.00364244,0.07379831,-0.2365864,0.08265262,-0.04748529,0.3392236,0.1866643,0.1476781
0.663352,0.01660101,0.02434606,-0.3439314,0.09558658,-0.09772618,0.3494871,0.125203,0.2859766
0.6104314,-0.005159509,0.03139881,-0.3971091,0.07375132,-0.09140355,0.3380026,0.1750533,0.3668055
0.6849939,-0.03570338,0.03118585,-0.3227945,0.04308231,-0.09228582,0.4159601,0.1951714,0.370535
0.820125,-0.07602279,0.03763141,-0.1878849,0.002588467,-0.08644658,0.5060743,0.2440363,0.3700902
0.9542322,-0.08734479,0.04055947,-0.05396143,-0.008954496,-0.08406017,0.5736742,0.335726,0.3608015
1.007965,-0.03525555,0.031307,-0.0003701358,0.04287081,-0.09378835,0.5739988,0.3875585,0.3314053
1.016208,0.02688986,0.06060901,0.007773367,0.1047118,-0.06489516,0.5150316,0.5132811,0.249689
0.9830865,0.09475893,0.08291248,-0.02540746,0.1722358,-0.04293348,0.5027859,0.6290558,0.1699676
0.9319422,0.1080938,0.0984967,-0.0765739,0.1851821,-0.02762508,0.4116502,0.6896074,0.08315013
0.8646996,0.05837737,0.08594535,-0.1438008,0.1350293,-0.04038825,0.388186,0.7530844,0.02489558
0.7665579,-0.005958156,0.07846403,-0.2418858,0.07020647,-0.04801959,0.4773489,0.7224504,0.03280897
0.7975179,-0.163311,0.1727135,-0.2108219,-0.08768415,0.04613924,0.5151737,0.5714583,-0.1639002
1.024067,-0.3558747,0.2567302,0.01588407,-0.2808296,0.1301199,0.5805975,0.3254796,-0.5849995
1.362846,-0.3877813,0.2637328,0.3548721,-0.3133486,0.1371335,0.5095208,0.1693991,-0.7661332
1.65499,-0.2418509,0.2994362,0.6472628,-0.168044,0.1728847,0.3232106,0.3876432,-0.4674372
1.769757,-0.1317479,0.3758061,0.7622853,-0.05856615,0.2493279,0.2406039,0.6148798,-0.1829449
1.676459,-0.1851643,0.3928714,0.669218,-0.1125982,0.2664793,0.2209523,0.4496613,-0.2463136
1.426206,-0.19686,0.372753,0.4191366,-0.1248939,0.246446,0.3530838,0.3025384,-0.1439158
1.236291,-0.07262599,0.3653623,0.2293107,-0.001238758,0.239126,0.5440825,0.2597457,0.1601555
1.124575,-0.004295689,0.3230953,0.1175895,0.06653669,0.1969038,0.5641278,0.1272105,0.2813065
1.026158,-0.02936685,0.3214286,0.0190701,0.0409337,0.1952465,0.4505699,0.06984527,0.3274504
0.9796682,-0.04030777,0.3325578,-0.02761659,0.02948149,0.2063418,0.2677731,-0.06845567,0.319822
0.9072326,-0.01421445,0.269885,-0.100335,0.05508181,0.1435851,0.08082944,-0.2286231,0.3701987
0.8621461,-0.01435203,0.2467278,-0.1457802,0.0544673,0.1202889,-0.0023983,-0.249321,0.5114956
0.7874654,-0.0782809,0.2581563,-0.2208828,-0.009924528,0.1315206,0.1534877,-0.4174479,0.4982269
0.6983095,-0.1396877,0.27688,-0.3105083,-0.07178078,0.1499875,0.4407853,-0.5508849,0.4502336
0.7640757,-0.1361107,0.3016959,-0.2452417,-0.06863798,0.1744844,0.6007166,-0.5282192,0.3286215
0.7735349,-0.06929465,0.2808429,-0.2362951,-0.002237762,0.1532474,0.6637951,-0.5337935,0.1220163
0.7595248,-0.01124157,0.2657662,-0.2508153,0.055419,0.1377194,0.6069463,-0.4811782,0.06435616
0.7934658,-0.01736329,0.2468479,-0.2173683,0.04891928,0.1182809,0.4863174,-0.5117665,0.06304459
0.7529161,-0.02647682,0.2306842,-0.2583836,0.03944349,0.1015282,0.4909473,-0.6068924,0.1046869
0.803988,-0.01228527,0.2408718,-0.2077373,0.05328598,0.1110584,0.4511483,-0.6057901,0.1415936
0.8399089,-0.008269735,0.2160439,-0.1721923,0.05696316,0.08550642,0.3248452,-0.6129508,0.07542955
0.7827074,-0.02317474,0.1919158,-0.2297121,0.04172801,0.06058926,0.1995177,-0.5901212,0.01592034
0.7868171,-0.05155941,0.1978731,-0.2258558,0.01301936,0.06569551,0.113069,-0.6005561,-0.01498585
0.8200631,-0.08256903,0.2162614,-0.1927914,-0.01830894,0.08317415,0.2545331,-0.6365343,-0.01319438
0.8691672,-0.1140602,0.2397067,-0.1437909,-0.05011283,0.1056539,0.4867218,-0.6036284,-0.03353664
0.8550978,-0.1117197,0.2473323,-0.1578825,-0.04807715,0.1122598,0.6360033,-0.6321349,-0.06157379
0.8289862,-0.05788268,0.2409199,-0.1839324,0.005465212,0.1047752,0.7057354,-0.6361816,-0.05588731
0.8582665,-0.01178001,0.2308428,-0.1545043,0.05128429,0.09357435,0.6455937,-0.5657368,-0.1157213
0.8350419,-0.02387038,0.2368155,-0.1774929,0.0389203,0.09837352,0.6475102,-0.5077371,-0.1838588
0.8248009,-0.05096043,0.23152,-0.187408,0.01156478,0.0918565,0.6775707,-0.4245499,-0.1920215
0.8305633,-0.0603078,0.1863656,-0.1812279,0.001958918,0.04543489,0.5724504,-0.2388331,-0.1077325
0.9032662,-0.1141792,0.08654821,-0.1080143,-0.05216403,-0.0556916,0.5249031,0.09294552,0.0584942
1.215014,-0.1818016,-0.09855471,0.2043339,-0.120029,-0.2421377,0.5917494,0.2924196,0.1930081
1.631172,-0.2134557,-0.2172287,0.6211709,-0.1519126,-0.362175,0.7836239,0.2834241,0.2048958
1.814664,-0.2036413,-0.0970435,0.8053901,-0.1423083,-0.2433543,1.060506,0.3032547,-0.0731915
1.674262,-0.0501426,0.1094825,0.6657268,0.01100511,-0.03817679,1.117976,0.2376534,-0.4773081
1.5677,0.1735505,0.1727641,0.5598744,0.2345387,0.02378256,0.8149852,0.03763585,-0.5032299
1.556726,0.2374556,0.1303441,0.5495505,0.2983026,-0.01992977,0.3084148,-0.1619284,-0.1122532
1.36632,0.1294905,0.1048787,0.3597077,0.1902022,-0.0466558,-0.06735885,-0.2702177,0.2585169
1.183259,0.01288361,0.09363697,0.1771063,0.07345449,-0.05912369,-0.08709294,-0.3475116,0.3199883
1.119273,-0.04846411,0.04567772,0.1134671,0.01195397,-0.108271,0.0865437,-0.5268044,0.260557
1.063565,-0.103596,-0.01969522,0.05799349,-0.043344,-0.1747886,0.2283498,-0.5475581,0.3072371
1.017064,-0.1142852,-0.01587693,0.01161684,-0.05421055,-0.1720648,0.3899633,-0.4622987,0.3169799
0.9112061,-0.09229676,0.005806087,-0.09422132,-0.0324075,-0.1514182,0.5199057,-0.5225328,0.259962
0.8656239,-0.04595982,-0.0173409,-0.139878,0.01373898,-0.1755365,0.4311604,-0.4651213,0.2736226
0.900319,0.08047099,-0.013226,-0.1053396,0.139975,-0.1723213,0.2497798,-0.3256638,0.329322
0.8891656,0.1217648,-0.01207097,-0.1167193,0.1810665,-0.1719883,0.04133658,-0.1715042,0.4340673
0.9164721,0.06128353,-0.02018326,-0.08969739,0.1203696,-0.1808392,-0.1395821,0.05230387,0.4980527
0.9043766,0.05716228,0.00249264,-0.1021253,0.1160133,-0.1588138,-0.1194538,0.1433395,0.3820737
0.8380001,0.05942883,0.0312232,-0.1688723,0.118021,-0.1306416,-0.07261822,0.2222935,0.203032
0.81253,0.07095267,0.08565648,-0.1947399,0.1292584,-0.07667249,-0.0263359,0.2937449,0.03279737
0.7767226,0.1093611,0.1112191,-0.2309596,0.1673492,-0.05147994,0.07813902,0.2560536,-0.02455522
0.7778986,0.1150713,0.07518989,-0.2301978,0.1727058,-0.08778721,0.05324835,0.2807982,0.1219118
0.7743376,0.08492867,0.02844502,-0.2341619,0.1421691,-0.1347199,-0.06082122,0.3146771,0.2919584
0.741168,0.03179518,-0.009240842,-0.2677109,0.08859725,-0.1725036,-0.1373984,0.3651182,0.4012579
0.7691786,0.003534305,0.04152337,-0.2400441,0.05985214,-0.1217463,-0.02473148,0.4735004,0.4027462
0.8101402,0.001670134,0.1413778,-0.1993796,0.05745837,-0.02180759,0.203383,0.5004807,0.2841315
0.8592436,0.009957506,0.1469472,-0.1505179,0.06517228,-0.01606568,0.2007593,0.4720638,0.2049532
0.9050946,0.06301542,0.09876332,-0.1048478,0.1176141,-0.06399384,0.01663725,0.4723506,0.1807093
0.9199912,0.1096714,0.07458942,-0.09006811,0.1636112,-0.08783316,-0.2010824,0.5000339,0.1697483
0.9158963,0.05088084,0.0744894,-0.09421521,0.1041172,-0.08752284,-0.3119755,0.5451208,0.1335484
0.8820955,-0.09058802,0.09509597,-0.1280028,-0.03809998,-0.06643254,-0.1972343,0.6233502,0.006443303
0.9644396,-0.2411083,0.1364162,-0.04557966,-0.1894094,-0.02455814,-0.08702902,0.6412345,-0.2706433
1.236099,-0.3668387,0.2004862,0.2262217,-0.3159588,0.04013185,-0.0197168,0.5491611,-0.7064593
1.567258,-0.3465894,0.2145443,0.5575757,-0.296542,0.05486917,0.009724196,0.5065466,-0.8808676
1.747839,-0.208094,0.1641783,0.7383789,-0.1588754,0.005233645,-0.09584369,0.5264485,-0.5676284
1.678951,-0.1630285,0.1659142,0.6697076,-0.1146211,0.007744151,-0.1237248,0.5135647,-0.3414293
1.627345,-0.1844957,0.2198384,0.6182783,-0.1368731,0.06248071,-0.02783312,0.4319632,-0.3899593
1.558044,-0.1829938,0.2632124,0.5490819,-0.1361226,0.1066978,0.08191682,0.3323931,-0.1906933
1.288961,-0.1250533,0.2651064,0.2800092,-0.07889389,0.1094569,0.2050051,0.3145357,0.2590794
1.175828,-0.05252612,0.2413202,0.1667771,-0.007034631,0.08654897,0.2552284,0.258976,0.4453648
1.189699,-0.0961288,0.2553328,0.1804345,-0.05125997,0.1014444,0.1836787,0.1271135,0.3057106
1.081844,-0.1249222,0.2453244,0.07225078,-0.08063017,0.09231549,0.03654793,0.1112989,0.2244007
1.069362,-0.08992485,0.2159633,0.05932868,-0.04616255,0.06382403,-0.1192937,0.1726092,0.3745987
1.03832,-0.1125642,0.2281951,0.02774087,-0.06928334,0.07690952,-0.3380917,0.1586726,0.5426422
0.8116986,-0.1273483,0.2146286,-0.199525,-0.0844995,0.06417583,-0.4773513,0.08812119,0.6028226
0.694055,-0.1467346,0.2130001,-0.3178969,-0.104267,0.0633552,-0.2144132,-0.05271961,0.6019671
0.7228258,-0.1929976,0.2365462,-0.2899185,-0.1508577,0.08767996,0.1374442,-0.2613444,0.4777368
0.6768302,-0.2052029,0.2378735,-0.3367489,-0.1633339,0.08975313,0.2632228,-0.3782958,0.3018652
0.6650849,-0.1375658,0.2593576,-0.3493493,-0.09590671,0.1119458,0.3675818,-0.3945585,0.1358687
0.7327378,0.002292219,0.2794494,-0.2825511,0.0438041,0.1327044,0.4256003,-0.4338735,-0.0245771
0.714994,0.03937006,0.2840457,-0.3011306,0.0807949,0.1379208,0.3823991,-0.523352,-0.04880799
0.6761283,-0.02028968,0.2787809,-0.3407963,0.02110221,0.1332242,0.3578311,-0.6491879,-0.04586678
0.6711282,-0.03764697,0.2648707,-0.3465446,0.003759961,0.1198257,0.347463,-0.7432688,-0.07192734
0.6841552,-0.05919092,0.2650312,-0.3341983,-0.0177254,0.1204375,0.3163712,-0.7767345,-0.09098873
0.7589429,-0.07120786,0.2442732,-0.2600098,-0.02964319,0.1000674,0.3070704,-0.8154619,-0.2118855
0.8157593,-0.03423165,0.2207911,-0.2037004,0.007470352,0.07690773,0.3480164,-0.8725805,-0.2787915
0.8654223,-0.01434438,0.2143733,-0.1544452,0.02753037,0.07074624,0.3602428,-0.861313,-0.2050231
0.9213571,-0.0469856,0.1791659,-0.09881611,-0.004906197,0.03572925,0.3258247,-0.7726292,-0.1118946
0.9103854,-0.07939678,0.1431528,-0.1099908,-0.03708394,-0.0001574689,0.2916194,-0.6834969,-0.0554776
0.9135214,-0.05491834,0.1663841,-0.1069564,-0.0123453,0.02313906,0.3045758,-0.4978743,-0.09970081
0.9116006,-0.0336818,0.2258308,-0.108879,0.009176496,0.08259289,0.4582284,-0.3021754,-0.2421487
0.9522036,-0.1432378,0.07430086,-0.02916729,-0.09174908,-0.0839239,-0.7948771,0.5652766,-0.01437069
1.149788,-0.3871364,0.1564549,0.1688125,-0.3366248,-0.001808757,-0.6284827,0.5686284,-0.2869988
1.443345,-0.4889235,0.2220108,0.4628188,-0.4393832,0.06378558,-0.4344007,0.6427409,-0.6163024
1.601823,-0.2352741,0.2559959,0.6217795,-0.1866803,0.09787924,-0.3272304,0.7253923,-0.6771367
1.626128,0.07921253,0.3072111,0.6465693,0.1268989,0.1492639,-0.5848816,0.7030641,-0.4722595
1.5798,0.08536151,0.3867243,0.6006952,0.1321824,0.2289958,-1.092501,0.5630304,-0.2729614
1.546959,-0.04841497,0.4183475,0.5682472,-0.00242224,0.2608731,-1.269413,0.2190955,-0.2096359
1.524118,-0.1336263,0.3463654,0.5457113,-0.08842748,0.1891655,-0.8983356,0.05461889,-0.06291497
1.43893,-0.1029174,0.3228535,0.460717,-0.05847742,0.1659353,-0.4398636,0.1916315,0.1408127
1.309917,-0.07076592,0.3527831,0.3317695,-0.02704695,0.1961423,-0.3828764,0.1620794,0.09264103
1.151893,-0.1153257,0.337752,0.1736717,-0.0722881,0.1813747,-0.465962,0.07006522,0.02328875
1.009788,-0.07749269,0.2964752,0.03134957,-0.03509534,0.1403385,-0.4426139,0.01549447,0.1722626
0.8485095,-0.0134246,0.2269655,-0.1302815,0.02837452,0.07103939,-0.5398446,-0.1082066,0.3101103
0.6795043,0.004695341,0.2124524,-0.2997626,0.04593713,0.056703,-0.6268865,-0.2104505,0.4189302
0.6561849,-0.01823732,0.2378164,-0.3236603,0.02248521,0.08220788,-0.581707,-0.3555086,0.4853934
0.6643001,-0.08717077,0.2233524,-0.3162019,-0.04693196,0.06784752,-0.4931643,-0.4251977,0.3474686
0.6171149,-0.04907661,0.2347717,-0.3640983,-0.009286992,0.07933182,-0.3580914,-0.3552333,0.1440813
0.6389235,0.02405756,0.2462826,-0.3430318,0.06343176,0.09086783,-0.322574,-0.365386,-0.1081186
0.6300434,0.02887739,0.2343714,-0.3526628,0.06786743,0.0789404,-0.3656779,-0.4838021,-0.3366793
0.6067726,-0.001924351,0.2207573,-0.3766722,0.03670889,0.06526749,-0.3486156,-0.6256723,-0.2996347
0.6446873,-0.1320786,0.1883951,-0.3394642,-0.09377763,0.03280375,-0.3322423,-0.6999679,-0.2427544
0.6257449,-0.1810306,0.1675019,-0.3590633,-0.1430368,0.01176692,-0.3553729,-0.7027487,-0.2639574
0.6537699,-0.07385281,0.143641,-0.3316287,-0.03613722,-0.0122772,-0.4595069,-0.7252557,-0.2304806
0.7278666,-0.02200606,0.09291484,-0.2580423,0.01546271,-0.06322279,-0.6168288,-0.7485299,-0.2389017
0.7393568,-0.04155684,0.06796826,-0.2469711,-0.004303695,-0.08841971,-0.641636,-0.7199998,-0.2289247
0.7655108,-0.06355313,0.107556,-0.2211373,-0.02648589,-0.04910702,-0.5075022,-0.6080685,-0.2284562
0.8012727,-0.05943924,0.191611,-0.1855908,-0.02252921,0.03465372,-0.2869574,-0.4314261,-0.3336735
0.8377426,-0.08246429,0.2668796,-0.1492282,-0.04568314,0.1096111,0.06918312,-0.340534,-0.436453
0.7926332,-0.1215816,0.2583938,-0.1943353,-0.08490063,0.100796,0.3881011,-0.3219653,-0.4290207
0.7615141,-0.1176711,0.1894238,-0.2253411,-0.08106032,0.03147654,0.4218869,-0.1335238,-0.2556587
1.065533,-0.1343765,0.08366718,0.07890178,-0.09780373,-0.07465023,0.2671097,0.2570588,-0.03593595
1.565198,-0.1338099,-0.1612265,0.5788943,-0.09724058,-0.3199299,0.08521963,0.6903967,0.06006494
1.84465,-0.1478925,-0.2765552,0.8587515,-0.1112894,-0.435648,0.06519809,0.8944296,-0.03440373
1.800517,-0.1525997,0.0005793968,0.8150608,-0.1159232,-0.1588888,0.2206503,0.6380663,-0.2996253
1.714733,0.007137788,0.2262315,0.7297118,0.04392917,0.06641504,0.1927051,0.2753531,-0.4834583
1.612131,0.1612537,0.1836327,0.6274968,0.1981988,0.0234987,-0.2232441,0.07971814,-0.2687173
1.403173,0.1484316,0.1752456,0.4188468,0.185561,0.01482246,-0.7013824,-0.1601936,0.1286689
1.349901,0.06837976,0.2086623,0.3657812,0.1057129,0.04797573,-0.6739748,-0.2810145,0.2010649
1.289201,0.04127553,0.1423056,0.3051715,0.07882233,-0.0186212,-0.4821276,-0.300738,0.1644897
1.179331,0.02694963,0.059348,0.1952666,0.06471366,-0.1017967,-0.6194219,-0.4114841,0.26228
1.126698,-0.04839802,0.01493048,0.1424692,-0.0104175,-0.1464079,-0.5272353,-0.3364591,0.2545288
0.8658111,-0.07872528,-0.03944183,-0.1187078,-0.04053082,-0.2009446,-0.3420155,-0.2891279,0.309346
0.7830213,-0.06158848,-0.04092648,-0.2019051,-0.02318234,-0.2025576,-0.4260606,-0.3234627,0.4289558
0.8569582,-0.04908216,-0.04368574,-0.1284771,-0.01046563,-0.2054011,-0.3555282,-0.1332677,0.409215
0.751785,-0.03606767,-0.07657746,-0.2342431,0.002758375,-0.2383253,-0.2548227,0.01157019,0.3401212
0.8535201,-0.02592403,0.03577198,-0.1331679,0.01311035,-0.1259495,-0.1475723,0.2270236,0.1846751
0.8970558,0.001781893,0.1267822,-0.09034384,0.04102245,-0.03484981,-0.03177338,0.4296411,0.08810088
0.7517999,-0.005967011,0.04931219,-0.2363502,0.03347586,-0.1121668,-0.1528176,0.3252214,0.1428213
0.7023068,0.01281104,-0.0126537,-0.2866186,0.05245023,-0.1739163,-0.2165664,0.3500737,0.20737
0.6278437,0.07052655,-0.02277123,-0.361865,0.1103533,-0.1837523,-0.2800217,0.4212349,0.2675108
0.6451042,0.05092262,-0.01899873,-0.3453765,0.09092442,-0.1796298,-0.3598103,0.4303584,0.2384264
0.6695274,-0.01824366,-0.004221018,-0.3216953,0.02191665,-0.1644304,-0.2386837,0.5908478,0.1385773
0.7210428,-0.1106364,0.0620015,-0.2708752,-0.07033573,-0.0977124,-0.03437892,0.7208809,0.01995719
0.9068639,-0.1187431,0.1524036,-0.08568957,-0.07831856,-0.006741366,0.269535,0.777971,-0.077114
0.9175913,0.0001138492,0.1391102,-0.0755312,0.04064926,-0.01939623,0.2931152,0.7041949,-0.04996543
0.8774829,0.1081931,0.07352418,-0.1161397,0.1488272,-0.08427906,-0.05606945,0.6182845,0.01185041
0.8752431,0.1501279,0.02742607,-0.1188094,0.1908447,-0.1296131,-0.2537143,0.6405933,0.05233739
0.8107389,0.07167369,-0.01173666,-0.1836709,0.1124505,-0.1679522,-0.2990411,0.5871579,0.0408456
0.826048,-0.09927229,0.01047597,-0.1686432,-0.058463,-0.1448555,-0.1722083,0.5523752,-0.1586494
0.9868725,-0.2900226,0.1487308,-0.008021231,-0.2492072,-0.00565612,0.02853821,0.4352335,-0.5844259
1.357576,-0.3553299,0.3285321,0.3625559,-0.3145255,0.175146,0.002757398,0.2856948,-0.8927307
1.676266,-0.1123976,0.3763618,0.6811796,-0.07160837,0.2240223,-0.1894853,0.4393088,-0.6318843
1.667726,0.07944431,0.332083,0.6726056,0.1202228,0.1808207,-0.4796639,0.5365737,-0.2298598
1.653068,-0.09426241,0.3979378,0.6579107,-0.05348899,0.2477677,-0.5696459,0.3072325,-0.1892784
1.697831,-0.2095805,0.4654346,0.7025991,-0.1688066,0.3163559,-0.4398401,0.1132731,-0.09718663
1.501146,-0.06845446,0.3644407,0.5057701,-0.0276714,0.2164359,-0.3002673,0.1371407,0.1711235
1.240795,-0.01423549,0.2883897,0.2451837,0.02656891,0.1414271,-0.0578656,0.1638274,0.406171
1.092117,-0.07811143,0.3296519,0.09616618,-0.03727317,0.1836889,-0.09285058,0.0712265,0.5042655
0.911612,-0.08741068,0.3298772,-0.08478475,-0.04652635,0.1848628,-0.2254287,-0.04241391,0.3834957
0.8251782,-0.1002043,0.295265,-0.1717615,-0.05926084,0.1511402,0.02395652,-0.1792634,0.4156894
0.8142399,-0.07207697,0.2792215,-0.183326,-0.03106002,0.1359207,0.11974,-0.2852043,0.5272325
0.7155829,-0.002627543,0.2546252,-0.2826752,0.03847788,0.1120777,0.06696909,-0.3281857,0.4651824
0.6708333,-0.04799334,0.2483444,-0.3281644,-0.006785532,0.1064761,0.1209926,-0.4241331,0.4680863
0.6731081,-0.07778713,0.2634273,-0.3266558,-0.03646448,0.1221619,0.1122981,-0.4738783,0.3099132
0.6435978,-0.0226652,0.2488199,-0.3569382,0.01878398,0.1080789,0.1496059,-0.4649541,0.0480975
0.612297,-0.01565297,0.2081753,-0.3889965,0.02593347,0.06787921,0.06257168,-0.5312024,-0.06550111
0.5894677,-0.02369526,0.1741661,-0.4125486,0.01803725,0.03423528,-0.1103724,-0.5931261,-0.1343301
0.6058062,-0.0412424,0.1666146,-0.3968782,0.0006429869,0.02697143,-0.108632,-0.633829,-0.05140205
0.6422887,-0.09326412,0.1574458,-0.3609909,-0.05122017,0.01801578,-0.126988,-0.6523608,0.006885897
0.6682744,-0.1124465,0.1031599,-0.3355115,-0.07023781,-0.03612751,-0.2551662,-0.6150341,0.04339049
0.6753406,-0.05968756,0.09916481,-0.3288498,-0.01730644,-0.04004535,-0.4263719,-0.628534,0.08961128
0.7244731,0.0005923876,0.1744786,-0.2800091,0.04315439,0.03528597,-0.4039299,-0.6221159,-0.07411268
0.8086605,-0.03786226,0.2326758,-0.1959931,0.004887866,0.09344508,-0.1169278,-0.5253931,-0.2104535
0.8108945,-0.1146252,0.2694694,-0.1938058,-0.07168107,0.1301459,0.163659,-0.4397476,-0.3139027
0.8040261,-0.1352912,0.2607975,-0.2005944,-0.09214661,0.1213256,0.3013537,-0.3167846,-0.3479637
0.9046059,-0.08509045,0.2273911,-0.09980819,-0.0417365,0.08771345,0.1827499,-0.1031226,-0.2372118
1.047739,-0.005068877,0.1905655,0.04365455,0.03850492,0.0506242,0.004469483,0.2081225,-0.2024614
1.148507,-0.04968361,0.1064891,0.1448684,-0.005880151,-0.03377188,-0.09218162,0.5680684,-0.1022032
1.327698,-0.1719066,0.02131612,0.3246045,-0.1278646,-0.1193159,-0.108239,0.8225057,-0.0292058
1.671057,-0.2326346,-0.03622888,0.6685878,-0.1883428,-0.1772747,0.3779357,0.9093698,-0.09470813
1.90151,-0.2468551,0.06857475,0.8997097,-0.2022964,-0.07291692,0.9657338,0.7723644,-0.1804068
1.870961,-0.1484635,0.250627,0.8698302,-0.1036136,0.1086658,0.8173237,0.3669436,-0.3395734
1.651202,0.1016667,0.1831232,0.6506983,0.1468356,0.040672,0.1563709,-0.1071103,-0.3279598
1.334629,0.3490454,0.1445809,0.3346732,0.3945563,0.001619698,-0.4348212,-0.341791,-0.08506683
1.278144,0.285108,0.2864406,0.2786346,0.330969,0.1429497,-0.5332236,-0.4825958,0.2454094
1.375765,0.05189837,0.2724601,0.3765881,0.09810085,0.1284188,-0.3061969,-0.6647038,0.502578
1.280518,0.0379051,0.1693989,0.2815506,0.08442846,0.02478424,-0.2815707,-0.5687786,0.3689087
1.247037,-0.0471767,0.06323188,0.248148,-0.0003580605,-0.08197937,-0.166951,-0.5126249,0.2541925
1.103017,-0.1192661,0.0003125426,0.1040726,-0.07217848,-0.145514,0.1095644,-0.6818003,0.4642246
0.7618642,0.05731926,0.02934723,-0.2372684,0.1046509,-0.1171051,0.03995281,-0.636069,0.5480829
0.7080205,0.08457859,-0.03722008,-0.2914192,0.1321289,-0.1842996,-0.1476958,-0.5687954,0.5719669
0.7462876,0.108044,-0.05970607,-0.2535577,0.1557838,-0.2074042,-0.2944059,-0.4129519,0.6309982
0.77538,0.129121,0.01266941,-0.2249475,0.1770153,-0.1356285,-0.4451049,-0.05354312,0.4683753
0.9154727,0.02941878,0.04649678,-0.08539499,0.07742695,-0.1023732,-0.3506573,0.1612494,0.2397357
0.9290626,0.09114203,0.1162232,-0.07238951,0.1392192,-0.03318543,-0.3446809,0.3458851,0.1023629
0.8496209,0.09499248,0.05324653,-0.1524496,0.1430907,-0.09666434,-0.579327,0.4073145,0.09397744
0.728926,0.1153297,-0.07092422,-0.2737859,0.1633972,-0.2212974,-0.7922034,0.3799307,0.2313441
0.6368203,0.2003212,-0.02991435,-0.3665416,0.2483019,-0.1807041,-0.9385627,0.5031151,0.3429272
0.6490202,0.09610325,0.01485312,-0.3549822,0.1439354,-0.1363004,-0.8248638,0.5742372,0.3759537
0.6773056,0.01393301,0.0450292,-0.327309,0.06155071,-0.1064297,-0.6956923,0.6453607,0.3580112
0.7387433,-0.0881218,0.05351958,-0.2664381,-0.04078436,-0.09818341,-0.7108267,0.7224389,0.3106249
0.7589586,-0.1478615,0.03108789,-0.2467307,-0.1008652,-0.120796,-0.562712,0.8022065,0.204991
0.7740321,-0.03346843,0.08787851,-0.2320956,0.01313324,-0.06412175,-0.4879692,0.9643665,0.05356531
0.8458648,0.03357572,0.1130184,-0.1606234,0.07973591,-0.03903374,-0.598864,1.023474,0.03463859
0.8427809,0.05706942,0.07141928,-0.1639845,0.102744,-0.08062142,-0.722968,0.9505787,0.08009875
0.7535476,-0.01825022,0.03019942,-0.2534076,0.02689537,-0.1217677,-0.7816037,0.711461,0.06826914
0.7115022,-0.2349091,0.02087597,-0.29555,-0.1903331,-0.130955,-0.5965429,0.4944319,-0.0293621
0.9786681,-0.5062883,0.1509984,-0.02838318,-0.4623124,-0.0006334432,-0.2637009,0.527589,-0.3549212
1.487246,-0.6344369,0.3425184,0.4802914,-0.5910717,0.1911456,0.0290233,0.543839,-0.7166531
1.809958,-0.3797337,0.3978597,0.8031769,-0.3369632,0.2467964,0.07302863,0.5001638,-0.7398915
1.844482,-0.0686691,0.341044,0.8379141,-0.02645616,0.1903265,-0.2584563,0.4909739,-0.5846067
1.717527,0.01656335,0.3211238,0.7111705,0.05826547,0.1707741,-0.5584512,0.3640149,-0.5543431
1.52823,0.03530621,0.3312601,0.5220434,0.07654323,0.1812875,-0.4982231,0.1734613,-0.3857798
1.361732,0.05506533,0.3244258,0.3556444,0.09587789,0.1748292,-0.3100356,0.1504278,-0.06303508
1.279936,0.07210977,0.3506772,0.273858,0.1125323,0.2014448,-0.2791947,0.1702891,-0.0389569
1.24974,0.03606641,0.3687372,0.2435727,0.07612677,0.2198475,-0.3847587,0.06252996,-0.1101239
1.157369,-0.03324167,0.3635727,0.1510066,0.00647917,0.214994,-0.5752693,0.02806888,0.005543549
1.032781,-0.03480676,0.3385571,0.02611712,0.004594089,0.1902483,-0.7649007,0.02105737,0.098201
0.9176023,0.006281856,0.2431855,-0.08946658,0.04538071,0.09509778,-0.8649829,-0.05768983,0.1402084
0.7964998,0.02789039,0.1716473,-0.2110663,0.06670331,0.02372772,-1.023081,-0.1051692,0.1785562
0.7146169,-0.02808353,0.1654565,-0.2935233,0.01045689,0.01765198,-1.11791,-0.220772,0.1748082
0.6699611,-0.09421922,0.2017278,-0.3388103,-0.05593954,0.05398696,-1.024544,-0.3141685,0.1243107
0.6648175,-0.0585779,0.2487746,-0.3446207,-0.02054675,0.1010474,-0.9957935,-0.294567,0.03853586
0.6561672,-0.01490944,0.2120082,-0.3539516,0.02288645,0.06424472,-1.038088,-0.3181505,-0.03826788
0.6018076,-0.00118853,0.1751794,-0.4089841,0.03638513,0.02732963,-1.082583,-0.372684,-0.05262711
0.5926966,0.02504568,0.1830615,-0.4187396,0.06240839,0.03507673,-1.234602,-0.4196144,0.006090006
0.6214789,0.03226443,0.1759844,-0.3905528,0.0694247,0.02781803,-1.523626,-0.4005865,0.03690405
0.6731922,0.0830906,0.1915914,-0.3393674,0.1200534,0.04319908,-1.771043,-0.2403578,-0.01764161
0.7586584,0.154361,0.1912825,-0.2543465,0.191126,0.04262168,-1.826904,-0.06900585,-0.1246433
0.7847813,0.1400361,0.1484159,-0.2285756,0.1765961,-0.0005538379,-1.952091,-0.02980246,-0.2570324
0.81337,0.1317453,0.1030199,-0.2002386,0.1680851,-0.04629628,-2.153174,-0.03285565,-0.3439996
0.91516,0.1539579,0.1002035,-0.09859603,0.190055,-0.04949193,-2.12582,0.05265586,-0.3640157
1.013709,0.1311082,0.1740374,-9.013534e-05,0.1669331,0.02393495,-2.115667,0.1565041,-0.4086874
1.096743,0.1126479,0.2229371,0.08300016,0.1481651,0.07240334,-2.244858,0.3003032,-0.5284847
1.076826,0.1046753,0.1767475,0.06323135,0.1398445,0.02575942,-2.244731,0.4967363,-0.6442066
0.9322967,0.08374462,0.09055417,-0.08106942,0.118522,-0.06090998,-2.224495,0.5662374,-0.6876045
0.9179643,0.01441603,-0.03305829,-0.09509749,0.04875568,-0.185016,-2.271691,0.6498703,-0.6208441
1.106372,-0.2184259,-0.2838631,0.09368614,-0.1845682,-0.4363219,-2.408367,0.9289097,-0.392178
1.334076,-0.4371052,-0.4999969,0.3218291,-0.4037647,-0.6529457,-2.463248,1.159948,-0.2177549
1.569987,-0.368023,-0.275617,0.5582272,-0.3352178,-0.4290191,-1.804177,0.9810125,-0.4815107
1.795079,-0.2698474,0.111621,0.7838243,-0.2375758,-0.04217515,-1.046522,0.2759833,-0.9911798
1.803603,-0.2977122,0.1149505,0.7928378,-0.2659557,-0.03916999,-1.375771,-0.3403307,-1.118618
1.619697,-0.148712,0.04050194,0.6093666,-0.1174393,-0.1138725,-2.158202,-0.2896375,-0.8183402
1.526265,0.01481543,0.0971814,0.5162824,0.04564319,-0.05737714,-2.49523,-0.1916345,-0.4402483
1.378034,-0.06484027,0.0701269,0.3682866,-0.03441676,-0.08454652,-2.416536,-0.482412,-0.2046268
1.177749,-0.1135305,0.06746607,0.1681113,-0.08347134,-0.08725361,-2.113731,-0.6858764,-0.2435152
1.089423,-0.08886915,0.05870096,0.07976356,-0.059134,-0.09599693,-1.998509,-0.7881377,-0.2627101
0.8685066,-0.1041531,-0.02108237,-0.1413022,-0.07470015,-0.1756902,-1.927766,-0.8469367,-0.09014586
0.7445666,-0.08203821,-0.03495285,-0.2655083,-0.05282453,-0.1894005,-1.675488,-0.7490387,0.03566816
0.741462,-0.07557661,-0.02000119,-0.2689775,-0.0465585,-0.1742152,-1.600222,-0.7302126,0.1563745
0.7124808,-0.05779026,-0.001438355,-0.2984,-0.02892408,-0.1553421,-1.511104,-0.5167164,0.2223178
0.9195383,0.03044804,-0.007369007,-0.09184081,0.05920458,-0.1608838,-1.449919,-0.07057446,0.1688376
0.9774589,0.06033049,-0.01106772,-0.03446029,0.08901606,-0.1641131,-1.502533,0.1536672,0.09474529
0.9157939,-0.005688897,0.05581343,-0.09669777,0.02295891,-0.09668139,-1.261579,0.2975926,-0.07934609
0.8957753,-0.07657126,0.07536607,-0.1173134,-0.04793254,-0.07649789,-1.016503,0.2255886,-0.1472476
0.6890473,-0.08366719,0.007833286,-0.3246531,-0.05501067,-0.1433217,-0.8823613,0.006488533,-0.05456582
0.6789706,-0.05071543,-0.07962458,-0.335342,-0.02201425,-0.2299938,-0.7323798,0.1110792,-0.06556159
0.7236955,-0.04799204,-0.08416934,-0.2912127,-0.01921949,-0.2336744,-0.5558865,0.2139025,-0.03770919
0.7021208,-0.09337618,-0.04368675,-0.3133499,-0.0645061,-0.1922462,-0.27449,0.3531613,0.05572515
0.8016636,-0.1583627,-0.03896489,-0.2143219,-0.1293685,-0.1864949,-0.056425,0.6949859,0.07404909
0.8186234,-0.1547976,0.09866137,-0.1978181,-0.1256503,-0.04775513,0.3685305,0.7270719,0.09451132
0.8703376,-0.0295373,0.2405889,-0.146493,-0.0002051003,0.09536601,0.666717,0.5071968,0.123558
0.8725872,0.1100795,0.1587644,-0.1445605,0.139628,0.01480635,0.2495165,0.3186935,0.1562022
0.8345587,0.1448146,0.02500064,-0.1828303,0.1746049,-0.1176311,-0.1984595,0.2258499,0.1967503
0.8998619,0.1012425,-0.05624436,-0.1176895,0.1312906,-0.1974937,-0.2153838,0.3476973,0.1775327
0.8906575,-0.05103713,-0.06753433,-0.126975,-0.02072362,-0.2073457,0.03613542,0.4511838,-0.07549926
0.9938501,-0.3808189,0.03755513,-0.02378195,-0.3502349,-0.1007615,0.3443988,0.4930369,-0.6170071
1.28535,-0.5754592,0.1758753,0.2677958,-0.5445907,0.03910901,0.5618212,0.6692673,-1.007577
1.601656,-0.4269583,0.2478617,0.5842445,-0.3957731,0.1126948,0.4798704,0.7442056,-0.9473895
1.757227,-0.255943,0.2461314,0.7399953,-0.2243902,0.112602,-0.1020459,0.6592778,-0.7654521
1.718161,-0.1713238,0.2417554,0.7011123,-0.1393409,0.1098892,-0.5448595,0.6582065,-0.6508986
1.714759,-0.1511253,0.2731566,0.6978594,-0.1186451,0.1429668,-0.2027811,0.6446289,-0.3591113
1.539228,-0.2060638,0.3109538,0.5224104,-0.1730177,0.1824412,0.4707122,0.4737333,-0.01278699
1.252785,-0.1319307,0.371059,0.2359573,-0.09824962,0.2442112,0.6873945,0.2933667,0.008133542
1.276682,-0.07604188,0.4251422,0.2597371,-0.04165706,0.299932,0.5478915,0.2418285,-0.05996564
1.309493,-0.1144153,0.377832,0.2923184,-0.07926057,0.2542166,0.428213,0.2540763,0.06729543
1.113725,-0.0483144,0.297991,0.09620361,-0.01232755,0.1759125,0.1553623,0.2166878,0.1892124
0.9089801,-0.03734524,0.2652508,-0.1090049,-0.0004687347,0.1446404,-0.1492356,0.09836714,0.3447072
0.6880766,-0.0479843,0.2210808,-0.3304776,-0.01016641,0.101862,-0.3050158,-0.1458911,0.5963473
0.5045553,-0.0489907,0.1898031,-0.5146536,-0.01018567,0.07189482,-0.2887947,-0.4110817,0.6177611
0.5141141,-0.1262121,0.2078403,-0.5058066,-0.08637927,0.09115895,-0.06013475,-0.4407501,0.3870327
0.5645945,-0.05660918,0.2202296,-0.4560644,-0.0157116,0.1046897,0.1645187,-0.3316126,0.08151717
0.5511201,0.007333698,0.2102187,-0.4702743,0.04932909,0.09573314,0.2345185,-0.3355225,-0.2269573
0.4918794,-0.06459252,0.1880196,-0.5302214,-0.0214716,0.0744996,0.1433097,-0.5372715,-0.3398748
0.3866795,-0.08810589,0.1483885,-0.6360725,-0.04383699,0.03574499,0.1542665,-0.8315518,-0.3252817
0.3855072,-0.1062577,0.1334475,-0.6378131,-0.06082176,0.02159248,0.2551659,-0.9286473,-0.3156446
0.475377,-0.05242804,0.1509029,-0.5484016,-0.005808499,0.03975093,0.2091534,-0.9553579,-0.2697447
0.5746706,0.04963738,0.1500598,-0.4494332,0.09745372,0.0395278,0.1284812,-1.069458,-0.2846783
0.7501699,0.01998486,0.1695067,-0.2741094,0.06900507,0.0595141,0.007416313,-1.050193,-0.2940753
0.8937894,-0.1140034,0.2040313,-0.1305078,-0.0637788,0.094499,0.1170179,-1.077911,-0.2436011
0.9471467,-0.2823077,0.184038,-0.07701099,-0.2308808,0.07488763,0.3924133,-1.140089,-0.1576028
1.015724,-0.3363097,0.1389643,-0.008142452,-0.2836787,0.03011844,0.4289667,-0.8009006,-0.001928799
1.033781,-0.2431005,0.09667129,0.01034766,-0.1892553,-0.01194542,0.4918234,-0.3556772,0.01137967
0.8954907,-0.156974,0.08228606,-0.127378,-0.1018973,-0.02617262,0.5329275,-0.2580948,-0.1424572
0.7944987,-0.1097598,0.07315034,-0.2276805,-0.05343108,-0.03521593,0.5432363,-0.149254,-0.2949162
1.026697,-0.1520826,-0.04534429,0.005327229,-0.09448156,-0.153677,0.7327148,0.1985849,-0.3663511
1.562393,-0.2623177,-0.1815768,0.5419449,-0.2034241,-0.2899249,0.9624962,0.390787,-0.2059642
1.975122,-0.2318889,-0.1421019,0.9556796,-0.1716802,-0.2505003,1.26046,0.4772239,-0.06422917
1.867747,-0.02959744,-0.01304891,0.8493528,0.03195119,-0.1215178,1.248008,0.5430563,-0.2507142
1.605513,0.2125247,0.09552805,0.5881595,0.2754349,-0.01302041,0.5643567,0.2271336,-0.3597884
1.503513,0.2742714,0.1978106,0.4871551,0.3385526,0.08917782,-0.2033319,-0.1324707,-0.09948688
1.255051,0.07257702,0.2045677,0.2396154,0.1382211,0.09584519,-0.295714,-0.2810894,0.1804172
1.206025,-0.04490247,0.1582591,0.1914227,0.02208209,0.04943825,0.09793754,-0.4709284,0.2666079
1.351802,0.0001898298,0.131317,0.3379332,0.06848474,0.02238647,0.2414183,-0.5270169,0.286045
1.131111,-0.02715015,0.03992347,0.1178699,0.04242064,-0.06912832,0.3330718,-0.5560124,0.2977589
0.9426647,-0.0500113,7.390556e-05,-0.07005869,0.0207975,-0.1091084,0.4558769,-0.6665464,0.3076406
0.7976173,-0.01198325,0.01573212,-0.2146935,0.06002298,-0.09358499,0.3225571,-0.6602637,0.3681141
0.6635245,0.03667431,-0.04040453,-0.3484651,0.1098345,-0.1498547,0.3203848,-0.6126922,0.4499261
0.8727517,0.08077367,-0.04163695,-0.1389903,0.15504,-0.1512119,0.2768482,-0.4391686,0.4683851
0.9405258,0.08337662,0.02882601,-0.0710262,0.1586951,-0.08085856,0.1710143,-0.1050581,0.4145308
0.9165714,0.04571636,0.08572821,-0.09483757,0.1220265,-0.02404616,0.3418788,0.194139,0.3284729
0.8937888,-0.01634104,0.07148129,-0.1175163,0.06089508,-0.03836095,0.4275212,0.2760101,0.2726692
0.6781689,-0.02973607,-0.01672194,-0.3330623,0.04835776,-0.126609,0.4724516,0.1862677,0.2976786
0.6541677,-0.01203823,-0.06826082,-0.3570056,0.06684431,-0.1781667,0.4899848,0.2131737,0.3480443
0.6366526,-0.02207819,-0.07676452,-0.3744617,0.0575239,-0.1866576,0.4492557,0.3259245,0.3497705
0.5934914,-0.01920907,0.01112456,-0.4175438,0.06104335,-0.09871811,0.6401709,0.4752326,0.3183536
0.6910628,-0.0226294,0.1201816,-0.3198552,0.05820428,0.01043087,0.8334186,0.5910713,0.2831462
0.7241027,-0.03925815,0.09498612,-0.2866445,0.0420882,-0.01463157,0.9595301,0.500409,0.2777446
0.8540608,-0.04499423,0.09607839,-0.1564511,0.03679719,-0.01336758,1.011533,0.4460279,0.3083583
0.9299022,-0.01457482,0.09804265,-0.08030395,0.06759543,-0.01119569,0.95117,0.5024942,0.3175766
0.915794,0.02885069,0.01867389,-0.0940348,0.1113343,-0.09032293,0.926388,0.4940712,0.3000705
0.933313,0.001359498,-0.00391937,-0.07606829,0.08409063,-0.1126411,0.8478529,0.4951129,0.2101093
0.7938346,-0.05312167,-0.02424402,-0.2150302,0.02979085,-0.1326555,0.8873654,0.5352076,0.0008710656
0.7952793,-0.1123278,-0.01382283,-0.2129987,-0.02929849,-0.1218861,1.027932,0.549487,-0.2840714
0.9891279,-0.2131043,0.1556772,-0.01849096,-0.130018,0.04800169,1.020786,0.5490199,-0.6886396
1.282255,-0.2654942,0.3208018,0.2753644,-0.1824026,0.2135506,0.9124509,0.5501958,-0.9279616
1.709987,-0.1746967,0.3451525,0.7038797,-0.09164097,0.2383525,0.6539973,0.5483682,-0.5972435
1.807605,-0.01285676,0.386456,0.8023052,0.0701309,0.28012,0.3758526,0.494463,-0.1955411
1.678286,0.02954402,0.514333,0.6737779,0.1124347,0.4084576,0.1322297,0.2818618,-0.1791907
1.614094,-0.04720117,0.5407671,0.6103246,0.03556275,0.4353302,-0.02497053,0.02513304,-0.0231309
1.362139,-0.06954995,0.4341772,0.3590247,0.01305664,0.329137,0.1490073,-0.06880316,0.3792002
1.1529,-0.01168403,0.3424833,0.150337,0.07073513,0.2377807,0.2739913,-0.1675845,0.4899052
1.16818,0.03133569,0.3279242,0.1660569,0.1135375,0.2234885,0.1584868,-0.3085891,0.3687435
1.083284,0.003698038,0.3348997,0.08148522,0.08565103,0.2306518,0.08426913,-0.3026251,0.3779152
0.9112841,-0.02089693,0.2657714,-0.09030156,0.06077413,0.1616263,-0.1159389,-0.3509634,0.477852
0.8094672,-0.005395536,0.2103341,-0.1920099,0.07595958,0.1062029,-0.402809,-0.454469,0.502298
0.7237405,-0.02715324,0.2099565,-0.2777183,0.0538517,0.1057493,-0.4324295,-0.4059083,0.4248148
0.6968753,-0.05049491,0.1712493,-0.3046372,0.03012596,0.06687737,-0.3064661,-0.3523065,0.2523048
0.730821,-0.05050867,0.1716746,-0.2707977,0.02969545,0.0670517,-0.24756,-0.2652961,0.04166172
0.6741396,-0.05650175,0.1630592,-0.3276186,0.02325481,0.05810232,-0.2623042,-0.2208052,-0.05386412
0.5780175,-0.05226353,0.08945507,-0.4238945,0.02701671,-0.01591449,-0.3517711,-0.3565045,-0.01024124
0.5301924,-0.06981061,0.06578494,-0.4718667,0.008966732,-0.04007024,-0.5111843,-0.4060815,0.07411282
0.5254028,-0.09048156,0.07048527,-0.4767744,-0.01223116,-0.03592089,-0.6262293,-0.3954052,0.1206178
0.5719623,-0.0900284,0.08612325,-0.430282,-0.01232583,-0.02089127,-0.6591719,-0.4140185,0.0744528
0.5856228,-0.09335745,0.1048593,-0.4166176,-0.01622005,-0.002813802,-0.7044682,-0.4238039,0.004202752
0.6343576,-0.09346037,0.1335809,-0.3677914,-0.01690195,0.02520514,-0.7361189,-0.4519242,-0.01292673
0.7519439,-0.12007,0.1973133,-0.2500132,-0.04410079,0.08819481,-0.6503333,-0.3775437,-0.06327597
0.7922695,-0.1650854,0.2186708,-0.209387,-0.08971131,0.1087717,-0.4363306,-0.2945598,-0.1989617
0.7998036,-0.1809005,0.2096687,-0.2014397,-0.1061222,0.09895143,-0.1532398,-0.2444793,-0.2989231
0.8305444,-0.1629505,0.1655371,-0.1701718,-0.08876204,0.05396414,-0.007355637,-0.06141153,-0.2928164
0.9741687,-0.1531509,0.05882939,-0.02590753,-0.07954059,-0.05363515,-0.01930476,0.314723,-0.2324239
1.286295,-0.2155717,-0.04439773,0.286965,-0.142522,-0.1577842,0.07376529,0.6908563,-0.1836204
1.573439,-0.2880611,-0.07013174,0.5749435,-0.2155482,-0.184461,0.2438728,0.6563776,-0.2005901
1.756746,-0.2518159,0.05000791,0.7591445,-0.1798074,-0.06527328,0.5866921,0.4885947,-0.2971392
1.871447,-0.07951316,0.1578625,0.8747571,-0.00796912,0.04162892,1.130638,0.4535792,-0.4923173
1.854674,0.09853372,0.1199471,0.8588709,0.1696555,0.002765007,1.139384,0.0661407,-0.5940136
1.574879,0.1172105,0.1329706,0.5798932,0.1879472,0.0148457,0.5091479,-0.4264438,-0.2940835
1.266945,0.1163977,0.2273901,0.2726748,0.1867767,0.1083288,-0.03162394,-0.5918107,0.188429
1.354623,0.1596168,0.2167507,0.3609483,0.2296549,0.09675874,-0.2013634,-0.7384877,0.4089023
1.440945,0.07126198,0.1156134,0.4477339,0.1409651,-0.005305615,-0.1165138,-0.7731177,0.3701531
1.217144,-0.007809782,0.03546883,0.2242539,0.06155628,-0.08637321,-0.1487051,-0.6188098,0.2757886
1.126756,0.01508449,0.01378454,0.1340372,0.08410646,-0.1089724,-0.2943741,-0.6219638,0.2372705
1.053094,0.04936085,0.03628401,0.06039745,0.1180286,-0.08737335,-0.2530793,-0.5896738,0.3408588
0.8553348,0.1244903,0.02023857,-0.1374824,0.19279,-0.1042984,-0.3613528,-0.3780608,0.4663846
0.8643378,0.114601,0.001829387,-0.1287305,0.182513,-0.1235601,-0.6342435,-0.1576761,0.4196679
0.8509603,0.08103837,0.04598128,-0.1424737,0.1485365,-0.08022798,-0.7529547,0.1039456,0.335085
0.6730005,0.1521028,0.0545932,-0.3208966,0.2191549,-0.07239802,-0.9065456,0.2449127,0.2788101
0.624996,0.1674705,0.03423111,-0.3694407,0.2340382,-0.09350053,-1.145926,0.2579518,0.1618911
0.6089819,0.2053683,-0.01808871,-0.3860473,0.2714058,-0.1465155,-1.424693,0.2452724,0.1408527
0.4969532,0.2781756,-0.1370316,-0.498696,0.3436284,-0.2661029,-1.712136,0.1369812,0.253858
0.4637607,0.2579442,-0.1876811,-0.5325094,0.322748,-0.3173376,-1.888029,0.1327493,0.3579818
0.5316464,0.2388741,-0.152399,-0.4652182,0.3029543,-0.2825698,-1.954468,0.2010877,0.3879379
0.6144074,0.2071076,-0.1141414,-0.3830007,0.2703812,-0.2447446,-1.868154,0.2290293,0.2966258
0.7706413,0.1409834,-0.08182699,-0.22724,0.2033607,-0.2127719,-1.742492,0.2374221,0.1817511
0.9163291,0.1036282,-0.0559945,-0.08194375,0.1650168,-0.1871841,-1.663063,0.1306593,0.1019191
0.970139,0.1099377,-0.05573583,-0.02843999,0.1702442,-0.1870689,-1.560496,0.05466952,-0.00312836
1.054504,0.1214316,-0.07341768,0.05570201,0.1805636,-0.20479,-1.524433,0.01191555,-0.08915217
1.043077,0.08635669,-0.0866972,0.04413073,0.1442229,-0.218002,-1.446228,-0.05164687,-0.1450909
0.9229755,0.01911857,-0.1510987,-0.07604524,0.0756299,-0.2822257,-1.231743,-0.1459537,-0.223917
0.9728847,-0.1647477,-0.2273479,-0.0261433,-0.1096749,-0.3581823,-1.10196,-0.1925641,-0.4923396
1.302806,-0.420673,-0.2088524,0.3038324,-0.3671102,-0.3392722,-1.111833,0.3128106,-0.9748328
1.748385,-0.5042191,-0.1023546,0.7495123,-0.4522168,-0.2322311,-1.039573,0.9200935,-1.184611
1.810722,-0.4013812,0.002079615,0.8119693,-0.3509632,-0.1271217,-0.949626,0.7992625,-0.9467181
1.648689,-0.2049221,-0.01679233,0.6500356,-0.1560872,-0.1451878,-1.302267,0.5633304,-0.7862392
1.817477,0.01976242,-0.06633956,0.8188655,0.06703211,-0.1938021,-1.750358,0.6913922,-0.8006251
1.878719,0.08817851,-0.04523437,0.8800569,0.1339068,-0.1716403,-1.647391,0.7987593,-0.5433029
1.654722,-0.01634217,-0.03472851,0.6558823,0.02786809,-0.1599569,-1.585237,0.8893808,-0.1915893
1.477778,-0.06412151,0.005775536,0.4786061,-0.02140694,-0.1181581,-1.746134,0.8750318,-0.1686148
1.285826,-0.1100078,0.05944966,0.2861488,-0.06876465,-0.06307705,-1.551234,0.6790302,-0.1551485
1.154546,-0.207515,0.05705635,0.1541839,-0.167714,-0.06395835,-1.336074,0.6825724,0.04930544
0.9944777,-0.1756872,0.04891834,-0.006743786,-0.1372918,-0.07048733,-1.159811,0.6073003,0.1288497
0.7888536,-0.1479551,0.03601534,-0.2133913,-0.1109205,-0.08169223,-0.81761,0.3353894,0.1250654
0.741998,-0.1390328,0.03534753,-0.2614144,-0.1033071,-0.08058009,-0.729544,0.2396508,0.1836015
0.6935346,-0.04874658,0.03953261,-0.3111644,-0.01427278,-0.07453994,-0.6276913,0.1458228,0.1914367
0.6804522,-0.003117044,0.03798908,-0.3256259,0.0301637,-0.07415984,-0.3599575,0.1453604,0.1645153
0.6805307,0.04827219,0.08403718,-0.3269924,0.08041765,-0.0261262,-0.3165342,0.1482451,0.105534
0.5781114,0.0509082,0.1181062,-0.4308962,0.08197246,0.009982688,-0.2644564,-0.06637519,0.004607728
0.5447187,0.01504667,0.1026727,-0.4657865,0.04507923,-0.003365385,-0.1697869,-0.235369,-0.03296877
0.5375715,0.0482994,0.08639635,-0.4744165,0.07734552,-0.01751947,-0.05833088,-0.4346676,-0.1012117
0.5488882,0.01599012,0.06504814,-0.4645412,0.04409128,-0.03671663,0.1389667,-0.4862805,-0.1905261
0.5990939,0.002620262,0.03044446,-0.4157104,0.0298147,-0.06914688,0.1352784,-0.3922428,-0.117934
0.6325248,0.02064834,0.01432805,-0.3835666,0.04697174,-0.08307237,0.2001569,-0.4526968,-0.05863639
0.673169,-0.01918576,0.03906462,-0.3441037,0.006300295,-0.05613111,0.4657952,-0.4876457,-0.1510041
0.6646861,-0.04562901,0.08871627,-0.3536476,-0.02094787,-0.004264853,0.5770309,-0.6472126,-0.2220139
0.7272223,-0.09341779,0.1432087,-0.29204,-0.06950884,0.05244663,0.6181054,-0.8240199,-0.2543738
0.8430786,-0.08511983,0.1481805,-0.1769711,-0.06194851,0.05963466,0.6262681,-0.7768145,-0.303148
0.8346099,-0.02569248,0.1395866,-0.1860817,-0.003222007,0.05324573,0.606043,-0.7958224,-0.3500873
0.8267162,-0.02440475,0.1975884,-0.1944702,-0.002597386,0.1134329,0.6581357,-0.8389115,-0.4271983
0.8568439,-0.05396881,0.2200989,-0.1646903,-0.032787,0.1380999,0.6641732,-0.7227808,-0.4392789
0.8921974,-0.1225528,0.1901257,-0.1295379,-0.1019587,0.1102449,0.6404124,-0.3774749,-0.2621173
1.086056,-0.1594894,0.08548983,0.06426259,-0.1394426,0.007679944,0.6265798,0.08066662,-0.0215055
1.544745,-0.1816974,-0.1688718,0.5230249,-0.1621533,-0.2446616,0.6237721,0.3675346,0.08371675
1.931067,-0.2285766,-0.2742442,0.9095258,-0.2094843,-0.3480606,0.7640423,0.5540335,0.01890391
1.861696,-0.2088726,-0.09248852,0.8403974,-0.1901745,-0.1643677,0.9622036,0.749612,-0.1385514
1.7031,-0.1499423,0.0521609,0.6820611,-0.1315743,-0.01780821,1.006012,0.6558123,-0.310537
1.573206,-0.03683357,0.1008867,0.5524027,-0.01872748,0.03280271,0.9370138,0.1174242,-0.3073615
1.256801,0.03974257,0.2152085,0.2361789,0.05765433,0.1489811,0.9234429,-0.3685545,-0.043491
1.234595,-0.01779132,0.2344817,0.214083,-1.054598e-05,0.1700749,0.9826407,-0.5278323,0.2730121
1.351376,-0.02372385,0.09704612,0.3308934,-0.006015914,0.03441502,1.080365,-0.6566202,0.5357079
1.152363,-0.003725922,0.05864156,0.1318218,0.01396296,-0.002265337,1.182877,-0.754731,0.6376273
1.020862,-0.02825094,0.03323823,0.0001705014,-0.01053126,-0.02599847,1.108345,-0.6861582,0.5650335
0.8337828,0.02103406,-0.03374214,-0.187147,0.03883039,-0.09136239,0.9430632,-0.6700181,0.5845931
0.6582318,0.08919321,0.009854084,-0.3630127,0.1071072,-0.04620139,0.9005462,-0.6939796,0.6269159
0.8286496,0.1056759,-0.005800381,-0.1929674,0.1237417,-0.06034007,0.7966073,-0.4108356,0.5334957
0.85185,0.09077751,-0.0059481,-0.170179,0.1090209,-0.05901856,0.6817768,0.0471116,0.3843423
0.8187999,0.08082867,0.06398219,-0.2036659,0.09926725,0.0123363,0.6942139,0.4110724,0.2250772
0.8654535,0.09945711,0.01389579,-0.1574614,0.1181011,-0.03636932,0.545284,0.5668743,0.1949709
0.7478698,0.09523782,0.01103818,-0.2754945,0.1140906,-0.03788946,0.2379399,0.4944153,0.2683487
0.7407853,0.06358337,0.03472935,-0.283016,0.0826416,-0.01290321,0.09886128,0.5187775,0.25201
0.7220041,0.02808316,0.03451134,-0.3022078,0.04733848,-0.01186768,0.2323447,0.5103145,0.1663986
0.6657596,0.005461597,0.09054106,-0.3588216,0.02490224,0.04537404,0.3929299,0.3050111,0.09870674
0.7455115,-0.01752324,0.03864991,-0.2793835,0.00208938,-0.005347492,0.4252777,0.1649269,0.1365931
0.7686398,-0.09673873,-0.03188259,-0.2565006,-0.07696733,-0.07475307,0.5639848,0.1293742,0.2791064
0.8563975,-0.1407095,-0.02298705,-0.1689105,-0.1207899,-0.06477164,0.6827092,0.2567038,0.3793484
0.9778936,-0.07433735,0.01105428,-0.04749892,-0.05427564,-0.0296825,0.6314798,0.4239655,0.3602882
1.054133,0.01704296,0.06911201,0.02873854,0.03724442,0.02938696,0.6668528,0.5972868,0.2485558
1.101572,0.1065896,0.05590517,0.07625345,0.1269285,0.01715595,0.6113513,0.7590686,0.1051149
0.9493717,0.1526961,0.06072479,-0.07579969,0.1731661,0.02291458,0.4492592,0.6925204,-0.01867691
0.8165829,0.1117479,0.1137009,-0.2083754,0.1323356,0.07679149,0.4886173,0.6408552,-0.06257315
0.8045731,0.05226632,0.1126232,-0.2201048,0.07295197,0.07657421,0.5284071,0.5596191,-0.08438851
0.8927841,-0.07817977,0.1949987,-0.1315419,-0.05741951,0.1597662,0.5204048,0.3727844,-0.249253
1.225161,-0.2962274,0.3318707,0.2012592,-0.2754137,0.2974045,0.5849553,0.3335861,-0.392243
1.566505,-0.3585148,0.3420076,0.5430892,-0.3376594,0.308248,0.566819,0.3802915,-0.3412815
1.699069,-0.2287102,0.3342397,0.6761768,-0.2078106,0.3011146,0.5111617,0.4628229,-0.3049902
1.636459,-0.129226,0.3745238,0.614097,-0.1082667,0.3419486,0.5563216,0.3725671,-0.2741473
1.560736,-0.1029162,0.3395009,0.5388751,-0.08187448,0.3073794,0.7347553,0.1825582,-0.05303427
1.485294,-0.1049974,0.3268281,0.4638777,-0.08384656,0.2950534,0.9412182,0.1641968,0.2728179
1.202013,-0.1177921,0.3830489,0.1809617,-0.09650332,0.3515045,0.9587339,0.1043371,0.4793805
1.053594,-0.1104771,0.355351,0.032817,-0.08901938,0.323912,0.9552356,-0.01623763,0.4574913
1.104372,-0.1010718,0.3148712,0.08377715,-0.07941219,0.2834045,1.046121,-0.1704745,0.4063661
0.9881744,-0.06101999,0.2737042,-0.0323275,-0.03912444,0.2420709,0.9026229,-0.2722865,0.5168294
0.8550153,-0.01109347,0.2130637,-0.1654769,0.01107181,0.1811219,0.6512945,-0.3067237,0.6157067
0.7538891,-0.05719104,0.2507155,-0.2666656,-0.03472415,0.2183232,0.6198568,-0.4543352,0.6014754
0.6539005,-0.1012164,0.2648526,-0.3667725,-0.07841794,0.2318684,0.695603,-0.4291299,0.4801832
0.669581,-0.026634,0.2424241,-0.3512463,-0.003475003,0.2087074,0.7568163,-0.38493,0.2207821
0.6481298,0.06058942,0.2502071,-0.3728665,0.08413615,0.2156181,0.6758334,-0.5721153,0.04890191
0.5223192,0.09046966,0.1849279,-0.4988397,0.1144265,0.1493287,0.5016541,-0.6957814,0.04704448
0.4601798,0.07536856,0.1481053,-0.5611127,0.09975059,0.1113616,0.437416,-0.7796947,0.05379388
0.5100563,0.01778418,0.172262,-0.5113162,0.04259934,0.1342452,0.4285295,-0.7388757,0.05186344
0.5584696,-0.02221926,0.1670148,-0.4629061,0.003031672,0.1276024,0.4393106,-0.6587481,-0.01118672
0.6112578,-0.01911529,0.1648849,-0.4100248,0.006571101,0.1239606,0.3908981,-0.7341977,-0.1003061
0.6868464,-0.04070606,0.1604895,-0.3342315,-0.01458607,0.1179433,0.3245357,-0.7011523,-0.1229864
0.7398388,-0.09648087,0.1768997,-0.2809124,-0.0699296,0.1326274,0.391815,-0.6754457,-0.1312313
0.8416348,-0.1252894,0.2279562,-0.1786617,-0.09830797,0.1818591,0.4635586,-0.686746,-0.1509202
0.9170686,-0.149675,0.2586653,-0.1026441,-0.1222615,0.2106488,0.5291534,-0.5762879,-0.1956347
0.915843,-0.1845388,0.1932788,-0.1031597,-0.1566867,0.1432509,0.5528153,-0.4436113,-0.207834
1.073728,-0.1926422,-0.005583709,0.05555536,-0.1643399,-0.05771035,0.5308432,-0.1012383,-0.1501805
1.47363,-0.2630681,-0.1999672,0.4563944,-0.2342973,-0.2542693,0.6804026,0.383528,-0.09653337
1.859893,-0.3407373,-0.1944959,0.8436766,-0.3114718,-0.2510318,1.061851,0.603811,-0.1244688
2.002159,-0.2536539,0.007564967,0.9870038,-0.2238574,-0.05124244,1.653847,0.5993992,-0.2907561
1.947877,-0.1239406,0.1351576,0.9337745,-0.09356872,0.07405713,1.882276,0.5478014,-0.5255047
1.7307,0.02762068,0.09763098,0.7175927,0.05861556,0.03422461,1.221211,0.1366328,-0.6105576
1.365909,0.226009,0.1426735,0.3536983,0.2576697,0.07695338,0.4537059,-0.501925,-0.2898347
1.159185,0.1871405,0.2612017,0.1477515,0.2194979,0.1931631,0.3322117,-0.4962728,0.2078961
1.257676,0.04680559,0.2210989,0.2468899,0.07987632,0.1507372,0.441571,-0.3385633,0.3986415
1.304748,0.07345851,0.0718948,0.294475,0.1072479,-0.0007949069,0.4085938,-0.5888575,0.379437
1.195597,-0.001516896,-0.001787617,0.1857001,0.03298899,-0.07680727,0.5060809,-0.4926042,0.3051993
1.172107,-0.06087314,0.004256452,0.1624443,-0.02565792,-0.07308753,0.6390566,-0.4573111,0.2170577
1.024399,0.06990177,0.005177427,0.01482981,0.1058162,-0.07447593,0.5004602,-0.6606413,0.2709785
0.7805465,0.0649701,-0.03513795,-0.2290618,0.1015702,-0.1170764,0.3210867,-0.4862346,0.3415625
0.8451052,0.04617668,-0.0422442,-0.1646619,0.0834434,-0.1264339,0.1756304,-0.3626197,0.3764663
0.931523,0.05455097,0.00201456,-0.07850535,0.09246009,-0.0843832,0.06414997,-0.1465966,0.4400241
0.8721869,-0.04866623,0.005879036,-0.1381898,-0.01014294,-0.08267526,0.2056796,0.1515715,0.4224293
0.8750654,-0.04229818,0.05350561,-0.1357334,-0.003190716,-0.03714726,0.4116162,0.1002532,0.3243784
0.797677,-0.04363373,0.08459005,-0.2136038,-0.003971809,-0.008098983,0.4338247,0.1476913,0.2011194
0.6797324,-0.04942853,-0.01848812,-0.332075,-0.009240971,-0.1131477,0.35868,0.1988731,0.1371913
0.6363336,0.04521436,-0.07097467,-0.3760264,0.08589912,-0.1675349,0.3071683,0.2385119,0.2032611
0.59673,0.05255763,-0.05657385,-0.4161874,0.09370979,-0.1549583,0.3443108,0.3925269,0.2503551
0.6129605,0.03569269,-0.009170852,-0.4004972,0.07727943,-0.1092958,0.4834396,0.3532373,0.2308991
0.686307,-0.05406133,0.05394462,-0.3276533,-0.01207544,-0.047832,0.6867068,0.4139219,0.2257642
0.7997032,-0.1593222,0.06252543,-0.2147052,-0.1169722,-0.0408117,0.8741317,0.5520454,0.1731931
0.9394361,-0.03611908,0.1247671,-0.07535508,0.006563452,0.01996062,0.9382338,0.5425743,0.104622
1.011047,0.1827213,0.1612172,-0.004057511,0.225707,0.05503026,0.7567742,0.5124607,0.1104947
1.013054,0.2999484,0.06957045,-0.002296122,0.3432032,-0.03791167,0.3118117,0.4354196,0.1376992
0.9546861,0.1896492,-0.01098985,-0.0608441,0.2331281,-0.1196842,-0.07153171,0.4143125,0.1485031
0.860383,-0.01132795,-0.003182337,-0.1552646,0.03232013,-0.1130052,-0.03800142,0.4393745,0.1229485
0.8569409,-0.1346692,0.05858044,-0.1587603,-0.0909103,-0.05228525,0.2667416,0.4493737,-0.01569862
1.00794,-0.315417,0.1761982,-0.007748897,-0.2716002,0.06437569,0.5582724,0.4555075,-0.3708897
1.27785,-0.3848833,0.3420977,0.2622372,-0.3410488,0.2293997,0.6794287,0.4230402,-0.7393649
1.526679,-0.1703017,0.3609578,0.5111932,-0.1264738,0.2474552,0.4619792,0.3726182,-0.7049523
1.67081,-0.03725759,0.3724532,0.6554802,0.006552159,0.2582026,0.1647738,0.2247443,-0.5143192
1.809155,-0.2124305,0.5708863,0.7939775,-0.168644,0.4559281,0.1316077,0.1262235,-0.4845229
1.822399,-0.3218349,0.5582356,0.8073344,-0.2780706,0.4425908,0.2096536,0.1900642,-0.252343
1.490928,-0.0746935,0.3713971,0.4758996,-0.03094151,0.2550666,0.3559607,0.2125314,0.1780928
1.126482,0.1314526,0.3292969,0.1113881,0.1752074,0.2122654,0.573189,0.1640233,0.4390085
1.126363,0.03601445,0.3266396,0.1110928,0.07978453,0.2088815,0.6302408,0.0311541,0.4351691
1.156727,-0.00267757,0.341587,0.1411701,0.04111435,0.2230695,0.5850899,-0.170412,0.3334207
0.9382264,0.05798353,0.308578,-0.07772375,0.1017992,0.1892618,0.6533348,-0.2338247,0.4368165
0.8741518,0.02003559,0.272313,-0.1422911,0.06387296,0.1521534,0.7873276,-0.1732494,0.5199028
0.9046128,0.008065909,0.317909,-0.1124096,0.05191927,0.1968577,0.832067,-0.1833107,0.4551113
0.7106868,-0.01555612,0.2811353,-0.3069862,0.0283048,0.1591408,0.8442917,-0.2524193,0.4339741
0.6095057,-0.09110044,0.2631667,-0.4088705,-0.04724148,0.140175,0.8681612,-0.3329236,0.2492801
0.6417343,-0.04432391,0.2526528,-0.3773751,-0.0004756832,0.128609,0.7372251,-0.4690184,0.1452141
0.5683225,-0.008768661,0.1585306,-0.4515256,0.03506124,0.03337978,0.5342131,-0.5924327,0.2496683
0.5179796,-0.08616152,0.1323256,-0.5025884,-0.04235703,0.006016061,0.4672283,-0.6458434,0.2628219
0.5592816,-0.1153769,0.1202752,-0.4619631,-0.07160374,-0.007239504,0.5016141,-0.6340885,0.3234387
0.6116865,-0.09676548,0.1292956,-0.4101687,-0.05302665,0.0005359064,0.5020367,-0.6172865,0.286937
0.640646,-0.06973292,0.1640076,-0.381734,-0.02602834,0.03396912,0.4260627,-0.6769394,0.09359443
0.6871719,-0.01356547,0.15641,-0.3356316,0.03010685,0.0250641,0.3944488,-0.7123007,-0.0700715
0.7604727,0.02631222,0.2135826,-0.2626409,0.06995403,0.0809048,0.4172058,-0.7042141,-0.2328293
0.8102403,-0.002286602,0.2800949,-0.213062,0.04132437,0.1460628,0.4561278,-0.7279807,-0.2758218
0.8574533,-0.04397729,0.2913119,-0.1659122,-0.0003997166,0.1559028,0.5849733,-0.7006122,-0.2900469
0.9156945,-0.02648309,0.2950054,-0.1076077,0.01705744,0.1581949,0.7340114,-0.5473708,-0.2930097
0.9563864,-0.04280029,0.2726799,-0.06672862,0.0006993218,0.1344411,0.7495124,-0.2575995,-0.195707
0.9856286,-0.09842466,0.1863743,-0.0371799,-0.05496942,0.04667921,0.6470537,0.1220189,-0.1300736
1.174947,-0.1334236,0.01797984,0.152556,-0.09001433,-0.1231972,0.6315846,0.5285146,-0.0893299
1.503964,-0.2271199,-0.1274712,0.4820887,-0.1837539,-0.2701475,0.7648207,0.7289691,-0.1475448
1.61627,-0.2768774,-0.128981,0.5949833,-0.2335449,-0.2731596,0.9285885,0.4763983,-0.298924
1.54828,-0.1475833,0.01369935,0.527622,-0.1042659,-0.131968,0.9630243,0.1417757,-0.4310054
1.57035,0.0587629,0.137968,0.5503288,0.1020894,-0.009161822,0.6565808,0.05194357,-0.4353238
1.636631,0.1966727,0.1101101,0.617223,0.2400308,-0.03844905,0.1812632,0.01183322,-0.1432656
1.606287,0.1600731,0.06413843,0.5874396,0.2034762,-0.08581307,-0.1054806,-0.07244537,0.1480713
1.414836,0.01912426,0.07545151,0.3964695,0.06257517,-0.07585133,-0.1147225,-0.2810774,0.1819816
1.141055,-0.08361238,0.0689023,0.1230688,-0.04011776,-0.08370622,0.1542996,-0.5628929,0.1974816
1.036113,-0.1339825,0.04897861,0.01840071,-0.09044923,-0.1048853,0.5001666,-0.7037957,0.3224934
1.0946,-0.1404936,0.02571872,0.07705578,-0.09692372,-0.1293456,0.6736025,-0.7074422,0.4120423
1.018459,-0.1383818,-0.001791324,0.0009806947,-0.09477272,-0.1579957,0.7196608,-0.6396235,0.3962201
0.9000042,-0.1153871,-0.00975408,-0.1175032,-0.0717319,-0.167032,0.7253445,-0.5935356,0.4227659
0.8691118,-0.04905096,-0.01392702,-0.1485099,-0.005339406,-0.1722057,0.6332124,-0.509434,0.4366665
0.8122958,0.01073311,-0.01238669,-0.2055126,0.0545121,-0.1715872,0.4878004,-0.3534691,0.4104438
0.8405645,0.07940586,0.02992537,-0.1774885,0.1232611,-0.1301126,0.4100808,-0.2193234,0.4338643
0.8578506,0.07945826,0.07823764,-0.1604906,0.1233935,-0.0825499,0.3681562,-0.04126135,0.3105073
0.7725519,0.01139889,0.08670499,-0.2461077,0.05541192,-0.07474276,0.3514994,0.0003633841,0.1451441
0.7151044,0.03092761,0.04151447,-0.3038898,0.07501143,-0.1205042,0.3396217,-0.03472324,0.1574346
0.6341741,0.03867053,-0.03297392,-0.3851546,0.08281457,-0.1954735,0.3069186,0.09387371,0.2451103
0.6283212,0.01406886,-0.05087367,-0.3913235,0.0582594,-0.2137615,0.3098402,0.1555237,0.3415334
0.6846686,0.02070175,0.01067802,-0.335255,0.06492229,-0.1525013,0.3509301,0.2720591,0.346643
0.7318606,-0.02042456,0.09889989,-0.2882882,0.02380752,-0.06447157,0.4813817,0.5227231,0.2288559
0.8583795,0.0003371503,0.1469877,-0.1619286,0.04456124,-0.01647766,0.5998055,0.6498979,0.08699534
0.8840849,0.09976941,0.1365289,-0.1363092,0.1439648,-0.02693629,0.5453792,0.6860083,0.04606681
0.8517824,0.1812342,0.1121391,-0.1686207,0.2253763,-0.05123704,0.3652987,0.5553438,0.1052658
0.9135376,0.2068585,0.06914616,-0.1067952,0.2509159,-0.09405645,0.07996868,0.4169787,0.1023136
0.9252158,0.1050939,0.02718958,-0.09496693,0.1490265,-0.1357579,-0.08497901,0.5249154,0.06869501
0.9202642,-0.02079342,0.04830348,-0.09968914,0.022968,-0.1143083,0.05258635,0.612679,-0.03463451
1.00535,-0.1620184,0.1287482,-0.01429623,-0.1184747,-0.03344842,0.2022483,0.6112609,-0.3542667
1.257731,-0.2966407,0.2329863,0.2384645,-0.2533548,0.07128061,0.1825997,0.6030628,-0.7490922
1.604826,-0.2536909,0.2938632,0.5859967,-0.2106908,0.1327166,-0.01773876,0.50474,-0.897156
1.720613,-0.1948618,0.3038249,0.7022549,-0.1521621,0.1432943,-0.3628376,0.4224617,-0.6192066
1.678133,-0.20893,0.347395,0.6602436,-0.1665337,0.1875246,-0.5294304,0.4459014,-0.3406074
1.680451,-0.183977,0.3680158,0.6629932,-0.1418774,0.2088361,-0.4857957,0.4597334,-0.3459373
1.479024,-0.1452556,0.3115977,0.4619292,-0.1034382,0.1531256,-0.4119852,0.3869388,-0.09446153
1.165131,-0.0756164,0.3065074,0.1483069,-0.03406093,0.1487473,-0.1447212,0.2404294,0.3097
1.153313,-0.04187517,0.3436728,0.1366569,-0.0005584963,0.1866186,0.07613971,0.01476045,0.2698459
1.222102,-0.08289706,0.3349981,0.2055084,-0.04179548,0.1786334,-0.02989317,-0.1668433,0.1951673
1.105241,-0.07209157,0.2794932,0.08860372,-0.03118128,0.1237923,-0.1190827,-0.1786491,0.3715477
1.014218,-0.04032384,0.1960654,-0.002568292,0.0004191601,0.04099517,-0.1905926,-0.1671571,0.4961953
0.9061558,-0.04814766,0.1865578,-0.1108787,-0.007548296,0.03208126,-0.3740599,-0.1925722,0.61359
0.6921548,-0.09710876,0.1928203,-0.3252157,-0.05663001,0.03889904,-0.4087149,-0.2418192,0.6282824
0.6178876,-0.1626666,0.1556816,-0.3998882,-0.1222847,0.002276945,-0.2190773,-0.3182462,0.4567516
0.7000885,-0.1156022,0.193418,-0.318139,-0.07529102,0.04049127,0.004968841,-0.2728984,0.2456113
0.7253385,-0.02379647,0.2088116,-0.2933647,0.01647268,0.05632429,0.03960992,-0.2218016,-0.03701387
0.6464564,-0.03089201,0.1797395,-0.3727266,0.009363636,0.02765255,-0.1040636,-0.3158902,-0.1975264
0.5783488,-0.07543545,0.1787769,-0.4412985,-0.03516662,0.027051,-0.2298715,-0.4491896,-0.1566109
0.5944299,-0.1187567,0.1360948,-0.425646,-0.07844908,-0.01530896,-0.2878423,-0.5840311,-0.09903985
0.6428438,-0.1049567,0.1255761,-0.3776044,-0.06458406,-0.0255426,-0.3050078,-0.5942747,-0.02514975
0.6944566,-0.04250005,0.1293105,-0.3262906,-0.00203518,-0.02155757,-0.3083746,-0.5204509,-0.004126857
0.7102904,-0.04100802,0.09132309,-0.3106682,-0.0004242625,-0.05932557,-0.2908269,-0.5598267,-0.02969545
0.6803335,-0.05910823,0.09694881,-0.340738,-0.01838054,-0.05350796,-0.2471004,-0.6033274,-0.0325513
0.6787997,-0.07984231,0.100568,-0.3422761,-0.03894725,-0.04972028,-0.2417074,-0.6327678,-0.09459023
0.6897393,-0.09594331,0.1182037,-0.3312226,-0.05485811,-0.03193562,-0.1750836,-0.656984,-0.217971
0.7280133,-0.1216329,0.1876087,-0.2927084,-0.08033457,0.03760144,0.03741077,-0.5775597,-0.3331181
0.8099749,-0.2114711,0.2050111,-0.2103743,-0.1699348,0.05511981,0.1663229,-0.4651212,-0.3805693
0.8469204,-0.2229828,0.1602866,-0.1729219,-0.1811799,0.01049437,0.134109,-0.2223066,-0.3859533
0.8701217,-0.1696083,0.1208924,-0.14908,-0.1275048,-0.02881814,0.1168436,0.2051256,-0.3937232
0.9720771,-0.1734434,0.06906303,-0.04635385,-0.1310008,-0.08058158,0.1351877,0.5502955,-0.3973422
1.220712,-0.1835994,-0.09840373,0.2031743,-0.1407756,-0.2479936,0.1615369,0.6687174,-0.4260997
1.631231,-0.2019987,-0.2429195,0.6146909,-0.1587489,-0.392456,0.3319864,0.6421668,-0.4802122
1.914532,-0.184001,-0.08587181,0.8990618,-0.1402769,-0.2353419,0.744537,0.6310187,-0.543012
1.770474,-0.08736485,0.1294601,0.7561045,-0.04311631,-0.0199179,1.016038,0.5077849,-0.6125085
1.419814,0.07684379,0.1424797,0.4065299,0.1216658,-0.006774981,0.691965,-0.03385469,-0.6176239
1.213218,0.225891,0.1900669,0.2009736,0.271328,0.04096576,0.1916955,-0.6353117,-0.3332965
1.208219,0.177976,0.2178783,0.1969508,0.2240559,0.06895739,0.09653339,-0.6623546,0.2115531
1.279866,0.0713351,0.103225,0.2695012,0.1180711,-0.0454932,0.2003759,-0.4803768,0.5041258
1.218257,0.01522731,0.05535177,0.2087122,0.06262089,-0.09314352,0.2576387,-0.5853432,0.4314702
1.100348,-0.06822334,0.01486264,0.09153438,-0.02017732,-0.1333885,0.3210902,-0.5183135,0.3410971
1.0245,-0.003602692,-0.02470277,0.01632414,0.04508733,-0.172685,0.3239159,-0.3812391,0.2828762
0.9118774,0.116486,-0.005244418,-0.0957506,0.1658085,-0.152928,0.1511282,-0.3911126,0.2466485
0.9351061,0.09180523,-0.04616216,-0.07205855,0.1417428,-0.1935119,-0.1335864,-0.05844612,0.2793619
0.947107,0.06392133,-0.01666781,-0.05967016,0.1144493,-0.1636431,-0.2280678,0.1950294,0.2920943
0.8248646,0.0331944,0.03017023,-0.181592,0.08428167,-0.1163853,-0.178029,0.1744134,0.285496
0.7856153,0.0183286,-0.005185076,-0.2205772,0.06993956,-0.1512724,-0.3117275,0.2270216,0.2818309
0.6852566,0.04314819,0.007839626,-0.3207147,0.09524404,-0.1377287,-0.4406637,0.1075537,0.2573973
1.647876,-0.1173517,0.4065424,0.6776251,-0.04837596,0.3149226,-0.5913054,0.1960126,-0.1369852
1.560327,-0.1909615,0.3764618,0.5903242,-0.1230452,0.284163,-0.02944668,0.2368188,0.09142175
1.308776,-0.09392288,0.2899087,0.3388809,-0.02701264,0.1969071,0.01444678,0.2853295,0.1915014
1.182015,-0.118056,0.2873343,0.2120761,-0.05209616,0.193597,-0.1206001,0.1440623,0.2963345
0.8756392,-0.1008164,0.2340346,-0.0944996,-0.03575008,0.1395228,-0.08088969,-0.1196501,0.2291458
0.697465,-0.04507908,0.201217,-0.2730201,0.01915069,0.1058883,-0.2243716,-0.2850669,0.226424
0.6542659,-0.06438881,0.1948046,-0.3166926,-0.000939899,0.09861557,-0.4099324,-0.393775,0.3145028
0.5170622,-0.006644617,0.1600305,-0.4544712,0.05607679,0.06293773,-0.4315689,-0.2824758,0.2279046
0.5652183,0.003689995,0.1751608,-0.4069634,0.06573373,0.07712238,-0.5316827,-0.2460789,0.1193342
0.5443504,-0.005359235,0.137564,-0.4285243,0.05605221,0.03853986,-0.6188394,-0.4122032,-0.1038752
0.4219677,0.0046856,0.09747174,-0.5516169,0.06550541,-0.002575153,-0.6419217,-0.5114323,-0.2094683
0.4337045,-0.08209251,0.1156339,-0.5405787,-0.02182763,0.01453153,-0.6611608,-0.6535069,-0.09797238
0.4741231,-0.08385153,0.09592562,-0.5008192,-0.02410708,-0.006260273,-0.6962813,-0.5960137,-0.15147
0.5659991,-0.01501932,0.0962854,-0.4095374,0.04423829,-0.00700704,-0.8477059,-0.5119712,-0.1271434
0.5912738,0.02745548,0.1017586,-0.3847715,0.08625795,-0.002658621,-1.016633,-0.7041998,-0.0742816
0.6023897,0.05000132,0.1283931,-0.3740629,0.1083762,0.02283749,-1.097742,-0.756851,-0.2006101
0.7269266,-0.02718486,0.1949551,-0.2498191,0.03078491,0.08825057,-0.9898194,-0.727757,-0.2669746
0.8384339,-0.1091511,0.221072,-0.1384826,-0.0515674,0.113209,-0.8185419,-0.7003845,-0.2741103
0.9394407,-0.182407,0.2273723,-0.03752271,-0.1251901,0.1183405,-0.8090715,-0.530366,-0.2242489
1.02547,-0.2615852,0.1991966,0.04857985,-0.2047118,0.0889839,-0.7776427,-0.1938635,-0.175431
1.161591,-0.2852642,0.1176633,0.1848836,-0.2287035,0.006256947,-0.7087314,0.3549509,-0.1759581
1.381161,-0.3109648,-0.03580972,0.4047324,-0.2546764,-0.14842,-0.552082,0.7777042,-0.1825782
1.540288,-0.3134994,-0.1426613,0.5642096,-0.2574329,-0.2564778,0.04620909,0.8066919,-0.3052272
1.561533,-0.266718,-0.03109381,0.5858471,-0.2108134,-0.1461066,0.737065,0.5138678,-0.5181219
1.540114,-0.04447414,0.06842232,0.5648293,0.01133548,-0.04776536,0.6912179,0.262089,-0.6637155
1.618696,0.3409115,0.03010536,0.6437912,0.3966913,-0.08722806,-0.04199795,0.2537639,-0.4363
1.645871,0.4061495,0.03240553,0.671292,0.4619506,-0.08603938,-0.7168372,0.04761795,0.07473782
1.490536,0.1030947,0.0473831,0.5162004,0.1589466,-0.07213437,-0.9072854,-0.2800152,0.349272
1.27646,-0.07994883,0.03699282,0.30226,-0.0240333,-0.08355401,-0.6064183,-0.3846161,0.468998
1.157385,-0.04948024,0.04559787,0.183201,0.006505032,-0.07593138,-0.2789516,-0.4407524,0.6493717
1.148744,-0.0629924,0.02102337,0.1744507,-0.006932553,-0.1014379,-0.12251,-0.3622425,0.7146001
1.010369,-0.13032,-0.02819774,0.03584085,-0.07418064,-0.1515367,0.1443243,-0.1871801,0.5191199
0.8023477,-0.08447359,-0.037455,-0.1725352,-0.02824873,-0.1616125,0.2091243,-0.1325003,0.2349194
0.7444265,-0.03341942,-0.007190159,-0.2309183,0.02289823,-0.1321015,0.128759,0.08071959,0.1365559
0.6774317,-0.06078171,0.01830838,-0.2984635,-0.004364182,-0.1072875,0.2007737,0.3358983,0.1282931
0.5484437,-0.03593817,-0.001066692,-0.4280683,0.02058522,-0.1272743,0.0654702,0.3078969,0.2199536
0.4266705,0.01503802,-0.01884505,-0.5504991,0.07167161,-0.1455889,-0.1519077,0.3412036,0.4250033
0.3208343,0.06939467,-0.0001429405,-0.657004,0.1261396,-0.1273449,-0.324009,0.4455545,0.4976461
0.3355284,0.08974636,0.0119862,-0.6429567,0.1465985,-0.1155931,-0.4230543,0.4397585,0.499654
0.4718527,0.00172622,0.04386156,-0.5072251,0.05867533,-0.08401314,-0.2545745,0.5668645,0.4073592
0.5796022,-0.04982101,0.08144879,-0.3999873,0.00721044,-0.04663942,-0.1218324,0.6700405,0.1939089
0.6151402,-0.04017615,0.06048146,-0.3648606,0.01692153,-0.06774005,-0.0369603,0.6787791,0.08555088
0.6922471,-0.04480008,0.04516738,-0.2880508,0.0123478,-0.08310939,0.1148499,0.8264058,0.07373907
0.7981582,-0.04507658,0.06189436,-0.1823136,0.01210578,-0.06636149,0.2307321,0.8908121,0.09717674
0.8220681,-0.09380129,0.06047903,-0.1584505,-0.03659946,-0.06768155,0.2657537,0.6812956,0.0957399
0.9167433,-0.2004939,0.08062483,-0.06369515,-0.1432852,-0.04736835,0.1081637,0.3398468,-0.03082787
1.330203,-0.2945584,0.1801728,0.3499655,-0.2373497,0.05241581,-0.2043616,0.2206174,-0.333001
1.862782,-0.2561374,0.3308391,0.8828464,-0.1989262,0.2033804,-0.6399699,0.5991414,-0.5741527
1.947932,-0.1116604,0.4411081,0.9683615,-0.05443454,0.3139978,-0.8882287,0.935083,-0.315735
1.57628,-0.07244327,0.4766396,0.5970909,-0.01518499,0.3499106,-0.8543472,0.5921372,-0.01649882
1.376782,-0.2080294,0.4891736,0.3979487,-0.1507188,0.362839,-0.6548519,0.09737792,-0.1910873
1.437602,-0.3572263,0.4846978,0.4590724,-0.2998395,0.3587504,-0.01220533,0.02101835,-0.2272657
1.381559,-0.2517934,0.4144625,0.4032604,-0.1942985,0.2888765,0.369925,-0.002219076,-0.009450486
1.209335,-0.0660641,0.2879715,0.2311783,-0.008421164,0.162706,0.2029127,-0.1210757,0.08883748
0.9852791,-0.06988527,0.235361,0.007165942,-0.01205168,0.1103656,0.1292179,-0.2413695,0.2097452
0.7727508,-0.04078285,0.2929007,-0.2054153,0.01728189,0.1681195,-0.0836507,-0.4267725,0.1867609
0.6979141,-0.003036238,0.2960465,-0.2803905,0.05529618,0.1714197,-0.1272325,-0.5490652,0.06458029
0.6417052,0.006413398,0.2394023,-0.3368054,0.06504489,0.1148658,0.003025891,-0.5762938,0.09495403
0.5571393,0.07344669,0.1992229,-0.4216231,0.1324022,0.07471005,-0.2342663,-0.5755131,-0.02897768
0.5150869,0.007408901,0.153274,-0.46395,0.06670622,0.02871786,-0.3496173,-0.6550974,-0.1640416
0.5305996,-0.06711846,0.1549716,-0.4487095,-0.007468142,0.03030735,-0.3906445,-0.7321114,-0.16001
0.6085904,-0.08214631,0.1432685,-0.3709655,-0.0221354,0.01843457,-0.3927656,-0.619913,-0.2371087
0.6586779,-0.1238555,0.06613122,-0.3210796,-0.06347739,-0.05892983,-0.270325,-0.5811622,-0.2646607
0.6586866,-0.09082008,0.04301178,-0.3212116,-0.03006771,-0.08232787,-0.4267091,-0.6800901,-0.2586037
0.6688082,-0.09365966,0.05222852,-0.3111571,-0.0325254,-0.07343362,-0.5529657,-0.7076558,-0.1848561
0.6919985,-0.09992725,0.04940999,-0.2879491,-0.03840317,-0.07661058,-0.6848985,-0.568652,-0.02670699
0.7098956,-0.04349459,0.08014468,-0.2699405,0.01842704,-0.04626293,-0.9085824,-0.3504552,-0.04735122
0.7341734,-0.02848392,0.1612452,-0.24545,0.03384171,0.03442769,-0.8382144,-0.328243,-0.2247901
0.7655054,-0.03165772,0.2412653,-0.2137989,0.03107584,0.1140178,-0.5937718,-0.3274557,-0.4553913
0.7617278,-0.1083781,0.2659973,-0.2171476,-0.04523519,0.1382989,-0.2354472,-0.1778777,-0.5333571
0.8051564,-0.1805181,0.3055998,-0.1731783,-0.1169648,0.1774262,0.00790873,0.02190168,-0.3906715
0.9842596,-0.1504585,0.2724418,0.006576705,-0.08649154,0.1437638,0.03366614,0.3069848,-0.2619667
1.373253,-0.1475176,0.009915937,0.3963255,-0.08313018,-0.1192984,0.1961748,0.5313404,-0.09409201
1.809189,-0.1690165,-0.2162952,0.8330976,-0.104199,-0.3460735,0.3710886,0.6776836,-0.01544523
1.749105,-0.1274468,-0.1273828,0.7738949,-0.06218654,-0.2577392,0.414879,0.7195207,-0.2855358
1.528996,0.03491517,0.05432859,0.5546687,0.1006315,-0.07660466,0.2987174,0.4844414,-0.5110253
1.642242,0.2310816,0.08768998,0.6687615,0.2972634,-0.04380834,-0.05063174,0.1261162,-0.310047
1.489595,0.2259175,0.07450018,0.5168941,0.2925627,-0.05754637,-0.395129,-0.1917943,-0.04714488
1.176095,0.03854284,0.0569248,0.2040801,0.1056358,-0.07564992,-0.470627,-0.376706,0.05883065
1.083473,-0.08387673,0.03509221,0.1120365,-0.01636138,-0.09798714,-0.08315065,-0.5051897,0.3101641
1.007927,-0.09127389,0.06567721,0.03695893,-0.0233643,-0.06787939,0.4590509,-0.5380488,0.501342
1.10943,-0.08765675,0.06813931,0.1388209,-0.0193799,-0.06586371,0.5007695,-0.2844534,0.4288122
1.078893,-0.03919345,0.06802164,0.1085363,0.02942539,-0.06639434,0.2416919,-0.1313408,0.4282482
0.9015722,0.07625609,0.06476243,-0.06863678,0.1451916,-0.07003091,0.05758892,-0.08327353,0.4302234
0.8995933,0.1621536,0.01643737,-0.07056606,0.2313766,-0.1186954,-0.2020404,0.0716021,0.3328849
0.7476925,0.1749468,0.03607057,-0.2225052,0.2444205,-0.09936092,-0.3926167,0.1830184,0.2770815
0.7363782,0.1506354,0.0616264,-0.2339317,0.2203133,-0.07405998,-0.4418586,0.4360516,0.2329978
0.7482826,0.1119639,0.05818625,-0.222197,0.1817908,-0.07770908,-0.5469511,0.5105137,0.2762166
0.5325553,0.0752324,0.04200622,-0.4381336,0.1451463,-0.09405071,-0.6078894,0.396459,0.3685943
0.5595117,0.09382479,-0.01086124,-0.4114059,0.1637591,-0.1470306,-0.5953947,0.5012464,0.4020645
0.5653562,0.1068897,0.01455807,-0.4057869,0.1767745,-0.121672,-0.5941442,0.4373985,0.4191106
0.5902266,0.03040474,0.03709716,-0.3811172,0.100167,-0.09913893,-0.5136816,0.3823821,0.3767225
0.7636975,-0.07560353,0.00549534,-0.2078045,-0.006037569,-0.13069,-0.1833244,0.4571542,0.3141676
0.8410659,-0.1562066,0.005349071,-0.1305393,-0.08690718,-0.1307269,0.3486441,0.4769447,0.2268934
0.9495554,-0.1608965,-0.02156388,-0.02209275,-0.09192624,-0.1574698,0.6499502,0.6925068,0.07815585
0.891388,-0.06351572,-0.02687292,-0.08024223,0.005071655,-0.1625454,0.5903931,0.8147052,0.008537991
0.7894736,0.04461204,0.01917084,-0.1820783,0.1127692,-0.1162023,0.4221239,0.7526756,-0.0299248
0.8195332,0.02697601,0.09440017,-0.1518784,0.09465805,-0.04060672,0.2213373,0.6143754,-0.2350763
0.9403688,-0.1303044,0.2410071,-0.03083808,-0.06314158,0.106431,0.06703329,0.2829862,-0.6158499
1.438656,-0.2216813,0.3664963,0.4677142,-0.1550774,0.2324075,-0.2761837,0.07004888,-0.8221246
1.925629,-0.09590196,0.4091886,0.9549946,-0.02988855,0.2756303,-0.9250865,0.2807878,-0.5833635
1.987093,0.02382232,0.4530968,1.01677,0.08922104,0.3200949,-1.117204,0.6341787,-0.3214324
1.816863,-0.1048289,0.4890105,0.8468086,-0.04006552,0.3565721,-0.8765414,0.5728937,-0.2587063
1.473456,-0.2082737,0.4145695,0.5035823,-0.144163,0.2826831,-0.7477941,0.2971613,-0.03889999
1.08722,-0.09916591,0.3267646,0.1174137,-0.03571876,0.1954022,-0.4735101,0.09338437,0.2202532
1.051717,-0.05965973,0.3249655,0.08185338,0.003119167,0.1940869,-0.4445085,-0.06526671,0.2595404
1.205169,-0.08062146,0.2797202,0.2351246,-0.01851163,0.1492767,-0.7894834,-0.00561949,0.2834565
1.022195,-0.05079424,0.2218764,0.05184841,0.01064807,0.09181276,-0.9064618,-0.08735323,0.3435664
0.8997066,-0.05142225,0.2109784,-0.07106005,0.00935587,0.08123621,-1.05289,-0.235242,0.3212825
0.9155211,-0.03856038,0.1745677,-0.05577376,0.02155805,0.0450871,-1.058975,-0.2057886,0.3065569
0.7193427,-0.09150244,0.1669832,-0.2525758,-0.03203818,0.03770486,-0.7853064,-0.3403413,0.315764
0.7131049,-0.1999827,0.1869646,-0.259516,-0.1411646,0.05783038,-0.6443565,-0.3888905,0.215447
0.6887712,-0.1868295,0.1903774,-0.284611,-0.1286445,0.06133034,-0.4741385,-0.3913733,0.06598132
0.585756,-0.1069473,0.1904666,-0.3884254,-0.04937559,0.06145085,-0.5357369,-0.4926807,0.01248476
0.655867,-0.01879885,0.1844502,-0.3191298,0.03818368,0.05541072,-0.683589,-0.536456,0.01484613
0.5853386,0.0378965,0.1949103,-0.3904683,0.09431419,0.065793,-0.61528,-0.6493574,-0.0008719637
0.6449853,0.03086915,0.1891401,-0.3316063,0.08674336,0.05989195,-0.9094216,-0.547978,-0.009504062
0.7416817,0.04809545,0.1469381,-0.2356512,0.103443,0.01750733,-1.289507,-0.3332269,-0.003369038
0.6802637,0.09888632,0.1144138,-0.2977529,0.1537191,-0.01524891,-1.518486,-0.2074212,-0.07068036
0.778721,0.1325622,0.132055,-0.1999103,0.1868858,0.00211485,-1.785008,0.09435148,-0.2516091
0.8120408,0.09378882,0.1734768,-0.1671272,0.1476016,0.0432175,-1.880607,0.250116,-0.4926809
0.8346974,0.0344216,0.1726414,-0.1449235,0.08771544,0.04202427,-1.936714,0.1212994,-0.6897286
0.9204,0.07630136,0.1883849,-0.05958739,0.1290635,0.05737289,-1.987175,0.06044863,-0.7128288
0.9687516,0.1231024,0.219477,-0.01151572,0.1753164,0.08803413,-2.165749,0.1949882,-0.6613412
1.057431,0.1127289,0.1848532,0.07696675,0.1643731,0.05294378,-2.514246,0.3239474,-0.6470432
0.9940501,0.09704928,0.1003594,0.01346473,0.1480972,-0.03205119,-2.657489,0.3404969,-0.521331
0.9698796,-0.007393789,-0.03407261,-0.01075711,0.04302721,-0.1670151,-2.615056,0.5607928,-0.2471536
1.197856,-0.2562005,-0.1080542,0.21723,-0.2064365,-0.2415504,-2.326705,0.9167765,0.06120079
1.535923,-0.6009224,-0.05998099,0.5553588,-0.5518356,-0.1940405,-1.671502,0.9788527,0.2474231
1.76523,-0.729394,-0.06531546,0.7847542,-0.6809827,-0.1999346,-0.9273999,0.5236696,0.1704766
1.679438,-0.3144156,-0.1083137,0.6990432,-0.2666492,-0.2434769,-0.5784601,-0.2442361,-0.1074609
1.680836,0.223592,-0.0931275,0.7004775,0.2707636,-0.2288074,-0.7053644,-0.6056602,-0.332276
1.858025,0.3268059,-0.1039244,0.8776257,0.3734327,-0.2400824,-1.28838,-0.3811449,-0.2285581
1.752015,0.1580144,-0.1273854,0.7714608,0.2041322,-0.2639719,-2.3947,-0.1657492,0.0227912
1.466072,0.0429942,-0.1188097,0.4852191,0.08862428,-0.2557648,-2.893824,-0.2171178,0.06634497
1.16672,-0.04125103,-0.1191867,0.1854055,0.003904094,-0.2564404,-2.670579,-0.3832907,0.0511516
0.9694671,-0.1460685,-0.1133036,-0.01247852,-0.1013775,-0.250777,-2.653986,-0.5735089,0.1055864
0.9544682,-0.1420984,-0.09206873,-0.02826876,-0.09785848,-0.2296752,-2.263982,-0.4929654,0.1820737
0.827493,-0.1014967,-0.06055927,-0.1561817,-0.05769017,-0.1982057,-1.914008,-0.2058783,0.2520547
0.6990462,-0.1156137,-0.03389492,-0.2856939,-0.07221879,-0.171484,-2.027491,-0.2138748,0.211925
0.7154297,-0.03050121,-0.08091933,-0.2704808,0.01250639,-0.2183509,-1.979341,-0.2391319,0.1950433
0.6873422,0.05132281,-0.1491756,-0.2998191,0.09396762,-0.2863465,-2.190452,-0.1709056,0.2116786
0.749192,0.04281453,-0.1351324,-0.2392769,0.08511815,-0.2719349,-2.313944,-0.214828,0.1619795
0.8483943,0.03352888,-0.09284949,-0.1414182,0.07550825,-0.2291713,-2.087518,-0.122612,0.1531317
0.9019274,-0.03978294,-0.08270547,-0.08924841,0.001885037,-0.2184306,-1.908946,-0.07913941,0.09141476
0.9872694,-0.08954778,-0.1087048,-0.005278347,-0.04818015,-0.2437153,-1.586524,-0.07370877,0.007089746
0.9591066,-0.06745099,-0.1690806,-0.03481435,-0.02637206,-0.3032569,-1.520681,-0.01496239,0.001682783
0.9572133,-0.04902332,-0.1858663,-0.03807659,-0.008220018,-0.3190856,-1.528725,-0.06551544,0.04931058
1.031806,-0.01745826,-0.1239327,0.03515617,0.02308313,-0.2560683,-1.181019,0.03281619,0.1882363
1.088692,-0.02775079,-0.06376981,0.0906933,0.01254193,-0.1946931,-0.9094097,0.1755715,0.223793
1.18612,-0.04247152,-0.05093052,0.1867847,-0.00241516,-0.1805134,-0.8434291,0.2460515,0.1461696
1.189047,-0.04975123,-0.07016513,0.1883809,-0.009919415,-0.1982825,-0.855194,0.2664549,0.1114966
1.165582,-0.1493542,-0.115317,0.1635871,-0.1097345,-0.2418464,-0.7073813,0.1394965,0.08196731
1.185559,-0.3272619,-0.1589291,0.182231,-0.287838,-0.2837501,-0.5311683,0.1182793,0.07653169
1.17916,-0.5004217,-0.1077737,0.1744891,-0.4611673,-0.2307662,-0.2438,0.2414524,-0.01493551
1.210128,-0.5132915,-0.003993952,0.2041002,-0.4741634,-0.1250393,0.3854161,0.4936916,-0.168424
1.215531,-0.3811837,0.02332698,0.2081273,-0.3421192,-0.09565711,0.6501232,0.8260607,-0.2282692
1.218421,-0.2313281,0.05555328,0.2096163,-0.1922491,-0.06126328,0.5979796,1.028416,-0.2738416
1.239201,-0.0702081,0.09859477,0.2289662,-0.03102841,-0.01595767,0.4580681,1.117646,-0.2343788
1.214266,-0.02296534,0.08664425,0.202565,0.01640099,-0.02555843,-0.03405427,1.08582,-0.060522
1.175461,-0.102831,0.1168,0.1622555,-0.06319685,0.00702121,-0.1527849,1.072672,0.04969025
1.050421,-0.1898519,0.1463326,0.03566983,-0.1498733,0.03904007,0.1128024,1.059987,0.04883718
0.8905577,-0.2875944,0.1490025,-0.1257778,-0.2471957,0.04424626,0.1927412,0.8786235,0.04168373
0.858428,-0.274015,0.1742009,-0.1595207,-0.2331175,0.07201821,0.4016579,0.6906445,0.07548112
0.8232622,-0.1674933,0.1565212,-0.1963158,-0.1260143,0.05693663,0.5529243,0.5179737,0.1274656
0.6860356,-0.1482192,0.1478354,-0.3351725,-0.1060744,0.05086176,0.4804276,0.3259635,0.1489182
0.6799402,-0.1266691,0.1578001,-0.3428805,-0.08377561,0.06343894,0.512555,0.1419956,0.1569255
0.7443483,-0.08670978,0.1485306,-0.2800483,-0.04298801,0.05677331,0.5080709,0.05599945,0.1781029
0.6712365,-0.0622665,0.1822237,-0.3546811,-0.01764165,0.09305197,0.4388488,0.1127474,0.1300817
0.6672176,-0.0111226,0.2012509,-0.3601492,0.0344737,0.1146366,0.3307007,0.122584,-0.00264105
0.615168,-0.002891239,0.1831877,-0.413559,0.04373695,0.0990927,0.07855114,0.1177346,-0.1402497
0.3865351,0.05619236,0.1681482,-0.6434445,0.1039036,0.08652491,-0.1421411,0.008235242,-0.2602555
0.3244653,0.1212282,0.149314,-0.7066363,0.1700627,0.07010674,-0.2281121,-0.3032476,-0.3731321
0.3884966,0.03672142,0.1613287,-0.6435699,0.08670741,0.08447509,-0.2134633,-0.5477172,-0.4916006
0.4542213,-0.03974491,0.1690192,-0.5786277,0.01140978,0.09445074,-0.2559991,-0.7472364,-0.5552393
0.5613119,-0.06634612,0.1404629,-0.4721171,-0.01401287,0.06810536,-0.3864349,-0.9106704,-0.5322392
0.6623823,-0.01640887,0.1245449,-0.3714104,0.03710812,0.05431943,-0.3939299,-0.9039246,-0.5669518
0.8214924,0.06212664,0.1406668,-0.2124409,0.1168277,0.07249104,-0.3656199,-0.7792134,-0.7468839
0.9674911,-0.06258541,0.1745994,-0.0663609,-0.006706171,0.1083877,-0.3026536,-0.5890129,-0.8644934
0.975526,-0.197924,0.1856646,-0.05803084,-0.1408766,0.1213275,-0.09998853,-0.4038963,-0.6320826
0.920438,-0.1823191,0.1528115,-0.1126218,-0.1241133,0.09025547,0.02575651,-0.1317526,-0.270074
0.9753186,-0.1812337,0.06854301,-0.05705393,-0.1218755,0.007671581,0.07313356,0.2057409,-0.2269772
1.264376,-0.2269494,-0.05699412,0.2328671,-0.166441,-0.116277,0.1714423,0.3802233,-0.3010707
1.653014,-0.2953872,-0.1172739,0.6225231,-0.2337258,-0.175059,0.4423851,0.436458,-0.2358947
1.815427,-0.3013636,-0.02211736,0.7860741,-0.2385398,-0.07848682,0.8462625,0.3748122,-0.2495861
1.697382,-0.1653522,0.08243029,0.6692415,-0.1013495,0.02740186,0.8311072,0.155027,-0.3175412
1.579572,0.0226498,0.05316618,0.5526736,0.08785109,-0.0005919371,0.5457601,-0.1294345,-0.2860524
1.446305,0.1130699,0.06494572,0.4206416,0.1794852,0.01238874,0.3921514,-0.3780025,-0.09073425
1.265415,0.07293543,0.1265892,0.2409521,0.1405704,0.07516505,0.1240466,-0.482303,0.2731113
1.264469,0.01851502,0.07539341,0.2411541,0.08736426,0.02503378,0.2312234,-0.5396388,0.4313241
1.304722,-0.0586165,0.03708153,0.282488,0.01143297,-0.01228179,0.6286017,-0.4650492,0.3141432
1.20857,-0.1409698,0.009588038,0.1873394,-0.06973871,-0.03884543,0.6246439,-0.2671573,0.246615
1.043913,-0.08025537,-0.04264533,0.02360078,-0.007862652,-0.09021172,0.8105398,-0.3129757,0.1908361
0.8884153,-0.004955289,0.0002088824,-0.131066,0.06857843,-0.04654813,0.9813336,-0.2789712,0.1713925
0.8173407,-0.02162673,0.02060493,-0.2013898,0.05302464,-0.02539539,0.7799656,0.005077767,0.2509334
0.774236,-0.01302727,0.002727757,-0.2438127,0.06271433,-0.04256453,0.7868412,0.114756,0.2834145
0.6732607,-0.00351297,0.002234525,-0.3441602,0.07328728,-0.04239492,0.5900073,0.1555238,0.3654078
0.5352108,0.01070932,-0.05336585,-0.4816184,0.0885325,-0.09737373,0.2357856,0.2691129,0.4660485
0.4414878,0.06454418,-0.05680991,-0.5747636,0.1433499,-0.1002326,0.2034593,0.518169,0.4150808
0.4173056,0.06591149,0.01616653,-0.5983558,0.1456537,-0.026702,0.2433512,0.8096045,0.3147959
0.4645756,0.004396727,0.08325564,-0.5504569,0.08502343,0.04091377,0.4313561,0.7994639,0.1676341
0.5296938,-0.07819554,0.1091002,-0.4846462,0.003259619,0.067258,0.654895,0.6619165,0.03793748
0.5249528,-0.1227498,0.05598839,-0.4886107,-0.0405228,0.01461741,0.7503637,0.5703604,0.07704555
0.5999338,-0.09488569,0.03167057,-0.4127522,-0.01194125,-0.009258608,0.8624183,0.5774339,0.1169385
0.7804555,-0.04483293,0.06120012,-0.23124,0.03877731,0.02068356,1.055043,0.7390883,0.09344058
0.9032469,0.004434352,0.07577929,-0.1073394,0.08865984,0.03564661,1.217657,0.7739447,0.0253203
0.9763886,-0.03347917,0.1126588,-0.03297211,0.05131028,0.07288082,1.003335,0.5961384,-0.2693126
1.149313,-0.1703946,0.1984228,0.1412854,-0.08509266,0.1589681,0.5990044,0.3884298,-0.6901478
1.579497,-0.2165995,0.3412449,0.5728939,-0.1308334,0.302077,0.3040509,0.3942135,-0.7880049
1.935934,-0.08307292,0.4617201,0.9308173,0.003115172,0.4227922,0.1638366,0.4777746,-0.3823096
1.866978,0.05603257,0.5346703,0.8633639,0.1426045,0.49592,0.1871339,0.3381032,0.009384738
1.700016,-0.01335542,0.5980326,0.6978734,0.0735614,0.5593782,0.2278205,0.1777247,-0.03052143
1.569213,-0.08972171,0.5166788,0.5684692,-0.002501203,0.478018,0.417364,-0.02625398,-0.01076044
1.357196,-0.006619244,0.3798323,0.3577469,0.08086308,0.341045,0.4545258,-0.2011012,0.2392117
1.23178,-0.03832933,0.3906346,0.2335027,0.04937294,0.3515879,0.364825,-0.1755625,0.267
1.084378,-0.1518614,0.4015541,0.08713828,-0.06398071,0.3621065,0.7025214,-0.3335217,0.25831
0.823575,-0.191278,0.3402889,-0.172762,-0.1032574,0.3002925,0.8935829,-0.5224549,0.3545009
0.7059505,-0.161826,0.2808634,-0.2896081,-0.07369827,0.2401659,0.7964555,-0.5033666,0.3482078
0.6107816,-0.02381421,0.2183487,-0.3841056,0.06439342,0.1767967,0.7321611,-0.5363497,0.3945207
0.5027398,0.04452314,0.1829904,-0.4915601,0.1327852,0.1404332,0.5251014,-0.5958997,0.3546475
0.540311,0.04683594,0.1484727,-0.453459,0.1351244,0.1047648,0.3549004,-0.6699225,0.1401979
0.4977479,0.04175217,0.1061862,-0.4955231,0.1300345,0.06118969,0.1948994,-0.7828991,0.02157547
0.4492119,-0.08076213,0.08897064,-0.5435652,0.007477966,0.04255665,0.1188343,-0.8585016,-0.05495531
0.5019455,-0.1502592,0.08408304,-0.4903174,-0.06209786,0.03613307,0.2410446,-0.8626558,-0.06001296
0.5027702,-0.1288604,0.102925,-0.4889349,-0.04081106,0.05333112,0.3114155,-0.7932129,-0.04475481
0.5690122,-0.05948705,0.09988927,-0.4220707,0.02842166,0.04855347,0.3342178,-0.757636,-0.1641333
0.6341008,0.04051653,0.1027526,-0.3562792,0.1282581,0.04958633,0.3858207,-0.7582432,-0.2945239
0.6674501,0.02119648,0.1689986,-0.3221334,0.1087435,0.1139217,0.5662888,-0.7412659,-0.4284871
0.8160989,-0.03386912,0.2396214,-0.1725867,0.05345317,0.1825602,0.707069,-0.698282,-0.4533147
0.9338563,-0.06787441,0.2914368,-0.05382768,0.01919177,0.2323208,0.7198302,-0.6419154,-0.3186097
1.04223,-0.08836874,0.2517899,0.05564753,-0.001589184,0.1905493,0.5988026,-0.5002764,-0.1502013
1.309231,-0.1182418,0.0975546,0.3238384,-0.03177685,0.034121,0.1814291,-0.06522837,0.0297119
