accx,accy,accz,body_accx,body_accy,body_accz,body_gyrox,body_gyroy,body_gyroz
0.1057022,0.7942689,0.6014987,0.004395546,0.03798737,-0.02187947,0.02351602,-0.04724685,0.2883573
0.09476016,0.8046239,0.5940026,-0.006822807,0.04862063,-0.0292362,0.01768421,-0.06100936,0.3097219
0.1065574,0.8042298,0.581004,0.004689566,0.0484499,-0.04205693,0.01866357,-0.03089465,0.3355273
0.1177729,0.801051,0.5744196,0.01561289,0.0454404,-0.04842634,-0.003266846,0.001593171,0.3404034
0.1148036,0.7968263,0.5738546,0.01234501,0.04133216,-0.04874028,-0.02890272,0.0002300942,0.3179097
0.1140739,0.7852295,0.5755691,0.01131106,0.02980031,-0.04673944,-0.05131154,-0.005374281,0.2816381
0.1202492,0.7848018,0.5830064,0.01717691,0.02938763,-0.03898161,-0.06119383,-0.001136881,0.2551553
0.1131563,0.7946508,0.5939708,0.009769994,0.03920365,-0.02766349,-0.04923335,-0.0008617281,0.2486499
0.1083002,0.7957694,0.5984154,0.004595796,0.04024328,-0.02283382,-0.04950686,-0.003219579,0.2590547
0.1121891,0.7897267,0.5957986,0.008163249,0.03407696,-0.02503596,-0.05466954,-1.930622e-06,0.2585966
0.1089305,0.7838474,0.5966872,0.004580673,0.02803123,-0.0237052,-0.05219661,-0.002902829,0.2564061
0.1078838,0.7848691,0.6004531,0.003208236,0.02884558,-0.01947172,-0.03588649,-0.0122932,0.2650566
0.1093064,0.7850686,0.6003278,0.004304165,0.02879888,-0.01910596,-0.01338715,-0.02012279,0.2604226
0.1087267,0.7753195,0.601352,0.003397437,0.01876674,-0.0175692,-0.01762603,-0.02125413,0.2528624
0.10389,0.7713234,0.6034737,-0.001765633,0.01445311,-0.01491551,-0.01870899,-0.01767319,0.2425358
0.0973212,0.775987,0.6031553,-0.008659418,0.01876703,-0.01468454,-0.005420962,-0.02258889,0.238004
0.1009434,0.7827601,0.604096,-0.005359815,0.02516072,-0.01317916,-0.005609839,-0.02363009,0.249952
0.1077285,0.7937944,0.6008157,0.001105993,0.03578779,-0.01588123,-0.004482383,-0.01966255,0.2483478
0.114282,0.7963721,0.5930381,0.007344436,0.03793214,-0.0230689,-0.004161592,-0.01891957,0.241095
0.1185597,0.7879665,0.5928219,0.01131139,0.02906839,-0.02268492,-0.01627826,-0.004328463,0.2342246
0.1126872,0.7787412,0.6040011,0.005132849,0.01936148,-0.01089657,-0.0257128,0.006274713,0.2271616
0.1099288,0.76865,0.614516,0.002073094,0.008767061,0.0002347648,-0.02010948,-0.006688132,0.223533
0.1162413,0.762067,0.607013,0.008089145,0.001661315,-0.006646166,0.003476806,-0.01852154,0.2106037
0.1158433,0.7612325,0.5984051,0.007399773,0.000287126,-0.01462827,0.02355573,-0.01318849,0.213519
0.09835105,0.7647161,0.60687,-0.0103785,0.003216823,-0.005535356,0.01744954,-0.008022666,0.234895
0.08080257,0.7724458,0.6087795,-0.02820715,0.01038057,-0.002997105,0.007469361,-0.01017882,0.2547814
0.08637474,0.7802401,0.6031063,-0.02290809,0.01759901,-0.008042209,0.008562254,-0.00304852,0.2623372
0.095821,0.788576,0.6036155,-0.0137265,0.02535085,-0.006906953,0.0009770885,-0.001316341,0.2578622
0.09369242,0.7928545,0.6024942,-0.0161102,0.02903801,-0.007405521,-0.009250295,-0.00595287,0.2680846
0.1008713,0.7885948,0.6033955,-0.009176091,0.02418062,-0.005885877,-0.01169369,0.001336257,0.2633192
0.1078929,0.7868636,0.6069695,-0.002388442,0.02184603,-0.001698909,-0.01184182,6.810694e-05,0.2448278
0.1037138,0.785627,0.6124436,-0.006790407,0.02000136,0.004381638,-0.001430043,-0.008307642,0.2488157
0.1056041,0.7788839,0.6210059,-0.005111813,0.0126463,0.01354244,0.01378209,-0.01597844,0.2401068
0.1076053,0.7743808,0.6167544,-0.003311109,0.007528703,0.009880217,0.02300465,-0.02557185,0.2296449
0.1097716,0.7655035,0.6031228,-0.00133425,-0.001964484,-0.003172857,0.02450432,-0.0260364,0.2242289
0.1163317,0.757038,0.596942,0.005047453,-0.01104556,-0.008786831,0.02451479,-0.02205739,0.2063374
0.1142328,0.7639653,0.6007663,0.00278068,-0.004731531,-0.004407813,0.03545739,-0.0117986,0.206238
0.1119389,0.7732524,0.6066337,0.0003290486,0.003946422,0.002001705,0.0321238,-0.00457979,0.2053589
0.1119318,0.7820487,0.601542,0.0001739108,0.01213894,-0.002560799,0.01248398,-0.006092256,0.1976734
0.1052089,0.7899224,0.5970497,-0.006687647,0.01941517,-0.006537464,0.00627471,-0.004075333,0.1986036
0.09778005,0.7848517,0.6012561,-0.01424576,0.01375372,-0.001829041,0.006671244,-0.01266601,0.1920806
0.09316937,0.7823991,0.6010834,-0.01897617,0.01071757,-0.00151362,0.01087093,-0.01936671,0.1918583
0.09510171,0.7851942,0.6034942,-0.01715358,0.01293651,0.001371238,0.009186611,-0.01530603,0.1922426
0.09936781,0.7796646,0.607035,-0.0129868,0.006838713,0.0053716,0.004721832,-0.02090385,0.1903982
0.09758586,0.7780133,0.60696,-0.01485733,0.004627585,0.005741486,0.01337854,-0.02069167,0.2002158
0.09981608,0.7814498,0.6119207,-0.01270476,0.007513294,0.01113173,0.01811168,-0.01149405,0.2016213
0.1050711,0.783118,0.6106248,-0.007516403,0.008640174,0.01024977,0.02288824,-0.006728515,0.1982655
0.1020506,0.7854046,0.608059,-0.01059254,0.01039542,0.008081693,0.01365632,-0.004025232,0.1975023
0.09909628,0.7831155,0.6140147,-0.01359168,0.007585132,0.0144184,-0.008484741,-0.005262161,0.1929446
0.0990673,0.7797781,0.6133466,-0.01365471,0.003736962,0.01411431,-0.005077912,-0.007259514,0.186824
0.0993169,0.7779001,0.6080763,-0.01342839,0.001358913,0.009190503,-0.003128992,-0.008912465,0.1777978
0.1044368,0.7741423,0.6044383,-0.00832103,-0.002887632,0.005881189,-0.007195391,-0.009349843,0.1769585
0.1065247,0.7759672,0.6052337,-0.006235171,-0.001539794,0.006987538,-0.0009204716,-0.007702925,0.1801222
0.1033318,0.7788338,0.6120499,-0.009419996,0.000862082,0.01409693,-0.002883785,-0.008769321,0.1815163
0.1024151,0.772964,0.614946,-0.01031866,-0.005459655,0.0172685,0.0006191035,-0.004661428,0.1865733
0.1034784,0.7660246,0.6160255,-0.009227775,-0.01283789,0.01860525,0.008923139,0.001476971,0.1778358
0.1041724,0.7644652,0.6165119,-0.008496947,-0.01482209,0.01933063,0.009138559,-0.0005376112,0.1647044
0.09890208,0.7660584,0.6165014,-0.01372134,-0.01363893,0.01954049,0.01042796,-0.001167038,0.1673413
0.08905754,0.7672955,0.6203316,-0.02351112,-0.01279647,0.02357206,0.01546333,-0.00308021,0.1755325
0.08450662,0.7645431,0.6217109,-0.02799824,-0.01592729,0.02513353,0.02704526,-0.01714063,0.1867601
0.08951909,0.7590831,0.6235284,-0.02291253,-0.02174898,0.02711371,0.04254292,-0.03130215,0.1926894
0.09661948,0.7548189,0.6260243,-0.01572911,-0.0263572,0.02975228,0.05827702,-0.03126783,0.1882325
0.09757585,0.7545521,0.6247645,-0.01467982,-0.0269497,0.02861482,0.06756148,-0.02662263,0.1871272
0.1003356,0.7579856,0.6248038,-0.01181744,-0.02382243,0.02875574,0.07590888,-0.02608918,0.1861471
0.1032208,0.7632553,0.6235892,-0.008820189,-0.01883907,0.02762181,0.0964847,-0.02226307,0.184854
0.1012715,0.7730804,0.6195262,-0.01064848,-0.009279873,0.02361852,0.1060155,-0.02499609,0.186355
0.1058162,0.7812294,0.613359,-0.005974253,-0.001376374,0.01748993,0.1104523,-0.03279797,0.179138
0.110392,0.7826304,0.6090375,-0.001261132,-0.0002010126,0.01318647,0.1261473,-0.02489485,0.1671455
0.1071543,0.7853759,0.6100678,-0.004354181,0.002338033,0.01421469,0.1213108,-0.01667969,0.1580543
0.1033793,0.786976,0.6055798,-0.007978181,0.003749859,0.009705414,0.1096716,-0.01667999,0.1526817
0.1011269,0.7876079,0.5988068,-0.01007359,0.004210893,0.00289272,0.1026644,-0.01456061,0.1522969
0.1050982,0.7906045,0.601247,-0.005939881,0.007052834,0.005275987,0.07955462,-0.0144864,0.1492353
0.1125066,0.7930494,0.6054345,0.001635933,0.009358404,0.009390352,0.06410026,-0.01175636,0.1433663
0.1144916,0.7998316,0.6073781,0.003792512,0.01601518,0.01124561,0.0481822,-0.01109511,0.1339397
0.1164264,0.8027135,0.6094275,0.005902354,0.01878456,0.0131924,0.02750936,-0.01279665,0.1223297
0.1204126,0.7957589,0.6021536,0.01006602,0.01172859,0.005802199,0.0266542,-0.004625083,0.1220035
0.1181034,0.7910969,0.5887656,0.007935553,0.006975368,-0.007714697,0.009345114,0.004367248,0.1232232
0.1123578,0.7908612,0.5888733,0.002369095,0.006657376,-0.007747411,-0.02182806,0.01639733,0.1188861
0.1096002,0.7911164,0.6000123,-0.0002097818,0.006838538,0.003241337,-0.02966976,0.03017036,0.1190904
0.1050469,0.7880538,0.607654,-0.004585303,0.003709345,0.01072393,-0.0297283,0.02845287,0.1171263
0.1024056,0.7818236,0.6061792,-0.007050014,-0.00258051,0.009082105,-0.02498521,0.02406351,0.1134041
0.1045013,0.7745532,0.6030708,-0.004779168,-0.009904118,0.005799408,-0.01146489,0.0281647,0.1139036
0.1014291,0.7686811,0.6087309,-0.007677575,-0.0158228,0.01127829,0.002666134,0.02697515,0.114136
0.09765293,0.7690528,0.6124993,-0.01128146,-0.01549091,0.01485928,0.01342147,0.02058349,0.1176315
0.09866793,0.7682624,0.6137587,-0.01009553,-0.01631393,0.01592529,0.01517034,0.01865101,0.1215813
0.09929948,0.7637086,0.6163568,-0.009294266,-0.02089263,0.01832428,0.0182294,0.01971376,0.119656
0.1012003,0.7626508,0.6115916,-0.007224793,-0.02196733,0.01335419,0.02789207,0.01993127,0.1189951
0.104332,0.7668427,0.6128871,-0.003925534,-0.01778378,0.01443934,0.03488535,0.01150037,0.1190228
0.1066437,0.773482,0.6183107,-0.001447436,-0.01114376,0.01964732,0.04198337,-0.000252199,0.1142115
0.1088766,0.7749055,0.6134368,0.0009504878,-0.009710455,0.0145526,0.04984935,0.001054978,0.1081159
0.1080693,0.7772715,0.6059334,0.0003065247,-0.007325745,0.006823457,0.04608445,0.002694658,0.1030669
0.1032445,0.7837072,0.5966091,-0.004356923,-0.0008626523,-0.002731205,0.03367402,-0.0005671239,0.1023922
0.100066,0.7824292,0.5958722,-0.007376221,-0.002105092,-0.003702151,0.02899373,0.003823939,0.104526
0.1016246,0.7805505,0.6030093,-0.005660697,-0.003940519,0.003198154,0.02797255,0.007135475,0.1009205
0.1037593,0.7814298,0.6030088,-0.00337131,-0.003010826,0.002958984,0.02445152,0.007152941,0.09658773
0.1043805,0.7773272,0.6094178,-0.002597457,-0.007056443,0.009128014,0.02393636,0.009910226,0.09452664
0.1043397,0.7755913,0.6129817,-0.002488067,-0.008729096,0.01245113,0.02334969,0.01189036,0.09199702
0.1036044,0.7784907,0.6072289,-0.003075397,-0.005760423,0.006456916,0.02175859,0.01133743,0.09733171
0.102428,0.7798738,0.6124184,-0.004106394,-0.004302235,0.01140465,0.02211476,0.01034283,0.1024827
0.101112,0.7790141,0.6134506,-0.005279501,-0.005081503,0.01219481,0.02350891,0.01146485,0.09499135
0.1019413,0.7778871,0.6082084,-0.004309785,-0.006123016,0.006710588,0.02474952,0.01244692,0.0885871
0.1026582,0.777981,0.6090895,-0.003454903,-0.005938883,0.007349715,0.02376084,0.01255809,0.09058855
0.09819726,0.7785447,0.6092501,-0.007780286,-0.00528054,0.007268773,0.01955517,0.0106976,0.09199441
0.09539534,0.7794433,0.6117493,-0.01044895,-0.004283142,0.009526963,0.01565845,0.006394184,0.09234186
0.1022893,0.7780091,0.6099464,-0.003423881,-0.005614703,0.007483897,0.02067654,0.006410863,0.09403133
0.1100976,0.7715915,0.6063402,0.00451365,-0.01192609,0.003638544,0.02963583,0.008562269,0.0929964
0.1090765,0.7662985,0.6095807,0.003619474,-0.0171093,0.00664112,0.03526786,0.01022876,0.08988042
0.1059958,0.7692049,0.6109005,0.0006631474,-0.01408961,0.007724557,0.04330252,0.01364108,0.08735125
0.1036594,0.7765032,0.6184212,-0.0015516,-0.006674091,0.01501053,0.04498572,0.01186414,0.08678461
0.09917388,0.779685,0.6259389,-0.005918422,-0.003371414,0.02229505,0.04513849,0.004691735,0.08931303
0.1034445,0.7812911,0.6171954,-0.001531943,-0.001641004,0.01331966,0.05256887,0.003961391,0.08570858
0.1138315,0.7847436,0.6082525,0.008968056,0.001938658,0.00414579,0.03732118,0.01948816,0.07131982
0.1137975,0.7858802,0.6093974,0.009044025,0.003204985,0.005060816,0.006268784,0.03497459,0.0551307
0.1071295,0.7848433,0.6105261,0.0024823,0.002299425,0.005960773,-0.007150904,0.02103657,0.04756441
0.1024311,0.7820319,0.6081459,-0.002113627,-0.0003794447,0.003353438,-0.01262066,0.004745737,0.04956816
0.1032167,0.7791912,0.6058457,-0.001229522,-0.003086916,0.0008279141,-0.01344029,0.01521189,0.0483105
0.1049736,0.7761127,0.6036535,0.0006221042,-0.006031796,-0.00158738,-0.008526384,0.01689136,0.04480717
0.0985027,0.766412,0.607301,-0.00575789,-0.01559871,0.001839675,-0.002919887,0.007103866,0.05213763
0.09367718,0.7547535,0.6169119,-0.01049607,-0.02712297,0.01123306,0.01080011,0.001725391,0.06834243
0.09501205,0.7461038,0.623043,-0.009077044,-0.03563718,0.01714964,0.02572801,-0.01431764,0.08149534
0.09706867,0.742057,0.6265176,-0.006938991,-0.03954633,0.02041242,0.05559038,-0.01879178,0.0846063
0.1021254,0.7521585,0.6239952,-0.001803185,-0.02930349,0.01768029,0.1000874,-0.004165446,0.08988716
0.1075638,0.7707191,0.6193318,0.003712094,-0.01059712,0.01280885,0.1055278,0.01080942,0.09685839
0.1116777,0.7823517,0.6203235,0.007900603,0.001186105,0.01359368,0.08563021,0.02871525,0.08722667
0.1079232,0.7863272,0.6172424,0.00421803,0.005316641,0.01030685,0.08138111,0.02796349,0.07808074
0.1001062,0.786434,0.6088696,-0.003529773,0.005582065,0.001729332,0.07116599,0.01799356,0.07785385
0.1040607,0.7867533,0.600057,0.0004910364,0.006062554,-0.007286901,0.05761065,0.02281157,0.06487005
0.1076965,0.7907377,0.598319,0.004190315,0.01020986,-0.009226665,0.04000894,0.01757888,0.05046103
0.1058637,0.7943313,0.6006253,0.00241818,0.01396694,-0.007119589,0.002521393,0.01406083,0.04551796
0.1066985,0.7930538,0.596135,0.003310513,0.01285254,-0.01180581,-0.02015976,0.021622,0.04020301
0.1041359,0.7881811,0.6003141,0.000802403,0.008141466,-0.00781848,-0.02662084,0.0195235,0.03726269
0.1033932,0.7802174,0.6092392,0.0001111874,0.0003370877,0.0009196382,-0.0308664,0.01622133,0.03542768
0.1050062,0.7672761,0.6127283,0.001772514,-0.01244777,0.00422684,-0.01757531,0.01068359,0.03597986
0.1036009,0.7585106,0.6241922,0.0004125471,-0.02105939,0.01551394,-0.00459978,0.007498527,0.04043642
0.1041606,0.7598191,0.6304007,0.001014571,-0.01959913,0.02155028,0.009385065,0.008460883,0.04033801
0.1030966,0.7608862,0.6277086,-1.005999e-05,-0.01838162,0.01868997,0.03229955,0.002022976,0.04205629
0.100156,0.7642981,0.62656,-0.00291404,-0.01482017,0.01737631,0.04713989,0.002793801,0.05075146
0.09885621,0.7730122,0.6162777,-0.004179843,-0.005956714,0.00693142,0.05471791,0.002856587,0.05669117
0.09877881,0.7764459,0.6053849,-0.004225639,-0.002373846,-0.004121779,0.04594151,-0.002653141,0.05376039
0.1024515,0.776458,0.6076874,-0.000523431,-0.002212792,-0.001977398,0.03451178,-0.0002293197,0.04650939
0.1051708,0.7772373,0.6121742,0.002223453,-0.001285173,0.002353827,0.03533796,0.001188986,0.04132895
0.1032176,0.7786731,0.6096438,0.0002959412,0.0002982562,-0.000329157,0.02814185,0.006570432,0.0365234
0.1011042,0.7787873,0.6098729,-0.001793547,0.0005589543,-0.0002495939,0.02335209,0.0118254,0.03593242
0.1013951,0.7751005,0.6134206,-0.001480526,-0.002982821,0.003151772,0.02326397,0.008219271,0.0404327
0.1025749,0.7740544,0.6115925,-0.0002802766,-0.003885598,0.001180623,0.02005554,0.007795828,0.0406082
0.1028129,0.77363,0.6159046,-2.322869e-05,-0.004168335,0.00535311,0.02435748,0.007759546,0.03929678
0.103135,0.7713668,0.619806,0.0003164157,-0.006291751,0.009118201,0.02588737,0.007614894,0.03824947
0.1033999,0.7722666,0.6123301,0.0005975331,-0.005254006,0.001509067,0.02179832,0.008311616,0.03509726
0.1034153,0.772495,0.6108502,0.0006277164,-0.004889359,-0.0001009398,0.01997218,0.007553246,0.03043213
0.1027099,0.7719677,0.6165769,-6.409316e-05,-0.005282136,0.005498539,0.02058428,0.009624193,0.02452836
0.1013195,0.772559,0.6219917,-0.00144234,-0.004558133,0.0107892,0.02287575,0.009070011,0.02838645
0.1018717,0.7737257,0.6229848,-0.0008790855,-0.003260395,0.01166097,0.02526044,0.003645332,0.03904467
0.1031128,0.7775436,0.6195585,0.0003720425,0.0006868102,0.008115579,0.03329731,-0.001278528,0.04293524
0.1047095,0.7797673,0.6171347,0.001977681,0.003037808,0.005574674,0.03897735,0.0009003933,0.0402311
0.1052758,0.7759992,0.6130485,0.002551913,-0.0006051472,0.001373231,0.03474937,0.005430994,0.03156447
0.1032965,0.7699465,0.6130092,0.0005795192,-0.006535109,0.001220422,0.0324616,0.002396077,0.02544242
0.1026684,0.7687129,0.6138392,-4.280068e-05,-0.007648342,0.001938899,0.03187265,0.001708032,0.0260525
0.1025632,0.7725109,0.6120825,-0.000143286,-0.003732135,7.266363e-05,0.03012986,0.004053751,0.02479751
0.1029529,0.7772944,0.6144066,0.0002501925,0.001167372,0.00228926,0.03034658,0.00511503,0.01935137
0.1040178,0.7806082,0.6135347,0.001317894,0.00459493,0.001312143,0.02941949,0.009293489,0.01548551
0.1039811,0.7793544,0.6129594,0.001283094,0.003452389,0.0006337761,0.0277282,0.007703012,0.02069675
0.1045475,0.7783023,0.611203,0.001850477,0.002508774,-0.00122343,0.02441822,0.003152793,0.02325376
0.1040152,0.7789198,0.6062855,0.001318211,0.003231632,-0.006239285,0.01844427,0.004305364,0.01748979
0.1035806,0.7745841,0.6095993,0.0008827054,-0.001001837,-0.00302114,0.01525476,0.006373053,0.01540011
0.1028419,0.7709354,0.6107242,0.0001421614,-0.004551721,-0.001988868,0.0142866,0.008050643,0.01476106
0.1005966,0.7738615,0.6093776,-0.002105793,-0.001530052,-0.003424944,0.0146896,0.007993132,0.01668364
0.1022477,0.7759651,0.6136733,-0.0004581357,0.0006660232,0.0007844751,0.01974534,0.00814908,0.01747929
0.103589,0.7729686,0.6179974,0.0008791333,-0.002241255,0.005025734,0.02546242,0.00911114,0.01321185
0.1023482,0.7713487,0.6207452,-0.0003663268,-0.003774918,0.007693844,0.02800247,0.009679687,0.01328971
0.1028583,0.773505,0.618473,0.0001385483,-0.001535313,0.005344747,0.02664036,0.011589,0.01124961
0.1026823,0.7740218,0.6168124,-4.318257e-05,-0.0009381469,0.003609869,0.02364411,0.007760995,0.00921723
0.1017702,0.7739274,0.6179304,-0.0009613621,-0.0009548485,0.004656013,0.0239724,0.00345983,0.01107467
0.1013911,0.7763559,0.6153943,-0.001346959,0.001548499,0.002050079,0.02380352,0.005511471,0.008437399
0.1020981,0.7778615,0.6121933,-0.0006466908,0.003126122,-0.001218692,0.02272874,0.004242554,0.009043432
0.1033231,0.774369,0.6076307,0.0005713702,-0.0002972263,-0.005846927,0.02332189,0.002666706,0.01256072
0.1027342,0.7694243,0.6072145,-2.45676e-05,-0.005175626,-0.006326552,0.02191833,0.00432848,0.01329722
0.1027263,0.7695219,0.6140422,-3.961469e-05,-0.005014447,0.0004402735,0.02237954,0.004221937,0.01232466
0.1039078,0.7707997,0.6182136,0.001134623,-0.00367555,0.004553394,0.02468798,0.003993573,0.01034738
0.1046831,0.7722782,0.6212354,0.001902511,-0.002138246,0.007519382,0.02510051,0.004490821,0.01401709
0.1060485,0.7760448,0.6216995,0.003260348,0.001684989,0.007929848,0.02810671,0.004402429,0.01665725
0.1069998,0.7738412,0.61575,0.004203926,-0.000464015,0.001928564,0.03119556,0.00369615,0.0133735
0.1054013,0.7703672,0.6133314,0.002597228,-0.003885441,-0.0005402479,0.02991409,0.003655325,0.009342834
0.1036378,0.7728633,0.6137931,0.0008250428,-0.001338824,-0.0001272416,0.0291404,0.003775984,0.003562692
0.1058341,0.7725989,0.6117175,0.003012075,-0.00155454,-0.002249891,0.0298272,0.003698725,0.001639335
0.1082412,0.7716528,0.6114687,0.005409344,-0.002453746,-0.00254421,0.02602026,0.004187097,0.001560105
0.1076077,0.7740647,0.6134867,0.004765253,3.402504e-06,-0.0005699251,0.02148162,0.004095756,0.001542633
0.1082615,0.7754638,0.6162439,0.005407557,0.001446181,0.002145439,0.02057156,0.005502087,0.005522725
0.108167,0.776359,0.6156988,0.005300497,0.002383268,0.001560197,0.01837165,0.00797798,0.003104314
0.1043,0.7740424,0.613231,0.001419728,0.0001069453,-0.0009459914,0.01702676,0.007475519,-0.0004410018
0.1016185,0.7711309,0.6140004,-0.00127684,-0.002766101,-0.0002133866,0.01658575,0.00281043,0.002123985
0.1016497,0.7741093,0.6116705,-0.001261802,0.0002490615,-0.002578478,0.01556246,-0.001902833,0.001521306
0.1016462,0.7757825,0.6087199,-0.001282348,0.001957346,-0.005562409,0.01776921,-0.0002369126,0.002865423
0.1016347,0.7728513,0.6093291,-0.001311775,-0.0009403034,-0.00498477,0.02006994,0.001793601,0.00418441
0.1040502,0.7718508,0.6075189,0.001085204,-0.001908943,-0.006824363,0.02267335,0.0005772364,-0.00330883
0.1066434,0.7740905,0.6042247,0.003659295,0.0003610027,-0.0101456,0.02421054,0.004787876,-0.00800817
0.1055976,0.7754497,0.6038415,0.002593896,0.001749049,-0.01055323,0.02105701,0.009354533,-0.002463939
0.1050262,0.7731999,0.6092509,0.002002263,-0.0004733485,-0.005165098,0.01980253,0.007470189,0.002733006
0.1063469,0.771471,0.6125317,0.003302055,-0.002176356,-0.001902426,0.02112326,0.007130955,-0.0009927155
0.1072129,0.7732362,0.608889,0.004146578,-0.0003866664,-0.005559818,0.0228116,0.008346986,-0.004826391
0.1087637,0.7745657,0.6077521,0.005675116,0.0009659328,-0.006708239,0.02502779,0.0046472,-0.005105817
0.1087506,0.7751811,0.609289,0.005638842,0.001603224,-0.00517936,0.02335852,0.001376339,-0.009347493
0.1077547,0.7768376,0.6104068,0.004618706,0.003280359,-0.004066023,0.01805043,0.003797274,-0.01017048
0.1086029,0.77715,0.6106709,0.005441508,0.003611904,-0.003803001,0.01286468,0.006547299,-0.007051457
0.107906,0.7776331,0.611266,0.004717903,0.004112582,-0.003205597,0.01094315,0.006217363,-0.007789666
0.1053479,0.7799298,0.6135268,0.002131832,0.0064253,-0.0009391108,0.01246489,0.004082498,-0.005604321
0.1039842,0.7795345,0.6135988,0.0007387736,0.006044047,-0.000858138,0.01329477,0.001451163,-0.002441898
0.1055173,0.7778882,0.6123343,0.002241267,0.004409805,-0.002110725,0.01428699,0.001416228,-0.00567487
0.1078722,0.7767827,0.6105461,0.004564305,0.003314155,-0.003884189,0.01516122,0.00223392,-0.008796857
0.1057703,0.7732907,0.6105478,0.002429406,-0.0001703151,-0.00386491,0.01359393,0.001041057,-0.00659014
0.1027823,0.7728534,0.6120418,-0.0005927259,-0.0006022519,-0.002350796,0.01558382,0.0009562824,-0.002832083
0.102957,0.7754366,0.611247,-0.0004531373,0.001984165,-0.003122754,0.01991497,0.001356929,-0.001238284
0.1034449,0.7745525,0.6146429,-1.257552e-06,0.001101436,0.0002984062,0.02033596,0.002862947,-0.005988107
0.1045386,0.7731167,0.618451,0.001055711,-0.000334959,0.004133988,0.02039921,0.006073353,-0.01335864
0.1042801,0.7723102,0.6169844,0.0007599979,-0.001143852,0.00269692,0.01976937,0.00543176,-0.01150818
0.1027088,0.7738048,0.616168,-0.0008490018,0.0003467967,0.001911601,0.01845282,0.005637329,-0.01032075
0.1029171,0.7780068,0.6149636,-0.0006787944,0.004543299,0.0007394699,0.01778143,0.009175104,-0.01477555
0.1027875,0.7782685,0.6137246,-0.0008465212,0.004798078,-0.0004662502,0.01366376,0.00826319,-0.0107885
0.1036331,0.7775379,0.6126473,-3.906044e-05,0.004058902,-0.001509359,0.01176485,0.005681708,-0.007958883
0.104711,0.778937,0.6092898,0.001000735,0.005447869,-0.00483195,0.01299457,0.0047824,-0.01060707
0.1039243,0.7792867,0.6082273,0.0001761959,0.005785544,-0.005858778,0.0117123,0.004617169,-0.0108445
0.1047308,0.7791462,0.6118679,0.0009451013,0.005631178,-0.002181627,0.01283024,0.005646669,-0.01353916
0.10693,0.777762,0.6153455,0.003106959,0.004231111,0.001333253,0.01416706,0.004946205,-0.01374709
0.1090102,0.7753261,0.6135669,0.005150156,0.001777306,-0.0004072416,0.01311969,0.005103331,-0.01224461
0.1088167,0.772773,0.6103072,0.004919765,-0.0007957017,-0.003628201,0.01334797,0.008764486,-0.0138953
0.1072098,0.7715938,0.6104465,0.003275897,-0.001996666,-0.00344955,0.01104383,0.01165313,-0.01170444
0.1069346,0.773555,0.6139802,0.002963766,-5.880801e-05,0.0001239237,0.007538941,0.01223301,-0.009604424
0.1051396,0.7749478,0.6191815,0.001131558,0.001309248,0.005365535,0.007429811,0.01120896,-0.01103332
0.105086,0.7747099,0.6184884,0.001040593,0.001045365,0.004712834,0.0090923,0.009716807,-0.01218005
0.1071225,0.7733621,0.6136614,0.003039674,-0.0003295394,-7.379556e-05,0.009610067,0.008910006,-0.01392509
0.1058923,0.7719994,0.6119662,0.001771945,-0.001720254,-0.00172904,0.005282657,0.01111608,-0.01616601
0.1052711,0.7753416,0.610435,0.001113119,0.001593049,-0.003220684,0.001450001,0.01402298,-0.01871301
0.1048031,0.7803337,0.6111741,0.0006074382,0.006555595,-0.002442363,0.006422065,0.009478637,-0.02076048
0.1009227,0.7809948,0.6139003,-0.003310685,0.007186427,0.0003227651,0.01224992,0.002786187,-0.01956678
0.09727692,0.777833,0.6148063,-0.00699399,0.003993324,0.001267213,0.01003487,0.002011462,-0.01521413
0.097213,0.7734586,0.6168546,-0.007094877,-0.0004133245,0.003353578,0.003999939,0.002740903,-0.01075554
0.09924072,0.771176,0.6169399,-0.005103201,-0.002729131,0.003476223,-0.0007128418,0.00279351,-0.006754868
0.1010933,0.771746,0.615847,-0.003285416,-0.002193178,0.002419835,-0.000760805,0.00462524,-0.005403246
0.1062864,0.7710003,0.6153692,0.001874344,-0.002973375,0.001977532,0.002253328,0.01299282,-0.015035
0.1096584,0.7694463,0.6135502,0.00521449,-0.004562028,0.000192788,0.002857629,0.02086845,-0.0260272
0.1038158,0.7736321,0.6163967,-0.0006586415,-0.0004108717,0.003072326,0.006025288,0.01163331,-0.01885557
0.09844592,0.7779506,0.6182807,-0.006057743,0.00387327,0.004987947,0.01217085,4.554869e-05,-0.006157871
0.09932219,0.7737273,0.6115252,-0.005209344,-0.0003841601,-0.001737509,0.01467888,0.005494563,-0.005193274
0.1049423,0.7713013,0.6064414,0.0003844978,-0.002844009,-0.006792629,0.02127889,0.01015823,-0.009183132
0.1105535,0.7772001,0.609714,0.005970983,0.003021392,-0.00349286,0.02912861,0.007144918,-0.01473416
0.1078465,0.7800463,0.6130055,0.003240791,0.005834659,-0.0001751845,0.02233962,0.007893927,-0.01743196
0.1023585,0.7741032,0.6103605,-0.002269086,-0.000141129,-0.002795002,0.01269962,0.006328046,-0.01585007
0.09980763,0.7674704,0.609781,-0.00484074,-0.006806228,-0.003350112,0.01487628,0.002378269,-0.01866435
0.09829142,0.7674126,0.6113568,-0.006376358,-0.006895909,-0.001750697,0.01457413,0.002105048,-0.01737732
0.09875678,0.7703576,0.6109111,-0.005928847,-0.003981833,-0.002173344,0.009951767,0.001028798,-0.009645762
0.09963386,0.7730696,0.6133457,-0.005067832,-0.001299667,0.0002836533,0.009249223,-0.002199205,-0.007470052
0.1030896,0.7744583,0.6145019,-0.001626174,6.048207e-05,0.001461832,0.001860676,-0.005602587,-0.007114809
0.1090366,0.7672643,0.6119605,0.004308714,-0.00716068,-0.001058169,-0.004107064,-0.005206984,-0.006105649
0.1092899,0.7582062,0.6060951,0.004551775,-0.01624433,-0.006902696,0.0009072132,-0.002485862,-0.01186946
0.1070275,0.7618399,0.6001336,0.002280775,-0.01263412,-0.01284365,0.006171509,-0.002496065,-0.01825975
0.1069086,0.7710087,0.6076835,0.002154455,-0.003486255,-0.005273179,0.01718138,-0.008085689,-0.01214739
0.1055264,0.7776736,0.6166518,0.0007659655,0.003160644,0.00371608,0.0270345,-0.01657739,-0.006441294
0.1067471,0.7814142,0.6121515,0.001981402,0.006886085,-0.0007627766,0.02595954,-0.01348574,-0.01202983
0.1090901,0.7777143,0.6115177,0.004319934,0.00317335,-0.001374874,0.03014134,-0.009001275,-0.01360904
0.1053429,0.7727244,0.6176917,0.0005688777,-0.001827276,0.004821027,0.03534187,-0.0140866,-0.01375714
0.1019047,0.7714183,0.6180794,-0.002872704,-0.003142179,0.005230603,0.03382806,-0.01271733,-0.01818639
0.1027852,0.7739701,0.6153229,-0.001995099,-0.0005973509,0.00249579,0.03409515,-0.01174186,-0.01822278
0.1037129,0.7807472,0.6127682,-0.001069666,0.006174624,-3.764154e-05,0.03125534,-0.01040938,-0.01656194
0.1061988,0.7811292,0.6115039,0.001414573,0.006552977,-0.001281164,0.02263321,-0.0001819546,-0.0157256
0.1094555,0.7806418,0.6115332,0.004670159,0.006063169,-0.001231702,0.01449364,0.001424205,-0.01580335
0.1087949,0.7839837,0.6098918,0.004008846,0.009403346,-0.002853521,0.01027687,-0.004959636,-0.01839068
0.1069328,0.7808948,0.608597,0.002146151,0.006313037,-0.00412898,0.01004782,-0.008469094,-0.01980511
0.1060632,0.7814895,0.6066069,0.001275942,0.006906267,-0.006100053,0.005436249,-0.005791406,-0.01808049
0.1035429,0.7833571,0.6060525,-0.001245048,0.008771963,-0.006635498,-0.004293585,-0.001574272,-0.01500913
0.1045932,0.7787201,0.6090061,-0.0001954579,0.004132249,-0.003662615,-0.009929619,-0.001875613,-0.0123891
0.1114752,0.7737623,0.6082291,0.00668561,-0.0008293403,-0.004420012,-0.009426583,0.006311897,-0.01227149
0.114641,0.7656694,0.6079381,0.00985021,-0.008926922,-0.004690769,-0.006204454,0.01473497,-0.01386449
0.1102375,0.7681084,0.6101307,0.005444923,-0.006493414,-0.002477204,-0.006241443,0.006896893,-0.01344552
0.103782,0.7781996,0.6129896,-0.001013211,0.00359201,0.000403427,-0.005237658,-0.0003313978,-0.01261547
0.103029,0.7777218,0.6188329,-0.00176981,0.003108188,0.006269075,-0.001717588,0.0009524836,-0.01028151
0.1052157,0.7780385,0.6183289,0.0004123164,0.003418547,0.005787794,-0.00437172,0.002679726,-0.004836842
0.1039045,0.7768444,0.6155136,-0.000904103,0.002217678,0.002995327,-0.005760308,0.008186095,-0.002721477
0.1048868,0.7705275,0.6140232,7.225663e-05,-0.004106394,0.001527406,-0.007003565,0.01707292,-0.00310381
0.1061923,0.7667557,0.6085686,0.00137125,-0.00788578,-0.003904892,-0.01297401,0.01789601,-0.005392698
0.1041775,0.7646614,0.6130826,-0.0006505345,-0.009987734,0.0006308872,-0.01620075,0.01425346,-0.008528974
0.1046011,0.7682092,0.6201282,-0.0002345185,-0.006447107,0.007697925,-0.01596304,0.01495362,-0.003544659
0.1071502,0.7712553,0.6151542,0.002306574,-0.003407416,0.0027447,-0.002340114,0.01357671,0.001851647
0.1109405,0.7720352,0.6120997,0.006088317,-0.002632979,-0.000289804,0.01309753,0.01350723,-0.000779435
0.1116219,0.7740484,0.6113783,0.006760647,-0.00062402,-0.0009921194,0.009163012,0.01551855,-0.001280458
0.1077098,0.7743686,0.6103959,0.002838565,-0.0003069376,-0.001956304,0.008634056,0.01162083,0.001199731
0.1063065,0.7775647,0.6150522,0.001424384,0.002887101,0.002717379,0.01613207,0.009707457,0.001033007
0.107002,0.778409,0.6177365,0.002107954,0.003730293,0.005418291,0.01209572,0.00716583,0.001934637
0.1081162,0.7775575,0.6172916,0.003209207,0.002878513,0.004988912,0.007745698,-0.001274583,0.0004540368
0.1095004,0.7801428,0.6164871,0.004579418,0.005463872,0.004198803,0.008806267,-0.002732507,-0.009998147
0.1126058,0.7791761,0.6138083,0.007669642,0.004497526,0.00153294,0.002953504,0.005773717,-0.02220193
0.1168072,0.7738446,0.6120586,0.01185456,-0.0008335787,-0.0002052291,-0.006309651,0.01374605,-0.02615041
0.1155244,0.767378,0.6100692,0.01055352,-0.007299781,-0.002184601,-0.0113666,0.01248522,-0.0240157
0.113156,0.7706054,0.608992,0.008164865,-0.004071906,-0.003253102,-0.01038568,0.00978125,-0.02583035
0.1133797,0.7778242,0.608812,0.008365987,0.003147643,-0.003425465,-0.007600192,0.01224918,-0.02681782
0.1117473,0.7760601,0.6083288,0.006708466,0.001384662,-0.003901838,-0.01032781,0.01010205,-0.01773415
0.1102583,0.7768671,0.6105668,0.005191614,0.002193027,-0.001657762,-0.01076693,0.007638047,-0.008536294
0.1088001,0.7765418,0.6098015,0.003702933,0.001869214,-0.002417444,-0.01103343,0.008391826,-0.007565377
0.1076718,0.7709477,0.6079361,0.002541423,-0.003723337,-0.004277487,-0.01600096,0.006960138,-0.01577594
0.1097528,0.7675871,0.609639,0.004586731,-0.007082305,-0.002569457,-0.01436575,0.01016686,-0.02401458
0.1110946,0.764419,0.611933,0.005890332,-0.0102484,-0.000270279,-0.01215497,0.01485841,-0.01952001
0.1112128,0.7674763,0.6180744,0.005967865,-0.007188397,0.005876249,-0.009478241,0.01428333,-0.01397623
0.1124577,0.7705707,0.6215071,0.00716963,-0.004090212,0.009313899,-0.002151883,0.01311911,-0.01290367
0.1134443,0.7635097,0.6211214,0.008110677,-0.01114615,0.008932745,0.001724724,0.01124935,-0.01135904
0.1142712,0.7562757,0.625828,0.008889309,-0.01837332,0.01364289,0.01191801,0.008577484,-0.01460153
0.1132742,0.7551558,0.628106,0.007841388,-0.01948409,0.01592287,0.02320834,0.006999099,-0.01791729
0.1099402,0.7614003,0.6228343,0.00445375,-0.01322753,0.01065117,0.02145811,0.0008489878,-0.02011581
0.107581,0.7708897,0.6153953,0.002038077,-0.003722581,0.003209567,0.02349734,-0.008228036,-0.02082213
0.1079694,0.7760303,0.6143798,0.002367486,0.001437188,0.002188704,0.03221426,-0.006739107,-0.01439874
0.1101142,0.7797194,0.6199207,0.004450988,0.005148967,0.00772148,0.03050469,-0.004784479,-0.01050354
0.1107337,0.7859164,0.6201135,0.005006962,0.01137154,0.007903354,0.0267346,-0.01687525,-0.0127122
0.1114357,0.7897616,0.612832,0.005643287,0.0152445,0.0006080219,0.02676253,-0.02237574,-0.01608245
0.113038,0.7880626,0.6056474,0.007177857,0.01357469,-0.006593277,0.01688133,-0.01171133,-0.01905762
0.1123269,0.7853078,0.6072713,0.00639708,0.01084955,-0.004988513,0.003272249,-0.002894128,-0.01932133
0.1118244,0.7808624,0.6109811,0.005822771,0.006433536,-0.00129982,-0.00961113,-0.006273076,-0.02058898
0.1125646,0.7772008,0.6103697,0.006489128,0.002800569,-0.001933902,-0.01983994,-0.01320273,-0.02239387
0.1136682,0.7787494,0.6194939,0.007517009,0.004376796,0.007166117,-0.01294879,-0.01088801,-0.02266454
0.1142387,0.7749729,0.6260799,0.008009637,0.0006266035,0.0137266,-0.004202026,-0.004443161,-0.02304172
0.1130702,0.7681536,0.6156763,0.006761356,-0.00616767,0.003295744,-0.002777447,0.0006555574,-0.01940251
0.1113815,0.7691705,0.6088573,0.004990797,-0.005126906,-0.003552271,0.00242931,-0.0007364391,-0.01484785
0.1089074,0.7710285,0.610576,0.002432889,-0.003245898,-0.001864317,0.00183782,-0.007755406,-0.01421076
0.1093839,0.7700298,0.6116789,0.002823787,-0.00422227,-0.0007934974,-0.0005686231,-0.006405297,-0.01519806
0.1115515,0.7673976,0.6145163,0.004904233,-0.006832647,0.002010734,0.004626622,-0.008362019,-0.01879429
0.1107864,0.7646215,0.619509,0.004050483,-0.00958709,0.00696918,0.01149049,-0.01567565,-0.02163573
0.1115938,0.7675523,0.6211797,0.004767979,-0.006634515,0.008604623,0.02502234,-0.0168428,-0.02298814
0.1130953,0.770596,0.6204429,0.006178337,-0.003568507,0.007831252,0.03892912,-0.02083646,-0.02593346
0.1138335,0.7666194,0.6204044,0.006824226,-0.007522232,0.007754729,0.04166335,-0.02269165,-0.02577953
0.1132757,0.7640759,0.6161445,0.006172975,-0.01004193,0.003455193,0.04717164,-0.02262983,-0.02547201
0.1097945,0.7676605,0.6123261,0.002597257,-0.006432359,-0.0004045393,0.05477952,-0.02611178,-0.02603669
0.110132,0.7702132,0.6147681,0.002839244,-0.003853263,0.001994521,0.05252196,-0.03146892,-0.02409335
0.1146865,0.7717203,0.6181181,0.007297353,-0.002318235,0.005300121,0.05745217,-0.03887521,-0.02534026
0.1186885,0.7754729,0.6184396,0.01120215,0.001463685,0.005575907,0.06783685,-0.03411603,-0.02751434
0.1188954,0.777547,0.6127751,0.01131098,0.003568475,-0.0001356772,0.06289135,-0.02694428,-0.02944336
0.1159124,0.7773998,0.6050896,0.008228703,0.003452969,-0.007869519,0.05497462,-0.02702467,-0.03350552
0.1156232,0.7785461,0.6001817,0.007838964,0.004631587,-0.01282665,0.04787637,-0.02047566,-0.03503565
0.1144666,0.7802159,0.6014667,0.006580394,0.006334022,-0.0115909,0.03305936,-0.01713716,-0.03136771
0.1129405,0.7813792,0.6083329,0.004951094,0.007529966,-0.004773418,0.02414261,-0.015326,-0.02390084
0.1150348,0.7850174,0.6079475,0.006940907,0.01120024,-0.005206522,0.01832783,-0.007155933,-0.02204229
0.1168089,0.7884484,0.6013586,0.008609226,0.0146623,-0.01184163,0.001386577,-0.003148635,-0.02517003
0.1203865,0.7872748,0.5972864,0.01207987,0.01351794,-0.01595798,-0.01986127,0.001460021,-0.02797985
0.1221529,0.7860731,0.5981815,0.01373791,0.0123432,-0.01510448,-0.03618081,0.01072805,-0.03283082
0.1191164,0.7846457,0.6040782,0.01059144,0.0109398,-0.009246146,-0.04257459,0.01997064,-0.02929046
0.1164811,0.7797749,0.6065884,0.007844315,0.006089579,-0.006770505,-0.03554488,0.02280774,-0.01818023
0.1125152,0.7745072,0.6071563,0.003764723,0.0008388544,-0.006233127,-0.0210545,0.01510404,-0.01173339
0.1110905,0.7713937,0.6077804,0.002224706,-0.002261157,-0.005635377,-0.004987236,0.008084047,-0.01275749
0.1119731,0.7716723,0.6068596,0.002990488,-0.001972417,-0.006578387,0.009479648,0.005524535,-0.01992578
0.1104104,0.7710105,0.6082947,0.00130976,-0.002627165,-0.005161025,0.01193403,0.0002948871,-0.02426636
0.1121635,0.7684265,0.6041151,0.002944033,-0.005206815,-0.009354123,0.005436225,-0.004745812,-0.02748842
0.1131469,0.770098,0.6003518,0.003807997,-0.003533249,-0.01312635,0.00213157,-0.001880453,-0.02968717
0.1109157,0.7735825,0.6080743,0.001457009,-4.869077e-05,-0.00540808,-0.0003376302,0.004206634,-0.02524064
0.1113672,0.7759385,0.6131538,0.001788467,0.00230561,-0.0003280289,0.002318407,0.00200204,-0.02170137
0.1119166,0.7784921,0.608825,0.002218045,0.004855811,-0.004651632,0.01106039,-0.001454415,-0.01712775
0.1128646,0.7829265,0.6026679,0.00304642,0.00928515,-0.01079892,0.01603778,-0.002393143,-0.01443803
0.1137981,0.7881556,0.5996227,0.00386074,0.01450724,-0.01382987,0.01518683,-0.004830973,-0.01226254
0.1135828,0.7872472,0.5961844,0.003526845,0.01358932,-0.01724909,0.001665172,0.004399459,-0.002343903
0.1143559,0.7866296,0.5944943,0.004182093,0.01295941,-0.01891485,-0.02285702,0.02320667,-0.006077879
0.1136908,0.7893504,0.6029556,0.003399891,0.01566453,-0.0104237,-0.04413111,0.03566797,-0.01883559
0.1136887,0.78378,0.6107145,0.003281439,0.01007469,-0.002629036,-0.05202717,0.03651917,-0.02108176
0.1136173,0.7779367,0.6102651,0.003094715,0.004207863,-0.003037057,-0.04668363,0.03131994,-0.02290249
0.1095361,0.7758495,0.6135809,-0.001100836,0.002093108,0.0003253883,-0.03981587,0.02867936,-0.02172241
0.1056597,0.7704796,0.6222641,-0.005090346,-0.003308242,0.009060161,-0.02746117,0.0177094,-0.01809362
0.1055453,0.7694384,0.6222819,-0.005316349,-0.004384414,0.009133694,-0.008350005,0.004653013,-0.01087639
0.110372,0.7697572,0.6166988,-0.0005992209,-0.004103599,0.003609545,0.006367205,0.004449282,0.0003097511
0.114012,0.7690367,0.6172112,0.002933585,-0.004864369,0.004183437,0.023213,0.001055009,-0.003040848
0.1110043,0.7720032,0.6141522,-0.0001790722,-0.001940226,0.00118802,0.0324375,-0.002990359,-0.006145497
0.1073859,0.7726073,0.6088123,-0.003899845,-0.001379863,-0.004086856,0.02807804,-0.002075207,-0.00186645
0.1055645,0.773456,0.6084428,-0.005820981,-0.0005761633,-0.004389964,0.03197254,-0.009338798,-0.00493525
0.105108,0.7758736,0.6084115,-0.006374198,0.001795492,-0.00435356,0.03424208,-0.01868176,-0.005474707
0.1075966,0.7765749,0.6097718,-0.003978977,0.002450085,-0.002924486,0.02796652,-0.01891813,-0.007615758
0.1144987,0.777433,0.6054848,0.002833296,0.00326081,-0.007141561,0.02532625,-0.01060788,-0.01615441
0.1215053,0.7802779,0.6010969,0.009753641,0.006057679,-0.01145838,0.01356312,-0.0001088712,-0.02113056
0.1179449,0.7904434,0.6069202,0.006110165,0.01617434,-0.005562682,-0.007697223,0.009923926,-0.02100709
0.1125213,0.7976885,0.6098567,0.0006064835,0.02336939,-0.002552481,-0.03003398,0.013958,-0.01933447
0.1168537,0.793369,0.6081691,0.004861455,0.01899795,-0.00416494,-0.04333599,0.009604478,-0.02548072
0.1176528,0.789223,0.6079019,0.005585744,0.01479736,-0.00435582,-0.03912396,0.01084139,-0.03132476
0.112794,0.7817475,0.6087177,0.000654479,0.007264151,-0.003462644,-0.04072311,0.01770969,-0.02909916
0.1104367,0.7688753,0.6094935,-0.00177308,-0.005669033,-0.002608303,-0.04412852,0.02127353,-0.0283371
0.1071748,0.7679013,0.6094748,-0.005102941,-0.006707029,-0.002547631,-0.03587455,0.01825634,-0.02560952
0.1080156,0.7716849,0.6104196,-0.004327669,-0.00298976,-0.001522695,-0.03045562,0.01252324,-0.02109189
0.1114919,0.7630599,0.6103429,-0.0009142176,-0.01168276,-0.001518715,-0.01962939,0.01436838,-0.01814059
0.1106917,0.7584082,0.6124375,-0.00177443,-0.01640341,0.0006569953,-0.002025007,0.01259444,-0.0122069
0.1112634,0.7637137,0.6180039,-0.001259886,-0.01116699,0.006304653,0.01438077,0.005797755,-0.005625518
0.1105539,0.7657107,0.6217908,-0.002023736,-0.009238275,0.01017252,0.02857558,0.005119558,-0.00411281
0.1095504,0.7722123,0.6193334,-0.003078673,-0.002803455,0.007795241,0.02922904,-0.0009559705,-0.008244823
0.1112764,0.7806212,0.6086714,-0.001401181,0.005540351,-0.002788056,0.02394219,-0.007206895,-0.01141144
0.110218,0.7812572,0.601753,-0.002505076,0.006113229,-0.009629448,0.02130473,-0.003336727,-0.01593937
0.1109531,0.7805515,0.6020739,-0.001812398,0.005345858,-0.00923287,0.01277515,0.002464751,-0.02037758
0.1118874,0.7804002,0.6011505,-0.0009176612,0.005134346,-0.0100818,0.0002753613,0.008805769,-0.01662248
0.1104005,0.7814409,0.5997165,-0.002441077,0.006115947,-0.01144194,-0.007471436,0.009887626,-0.01503458
0.1117677,0.7818503,0.5997888,-0.001107462,0.006467234,-0.01129618,-0.0130252,0.009011526,-0.01520704
0.1130075,0.7814227,0.6019537,0.0001016924,0.00598212,-0.009057684,-0.02270719,0.01745176,-0.01332918
0.1132063,0.7825319,0.6031772,0.0002725753,0.007034421,-0.007760326,-0.02640727,0.02091042,-0.01517048
0.1099902,0.7808601,0.6068172,-0.002968712,0.005305906,-0.004045844,-0.02134647,0.0131683,-0.01420205
0.1049341,0.7770703,0.6131929,-0.008047387,0.00145963,0.002405023,-0.01988924,0.008093995,-0.01370592
0.106672,0.7729838,0.6100066,-0.006329197,-0.002683354,-0.0007058362,-0.02006754,0.008672613,-0.01452603
0.1081557,0.7713758,0.6060461,-0.004862333,-0.00434745,-0.004590593,-0.01689243,0.009247471,-0.01010568
0.1062148,0.7721425,0.609257,-0.006816919,-0.003636264,-0.001303783,-0.01230152,0.003895811,-0.006781469
0.1079969,0.7702055,0.60868,-0.005045261,-0.005627999,-0.001805,-0.008331348,-0.0008838491,-0.005187539
0.1090147,0.770444,0.6087449,-0.004034561,-0.005442952,-0.001664294,-0.002329354,0.0006540194,-0.004326958
0.1075247,0.7714992,0.6152368,-0.005528399,-0.004439661,0.004903072,0.009112996,-0.002245853,-0.00229649
0.1067033,0.7692685,0.6192546,-0.006350179,-0.006720483,0.008995822,0.01582887,-0.006073038,0.004565429
0.1059671,0.770421,0.6151782,-0.00708347,-0.005615924,0.00499332,0.01752228,-0.002694343,0.008867976
0.1096249,0.7760514,0.6084324,-0.003419181,-3.116993e-05,-0.001680022,0.02426803,0.003058968,0.00442811
0.1141248,0.7844806,0.6064417,0.001090646,0.008354817,-0.003599833,0.02434895,0.01036596,-0.001571969
0.1109023,0.7889057,0.6044379,-0.002118583,0.01273898,-0.005534384,0.0121211,0.01544872,-0.000164288
0.108627,0.7850908,0.5998667,-0.004377648,0.008884706,-0.01003767,0.001774137,0.01668951,-0.00505105
0.1129944,0.781807,0.6007893,8.999499e-06,0.005562678,-0.009048316,-0.003507692,0.01650226,-0.02088711
0.1148265,0.7786809,0.6026043,0.001863044,0.00239908,-0.007167386,-0.01000962,0.01233934,-0.02765085
0.1118325,0.7775732,0.6011936,-0.001106582,0.001254527,-0.008512531,-0.01869706,0.0093696,-0.02865913
0.1075536,0.7807047,0.6044151,-0.0053587,0.004349725,-0.005225768,-0.02553033,0.01009521,-0.02851851
0.1046781,0.7788591,0.6089887,-0.008205349,0.002468195,-0.0005868326,-0.03056134,0.01009433,-0.02068473
0.1069361,0.7778104,0.6108206,-0.005916257,0.001384031,0.001310241,-0.03047411,0.01038062,-0.01524165
0.1088726,0.7769705,0.6138617,-0.003946281,0.0005089548,0.004416282,-0.02252206,0.009289665,-0.01721055
0.1036125,0.7688773,0.6175825,-0.009170442,-0.007619102,0.008201364,-0.0164814,0.0031033,-0.01848619
0.09965266,0.7636994,0.6205715,-0.01309197,-0.01283114,0.01125371,-0.004768558,-0.007244851,-0.01142962
0.1029507,0.7621782,0.6204221,-0.009752839,-0.01438517,0.01116604,0.01327541,-0.01360325,-0.002806906
0.106609,0.7644084,0.613983,-0.006050487,-0.01218607,0.004786445,0.01911028,-0.01122112,-0.0009044872
0.108175,0.7714404,0.6045045,-0.004437513,-0.005182651,-0.004634985,0.02385781,-0.007640768,7.047158e-05
0.1088462,0.7740885,0.6009604,-0.003716213,-0.002560376,-0.008124615,0.02960548,-0.005457324,-0.0007630602
0.1088546,0.7766203,0.6058357,-0.003654986,-5.156155e-05,-0.003197072,0.02884363,-0.0055434,-0.002735254
0.1117437,0.7807467,0.6082559,-0.0007102551,0.004054755,-0.0007266477,0.03212659,-0.008256592,-0.004573646
0.1154449,0.7818757,0.6040409,0.00304889,0.00516608,-0.004893255,0.02694846,-0.007577602,-0.0100557
0.1150201,0.7845362,0.6006544,0.002684034,0.007811207,-0.008233013,0.01061792,-0.006255191,-0.01416872
0.113831,0.7871032,0.6005834,0.001556581,0.01036451,-0.008258538,-0.002577807,-0.002785988,-0.01743073
0.1102188,0.7854246,0.6052579,-0.001992772,0.008673525,-0.003539588,-0.0151762,0.004262085,-0.01801893
0.1004937,0.7836791,0.6113555,-0.01165403,0.006916209,0.002601798,-0.01792781,0.004446868,-0.01500169
0.09681786,0.7845608,0.6095115,-0.01526482,0.007786345,0.0008006832,-0.01210088,0.002742569,-0.01644793
0.1038044,0.7816532,0.6038085,-0.008211808,0.004867097,-0.00486021,-0.0128736,0.004417112,-0.01503096
0.107531,0.775532,0.6014324,-0.004416941,-0.001266117,-0.007195002,-0.01151544,0.003057274,-0.01040229
0.1047091,0.7741047,0.6022374,-0.00716879,-0.002705872,-0.00634931,-0.008757936,0.001979754,-0.009951422
0.10282,0.7752178,0.6070288,-0.008986055,-0.001605427,-0.001517551,-0.008544199,0.00179706,-0.004667358
0.1043362,0.7762043,0.6103292,-0.007396031,-0.0006317234,0.001822944,-0.003768389,0.001434171,0.003893134
0.1088018,0.776554,0.6113385,-0.002854773,-0.0002948258,0.002872067,-0.006805483,0.005815818,0.003300632
0.1123068,0.7760815,0.6166544,0.0007277049,-0.0007801278,0.008227336,-0.01313523,0.008293462,-0.004741657
0.1118233,0.7756846,0.6189199,0.0003233511,-0.001189754,0.01053115,-0.009072652,0.003674618,-0.007480051
0.1113552,0.7754274,0.6126343,-6.445498e-05,-0.001459415,0.00428261,-0.006255976,0.001663316,-0.007879893
0.1105922,0.7794316,0.606629,-0.0007461642,0.00253253,-0.001687291,-0.004712376,0.00407274,-0.0124379
0.1060953,0.7838061,0.6066513,-0.005161139,0.006894975,-0.00163146,-0.005609812,0.004317875,-0.003555819
0.1029884,0.7828416,0.6101403,-0.008185564,0.005918512,0.001889456,-0.01213174,0.002489474,0.008093059
0.1042672,0.7813662,0.6119168,-0.006823589,0.004430811,0.003696193,-0.01493627,0.0007615592,0.0006597027
0.1064963,0.7792012,0.6106395,-0.004510628,0.0022531,0.002447373,-0.01978646,0.0009144924,-0.006669746
0.1068367,0.7749654,0.6080765,-0.004085747,-0.001995965,-8.908761e-05,-0.02272479,0.004539022,-0.009079301
0.1039987,0.7745816,0.6071848,-0.006838474,-0.00239344,-0.0009559446,-0.01704232,0.009954954,-0.005045362
0.1010233,0.7783512,0.6112056,-0.009727973,0.001362002,0.003087821,-0.01576414,0.01013037,0.01298824
0.1019265,0.7791806,0.6152767,-0.008737946,0.002177085,0.007180052,-0.01578481,0.002353728,0.02107486
0.1073654,0.7746902,0.6121513,-0.003211402,-0.002327918,0.004073845,-0.008512921,-0.004932567,0.01262607
0.1122625,0.767883,0.6076027,0.001774413,-0.009149933,-0.0004576535,0.002244193,-0.006121624,0.002605421
0.110795,0.7652195,0.608296,0.0003961653,-0.01182795,0.0002506584,0.009364149,0.001586506,-0.0007940715
0.1058711,0.7696523,0.6098823,-0.004437945,-0.007409021,0.001849881,0.01347122,0.005850972,0.006530976
0.1039396,0.7740193,0.6141686,-0.006279494,-0.003054662,0.006147132,0.02538921,-0.01585607,0.01405352
0.1085166,0.7756361,0.6189108,-0.001612341,-0.001449253,0.01089825,0.03189974,-0.03598948,0.01161929
0.1142249,0.7759803,0.6113065,0.004186257,-0.001114897,0.003300384,0.01885534,-0.01770904,-0.001148526
0.1138719,0.7782131,0.6019698,0.003923293,0.001109409,-0.006032234,0.005612698,0.007151239,-0.01238174
0.1131026,0.7865687,0.6036345,0.003243441,0.009457846,-0.004365838,-0.002796447,0.00894937,-0.009821364
0.1141002,0.7900582,0.6041154,0.004329488,0.01294109,-0.003885082,-0.0224271,0.007468923,-0.008929561
0.1108605,0.7817452,0.6042151,0.001176889,0.00462229,-0.003787107,-0.04568836,0.01195138,-0.01762146
0.1074659,0.7738819,0.6137254,-0.00213229,-0.003246815,0.005720125,-0.04800398,0.01620423,-0.0178924
0.1073897,0.7740608,0.6240908,-0.002124694,-0.003073743,0.01608116,-0.03566541,0.01677042,-0.01189417
0.1070033,0.7760054,0.6280759,-0.002429043,-0.001134889,0.02006019,-0.02593213,0.01012159,-0.01049345
0.1076531,0.7746627,0.6254164,-0.001698909,-0.002483093,0.01739208,-0.0108377,0.005580008,-0.007428592
0.1088561,0.7736408,0.6193731,-0.0004172876,-0.003510295,0.01133711,-0.0002876743,0.006370363,-0.005314816
0.1077354,0.7700118,0.6171511,-0.001461103,-0.007144015,0.009099854,0.004940698,0.005529272,-0.004235761
0.1053213,0.7629759,0.6164787,-0.003800094,-0.01418401,0.008408242,0.0192186,0.002060555,0.0008331136
0.1022377,0.7609364,0.6170773,-0.006810209,-0.01622624,0.008983644,0.02318849,-0.005913032,0.003479905
0.100351,0.7629626,0.6191831,-0.008624965,-0.01420086,0.01106212,0.02962319,-0.01359035,0.008210699
0.1012046,0.7748191,0.6175937,-0.007700626,-0.002342779,0.009441103,0.0428893,-0.01729066,0.01865424
0.1079218,0.7941309,0.6162023,-0.0009135719,0.01697329,0.008013722,0.03236338,-0.01356207,0.02604645
0.1216602,0.7948347,0.6106697,0.01289367,0.01768335,0.00244079,0.01883963,-0.0004227968,0.01635701
0.1273848,0.7863058,0.6027829,0.01868578,0.009161997,-0.005490502,0.001102562,0.01111175,-0.00197019
0.1171605,0.7895751,0.6067796,0.0085269,0.01243917,-0.001542102,-0.02691358,0.01850286,0.000708258
0.1089287,0.7883625,0.6100318,0.0003578116,0.0112342,0.001658666,-0.0364411,0.01779525,0.002271629
0.1100212,0.7812311,0.6037277,0.001509928,0.004109618,-0.004699744,-0.0451751,0.01513686,-0.007776911
0.1082944,0.7788655,0.6017279,-0.0001602848,0.00174969,-0.006756069,-0.05315369,0.01896157,-0.002304039
0.1051948,0.7796697,0.6049741,-0.003206189,0.002558212,-0.003568233,-0.04832119,0.006679665,0.0004040825
0.10666,0.7833077,0.6063049,-0.001690203,0.00619924,-0.002297021,-0.05055933,-0.007277233,0.005128287
0.1089287,0.7804637,0.6054801,0.0006264976,0.003356807,-0.003182157,-0.05127144,0.001669354,0.01692406
0.1114008,0.7773946,0.605625,0.003144157,0.0002876553,-0.003098097,-0.05502234,0.004788597,0.004172575
0.1094267,0.7823125,0.6082993,0.001212865,0.005203871,-0.0004847241,-0.07731465,-0.006013584,-0.0100339
0.1051513,0.7820432,0.6124206,-0.003022283,0.004931269,0.003575839,-0.09689905,-0.01521551,-0.01057862
0.1095129,0.778364,0.6157769,0.00137704,0.001247082,0.006871671,-0.09803856,-0.01671153,-0.01656998
0.1139593,0.7676183,0.6187014,0.005858703,-0.009505285,0.009735721,-0.0870639,0.001816871,-0.019929
0.1124626,0.7497646,0.6259039,0.004394739,-0.02736698,0.01687763,-0.07327977,0.03123969,-0.01699748
0.1082374,0.7449649,0.6338772,0.0001996559,-0.03217476,0.02478956,-0.04880542,0.03744624,-0.01025037
0.1018466,0.7472229,0.634267,-0.00616362,-0.02992364,0.02511651,-0.01480771,0.01559105,0.0006597582
0.1032879,0.7457848,0.6305958,-0.004697277,-0.03136591,0.02137996,0.01075315,0.0001991293,0.006468027
0.106011,0.7473139,0.6238431,-0.001951153,-0.02983678,0.01455873,0.03923995,0.005098965,0.004623589
0.1019053,0.7540009,0.6152421,-0.006035544,-0.02314438,0.005885373,0.06155289,0.007584855,0.006840011
0.1033326,0.7624631,0.6177452,-0.004588441,-0.01467048,0.008312218,0.05677051,0.0006757306,0.01334929
0.1070525,0.7708827,0.6231727,-0.0008499649,-0.006232425,0.0136598,0.05758986,-0.004274918,0.009758667
0.1085846,0.7800141,0.6198515,0.0006996964,0.002924211,0.0102547,0.06769653,-0.01432438,0.008234704
0.109376,0.7872493,0.6195095,0.001507688,0.01019086,0.009824897,0.0657697,-0.03771811,0.02325091
0.1089189,0.7912359,0.615947,0.001066174,0.01421443,0.006170761,0.06301644,-0.05383364,0.03999276
0.1165554,0.7889565,0.6028458,0.008717081,0.01197634,-0.00702586,0.04345402,-0.03703455,0.04214169
0.1235616,0.781735,0.5965551,0.01573652,0.004799482,-0.01341509,-0.0003513913,-2.298028e-05,0.02166322
0.1190791,0.7798045,0.5985022,0.01126528,0.002916258,-0.01156878,-0.03346578,0.01623323,0.003033486
0.1163216,0.7782332,0.6028707,0.008516774,0.001394081,-0.007302241,-0.04913087,0.008210908,0.008203575
0.1189708,0.7715624,0.6107909,0.01117218,-0.005225886,0.000515615,-0.05393185,0.004954398,0.003026353
0.1199207,0.7659218,0.6200052,0.01212515,-0.01081411,0.009627695,-0.04286107,0.008088047,-0.01668673
0.1191228,0.7623367,0.6220833,0.0113269,-0.01434528,0.01160361,-0.02919453,0.005818892,-0.01678461
0.1185495,0.7600631,0.6172975,0.01074928,-0.01656285,0.006715541,-0.02372826,0.00438785,-0.0141735
0.1166028,0.7567045,0.6185413,0.008794318,-0.01986293,0.007856874,-0.01642901,0.01299017,-0.0222209
0.1113812,0.7547905,0.6192116,0.003560159,-0.02171539,0.00842433,-0.007394902,0.01924004,-0.0210963
0.1053786,0.7575624,0.6172075,-0.002459265,-0.01887819,0.006316971,-0.0002526523,0.01214312,-0.01871717
0.103,0.7615321,0.6229029,-0.004858492,-0.01483887,0.0119085,0.01470792,0.003444248,-0.01550451
0.1025876,0.7668425,0.6228509,-0.005294947,-0.00945416,0.01175201,0.02753426,-0.001387168,-0.00329459
0.09894526,0.7667163,0.6179206,-0.00896422,-0.009501314,0.006716184,0.03014143,-0.003145233,0.002370849
0.09875277,0.7632015,0.6190303,-0.009185771,-0.01293237,0.007719385,0.03896195,-0.001662483,0.004681438
0.1056351,0.7678548,0.6188407,-0.002334091,-0.008190554,0.007422265,0.04493651,-0.001433914,0.006137752
0.1098026,0.7743131,0.6168811,0.001801743,-0.001639177,0.005353954,0.04271854,-0.007153707,0.005570125
0.1080613,0.7816488,0.6159914,2.79516e-05,0.005793846,0.004354569,0.05134703,-0.01908051,0.01792472
0.1060865,0.7851079,0.6165883,-0.001980014,0.009353908,0.004840823,0.05714455,-0.02666709,0.03150399
0.109857,0.7817961,0.6146344,0.001756735,0.006145859,0.002775527,0.04331507,-0.02784117,0.03323606
0.1139636,0.7890551,0.6089702,0.005829099,0.01351028,-0.003000605,0.02921906,-0.03550838,0.03213919
0.1166484,0.7948132,0.6039151,0.008479234,0.01937484,-0.00816786,0.02390524,-0.04693092,0.03119459
0.124335,0.7903581,0.599233,0.01613037,0.0150258,-0.01296175,-0.0001130066,-0.04206881,0.02116231
0.1300056,0.7902126,0.5992207,0.02176423,0.01498494,-0.01308456,-0.04467482,-0.02766993,-0.006127082
0.1338418,0.7850702,0.5993912,0.02556168,0.009944878,-0.0130226,-0.07717139,-0.02235525,-0.03232269
0.1343713,0.7775924,0.5975217,0.02604941,0.002566301,-0.01499773,-0.1056693,-0.01304128,-0.04058685
0.1261254,0.7783965,0.6011077,0.017758,0.003466207,-0.01151366,-0.1290401,0.004084245,-0.04214248
0.1229882,0.7736376,0.6072023,0.01457057,-0.001200539,-0.005516713,-0.1225714,0.01674972,-0.0446601
0.1218419,0.7568443,0.6193296,0.01336903,-0.01790536,0.006517499,-0.09745106,0.01889982,-0.04300171
0.1141652,0.7391722,0.6303465,0.005632045,-0.03549188,0.01744593,-0.04495289,0.0123795,-0.03607559
0.1089191,0.7332077,0.627864,0.0003205042,-0.04137254,0.01487883,0.01357583,0.01297885,-0.02703456
0.1050396,0.7397758,0.6261095,-0.003629214,-0.03472058,0.01304287,0.03091842,0.01782795,-0.0181279
0.1008473,0.7484146,0.626626,-0.007895824,-0.02599624,0.01348023,0.04504048,0.02383912,-0.012504
0.09907611,0.7518935,0.6230394,-0.009744627,-0.02242891,0.009816144,0.06243137,0.02910186,0.0001057017
0.09854682,0.7543609,0.6228534,-0.01035398,-0.0198694,0.00955401,0.06364541,0.01474359,0.01938752
0.09712433,0.7574075,0.622249,-0.01185806,-0.01672638,0.008874151,0.08648223,-0.0031528,0.02450513
0.09793329,0.7602196,0.6206601,-0.01113131,-0.01381313,0.007210393,0.107535,-0.006523327,0.02878266
0.1036437,0.7696948,0.6196203,-0.005502954,-0.00423206,0.006095982,0.1022911,-0.009303991,0.04150377
0.1064695,0.7793428,0.6151292,-0.00275837,0.005526352,0.001530313,0.1065655,-0.02022408,0.04166558
0.1093143,0.7841279,0.6154382,6.459381e-06,0.01042589,0.001764936,0.1080343,-0.02865069,0.03765428
0.1170763,0.7899729,0.6139439,0.007689838,0.01638828,0.000196444,0.08669999,-0.02063417,0.03646049
0.1239251,0.7902235,0.6014035,0.01446133,0.01675799,-0.0124178,0.05967964,-0.01245374,0.02254614
0.1270255,0.7865564,0.5921186,0.01748517,0.0132105,-0.02177553,0.03770608,-0.01188479,0.00591948
0.1255894,0.7848677,0.5903951,0.01597281,0.01164086,-0.02356998,0.01334773,-0.002904863,-0.002552186
0.1268912,0.7810306,0.5935275,0.01719791,0.007921219,-0.02050547,-0.01686378,0.009944045,-0.01420481
0.128463,0.7806831,0.6001383,0.018692,0.007688971,-0.01395847,-0.03096136,0.01881934,-0.02262664
0.122824,0.7834449,0.6076729,0.01297353,0.01056307,-0.006482829,-0.03386942,0.02050971,-0.02066762
0.1183681,0.7814413,0.6139765,0.008436065,0.008668413,-0.0002330027,-0.04133922,0.0176124,-0.02057879
0.1161735,0.7812006,0.6113396,0.00615774,0.00853271,-0.002918529,-0.03883206,0.01882938,-0.02074023
0.1144941,0.7811771,0.6089536,0.004392203,0.008609887,-0.005348091,-0.04085716,0.02099113,-0.01844234
0.1111704,0.7746795,0.6121537,0.0009801524,0.002208042,-0.002186462,-0.0517713,0.02226413,-0.01921811
0.1059845,0.7705192,0.6135372,-0.004295815,-0.001861302,-0.0008365458,-0.05142888,0.021737,-0.01861352
0.1058844,0.7703821,0.6192419,-0.004487529,-0.001912403,0.004839233,-0.04448535,0.01803374,-0.01399306
0.1034228,0.769786,0.6201992,-0.007041526,-0.00242711,0.005771905,-0.02206653,0.01242642,-0.005649707
0.1003045,0.7659454,0.615528,-0.0102525,-0.006190812,0.001080065,0.008947869,0.003682815,0.002493666
0.1066518,0.7615562,0.6196228,-0.003997455,-0.01050718,0.005157687,0.02170065,-0.001224257,0.001206987
0.11208,0.768719,0.6208496,0.001339432,-0.003275157,0.006370372,0.02303159,-0.001855991,-0.001350531
0.1115798,0.7773539,0.6188646,0.0007492124,0.005425768,0.004373836,0.02598774,-0.004218792,0.004881065
0.1127057,0.7751866,0.6185422,0.001786475,0.003321208,0.004042115,0.02686968,-0.006648033,0.009266507
0.1182136,0.7740407,0.6140435,0.007207085,0.00223481,-0.0004640174,0.01901311,-0.008450167,0.008085794
0.122186,0.7758506,0.6118029,0.01109359,0.004100779,-0.002710411,0.01485718,0.0005676203,0.003394784
0.1176894,0.7757819,0.6090517,0.006512184,0.004084643,-0.00546568,0.01196499,0.01247605,-0.004232641
0.1112157,0.7762314,0.607471,-4.559229e-05,0.00458319,-0.007048813,-0.0006417044,0.006271997,-0.00410976
0.1103992,0.7758992,0.6081555,-0.0009454326,0.004296276,-0.006364789,-0.001626511,0.00314047,-0.001668444
0.1114907,0.7752844,0.6058173,6.376496e-05,0.003723096,-0.008701439,-0.0004923574,0.01150413,-0.002872705
0.1120676,0.7793781,0.6122613,0.0005593954,0.007854551,-0.002253481,-0.008732537,0.01130517,0.003667743
0.1127385,0.7828704,0.6159255,0.001150353,0.01138073,0.001417077,-0.009697369,0.0069327,0.008737105
0.1120131,0.7776029,0.6122743,0.0003463444,0.006142827,-0.002225479,-0.01093182,0.003716445,0.002010724
0.1093311,0.7723768,0.6173275,-0.002412939,0.0009418931,0.002838437,-0.01139228,0.004394665,-0.003587844
0.1061747,0.773156,0.6166513,-0.005644905,0.001741912,0.002174826,-0.009905221,0.006818805,-0.0007968705
0.1064493,0.7710239,0.612502,-0.005444059,-0.0003734884,-0.001960239,-0.01212267,0.002270449,0.0019742
0.1099931,0.7655991,0.6127063,-0.001971769,-0.005785611,-0.001740221,-0.01117907,0.001869456,0.001899507
0.1122496,0.762873,0.6112015,0.0002155885,-0.00850247,-0.00322785,-0.01089635,0.008903685,0.004137288
0.1142138,0.7638706,0.6154972,0.002113122,-0.007498589,0.001086301,-0.009930191,0.01282663,0.002509094
0.1148101,0.7722286,0.6166624,0.002645185,0.0008632361,0.002271189,-0.004144657,0.008629789,-0.0008092943
0.1130408,0.7814918,0.6164958,0.000814058,0.01012817,0.00212543,0.003849636,0.002272587,0.00147779
0.1139876,0.779391,0.620628,0.001701215,0.008026935,0.006279155,0.008697801,0.005174435,0.0003307472
0.114246,0.7772194,0.616648,0.001902162,0.005852406,0.00232114,0.005596039,0.005549878,-0.001574133
0.1117719,0.780709,0.6135261,-0.0006273196,0.009336445,-0.000778519,0.002618585,-0.0001731299,1.490628e-05
0.1099614,0.7784141,0.6114128,-0.002491144,0.007033152,-0.002869555,-0.00199775,0.0006252158,0.0008301096
0.107789,0.7753137,0.6072485,-0.004714722,0.003921334,-0.007011406,-0.009094054,0.0008288075,0.002779863
0.1096437,0.773284,0.6075654,-0.002908879,0.00187725,-0.006671866,-0.007256818,0.0008360228,0.001106939
0.1124655,0.7697938,0.6071472,-0.0001334957,-0.001630204,-0.007066863,-0.005100994,0.002476478,-0.00411134
0.1097477,0.7711807,0.6125051,-0.002895205,-0.000263287,-0.001684941,-0.008072628,0.0003897246,-0.006640969
0.1092832,0.7723706,0.6190617,-0.003401162,0.0009043256,0.004896389,-0.006028004,0.0005358743,-0.00603477
0.1111276,0.7726442,0.617469,-0.001595608,0.001153381,0.003329067,-0.004037706,0.001758013,-0.00262465
0.1110999,0.7747948,0.6157016,-0.001659458,0.003277396,0.001587472,-0.005729418,0.002400708,0.0005608519
0.1113153,0.7741596,0.6110471,-0.001477686,0.002613728,-0.003041164,-0.004004574,0.002909802,0.002290802
0.1109335,0.774988,0.6071639,-0.001890423,0.003411799,-0.006898262,-0.002435976,0.001961041,-0.0002002677
0.1107468,0.7751664,0.609818,-0.002105464,0.00355812,-0.004217892,-0.00237948,0.002395908,-0.003564156
0.1095115,0.7713738,0.6146609,-0.00336649,-0.0002681658,0.0006516993,-0.0003620361,0.0001766927,0.0007524593
0.1075339,0.7695216,0.6198714,-0.005367256,-0.002155747,0.005889317,0.0008633667,-0.002734005,0.003086681
0.1086694,0.7692763,0.6188789,-0.004252135,-0.002437668,0.004924037,0.001661964,-0.001713125,-0.001300675
0.1104799,0.7717157,0.6164954,-0.002459263,-3.592592e-05,0.002567573,0.0005325407,-0.00122898,-0.00307838
0.1115476,0.7754568,0.618925,-0.001406358,0.003666634,0.005023817,-0.002311473,-0.0009389542,-0.001674761
0.1126575,0.7773449,0.6176451,-0.0003084738,0.005515488,0.003769771,-0.002490724,0.001435528,-4.497701e-05
0.1138506,0.7773263,0.6141398,0.000875286,0.005456846,0.0002895567,-0.003715398,0.003065023,-0.0004107103
0.1142497,0.7731612,0.6110907,0.001267417,0.001250861,-0.002735624,-0.005252594,-0.001893626,-0.002842523
0.111921,0.7715255,0.608433,-0.001065952,-0.000426578,-0.005370205,-0.003686406,-0.006735052,-0.005787607
0.1108488,0.7730395,0.6108134,-0.002140775,0.001045013,-0.002967453,-0.001824248,-0.001357672,-0.006367885
0.1116698,0.7715679,0.6117186,-0.001320219,-0.0004696377,-0.002040591,0.002174828,0.002803047,-0.001856878
0.1107286,0.7712687,0.6085999,-0.002260002,-0.000812351,-0.005137896,0.005336746,0.0002965421,0.001127239
0.1103146,0.7711687,0.6080396,-0.002670574,-0.0009560665,-0.005677124,0.0004252567,0.0002240129,4.799126e-05
0.1079631,0.7720229,0.6091561,-0.005016791,-0.0001456386,-0.004539683,-0.008776867,-0.0002185716,0.0003088336
0.1043686,0.7774713,0.6126903,-0.008604036,0.005258962,-0.0009842928,-0.01712501,-0.006569892,0.002217069
0.1078503,0.7805083,0.6158947,-0.005112911,0.008252179,0.002241415,-0.02057717,-0.01079058,0.004320681
0.1133699,0.7787281,0.6138528,0.0004182944,0.006428028,0.000221023,-0.01868719,-0.002782908,0.007348746
0.1143068,0.775576,0.6130004,0.001369103,0.003231721,-0.000609813,-0.01808764,0.008234356,0.009999078
0.1131774,0.7722759,0.6145385,0.0002554828,-0.0001132336,0.0009496864,-0.01417063,0.007641491,0.007388143
0.1125634,0.7692422,0.6136724,-0.00034092,-0.003192079,0.0001049839,-0.003398717,0.001875473,0.002420907
0.1160714,0.7662387,0.6126407,0.003186293,-0.006240825,-0.0009055304,0.003507671,0.0002388847,-0.0005595251
0.1190402,0.7655104,0.6129521,0.006175524,-0.007014297,-0.0005732044,0.003587411,2.538216e-05,-0.00439612
0.1149977,0.7698804,0.6140451,0.002154481,-0.002688794,0.0005406138,0.001960052,-0.001784743,-0.005540952
0.110656,0.7758127,0.6159049,-0.002165154,0.003199962,0.002420836,0.0005134044,-0.004429072,-0.002246608
0.110383,0.7759361,0.6158269,-0.002415495,0.003280706,0.002362947,-0.0003106731,-0.001527502,0.0006826658
0.1096375,0.7739521,0.615668,-0.003137872,0.001254923,0.002223682,0.000795521,0.004622298,0.00082205
0.1077087,0.7754642,0.6182299,-0.005043024,0.002726131,0.004804417,0.001362042,0.002560363,0.0007888466
0.10839,0.7749777,0.6185052,-0.004337276,0.002199424,0.00509783,0.0009467424,-0.001788676,0.003148221
0.1106732,0.7736147,0.6173873,-0.002028954,0.0007970346,0.003996837,0.003587194,-0.001560819,0.001777716
0.1113504,0.7738323,0.6174897,-0.001325753,0.0009758607,0.004114969,0.001896473,-0.004231992,-0.0009229486
0.1112698,0.7741235,0.6162843,-0.001379584,0.001228908,0.002923808,-0.00878397,-0.01544063,-0.0004779451
0.1118603,0.7782756,0.6170082,-0.0007615815,0.005343535,0.003660494,-0.01920614,-0.03236458,-0.001245429
0.1155014,0.7820384,0.6197654,0.00290762,0.009069456,0.006428702,-0.01917455,-0.0378525,-0.0002079544
0.1196447,0.7802194,0.621312,0.007079426,0.007213777,0.007984469,-0.0119743,-0.02686144,-0.0006037898
0.1180335,0.7771843,0.6211092,0.005496807,0.004141894,0.007788792,-0.0109188,-0.01925449,-0.005348111
0.1152778,0.7762454,0.6190154,0.002769498,0.003166015,0.005699725,-0.006573568,-0.01645134,-0.005929082
0.1157157,0.7780395,0.6178882,0.003235137,0.004922791,0.004574779,0.009139338,-0.009324271,0.000808698
0.1168568,0.7797684,0.6182764,0.004403308,0.006613925,0.004962603,0.02610472,-0.0120869,0.002213948
0.1175452,0.7761205,0.6241524,0.005117689,0.00292767,0.01083541,0.04836429,-0.04811121,-0.02999386
0.1131345,0.7653746,0.6407498,0.0007318144,-0.007857105,0.02742663,0.08707299,-0.1351557,-0.08107201
0.1093374,0.7597598,0.6470596,-0.003041741,-0.01351112,0.03372647,0.1224059,-0.2002727,-0.08982227
0.1192885,0.7757825,0.6113659,0.006931584,0.002472527,-0.001981816,0.1037019,-0.1169935,-0.04978416
0.1281045,0.7944523,0.5688018,0.01576836,0.02110378,-0.04456553,0.06493785,-0.003381939,-0.009314548
0.1171184,0.786803,0.5818716,0.004801145,0.0134159,-0.03151876,0.05200238,-0.02529886,0.007607165
0.1021327,0.7721862,0.6084469,-0.0101677,-0.001239991,-0.004968255,0.01305194,-0.04087485,0.01048768
0.09863997,0.7665723,0.6091622,-0.01364565,-0.006893598,-0.004278339,0.0004912099,-0.01014128,0.0160921
0.1014986,0.7575145,0.6196347,-0.01077353,-0.01599157,0.006168819,0.04303184,-0.03186644,0.03302644
0.108477,0.7522281,0.6191081,-0.003782423,-0.02131781,0.005616887,0.04350846,-0.02618815,0.04624336
0.1148945,0.7500633,0.6091619,0.002647502,-0.02352102,-0.004354847,0.04404112,-0.008896034,0.04070232
0.1131411,0.7560563,0.6157351,0.0009061623,-0.017564,0.002192767,0.06425064,-0.02275399,0.0371522
0.1111814,0.7788114,0.6086785,-0.001041674,0.00515837,-0.004889554,0.0614108,-0.0240596,0.0451625
0.1147033,0.7842998,0.6041945,0.002491637,0.0106174,-0.009398922,0.06687864,-0.04192419,0.04539777
0.117063,0.7747128,0.6011296,0.004862267,0.001004193,-0.01248865,0.05915016,-0.03274951,0.043069
0.1191526,0.774912,0.5892776,0.006962273,0.001179891,-0.02436425,0.05336388,-0.008230673,0.04219906
0.1239612,0.7763003,0.6009773,0.01178038,0.002547019,-0.01268603,0.06330173,-0.0250094,0.03088857
0.1301326,0.7793549,0.6073678,0.01795976,0.005582613,-0.006314251,0.05456944,-0.02147676,0.01851871
0.1367473,0.7797835,0.601914,0.02458047,0.005994021,-0.01178349,0.04639504,-0.01584804,0.0118124
0.1395924,0.7817828,0.5971924,0.02742852,0.007977697,-0.01651697,0.02457995,-0.01193313,0.00428617
0.1415674,0.7920786,0.5803627,0.02940233,0.01825883,-0.03335432,-0.001831636,0.01739415,-0.005709289
0.1450686,0.7971078,0.5787061,0.03289705,0.02327359,-0.03501331,-0.02150088,0.02408727,-0.01348512
0.1402462,0.7955243,0.5886341,0.02806173,0.021675,-0.02508141,-0.04443974,0.01988424,-0.01883137
0.1297185,0.7911404,0.5932936,0.01751361,0.0172743,-0.02041058,-0.03862293,0.01763669,-0.02598689
0.1236941,0.7936014,0.5964143,0.01146084,0.01971584,-0.01727048,-0.03870991,0.01162795,-0.02218675
0.1215787,0.7953059,0.5935101,0.009308902,0.02139762,-0.02014683,-0.04982042,0.01375013,-0.01301624
0.1209077,0.7848053,0.5946486,0.008593306,0.01087023,-0.01897173,-0.04239119,0.01356305,-0.01405686
0.1186692,0.7788339,0.5971597,0.006302455,0.004867653,-0.01641504,-0.03761009,0.01288788,-0.01019479
0.1152176,0.7755879,0.598338,0.002791064,0.001586029,-0.01518201,-0.02408347,0.008927362,-0.003367588
0.1139288,0.7722207,0.6024257,0.001435409,-0.001821119,-0.01103046,-0.01417604,0.002158414,0.002439814
0.115166,0.7727464,0.6029854,0.00259938,-0.001339081,-0.01039802,-0.005535081,0.001595578,0.01334452
0.121015,0.7791145,0.6037687,0.008369298,0.004981884,-0.009533247,0.01776364,0.001749131,0.01954086
0.1258746,0.7906165,0.606198,0.01314414,0.01643357,-0.007014179,0.02047731,-0.0007037784,0.02611279
0.1186091,0.7869742,0.608791,0.005788577,0.0127376,-0.004323496,0.02197902,-0.01002118,0.03351948
0.1122037,0.7825006,0.6066558,-0.0007121724,0.008206745,-0.006353613,0.03530236,-0.01733108,0.03861323
0.1251561,0.7850632,0.5991669,0.01214017,0.01070832,-0.0137306,0.03523906,-0.01073362,0.04156446
0.1384333,0.7720833,0.5964452,0.02531268,-0.002336274,-0.01633379,0.02495461,0.001652193,0.02255026
0.135125,0.765507,0.5939488,0.02189474,-0.008980802,-0.01870504,0.005091053,0.007476734,-0.004336418
0.1328406,0.7773906,0.5941213,0.0194955,0.002831811,-0.01840084,-0.01064633,0.009898328,-0.008446342
0.1348904,0.7893776,0.6016786,0.02142476,0.01474528,-0.01070513,-0.0185258,0.01469322,-0.005082756
0.1318975,0.7936989,0.6015451,0.01830519,0.01899061,-0.01069377,-0.01946135,0.009026023,-0.008587103
0.1306,0.7897345,0.5961284,0.01687493,0.01494742,-0.01595918,-0.007466329,-0.001334857,-0.01032276
0.1298086,0.7851351,0.59811,0.01594424,0.01026593,-0.01382022,-0.003750376,-0.002788275,-0.01107958
0.1257498,0.7807034,0.6023091,0.01173991,0.00574881,-0.009457803,0.001250287,-0.006216285,-0.009135614
0.1248374,0.7798264,0.6033156,0.01067587,0.00478291,-0.008282232,0.00751651,-0.01049317,-0.00287929
0.1225345,0.7802615,0.5980485,0.008215318,0.005125968,-0.01337508,-0.001246974,-0.006859416,-0.004586344
0.1168006,0.7747956,0.5905751,0.002318289,-0.0004349374,-0.02066907,-0.001437361,0.0003935067,-0.007129691
0.1177259,0.7773358,0.5958246,0.003075504,0.002007718,-0.01523517,-0.00415815,0.004941463,-0.003834498
0.1221471,0.7816541,0.6019922,0.007324296,0.006226201,-0.008878097,-0.01254701,0.00748903,-0.005899851
0.1233221,0.7782686,0.5963263,0.008322965,0.002738824,-0.01434977,-0.009763311,0.01064737,-0.005660318
0.1240617,0.7815991,0.5967145,0.008882892,0.005965703,-0.01376285,-0.006982815,0.0101821,-0.001242585
0.1236434,0.7868671,0.6003522,0.0082818,0.01112846,-0.009921966,0.0033429,0.007516343,0.003180491
0.1231835,0.7870169,0.5989253,0.007636176,0.01117136,-0.01114168,0.008553391,0.007951895,0.009143511
0.1237173,0.7836141,0.5980332,0.007981824,0.007659791,-0.01182271,0.005643979,0.009340835,0.005312022
0.1216118,0.7784539,0.5938078,0.005685833,0.002389061,-0.01583352,0.007770845,0.009584687,0.0005167014
0.1207127,0.7802571,0.5907419,0.004594442,0.004080153,-0.0186814,-0.0008525164,0.009407731,0.004093174
0.123976,0.7812357,0.5892255,0.007663841,0.004945147,-0.01997632,-0.003024858,0.00846477,0.002182271
0.1276833,0.7758298,0.5910553,0.01117601,-0.0005755206,-0.01792135,-0.002115965,0.006541538,-0.001977738
0.1289924,0.7756718,0.6033851,0.01228892,-0.0008493379,-0.00536293,-0.008703334,0.002300303,-0.002731099
0.1290803,0.7822786,0.6096504,0.01217952,0.005641197,0.001134349,-0.00366784,-0.002516767,-0.003803278
0.1310474,0.7893386,0.6046764,0.01394832,0.01258458,-0.003605,-0.007510567,0.001395513,-0.003800848
0.1307832,0.7887877,0.6004175,0.01348473,0.01191649,-0.007627404,-0.01589869,0.009109439,-0.004131027
0.1274157,0.7853654,0.5979677,0.009916627,0.008376492,-0.009839296,-0.01790961,0.009535641,-0.004268171
0.1246358,0.7873904,0.5951864,0.006934998,0.01028286,-0.01238159,-0.02480232,0.01005351,-0.003531073
0.12087,0.7849387,0.5940726,0.002966579,0.007711503,-0.01325544,-0.02128258,0.01228433,-0.003893342
0.119974,0.7814527,0.5993432,0.001867328,0.004105003,-0.007744037,-0.01917008,0.01096276,-0.004190736
0.1223836,0.782042,0.6032102,0.00407361,0.004572893,-0.003635703,-0.02415998,0.008380107,-0.004892468
0.1250504,0.7782829,0.6005325,0.00653725,0.0006915904,-0.006071817,-0.02284806,0.005106499,-0.006047111
0.1288854,0.7752796,0.5983794,0.01016974,-0.002434303,-0.00798339,-0.02296508,0.006133096,-0.00739766
0.1274915,0.7753455,0.596674,0.008573879,-0.002491079,-0.009447798,-0.01817596,0.01367848,-0.008408526
0.1239031,0.7781951,0.5963169,0.004784235,0.0002363024,-0.009564501,-0.01243714,0.01619376,-0.009129556
0.1249798,0.7820501,0.5951434,0.005660506,0.003969691,-0.01049831,-0.01510761,0.008924782,-0.01153835
0.1237994,0.7786403,0.5927562,0.004280703,0.0004392664,-0.01264666,-0.01605758,0.005578035,-0.01139321
0.1225866,0.7773221,0.5972623,0.00286982,-0.0009985053,-0.007902599,-0.01468716,0.01582802,-0.01075432
0.1238576,0.7828936,0.6019442,0.003944188,0.004454805,-0.002983697,-0.01512151,0.02417478,-0.01263559
0.1211731,0.7858354,0.5986142,0.001064841,0.007279749,-0.006077992,-0.01722737,0.01682153,-0.008899121
0.1196642,0.7842225,0.5951731,-0.0006368175,0.005551489,-0.009284726,-0.01679501,0.01021868,-0.0027144
0.1211754,0.7823302,0.5976963,0.0006840915,0.003545046,-0.006528849,-0.01374265,0.01394188,0.003497687
0.1190545,0.7845564,0.6028145,-0.001624399,0.005658332,-0.001179855,-0.0117967,0.01112109,0.01327403
0.1179903,0.784578,0.6056295,-0.002873098,0.005568278,0.001863887,-0.008899325,0.001140881,0.01591902
0.1227324,0.779595,0.6042182,0.001688048,0.0004749056,0.0006787226,-0.007188612,-0.002108184,0.007774492
0.1264038,0.7767795,0.6032696,0.005182185,-0.002449757,-4.684728e-05,-0.007381855,0.002185713,0.0001194456
0.1243741,0.7772016,0.6047593,0.002978974,-0.002135362,0.00166255,-0.007435248,0.006224428,-0.001126702
0.1226087,0.7777145,0.6031274,0.001043874,-0.001728397,0.0002464117,-0.006924489,0.0006237567,-0.001539077
0.1249217,0.7725988,0.6026064,0.003191026,-0.006947824,-6.300783e-05,-0.003724425,-0.005147572,-0.006101689
0.1256024,0.7662681,0.6060114,0.003709828,-0.01337987,0.003548946,0.0001798336,-0.002280498,-0.007665743
0.1246853,0.7682188,0.6065711,0.002634759,-0.01152742,0.004310874,0.002948326,-0.005145425,-0.001583393
0.1261131,0.7775918,0.6028341,0.003908518,-0.002249123,0.0007709165,0.005102841,-0.009685825,0.002692239
0.1263466,0.7865623,0.5982029,0.003991839,0.00663071,-0.003668731,0.006432575,-0.007324654,-0.002675672
0.1237846,0.7832628,0.599983,0.001283413,0.003244442,-0.001702756,0.005380658,-0.004797013,-0.009851818
0.1195401,0.7772566,0.6041752,-0.003103668,-0.002844939,0.002669854,-0.001629599,0.000554232,-0.009365469
0.1168421,0.7804177,0.6039074,-0.005940229,0.000236695,0.002576805,-0.00879491,0.007128581,-0.003607865
0.1197507,0.7811287,0.6060493,-0.003165938,0.0008717058,0.004887523,-0.004079979,0.01041105,0.001807979
0.1238773,0.7815468,0.6113069,0.0008308568,0.001217346,0.01030786,0.003662029,0.008737916,0.002249331
0.1251121,0.7830598,0.6163688,0.001940495,0.002661259,0.01552591,-0.001207271,0.003643947,0.001595352
0.1227429,0.7799778,0.6142196,-0.0005493278,-0.0004865826,0.01352575,-0.008709202,0.005511692,0.005451061
0.1193955,0.7804977,0.6080915,-0.004012707,-2.938785e-05,0.007539051,-0.01079151,0.006939531,0.004526124
0.1217908,0.7805045,0.6109592,-0.001728814,-8.219329e-05,0.01054002,-0.01090584,0.001982858,-0.001630486
0.1270748,0.7771564,0.6088692,0.003448525,-0.003486833,0.00857496,-0.008614071,0.004049748,-0.002563122
0.1300431,0.7762148,0.6026457,0.00631487,-0.004481898,0.002467855,-0.009856051,0.01336631,-0.00253139
0.1293194,0.7764818,0.6072139,0.005493489,-0.004265166,0.007143931,-0.0112612,0.02111924,-0.00530253
0.124606,0.7804555,0.6107085,0.0006864571,-0.0003384566,0.01073778,-0.009302228,0.01516213,-0.005360862
0.1223138,0.782284,0.6127449,-0.001695521,0.001446366,0.01286494,-0.008359099,0.001694674,-0.005061816
0.1218451,0.7772495,0.6128479,-0.002250197,-0.003628617,0.0130497,-0.004158086,0.002640647,-0.008238408
0.1192176,0.7737166,0.6053432,-0.004959808,-0.00719887,0.005617816,-0.003729673,0.005706998,-0.007845661
0.1181517,0.7757126,0.6012081,-0.006103709,-0.005236846,0.001546482,-0.00910367,0.004357504,-0.001943837
0.1179779,0.7795862,0.6010885,-0.006351395,-0.001393933,0.001481859,-0.01119586,0.006661498,0.001969521
0.1184744,0.7785769,0.6032258,-0.00592427,-0.00243044,0.003665715,-0.01115956,0.003833588,0.002191671
0.1213069,0.7752242,0.6049963,-0.003156634,-0.005807021,0.005474643,-0.01051438,0.005316176,0.001726144
0.1248072,0.7732707,0.6017995,0.0002833798,-0.007780928,0.002308535,-0.01351273,0.01745645,0.003139573
0.1268667,0.7745884,0.6015686,0.002287221,-0.006479975,0.002100846,-0.01632755,0.02594466,0.003860491
0.1262632,0.7817455,0.6050851,0.001632399,0.0006638839,0.005633402,-0.01456774,0.01929573,0.002204503
0.1259165,0.7833642,0.6076299,0.00123847,0.002273064,0.008187252,-0.01459857,0.009691448,-0.002128195
0.1248876,0.7760055,0.6052576,0.0001661427,-0.005091888,0.005817271,-0.01420068,0.02101291,-0.01093491
0.1222158,0.7716926,0.6003255,-0.002545483,-0.009407731,0.0008809249,-0.01412198,0.02856732,-0.01204992
0.1202026,0.7801422,0.6031935,-0.004594841,-0.0009578257,0.003738405,-0.0150752,0.01791708,-0.003419941
0.1161739,0.7901696,0.6096904,-0.008656175,0.009073112,0.01021876,-0.01437169,0.01379134,0.0003694097
0.1160418,0.7811064,0.6112871,-0.008817144,1.627608e-05,0.01179304,-0.01475212,0.009739073,-0.0009865695
0.1226749,0.7697956,0.6051275,-0.00220895,-0.01128553,0.005605078,-0.01244455,0.005852392,-0.003812258
0.1226759,0.769595,0.5984087,-0.002228855,-0.01147447,-0.001147768,-0.005842804,0.00959777,-0.005258719
0.1156004,0.7704265,0.6014235,-0.009321276,-0.01062854,0.001827497,7.175863e-05,0.01002344,-0.004657661
0.1134285,0.7744208,0.6028225,-0.01150602,-0.006616687,0.00318199,0.0003171827,0.007494882,-0.004951275
0.1181801,0.7743652,0.6020358,-0.006763052,-0.006651296,0.00234608,-0.001354753,0.005110523,-0.004793146
0.1224183,0.7732944,0.6117084,-0.002529137,-0.007697694,0.01196526,0.002225851,0.005536414,-0.004780736
0.1194004,0.7801425,0.6199316,-0.005546876,-0.0008218477,0.02013066,0.003376556,0.004901317,-0.002851765
0.1165472,0.7827638,0.6161681,-0.008395653,0.001830534,0.01630472,0.004054005,0.002048852,-1.851523e-05
0.1205509,0.7804976,0.6095493,-0.004383139,-0.0004015579,0.009618684,0.008259665,0.005417498,0.001013038
0.1216056,0.7779707,0.6075883,-0.003315472,-0.002891601,0.007585302,0.005674859,0.00706347,0.002679678
0.1190993,0.7780203,0.6082519,-0.005804562,-0.002802756,0.008171547,0.004465539,0.002433369,0.0025833
0.1184144,0.7797799,0.6094528,-0.006468215,-0.001001553,0.00929027,0.009365038,-0.0006413735,0.00352343
0.1160127,0.7794149,0.6091562,-0.008844644,-0.00132294,0.008906779,0.01288122,0.0003362987,0.008222111
0.1127905,0.7822512,0.6040168,-0.01203748,0.001558993,0.003675977,0.01561933,0.001209365,0.01151966
0.1106273,0.7823848,0.5998153,-0.01416702,0.00173979,-0.0006212631,0.01029747,-0.001964077,0.01268547
0.1129635,0.7799135,0.6018533,-0.01179282,-0.0006830272,0.001317273,0.003307218,-0.004339679,0.01219581
0.1195683,0.7797111,0.6061997,-0.00514528,-0.0008358123,0.005560696,0.005161283,-0.003892677,0.007697144
0.1229079,0.7754978,0.6067454,-0.001758322,-0.004998603,0.006000513,0.002980115,-0.001505175,-0.0005480802
0.1240759,0.7732821,0.6034726,-0.0005385117,-0.007162882,0.002619146,-0.00366866,0.0006825091,-0.00534137
0.123028,0.7738283,0.6034261,-0.001530727,-0.006564366,0.002461559,-0.006078155,-0.0001505431,-0.006358496
0.1213671,0.7745586,0.6053119,-0.003132163,-0.005780697,0.00423417,-0.00304877,0.001795002,-0.009735168
0.1235852,0.777573,0.605734,-0.0008514157,-0.002711755,0.004541213,0.003934165,0.006515496,-0.01307216
0.1236436,0.7783638,0.6068952,-0.0007272689,-0.001865191,0.005585747,0.005483876,0.008824726,-0.01683143
0.1211364,0.779662,0.6051651,-0.003166081,-0.0005103429,0.003737481,0.003506701,0.002323771,-0.01942492
0.1187595,0.7810647,0.6003716,-0.005472305,0.0009499275,-0.001175285,0.004826403,-0.007344589,-0.01615159
0.1171036,0.7803421,0.5989234,-0.00705512,0.0002855777,-0.00274371,0.005166386,-0.001226449,-0.01427264
0.1179957,0.7796916,0.601075,-0.006087875,-0.000306336,-0.0007126619,0.007062529,0.001786431,-0.01819738
0.1163342,0.7787016,0.605705,-0.00767196,-0.001237472,0.003796687,0.01085079,-0.0160335,-0.02234453
0.1135842,0.7799994,0.6097133,-0.01034246,0.0001193208,0.007684622,0.01139014,-0.02653293,-0.02026479
0.1160703,0.7828816,0.6057969,-0.007774581,0.003060288,0.003648253,0.01106559,-0.01888907,-0.01085804
0.1230438,0.7848242,0.6028588,-0.0007170964,0.005061398,0.0005904059,0.007994914,-0.01025857,-0.00631842
0.1295176,0.7808051,0.6066223,0.005842767,0.001100185,0.004234775,0.001717456,-0.01100434,-0.02459142
0.1276178,0.7716544,0.6050249,0.004030688,-0.007993388,0.002518876,0.0008637071,-0.01300753,-0.05241498
0.1205984,0.7717686,0.6052662,-0.002899951,-0.007822968,0.002642451,0.005753892,-0.01096096,-0.0532005
0.1163753,0.783762,0.6090319,-0.007033594,0.00422618,0.006291337,0.009127812,-0.01109868,-0.03478656
0.113207,0.7928537,0.6061356,-0.01011179,0.01337283,0.003279046,0.01010344,-0.00722832,-0.02146474
0.1100933,0.7844932,0.6080462,-0.0131345,0.005066229,0.005074689,0.009581333,-0.005211986,-0.01025337
0.1083642,0.7735968,0.611863,-0.01477161,-0.005777768,0.008777479,0.004234552,-0.01009334,-0.009156637
0.1120886,0.778193,0.6083307,-0.01095364,-0.00113074,0.005132031,0.0004377194,-0.01054126,-0.0146485
0.1173546,0.7779503,0.6020466,-0.005592566,-0.001324152,-0.00126447,0.01255849,-0.01161994,-0.01234097
0.1130257,0.7734778,0.5965841,-0.009824469,-0.005748888,-0.006838322,0.0312533,-0.01216191,-0.01016359
0.107904,0.77743,0.6023934,-0.01484738,-0.001750124,-0.00113906,0.03696052,-0.01276689,-0.004098399
0.1100012,0.7768339,0.6098525,-0.01264931,-0.002300912,0.006211662,0.03811394,-0.02252501,0.006290438
0.1159915,0.7815787,0.6051973,-0.00655588,0.002488195,0.001449874,0.04000251,-0.0333473,0.005759845
0.1261955,0.7898785,0.5950078,0.003753595,0.01083109,-0.008844405,0.03491515,-0.03422296,-0.001252302
0.1273336,0.7864035,0.5856721,0.004998969,0.007397568,-0.01828261,0.03130026,-0.0159215,-0.00660704
0.1166466,0.7893529,0.5951224,-0.005579384,0.01038652,-0.008931965,0.02807847,0.0005203402,-0.01062803
0.1117075,0.7955189,0.6086697,-0.0104087,0.01658967,0.004519294,0.0211378,-0.01272492,-0.009844513
0.1144726,0.7907719,0.5966033,-0.007532872,0.01187677,-0.007639432,0.01564721,-0.0236226,-0.009956922
0.1193495,0.7879296,0.5871833,-0.002544316,0.00906498,-0.01714773,0.005964517,-0.008070253,-0.02101053
0.1215288,0.7892482,0.590481,-0.0002523048,0.01041008,-0.01393379,-0.004117724,0.006811852,-0.02848845
0.1188675,0.7889377,0.5896458,-0.002800326,0.01012189,-0.01484761,-0.01310578,0.0109445,-0.0187715
0.1164115,0.7883189,0.5938489,-0.005142678,0.009520725,-0.01071747,-0.02185499,0.01069077,-0.009473951
0.1161603,0.7870818,0.5997204,-0.005279961,0.008296585,-0.004912791,-0.0199949,0.006163233,-0.01231855
0.1171349,0.7843217,0.6032416,-0.004191287,0.005544558,-0.001452076,-0.01829793,0.005530331,-0.0143006
0.1166123,0.7822981,0.6038831,-0.004599678,0.003524059,-0.0008649312,-0.01933693,0.005228265,-0.01309547
0.116498,0.7820821,0.59936,-0.004599737,0.003306425,-0.005436412,-0.009403881,0.001701596,-0.01986589
0.1178849,0.782853,0.6026597,-0.003098756,0.004070955,-0.002179238,-0.001877958,0.003746843,-0.02512198
0.1167012,0.7856284,0.6053609,-0.00416857,0.006835474,0.0004850448,-0.01007515,0.00691296,-0.02132828
0.1144369,0.7863304,0.6011314,-0.006319259,0.007522139,-0.00377588,-0.01746942,0.008080075,-0.0210319
0.1114629,0.78309,0.597168,-0.009179863,0.004262043,-0.007765387,-0.01028675,0.001453821,-0.02493241
0.1102728,0.7811699,0.5901294,-0.0102568,0.002317842,-0.01482485,-0.005322131,-0.006784715,-0.02610249
0.1112686,0.7825859,0.5962524,-0.009147839,0.003705707,-0.008717298,-0.009335607,0.005902776,-0.01633208
0.1091716,0.7869375,0.6090875,-0.01113146,0.008025179,0.004108089,-0.009417381,0.01777293,0.003491474
0.1076986,0.7898733,0.6052847,-0.01249063,0.01092495,0.00030081,-0.01063378,0.01050576,0.01354298
0.108697,0.7882995,0.5971617,-0.01137785,0.009311119,-0.007821483,-0.01212208,0.005525084,0.009993155
0.110274,0.7869787,0.5902732,-0.009685479,0.007946302,-0.01470452,-0.009037959,0.001491273,0.008698318
0.1116762,0.7893465,0.5895044,-0.008166921,0.01026593,-0.0154627,-0.01018246,-0.006120917,0.0101893
0.1123656,0.7898928,0.593874,-0.007359967,0.01075987,-0.01107724,-0.01008678,-0.004404061,0.0002586129
0.1171798,0.7828432,0.5888616,-0.002427156,0.003653756,-0.01606801,-0.003928413,0.0005507661,-0.01097071
0.1219636,0.7767191,0.5886969,0.002476194,-0.002530953,-0.01620525,-6.708131e-05,0.0005818785,-0.01029701
0.1170945,0.779463,0.5956256,-0.002272768,0.0001486714,-0.009242988,-0.002770095,0.001683815,-0.01164348
0.1110741,0.7844228,0.5980277,-0.008172787,0.005040849,-0.006800963,-0.01093015,0.001735951,-0.01235467
0.114558,0.7869054,0.5988087,-0.004568292,0.007452932,-0.005974014,-0.01744864,0.003165952,-0.008406798
0.1179867,0.7876863,0.5958772,-0.001019013,0.00816039,-0.008853494,-0.02165713,0.007903262,-0.01164808
0.116576,0.7847508,0.5944897,-0.002309133,0.005148597,-0.01018327,-0.03232059,0.009055692,-0.01143868
0.1144387,0.781023,0.5952629,-0.00432622,0.001341863,-0.00934675,-0.04848083,0.01587489,0.003205313
0.1100556,0.7829039,0.5973759,-0.008589392,0.003141295,-0.007164797,-0.06402986,0.03003882,0.02341275
0.1126843,0.7877898,0.6056098,-0.005841302,0.007943404,0.001143246,-0.07472945,0.04407101,0.0400815
0.1175433,0.7910808,0.6078887,-0.0008632332,0.01114851,0.003501286,-0.07101443,0.04987886,0.04862642
0.1116678,0.7853212,0.603023,-0.006620135,0.005300807,-0.001280932,-0.06000606,0.03527256,0.04099286
0.1100011,0.765096,0.6010417,-0.008168725,-0.01501465,-0.003175141,-0.05280088,0.02331816,0.01922818
0.1138461,0.7522323,0.6053621,-0.004206077,-0.02796996,0.001235728,-0.03365415,0.02412662,0.00979746
0.1141673,0.7691745,0.6110642,-0.003767744,-0.01111946,0.007031,-0.01863669,0.003665374,0.02114832
0.1167556,0.7930658,0.6088231,-0.001062758,0.0126809,0.00488529,-0.02692915,-0.02140503,0.02847655
0.1232118,0.7923993,0.6081265,0.005509263,0.01192464,0.00428546,-0.02694013,-0.005577524,0.0205329
0.1287395,0.7845873,0.6105333,0.01115177,0.004023749,0.006789952,-0.02205157,0.01827846,0.0132296
0.1194629,0.7879926,0.6101986,0.001988276,0.007340813,0.00655315,-0.02051264,0.00453177,0.01251313
0.1033352,0.7936084,0.6136276,-0.01402847,0.01286878,0.01007957,-0.01075916,-0.0321902,0.005508841
0.1027935,0.8081683,0.6113184,-0.01446109,0.02734086,0.007866709,-0.01933931,-0.07579295,0.0007246333
0.108868,0.8170998,0.5962767,-0.008279092,0.03618374,-0.007080133,-0.0466835,-0.08025098,0.002150783
0.1160382,0.800102,0.583633,-0.001002644,0.01909547,-0.01963075,-0.07167612,-0.02377799,-0.004178771
0.1220674,0.7830117,0.5927315,0.005131714,0.001911898,-0.01044051,-0.08102935,0.004471908,-0.005170322
0.1125251,0.7761436,0.6149917,-0.004306781,-0.005052449,0.01191055,-0.06993246,-0.0275576,9.478183e-05
0.1035987,0.7661121,0.6214232,-0.01313078,-0.01518264,0.01843187,-0.06106962,-0.06735614,0.004788797
0.1140128,0.7541739,0.6195629,-0.002615657,-0.02722087,0.0166594,-0.03320097,-0.08077735,0.01334674
0.124434,0.7482842,0.6264632,0.0079054,-0.03321062,0.02364469,0.01625749,-0.06292428,0.006123344
0.1231742,0.7476468,0.6337603,0.006743913,-0.03394634,0.03102269,0.03374087,-0.05392231,-0.006182452
0.1232239,0.7442376,0.6300965,0.006890065,-0.03745023,0.02743457,0.04176416,-0.05805969,-0.00323297
0.124241,0.7435474,0.6198566,0.008001181,-0.03822957,0.01726381,0.06088147,-0.04510417,-0.003737509
0.1220215,0.7515796,0.6163456,0.005872779,-0.03027937,0.01381449,0.06118298,-0.02555923,-0.00556917
0.1222154,0.7600641,0.6104768,0.006154526,-0.02186817,0.007999583,0.06552939,-0.02526133,-0.003989105
0.1228401,0.7597461,0.608867,0.006863471,-0.02224997,0.00643562,0.08371861,-0.05219998,-0.008561442
0.1253649,0.7600359,0.6178284,0.009468584,-0.0220137,0.01543492,0.09212724,-0.07295059,-0.01275848
0.1311499,0.778273,0.6112465,0.01532958,-0.003819441,0.008882793,0.1034727,-0.06710677,-0.01276666
0.1328546,0.7985752,0.6005913,0.01710546,0.01645043,-0.001750771,0.1103235,-0.04802414,-0.007111642
0.1297343,0.800615,0.5931438,0.01405094,0.01846761,-0.009184295,0.08728544,-0.01895735,0.004352429
0.1232572,0.7967383,0.5844962,0.007633538,0.01457665,-0.01782481,0.05320194,0.01290499,0.01301272
0.1172879,0.7989447,0.5870969,0.001717736,0.01677547,-0.0152228,0.02397795,0.03647412,0.01759945
0.117985,0.8008425,0.5850701,0.002462044,0.01867135,-0.01725295,0.00174427,0.04573198,0.02411258
0.1240103,0.8035989,0.587208,0.008528442,0.02143004,-0.01512177,-0.00361572,0.02998962,0.02748916
0.1299374,0.8087507,0.599447,0.01449055,0.02658697,-0.002891983,-0.006225386,-0.001940426,0.01741766
0.1313227,0.7970226,0.6053457,0.01590445,0.0148654,0.002995906,-0.01739589,-0.01154524,0.002345768
0.1286496,0.776746,0.6121382,0.01325338,-0.005404093,0.009775927,-0.02436404,-0.01390171,-0.005353701
0.1280117,0.7699835,0.6029827,0.0126306,-0.01215944,0.0006063243,-0.02522038,-0.01785107,-0.003865218
0.1342024,0.7636065,0.5905606,0.01882907,-0.01852881,-0.01183149,-0.02227302,0.005158051,-0.003018921
0.1387665,0.7565958,0.6025396,0.02339347,-0.02553061,0.00013051,4.702424e-06,0.001577434,-0.01838795
0.1311061,0.7585969,0.608923,0.0157253,-0.0235185,0.006495904,0.03939639,-0.01047867,-0.02778475
0.120118,0.7681114,0.6060455,0.004721047,-0.01398992,0.003599351,0.05212011,0.006437227,-0.006959118
0.1180029,0.7825878,0.6072962,0.002581575,0.0005044408,0.00483001,0.03681468,-0.002013427,0.01651117
0.1219221,0.7850533,0.6009042,0.006468546,0.002991633,-0.001583138,0.03376027,0.00740114,0.01934466
0.1240336,0.7736448,0.5941331,0.008540359,-0.008391556,-0.008376327,0.03027183,0.03428416,0.01556634
0.1230598,0.7703143,0.6021923,0.007519724,-0.01169327,-0.000340062,0.01779157,0.04075438,0.01950373
0.1203281,0.7842629,0.609848,0.004734207,0.002287491,0.00729235,0.01712835,0.05463698,0.02368787
0.1156337,0.8052129,0.5979135,-2.049869e-05,0.0232729,-0.004665924,0.02154149,0.04404098,0.03043695
0.112345,0.8123266,0.5843084,-0.003375551,0.03042424,-0.01829507,0.02531628,0.02932976,0.04884963
0.1134998,0.8023299,0.5818733,-0.002292424,0.02046592,-0.02075379,0.02119455,0.03587566,0.06751698
0.1192086,0.7912523,0.5818249,0.003340031,0.009426174,-0.02082453,0.003531791,0.04611052,0.07678213
0.1259293,0.7802017,0.5866033,0.009980113,-0.001587908,-0.01606623,-0.009381179,0.06345027,0.07001136
0.1271661,0.7700866,0.5951629,0.01113236,-0.01166816,-0.007523576,-0.007542168,0.04390054,0.05830143
0.12911,0.7711596,0.6008215,0.01298765,-0.01056159,-0.001878312,0.004130181,0.01291732,0.05091707
0.1382717,0.7739375,0.6007803,0.02205676,-0.00775092,-0.001929328,0.01227376,0.01645069,0.04018734
0.1421678,0.7716025,0.6036884,0.02585563,-0.0100535,0.0009724422,0.02421073,0.01759264,0.04359983
0.1393039,0.7739714,0.6148352,0.02288958,-0.007652143,0.01211607,0.05611748,0.006732254,0.04587395
0.1423159,0.7747906,0.6117717,0.0257937,-0.006800157,0.009052057,0.07626543,-0.02354784,0.02397774
0.1505751,0.7665969,0.5892035,0.0339387,-0.01496026,-0.01351438,0.06485713,-0.04657533,0.002323428
0.1565164,0.7581599,0.5693276,0.03975885,-0.02336253,-0.03338645,0.0534525,-0.0008003274,-0.0126533
0.1482533,0.7614037,0.5663615,0.03136643,-0.02008203,-0.03634551,0.04939869,0.05143447,-0.02267897
0.1305294,0.7877317,0.5717344,0.01350453,0.006285167,-0.03096105,0.01923209,0.03750601,-0.03339073
0.1261834,0.8248468,0.565354,0.009011658,0.043442,-0.03732396,-0.03877499,0.03383739,-0.03528558
0.1273311,0.8373822,0.5638583,0.01000378,0.05601999,-0.03879493,-0.07968345,0.06172965,-0.01202968
0.1206204,0.8226322,0.5818403,0.003129583,0.04131113,-0.02077981,-0.07637625,0.05413754,0.01206279
0.1145764,0.8075812,0.5986578,-0.0030853,0.0262974,-0.003919905,-0.04321842,0.03704422,0.03508071
0.1129754,0.7887633,0.6068253,-0.004863424,0.007511473,0.004298999,-0.0002156303,0.01175687,0.04060015
0.1156897,0.767189,0.6044511,-0.002331532,-0.0140368,0.001984682,0.04030062,-0.02479436,0.02609059
0.1221911,0.7688646,0.5983037,0.003983295,-0.01234065,-0.004095299,0.04425334,-0.01814025,0.03379016
0.1373383,0.7717211,0.5948578,0.01894048,-0.009468193,-0.007466887,0.01819414,0.0003195134,0.0278537
0.149521,0.7568807,0.5917109,0.03092967,-0.02429626,-0.01053312,0.0139394,0.02507035,0.005256233
0.139005,0.7540866,0.5955407,0.02021649,-0.02708062,-0.006616278,0.01446923,0.06206913,-0.001359198
0.1288365,0.7734893,0.5971227,0.00984672,-0.007669492,-0.004941458,0.003439238,0.07993605,-0.01008882
0.131188,0.7967464,0.5965449,0.01199293,0.01559558,-0.005420852,-0.01281506,0.1219505,0.0005029341
0.1289734,0.7955807,0.5966918,0.009569088,0.01443744,-0.005170361,-0.04535705,0.1500143,0.009967479
0.1227405,0.7867295,0.5929563,0.003123557,0.005592636,-0.008797503,-0.06099575,0.1095051,-0.0076709
0.1123375,0.7981473,0.5976896,-0.007495065,0.01701518,-0.003951316,-0.05369232,0.07599093,-0.009887352
0.1061097,0.7981412,0.6009035,-0.0139406,0.01701173,-0.0006203634,-0.04566671,0.07538168,0.007597236
0.1108012,0.7902561,0.6010666,-0.009467563,0.009126489,-0.0003366252,-0.03956934,0.07429284,0.02460498
0.111633,0.7906211,0.6038839,-0.00885381,0.0094881,0.002604391,-0.05175723,0.0619241,0.01975087
0.1137456,0.7857576,0.5933753,-0.006957785,0.004617817,-0.007777944,-0.06636778,0.04786038,0.01151832
0.1205664,0.7863836,0.5851346,-0.0003513045,0.005233338,-0.0158901,-0.06269854,0.05618592,0.02166503
0.1183796,0.7841715,0.5969412,-0.002749525,0.003007251,-0.003952888,-0.05719185,0.06735784,0.01762316
0.1391997,0.8786817,0.4460797,-0.01414584,0.005849302,0.0005500216,0.06670675,0.01566885,0.2302102
0.1476747,0.8771536,0.4446311,-0.00609987,0.004618831,-0.0008755115,0.0598931,0.01291151,0.189486
0.1421503,0.8776573,0.4425139,-0.01203111,0.005399126,-0.002961338,0.05254432,-0.0006437682,0.1801848
0.1381488,0.8771931,0.443222,-0.01641736,0.00519101,-0.002214366,0.04543452,-0.006706733,0.1728283
0.1461051,0.8747189,0.4484877,-0.008823626,0.002952858,0.003097213,0.03991425,0.003780722,0.1803559
0.1478852,0.8761764,0.4512346,-0.007383788,0.004627066,0.00589634,0.04683362,0.01101444,0.1712916
0.1412292,0.8775814,0.4522026,-0.01435799,0.006230052,0.006922077,0.05651253,0.0139736,0.1643131
0.1383181,0.8776036,0.4527503,-0.01756534,0.006431874,0.007532096,0.06014127,0.009180973,0.1797459
0.1444262,0.8760467,0.4524939,-0.01173157,0.005036945,0.007341936,0.05747556,0.002523958,0.1699025
0.1536423,0.873116,0.4497844,-0.002768168,0.002251079,0.004701577,0.05226619,-0.008591787,0.1615483
0.1528593,0.873644,0.4454741,-0.003782572,0.002907349,0.0004626767,0.04522821,-0.01717275,0.1415564
0.1462376,0.8747586,0.4446311,-0.01061507,0.004134427,-0.0003071467,0.04285006,-0.0004961682,0.1266789
0.1434726,0.8757664,0.4455128,-0.01357077,0.005239609,0.000649051,0.05928593,0.02003685,0.1569777
0.1436695,0.8788562,0.4468344,-0.01354486,0.008412103,0.002046315,0.07816301,0.02111086,0.1716432
0.1454494,0.8813071,0.447839,-0.01191642,0.01093167,0.003127285,0.06899666,0.01742074,0.1601807
0.1433618,0.8809764,0.4492527,-0.01413651,0.01065585,0.004617652,0.04527492,0.01872721,0.1463936
0.1387757,0.8787047,0.4587979,-0.01883628,0.008425637,0.01423933,0.03581144,0.01733609,0.1393244
0.1344289,0.8778477,0.46742,-0.02327807,0.00759708,0.02293707,0.04594754,0.01339263,0.1414855
0.1327289,0.8760145,0.4584119,-0.02505452,0.005779672,0.01400269,0.06041357,0.01378159,0.1391242
0.1412783,0.8737458,0.447761,-0.01656297,0.003514718,0.003422705,0.05304289,0.01609503,0.1390239
0.1463106,0.8737385,0.4531001,-0.01157006,0.003499676,0.008829482,0.04782737,0.0165573,0.1363766
0.1396125,0.869968,0.4549795,-0.01828953,-0.0002892959,0.01077279,0.06925805,0.01360073,0.1356921
0.1355282,0.8673398,0.4495231,-0.02237759,-0.002945997,0.005376404,0.08249447,0.01016978,0.137515
0.1373678,0.8726714,0.4530604,-0.02052432,0.002347955,0.008969382,0.08541256,0.009724333,0.1336257
0.138065,0.8765291,0.4573088,-0.01979645,0.006159619,0.01326892,0.08978844,0.005794681,0.1357946
0.1338944,0.8733236,0.4601323,-0.02391944,0.002900151,0.01613855,0.09780547,-0.00651311,0.1338399
0.1314903,0.8712341,0.460306,-0.02625929,0.0007493326,0.016353,0.1152524,-0.01826833,0.1346756
0.1321339,0.8755632,0.4516084,-0.02553487,0.005010448,0.00769024,0.1177523,-0.01474146,0.1430062
0.1326562,0.8785227,0.4485675,-0.02491538,0.007895541,0.004677887,0.1132895,-0.005340412,0.1454736
0.1385842,0.8776464,0.4498375,-0.01887389,0.006939001,0.005970257,0.1138057,-0.006686819,0.144509
0.146242,0.8777864,0.4481138,-0.01108674,0.006993137,0.004262866,0.1012889,-0.008595014,0.1343382
0.1486397,0.8779399,0.4466749,-0.008544618,0.007055381,0.002834346,0.08866171,-0.007690464,0.130619
0.1452175,0.879191,0.4425669,-0.01180809,0.008210161,-0.001268996,0.08243764,-0.006257914,0.1323015
0.1429533,0.8823933,0.4387062,-0.01390033,0.01131134,-0.005130435,0.07233347,0.003054295,0.1227236
0.1456584,0.8849887,0.4387196,-0.01101076,0.01380075,-0.005122559,0.05995976,0.01016311,0.1168364
0.14617,0.8852744,0.4465296,-0.01030301,0.01397573,0.002677755,0.0533103,0.008078157,0.1100338
0.1456886,0.8836748,0.4503412,-0.01057743,0.0122607,0.006475676,0.0484736,0.008937988,0.1029604
0.1396941,0.8821712,0.4430144,-0.01635475,0.01063687,-0.0008684662,0.04120746,0.01306266,0.1070132
0.1295262,0.879958,0.4441042,-0.02629595,0.008298689,0.0002004956,0.04223057,0.00998898,0.1171689
0.1316018,0.8798711,0.4456767,-0.02398437,0.008082376,0.001748872,0.04177614,0.005832112,0.1260792
0.1373384,0.8814763,0.4431371,-0.01800268,0.009553789,-0.0008177752,0.04175675,0.00760964,0.1248324
0.1362869,0.8810305,0.4466469,-0.01880013,0.008970203,0.002662269,0.0481736,0.01113671,0.1243683
0.1317005,0.8848143,0.4466149,-0.02312387,0.01261237,0.00259808,0.04820097,0.01615179,0.1333923
0.1277476,0.88781,0.446671,-0.02680579,0.01546255,0.002619593,0.05547206,0.01054938,0.1484654
0.1375468,0.8789369,0.4453319,-0.01672745,0.0064403,0.001243718,0.06270316,0.0007395803,0.1586687
0.1492897,0.8690698,0.4413584,-0.004697524,-0.003579558,-0.002768636,0.05663805,0.006867048,0.1371711
0.1426402,0.8707166,0.4447575,-0.01105283,-0.002088532,0.000589932,0.05485522,0.007243455,0.1062081
0.1375629,0.8778343,0.4472958,-0.01582958,0.004870998,0.003086109,0.05429634,-0.001468048,0.1059816
0.1428956,0.8811525,0.448801,-0.01019067,0.008029271,0.004547898,0.05081633,-0.002804595,0.1105564
0.1448782,0.8805424,0.4502228,-0.007896793,0.007257745,0.005924993,0.04824676,-0.002478185,0.1017496
0.1494949,0.8775256,0.4471968,-0.002964526,0.004078104,0.00285289,0.04210345,0.002466633,0.09741892
0.1510188,0.8755261,0.4448598,-0.001121603,0.00191479,0.0004684335,0.03427522,0.0107982,0.09431016
0.1420952,0.8774809,0.4429564,-0.009723795,0.003705001,-0.001483626,0.03018704,0.02025547,0.09749461
0.1395223,0.877762,0.4465735,-0.01197341,0.003821092,0.002083892,0.02987909,0.0223502,0.1049356
0.1448168,0.8748879,0.4570447,-0.006354515,0.0007819263,0.01250461,0.03298956,0.009121544,0.09458273
0.1481589,0.8738879,0.4611952,-0.002687402,-0.0003828424,0.01660352,0.04267471,0.003368179,0.07906564
0.1432626,0.8788034,0.4553998,-0.007258628,0.004368499,0.01075513,0.05156418,0.007387166,0.07137418
0.1336403,0.8851784,0.4503192,-0.01655636,0.01058029,0.005619549,0.05317242,0.00818569,0.07991919
0.1335077,0.8824362,0.451645,-0.01636523,0.007675776,0.006888418,0.04955047,0.007709305,0.1002551
0.1399159,0.8749179,0.4477251,-0.009634228,-3.913346e-06,0.002909442,0.03971868,0.007013142,0.09754976
0.1446597,0.8710843,0.4403623,-0.004568617,-0.003997706,-0.004514357,0.03233603,0.007340982,0.08505127
0.1430759,0.8721265,0.4444694,-0.005832087,-0.003114274,-0.0004700136,0.03624246,0.00112427,0.07958862
0.1385618,0.8751633,0.4482077,-0.01002778,-0.0002341791,0.003204294,0.04201062,-0.005191795,0.07297416
0.1418218,0.8737757,0.4455143,-0.006451641,-0.001776134,0.0004457945,0.03956384,-0.0003763557,0.07614945
0.1452029,0.8745016,0.4501885,-0.002756878,-0.001201894,0.00505406,0.03922553,0.002116545,0.07504569
0.1470905,0.8780477,0.4549419,-0.0005586975,0.002195506,0.00974052,0.04372725,-0.001795485,0.06887273
0.1469418,0.8761538,0.4525077,-0.0004003551,0.0001560703,0.007238506,0.04178801,-0.005565706,0.0688777
0.1409838,0.8767795,0.4521454,-0.006055339,0.000639503,0.006807333,0.04500469,-0.007218659,0.06231053
0.1408475,0.8788601,0.4524547,-0.005893056,0.002581156,0.007046543,0.05242749,-0.007635757,0.06099083
0.1391061,0.8772396,0.4481577,-0.007340379,0.0008252345,0.002678082,0.05039788,-0.009438967,0.06283201
0.1355057,0.8781869,0.4450243,-0.01065155,0.001640509,-0.0005278665,0.05114772,-0.01218298,0.05727823
0.1399303,0.8797873,0.4490944,-0.005942446,0.003112401,0.003468546,0.05332673,-0.01580261,0.05321607
0.1409402,0.8800734,0.4530579,-0.004652811,0.00327357,0.00735756,0.04694639,-0.02053932,0.04001472
0.1415598,0.8774783,0.4494672,-0.003758334,0.0005568461,0.003691562,0.04025876,-0.02307984,0.0285944
0.1412283,0.8749176,0.4468087,-0.003820169,-0.002121924,0.0009569093,0.03979506,-0.0125828,0.04075276
0.1334404,0.8828707,0.4480095,-0.01134351,0.005716479,0.002080836,0.04052704,0.002001081,0.06654949
0.1307212,0.8891495,0.4489771,-0.01380326,0.01188404,0.002971055,0.0364395,0.00405601,0.08613098
0.1387417,0.8785681,0.4546211,-0.005528251,0.001194494,0.008537218,0.0309363,0.01039255,0.07862055
0.1470098,0.8683164,0.4583773,0.002989458,-0.009162374,0.01221507,0.02439041,0.01950251,0.06600828
0.1386045,0.8720719,0.4511175,-0.005171243,-0.005508879,0.004876207,0.02037605,0.01817083,0.07437294
0.1273875,0.8745034,0.4471695,-0.0161487,-0.003175847,0.0008483364,0.02069252,0.01926543,0.07419482
0.1318245,0.8726266,0.4543888,-0.01147713,-0.005147437,0.007986932,0.018481,0.01344616,0.06879717
0.1324065,0.8771302,0.4594638,-0.01066514,-0.000734628,0.01298041,0.02668339,-0.005024564,0.07180461
0.1308175,0.8793458,0.4577765,-0.01202839,0.001394219,0.01121062,0.04415245,-0.01730337,0.06437576
0.1394485,0.8781987,0.4574012,-0.003175694,0.0001642844,0.01075156,0.0510325,-0.01893825,0.06249795
0.1499742,0.8790527,0.458175,0.007567611,0.0009394751,0.01143995,0.05425633,-0.01453657,0.06382111
0.1573257,0.8753175,0.4547847,0.01513227,-0.002870766,0.007962517,0.05834221,-0.0122183,0.05454322
0.1538939,0.8712032,0.451212,0.01190841,-0.007056243,0.004300866,0.05868835,-0.009627515,0.05200989
0.1469772,0.8691373,0.4498431,0.00519363,-0.009189295,0.002841056,0.05866688,-0.005686487,0.04666617
0.144429,0.8696988,0.4500938,0.002840902,-0.008690741,0.002999317,0.05664942,-0.006913522,0.0391643
0.1393136,0.8754053,0.452068,-0.002085974,-0.003042571,0.004879602,0.05096831,-0.004817445,0.03576832
0.1375093,0.8779191,0.4494885,-0.003708624,-0.0005823633,0.002204907,0.04349144,-0.007078631,0.02940154
0.1361676,0.8811871,0.4463588,-0.004875435,0.002636578,-0.001021017,0.03825399,-0.01429322,0.03146748
0.1329117,0.8870811,0.4479712,-0.007962998,0.00848578,0.0004942951,0.03555167,-0.01263084,0.03306707
0.1344614,0.8874788,0.4488748,-0.006251131,0.008842549,0.001300391,0.03451562,-0.01145497,0.03238671
0.1339025,0.8850805,0.4509555,-0.006653699,0.006406625,0.003283401,0.03689861,-0.009163597,0.03796089
0.1354971,0.8810998,0.4523452,-0.004908245,0.002391192,0.004575301,0.03573444,-0.006363599,0.0433629
0.1410547,0.8775539,0.4496771,0.0007949231,-0.001187079,0.001809403,0.03296736,-0.005705217,0.05077894
0.1404502,0.8745236,0.4467193,0.0003308587,-0.004247344,-0.001245921,0.03272173,-0.0003782745,0.04912145
0.1389356,0.8735952,0.4460235,-0.001048504,-0.005203406,-0.002038966,0.02657078,0.0003141553,0.04473026
0.1396458,0.87793,0.448224,-0.0002082081,-0.0008937327,6.512111e-05,0.02134708,0.001162846,0.04985734
0.142153,0.879301,0.4473146,0.002424045,0.0004546007,-0.0009398601,0.0229783,0.005018808,0.04599246
0.1456924,0.8812384,0.4468204,0.006083249,0.002371729,-0.001528435,0.02321158,0.005093752,0.03792864
0.1436416,0.8822404,0.4509432,0.004146952,0.003355761,0.002501353,0.02119791,0.005281681,0.03319471
0.1409907,0.8762573,0.4509626,0.001605156,-0.002643304,0.002429276,0.01845073,0.00381272,0.02918026
0.1419143,0.8759208,0.4479628,0.002632282,-0.00299392,-0.0006603755,0.0168478,0.005161299,0.03149623
0.1411521,0.8778496,0.4447946,0.001968154,-0.001077374,-0.003916802,0.019162,0.006894317,0.03147502
0.1387969,0.8772977,0.4447518,-0.0002945263,-0.001639526,-0.004045897,0.02224349,0.005163573,0.03177842
0.1369028,0.8775668,0.4458863,-0.002101531,-0.001378863,-0.002995556,0.02183998,0.003363416,0.03535535
0.1370435,0.8756952,0.4411823,-0.001878867,-0.003257102,-0.007781241,0.02399566,-0.001069256,0.03088037
0.1381316,0.8776684,0.4420355,-0.0007137689,-0.001288672,-0.007006927,0.03092035,0.002741885,0.0255349
0.1371048,0.8804244,0.447465,-0.001668232,0.001464452,-0.00165324,0.03127336,0.007550302,0.02322238
0.1363634,0.8800825,0.4487998,-0.002341877,0.001121266,-0.0003909109,0.0290906,0.0001853844,0.02388976
0.1368049,0.879177,0.4518316,-0.001836912,0.0002160467,0.002571729,0.03028566,-0.002687168,0.02866585
0.1383654,0.8752881,0.4538196,-0.0002169142,-0.003671225,0.00449388,0.02818993,0.0008138688,0.02648794
0.1413554,0.8732921,0.4536774,0.00282866,-0.005664128,0.004288738,0.02655867,0.002322453,0.02504688
0.1406892,0.8724513,0.4517141,0.002214205,-0.006500365,0.002265317,0.02608746,0.001962695,0.03004914
0.1394913,0.8731053,0.4478503,0.001064283,-0.005840141,-0.001656006,0.02386709,0.0006070935,0.02963636
0.1418419,0.8764774,0.4482208,0.003459159,-0.002459949,-0.001340554,0.02229391,-0.001100794,0.02734818
0.1418694,0.875431,0.4491893,0.003527326,-0.003496323,-0.0004245167,0.02027222,-0.003470167,0.0260125
0.1410239,0.8769284,0.4484708,0.002718598,-0.001987073,-0.001192935,0.01931638,0.001469169,0.02403638
0.1402033,0.8806707,0.4493467,0.001931263,0.001769026,-0.0003645007,0.01886184,0.007991298,0.02228767
0.1378863,0.8777308,0.4496847,-0.000356288,-0.001155485,-7.131427e-05,0.01751328,0.004955379,0.01868208
0.1379164,0.8751292,0.4501149,-0.0003001114,-0.003740007,0.0003164162,0.01776706,0.003697902,0.01506638
0.1376976,0.8749563,0.4544512,-0.0004961211,-0.003894401,0.004612775,0.0180935,0.005545075,0.01294347
0.1368064,0.8747096,0.4582431,-0.001367651,-0.004121029,0.008366786,0.01957179,0.002341512,0.01322655
0.1369846,0.8759959,0.4544555,-0.001172719,-0.002813155,0.004543105,0.02255434,-0.001567177,0.01130599
0.1357751,0.8785099,0.4509025,-0.002368073,-0.000275975,0.0009555975,0.02194198,-0.002556693,0.008390796
0.1360018,0.8811516,0.4528948,-0.002129753,0.002390359,0.002914697,0.02012488,0.001940754,0.01228059
0.1374691,0.879226,0.4513205,-0.0006528349,0.0004905922,0.001308407,0.02035586,0.007312335,0.01570062
0.1374807,0.8753553,0.4478536,-0.0006336646,-0.003353133,-0.00218939,0.01990314,0.00273591,0.0176545
0.1376254,0.8763493,0.4485338,-0.0004832789,-0.002331272,-0.001538939,0.0205945,-0.00418547,0.01926728
0.1378205,0.8762133,0.4491,-0.0002839879,-0.002438448,-0.001001209,0.02193427,-0.004762192,0.01701335
0.139531,0.8722451,0.4495952,0.00142903,-0.006376865,-0.0005332983,0.01920439,-0.003660807,0.01696121
0.1427926,0.8705945,0.4518344,0.004691762,-0.007996653,0.001679829,0.01581007,0.0009310831,0.01621027
0.1433197,0.8734549,0.4516379,0.005218404,-0.0051043,0.001458548,0.01452233,0.005056147,0.01303024
0.1410931,0.8781865,0.4493891,0.002989795,-0.0003393445,-0.0008138428,0.01407216,0.001878446,0.01097523
0.1394236,0.8785554,0.4495648,0.001316458,6.422075e-05,-0.0006606843,0.01503601,-0.0001992502,0.009606348
0.1395041,0.8771439,0.4513044,0.00139151,-0.00131154,0.001057594,0.01439388,0.001493058,0.01024526
0.1395349,0.879096,0.4533658,0.00141521,0.0006773135,0.003098607,0.01257017,0.002244083,0.00914467
0.138728,0.878921,0.4566205,0.0005995937,0.0005398671,0.006333936,0.01298669,0.003693681,0.007424379
0.1387313,0.8762725,0.4572457,0.000592801,-0.002070418,0.006940437,0.01245132,0.00524475,0.005951123
0.1383175,0.8743897,0.4548657,0.000167434,-0.003914419,0.004542038,0.00992558,0.002269444,0.00347365
0.1356484,0.8746386,0.4512477,-0.002514536,-0.003626138,0.0009058396,0.006954997,-0.00222142,0.006267794
0.1336359,0.8768561,0.4454385,-0.004540898,-0.001368716,-0.004921553,0.005386642,-0.0006335102,0.009504716
0.1348152,0.8772237,0.4456755,-0.003376177,-0.0009606616,-0.00470259,0.007498304,0.006437715,0.009041461
0.1352977,0.8779053,0.4484472,-0.002908896,-0.0002381647,-0.001948391,0.009044778,0.01152992,0.009417217
0.1348399,0.8780702,0.4452234,-0.00338208,-3.190694e-05,-0.005189249,0.009047493,0.006130705,0.008643738
0.1385058,0.8760738,0.4489008,0.0002683695,-0.001986779,-0.001528034,0.01341157,-0.001584272,0.006752704
0.1412281,0.8750635,0.4537492,0.002975385,-0.002955404,0.003305143,0.02084529,0.0005233842,0.003633211
0.1384842,0.8719789,0.4496138,0.0002160797,-0.005998133,-0.0008446679,0.02323377,-0.001746483,-2.819246e-05
0.1361507,0.8702927,0.4494223,-0.002132712,-0.007642192,-0.001049757,0.02020961,-0.007945193,0.0009737129
0.1357535,0.8741094,0.4495572,-0.002545013,-0.003782962,-0.0009275622,0.01966541,-0.004647449,0.001441034
0.1346516,0.8779315,0.4441774,-0.003661855,8.229042e-05,-0.006319191,0.02004644,-0.003665795,-0.001506717
0.1341156,0.8792185,0.4410449,-0.004212277,0.001413057,-0.009462498,0.01698951,-0.003925221,0.0002029011
0.1355204,0.8779904,0.4444417,-0.0028213,0.0002289461,-0.00607512,0.01515746,-0.0007692119,0.005978214
0.1362376,0.876612,0.4502835,-0.002117168,-0.001105241,-0.0002410507,0.01497156,-0.003475381,0.01036485
0.1361535,0.876355,0.450388,-0.002213362,-0.001317982,-0.0001426335,0.0146808,-0.005246919,0.009298652
0.1363008,0.8771088,0.4507629,-0.002077184,-0.0005199046,0.0002278728,0.0147653,-0.003779201,0.004629201
0.1350575,0.8783976,0.4510738,-0.003330471,0.0008130819,0.000535877,0.01433185,-0.0005175625,0.003931345
0.1330963,0.8776521,0.447059,-0.005300475,0.0001115279,-0.003480288,0.0137511,0.005407631,0.003677199
0.1317192,0.8775483,0.4473662,-0.006685082,5.134214e-05,-0.003173073,0.01090457,0.003715462,0.002811685
0.1359358,0.878118,0.4467353,-0.002474512,0.0006642644,-0.00380249,0.007590798,0.001183191,0.003097744
0.1431336,0.8775086,0.4461798,0.004718946,9.757153e-05,-0.004354956,0.008987867,0.004104431,-5.159915e-05
0.1430603,0.8778926,0.4487633,0.004642785,0.0005235306,-0.001766764,0.01039728,0.002111492,-0.003150414
0.1392322,0.877818,0.4463617,0.0008130812,0.0004902738,-0.004162103,0.009463306,-0.001233343,-0.004735635
0.1361027,0.8776347,0.4461069,-0.002317043,0.000347488,-0.004408822,0.0120203,-0.002746431,-0.003776745
0.1351028,0.8781296,0.4437401,-0.003316699,0.0008820102,-0.006765912,0.01557139,-0.002942876,-0.0004511518
0.1357009,0.8783549,0.4381616,-0.002717218,0.001145923,-0.01233273,0.01460547,6.291413e-06,-0.000554199
0.1355857,0.8784298,0.4431093,-0.002830041,0.001258489,-0.007371027,0.01325663,0.0005748216,-0.0008912099
0.1383735,0.8767395,0.4490743,-3.868131e-05,-0.000395366,-0.001389755,0.01293611,-2.423834e-05,-0.001894387
0.1381718,0.8757192,0.4505492,-0.0002358404,-0.001380381,0.0001040464,0.009964601,-0.001604378,-0.002721301
0.1365736,0.8770536,0.4497722,-0.00182831,-1.178004e-05,-0.0006518546,0.007179718,-0.003542843,-0.0005014977
0.1407744,0.8784145,0.4453506,0.002379139,0.001382198,-0.005050197,0.004958612,-0.000628081,-0.001731021
0.1433101,0.880387,0.4456471,0.004922354,0.003386499,-0.004728346,0.001649412,0.0002077247,-0.005336139
0.144997,0.8812298,0.449415,0.006617361,0.004259896,-0.000933116,0.001839883,0.0008801556,-0.008443313
0.1449484,0.8799977,0.4496726,0.00657715,0.003056903,-0.0006461015,0.00299379,0.00287015,-0.008114751
0.1421053,0.8790849,0.4488864,0.003742337,0.002171557,-0.001401183,0.0008588962,-0.0002459175,-0.00570917
0.1413318,0.8764897,0.4511006,0.00297678,-0.0003978375,0.0008458491,0.0004186197,-0.000200282,-0.008701911
0.1378431,0.8745161,0.4510314,-0.0005045606,-0.002347319,0.000810822,0.0009008838,0.0006968633,-0.009912732
0.1364034,0.8785836,0.4434409,-0.001937548,0.001742578,-0.006744142,5.522924e-05,-0.0008308319,-0.008746616
0.1379569,0.8822175,0.4391355,-0.0003777596,0.005397383,-0.01101281,0.001695491,0.0004523257,-0.009656606
0.1353525,0.8804808,0.4443127,-0.002976344,0.00368,-0.005797414,0.003737736,0.0001272702,-0.006406828
0.1341663,0.8798765,0.4495841,-0.004157082,0.003093153,-0.0004862318,0.004084289,0.0008527978,-0.003722271
0.1347555,0.8809414,0.4483833,-0.0035625,0.004173577,-0.001645701,0.005010101,0.001801119,-0.005283726
0.1347935,0.8795519,0.4501016,-0.003519159,0.002797577,0.0001153676,0.008207029,0.0008801683,-0.006053605
0.1348337,0.8786488,0.4568157,-0.003473326,0.00190597,0.006873452,0.01267063,0.001656965,-0.004996442
0.1348017,0.8793937,0.4539622,-0.003499399,0.002660351,0.004064693,0.012254,0.0002530294,-0.003615107
0.1373079,0.8789938,0.449507,-0.0009867922,0.002267802,-0.0003452103,0.0109041,0.0003884405,-0.004272855
0.1406371,0.8781632,0.449922,0.002349343,0.001442489,0.0001151532,0.01500431,0.0039718,-0.006684265
0.1423887,0.8778087,0.4473722,0.004108357,0.001091251,-0.002389174,0.01644712,0.005675676,-0.009915491
0.1402414,0.8786494,0.4489549,0.001968659,0.001933264,-0.0007610942,0.01386014,0.002662553,-0.0128885
0.13519,0.8805832,0.4503036,-0.003074976,0.003866466,0.0006329407,0.009082445,-0.002943474,-0.01416499
0.1314091,0.8808425,0.4478934,-0.00684806,0.00412333,-0.001732157,0.0009916819,-0.001276198,-0.01251181
0.1294048,0.8803643,0.44469,-0.008844152,0.00364064,-0.004890752,-0.002687824,0.002559991,-0.01133884
0.1310306,0.8804537,0.4390112,-0.007209526,0.003723558,-0.01052487,-0.002095244,0.002058322,-0.01318618
0.1331516,0.8796457,0.4455174,-0.005078733,0.002907118,-0.003973886,-1.20738e-05,0.002481598,-0.009271645
0.1340389,0.8787068,0.4570709,-0.00418052,0.001957707,0.007624454,0.003896628,-0.001943748,-0.003934332
0.1361312,0.8781907,0.4567889,-0.002075939,0.00142911,0.007387424,0.002466026,-0.007895244,-0.00466702
0.1373419,0.877676,0.4559708,-0.0008517084,0.0008999893,0.006613842,0.0006041922,-0.004479334,-0.004739015
0.1402129,0.8772547,0.4562865,0.002034218,0.0004626115,0.006973176,0.004362212,-0.0004196153,-0.006103167
0.1411533,0.8761212,0.4548137,0.002990596,-0.0006887175,0.005542772,0.004861755,-0.001406926,-0.008878802
0.1374696,0.8748435,0.4541268,-0.0006762529,-0.001985618,0.004896643,0.001765993,-0.0009694255,-0.01079311
0.1373924,0.8764348,0.4526231,-0.0007357973,-0.0004148291,0.003431755,-0.0001266619,-0.002810121,-0.01244694
0.1385877,0.8788647,0.4532313,0.0004777286,0.001993584,0.00407674,0.0001339471,-0.00713253,-0.01500824
0.1385396,0.8781129,0.4546579,0.0004485218,0.001219288,0.005537863,0.002807345,-0.004616718,-0.02040777
0.1375653,0.8789938,0.4553877,-0.0005065449,0.002076841,0.006299801,0.00478961,-0.002137905,-0.01702161
0.1350562,0.8818408,0.453358,-0.002995985,0.004899571,0.004299586,0.005736165,-0.003307787,-0.01071864
0.135916,0.881256,0.4461649,-0.002116174,0.00428966,-0.002866732,0.004982857,-0.001688578,-0.01368152
0.1358281,0.880784,0.4431573,-0.002183645,0.003791478,-0.005850129,0.003313908,-0.003372445,-0.01294292
0.133635,0.8805531,0.4467014,-0.004355846,0.003533366,-0.002284214,0.003948411,-0.006180684,-0.01147288
0.1340657,0.8775143,0.4501816,-0.003903745,0.0004663105,0.001215664,0.003536625,-0.00427722,-0.01294953
0.1332711,0.8739023,0.4519877,-0.004676316,-0.003175014,0.003039561,0.002748357,-0.003295229,-0.008968259
0.1337774,0.8712553,0.453947,-0.004147216,-0.005852064,0.005014652,0.002546945,-0.002044637,-0.006941265
0.1382779,0.8730827,0.4565951,0.0003769022,-0.004055214,0.007676559,0.0001217128,0.0006870035,-0.008177546
0.1410527,0.877176,0.4554345,0.003176175,7.508175e-06,0.006527501,-0.001187401,0.0008936317,-0.008284718
0.1389902,0.8790869,0.4526253,0.001138698,0.001887811,0.003727304,-0.0008140084,-0.0007519724,-0.009008099
0.1360981,0.8813639,0.451081,-0.001727918,0.004134367,0.002189592,-0.001209794,-0.002246732,-0.009988009
0.1377824,0.8806892,0.4492304,-1.789141e-05,0.003429305,0.0003429049,-0.004174121,-0.001605518,-0.01155415
0.1391335,0.8778159,0.4514233,0.001359219,0.0005255763,0.00253723,-0.007885447,0.002167735,-0.01221366
0.137643,0.8778619,0.4544079,-0.0001050782,0.0005411356,0.005520923,-0.007675421,0.003445942,-0.01200976
0.1357969,0.8771855,0.4531584,-0.001925071,-0.0001657713,0.004268074,-0.006136843,-0.002319257,-0.01292081
0.1323536,0.8756112,0.4510192,-0.005342067,-0.001770452,0.00212314,-0.002607033,-0.007844437,-0.01207275
0.1334468,0.8730293,0.4505846,-0.004222511,-0.004382529,0.001680352,0.002912363,-0.007048585,-0.006428567
0.1363452,0.8709851,0.4520746,-0.001297527,-0.006456453,0.003159746,0.00310871,-0.003991713,-0.001738156
0.1345627,0.8732749,0.4514337,-0.003053067,-0.004195624,0.00250609,0.001367482,-0.002327782,-0.006552677
0.1371266,0.8752886,0.4500606,-0.0004619642,-0.00220991,0.001117943,0.002141254,-0.001993545,-0.01233769
0.1399308,0.8778953,0.4485063,0.002369851,0.000370051,-0.0004534102,0.0005201414,-0.0005982939,-0.01120956
0.1358165,0.8806992,0.4443871,-0.001716673,0.003148352,-0.00459165,-0.003303266,0.0009202943,-0.01201743
0.1352315,0.8801129,0.4442232,-0.002273791,0.002537659,-0.004776131,-0.004352035,-0.002954792,-0.01185307
0.1428272,0.8799647,0.4429999,0.005349844,0.002365995,-0.00602112,-0.001007792,-0.00763995,-0.009336724
0.148813,0.8789401,0.4411945,0.01136341,0.001318842,-0.007849014,0.003139891,-0.005184804,-0.01773197
0.1408139,0.878638,0.4490161,0.003391552,0.0009948341,-5.020413e-05,0.004189882,-0.002577728,-0.02630628
0.1291239,0.8799119,0.4514352,-0.008271979,0.002247644,0.002346034,0.003730535,-0.004605531,-0.0209498
0.1297029,0.8787082,0.4474751,-0.007667334,0.001023405,-0.001636946,-0.0003083095,-0.00550972,-0.0162999
0.1319078,0.8787919,0.4493995,-0.005437311,0.00108708,0.0002645965,-0.005971615,-0.005542114,-0.0154813
0.1320634,0.8775898,0.4474219,-0.005256789,-0.0001344245,-0.001735653,-0.0013686,-0.005431485,-0.01072072
0.1357509,0.8746254,0.4474408,-0.001544215,-0.003117819,-0.001739143,0.004547321,-0.004426773,-0.01085599
0.1361723,0.8759574,0.452281,-0.001097649,-0.001804159,0.003078995,0.000649957,-0.004047618,-0.01394382
0.1354827,0.8777566,0.4490707,-0.001761998,-2.255309e-05,-0.0001530067,-0.0003801435,-0.003226809,-0.01227146
0.1390079,0.8781877,0.4474188,0.001788712,0.0003916885,-0.001826286,0.001106254,-0.003348673,-0.01251686
0.1409313,0.8786862,0.4474286,0.00373761,0.0008740016,-0.001837487,-0.0002813573,-0.004474278,-0.01216374
0.1375889,0.8793982,0.4433093,0.0004204793,0.001570621,-0.00597713,0.0004610607,-0.004748329,-0.01056976
0.1346979,0.8804136,0.4430209,-0.002445434,0.002571208,-0.006285131,-0.001540374,-0.003361566,-0.01417011
0.1364665,0.8804877,0.4429865,-0.0006520199,0.002631089,-0.006338094,-0.004593608,-0.0003293126,-0.01514717
0.1375474,0.8803799,0.4445466,0.0004533331,0.002509397,-0.004795255,-0.003358497,-0.0008685646,-0.01448064
0.1370076,0.8783965,0.4492601,-6.223845e-05,0.0005123601,-9.736112e-05,-0.003057927,-0.002395215,-0.01738872
0.1369901,0.8752406,0.4525742,-5.598236e-05,-0.002656821,0.003202708,-0.002883918,-0.000883153,-0.0179635
0.1351563,0.8745326,0.455816,-0.001866331,-0.003377846,0.006431936,-0.001594433,-0.002107025,-0.01741534
0.1331766,0.8751745,0.4554306,-0.003822951,-0.002748619,0.006035103,-0.001081334,-0.005531789,-0.01585112
0.1318153,0.876306,0.4530117,-0.005161473,-0.001629018,0.003605526,0.0007188313,-0.007703378,-0.01262271
0.1321435,0.877238,0.447239,-0.004810589,-0.0007083831,-0.002177161,0.002076606,-0.007129198,-0.01154983
0.1341281,0.8766485,0.4405194,-0.002803148,-0.001308335,-0.008906307,0.0006925841,-0.004765307,-0.01577152
0.1324115,0.8733855,0.4446171,-0.00449672,-0.004581147,-0.004817293,0.0002264453,-0.004507887,-0.02119207
0.1310704,0.870071,0.4479067,-0.005814443,-0.007904353,-0.001535393,0.003229511,-0.004188097,-0.01466384
0.1332203,0.8712305,0.4448353,-0.003640637,-0.006752471,-0.004613311,0.00568363,-0.003605796,-0.006729928
0.1355566,0.8739108,0.4457533,-0.001279713,-0.004078343,-0.003700651,0.003986068,-0.00240628,-0.01117418
0.1393118,0.8754904,0.4463706,0.002500614,-0.002503214,-0.003087188,0.0006055073,0.003279621,-0.0151289
0.1399025,0.8760123,0.4462685,0.00311704,-0.001984006,-0.00319167,-0.002370687,0.007630905,-0.01544097
0.1376897,0.8770525,0.4504553,0.0009301825,-0.0009448165,0.0009943019,-0.00569509,0.006362025,-0.01565734
0.1380123,0.8803821,0.4537048,0.001278892,0.002385451,0.004244398,-0.01022901,0.004749456,-0.01581782
0.1355182,0.8806242,0.4504473,-0.001189196,0.002629726,0.0009887042,-0.01547343,0.00475846,-0.01757668
0.1326325,0.8797497,0.4472308,-0.004048928,0.001758609,-0.002224835,-0.01749446,0.004410221,-0.01671075
0.1335294,0.8806292,0.4513067,-0.003126098,0.002642686,0.001854933,-0.01484346,0.004033457,-0.01374325
0.1335172,0.8767754,0.4562371,-0.003112387,-0.001205699,0.00679003,-0.0100895,0.0035042,-0.009172972
0.1339208,0.8740663,0.4567718,-0.002682709,-0.003908583,0.007330003,-0.005161868,0.001348275,-0.005515435
0.1344776,0.8778727,0.4536925,-0.002099517,-9.521215e-05,0.004256217,-0.004061742,-0.0006530273,-0.009346728
0.1338635,0.8797976,0.4498416,-0.002687132,0.001837498,0.0004107334,-0.005338116,-0.001923394,-0.01246819
0.135165,0.8765361,0.4505066,-0.001358775,-0.001415415,0.001080831,-0.005831755,-0.002507342,-0.01011113
0.1369047,0.8739497,0.4498449,0.0004081107,-0.003992642,0.0004239671,-0.0086483,-0.0006531198,-0.009412407
0.1373426,0.8768575,0.445936,0.0008733493,-0.00107499,-0.003480425,-0.009189478,0.003210205,-0.008860027
0.1360027,0.8790231,0.4487748,-0.0004391276,0.001101215,-0.0006373145,-0.00964689,0.007768924,-0.00635571
0.1340723,0.8769262,0.4521971,-0.00234202,-0.000984425,0.0027891,-0.01585766,0.00731644,-0.007110757
0.1354287,0.8753405,0.4526441,-0.0009582141,-0.002558235,0.003239936,-0.0160945,0.004403803,-0.01409195
0.1369792,0.8721215,0.4584661,0.0006198268,-0.005764781,0.009065481,-0.01166532,0.005787521,-0.02260806
0.1356219,0.8698488,0.4616174,-0.0007101135,-0.008024224,0.01221955,-0.009989698,0.001445208,-0.02287677
0.134679,0.8732364,0.4592198,-0.001625689,-0.004622379,0.009823563,-0.006020296,-0.004916769,-0.016905
0.1330306,0.8763404,0.4603709,-0.00324693,-0.001503015,0.01097468,-0.003358512,-0.003250992,-0.01504348
0.131004,0.8768682,0.4618776,-0.005246325,-0.0009585114,0.01247934,-0.001266665,-0.003337141,-0.01367967
0.1323812,0.8776478,0.460724,-0.003841937,-0.0001611383,0.01132124,0.002820683,-0.002690961,-0.01009929
