accx,accy,accz,body_accx,body_accy,body_accz,body_gyrox,body_gyroy,body_gyroz
0.07815351,0.8699775,0.4717409,0.03050859,-0.001633057,-0.024356,0.05477806,-0.001607778,0.3074251
0.09271287,0.8810138,0.4419717,0.04443448,0.009093518,-0.05280746,0.05592739,-0.04592322,0.3532555
0.09968984,0.9187061,0.4121042,0.05068629,0.04645229,-0.08129505,0.08689095,-0.05336099,0.3753739
0.1078656,0.9220691,0.4111509,0.05805141,0.04945925,-0.08081138,0.09544117,-0.06544383,0.3776176
0.1392801,0.9218799,0.4245886,0.08857531,0.04889186,-0.0658838,0.09169541,-0.08158676,0.3297596
0.1695512,0.9444294,0.4061332,0.1178801,0.07104107,-0.08280049,0.05646515,-0.060068,0.3200794
0.1733243,0.9374729,0.3984946,0.1206141,0.06366172,-0.08885528,-0.01130867,0.01710145,0.3259761
0.1451101,0.9030057,0.4106937,0.09129062,0.02874882,-0.07503073,-0.008501693,0.07553419,0.3555717
0.1050124,0.8643378,0.4102032,0.05001622,-0.01038683,-0.07385729,0.04420743,0.08583079,0.4109142
0.08400051,0.8320042,0.4232022,0.02776464,-0.04320796,-0.05915949,0.1092808,0.03821418,0.4181446
0.102221,0.8468689,0.4290316,0.0446881,-0.02884679,-0.05160012,0.1567964,-0.02609178,0.4108386
0.1558352,0.871683,0.4320187,0.09695326,-0.004547978,-0.04685608,0.1547774,-0.03830607,0.3886012
0.1881671,0.8591667,0.4412439,0.1278878,-0.01758818,-0.03585116,0.1655187,-0.06205582,0.3465901
0.1780232,0.8716866,0.4289829,0.1163001,-0.005598144,-0.04631387,0.1955396,-0.1200209,0.3088818
0.1683126,0.8984112,0.4248318,0.1051008,0.02059296,-0.04865233,0.1959224,-0.1695199,0.2868099
0.1652078,0.9159366,0.4167999,0.1004638,0.03758258,-0.0548608,0.1719962,-0.1734386,0.2966725
0.1517775,0.9381584,0.3894377,0.08545993,0.05926645,-0.08039165,0.1470039,-0.1121859,0.3027535
0.1467518,0.9190993,0.3730051,0.07882175,0.03966652,-0.094987,0.1268851,-0.03355298,0.3073846
0.1627521,0.8966787,0.3706563,0.09317348,0.01670177,-0.09549381,0.1090687,0.02555881,0.2942456
0.1644224,0.8947292,0.3815376,0.09316191,0.0142048,-0.08276647,0.08994821,0.02836071,0.2564301
0.1558765,0.8828137,0.3901784,0.08290306,0.001739497,-0.07227633,0.07595587,-0.0004647457,0.2532425
0.1585976,0.8936644,0.4014309,0.08388251,0.01203927,-0.0591726,0.08157014,-0.009948607,0.2568489
0.154942,0.9088408,0.418947,0.07845919,0.02666464,-0.03980502,0.08800919,-0.02470051,0.2532587
0.1587955,0.9125417,0.4171372,0.08052139,0.02981495,-0.03976583,0.08937362,-0.02738704,0.2536755
0.1646952,0.9154498,0.4102882,0.08460873,0.03217301,-0.04477078,0.09654265,-0.02030877,0.2399609
0.1650046,0.908044,0.4031364,0.08308678,0.02421763,-0.050086,0.09154904,-0.01827166,0.2256882
0.1657005,0.907891,0.3916741,0.08193461,0.02351568,-0.05972125,0.08559714,0.003688781,0.2105556
0.1511209,0.9056771,0.3867305,0.0654923,0.02075346,-0.06284877,0.07981237,0.0265809,0.2063403
0.1436681,0.9020533,0.383106,0.05616452,0.01658234,-0.06466924,0.0649929,0.04051112,0.2131864
0.1372858,0.9065844,0.3897706,0.04789781,0.02056768,-0.05621353,0.06575195,0.03166923,0.2201452
0.1310124,0.9031976,0.401111,0.03973369,0.01663703,-0.04309589,0.07042731,0.0007918591,0.2386301
0.1447966,0.9061735,0.4020029,0.05162424,0.01907125,-0.04044181,0.07114083,-0.02066815,0.2438433
0.1486497,0.9116698,0.4037701,0.0535835,0.02402859,-0.03692907,0.0769922,-0.03072187,0.2373121
0.1494873,0.9103901,0.4037386,0.0525299,0.0222128,-0.03523312,0.07357998,-0.02108862,0.2368772
0.1516441,0.9121952,0.3987523,0.0528002,0.02348463,-0.03851176,0.0705541,-0.01320225,0.2282053
0.1479647,0.9090433,0.3987056,0.04724132,0.01980254,-0.03687179,0.07500923,-0.0110857,0.2204974
0.15158,0.9031866,0.396043,0.04898594,0.01341887,-0.03786993,0.07526225,0.01235667,0.2208511
0.1494736,0.8960884,0.3881668,0.04501985,0.005797108,-0.0441048,0.07351913,0.02096674,0.2211405
0.1493752,0.8935684,0.3897228,0.04307467,0.002757816,-0.0409314,0.0722303,0.01178165,0.220869
0.1506773,0.9006324,0.3998062,0.04254457,0.009307615,-0.02925505,0.07472422,0.004757627,0.2192561
0.1449083,0.9004758,0.4066239,0.03495989,0.008642481,-0.02086966,0.08256602,-0.01049178,0.2120423
0.144404,0.9003127,0.4053972,0.03265806,0.007977082,-0.02055509,0.0880811,-0.01877753,0.2018296
0.1441156,0.9066525,0.4021027,0.03059217,0.01382139,-0.02233596,0.09142568,-0.02309665,0.2003878
0.1465545,0.9108783,0.4035517,0.03127545,0.01755873,-0.01940182,0.09575177,-0.02629807,0.2006053
0.1483265,0.9128007,0.397753,0.03131524,0.01899971,-0.02374494,0.09291454,-0.01385297,0.1968918
0.1462694,0.9092346,0.3894207,0.02755075,0.01495915,-0.03065178,0.0872638,-0.001282589,0.1969594
0.1477576,0.9063122,0.3939039,0.02735779,0.01156917,-0.02477376,0.09067116,-0.00237902,0.193622
0.1459834,0.9039981,0.3970937,0.02392995,0.008794568,-0.02021983,0.09085189,-0.005419202,0.1890538
0.1456114,0.902386,0.3963132,0.02193309,0.006729137,-0.01966741,0.08420765,-0.0008121638,0.1897927
0.1471674,0.9065879,0.39624,0.02189401,0.01048521,-0.01843904,0.08127809,-0.002659977,0.1915944
0.1471383,0.9075238,0.3916915,0.02030082,0.010983,-0.02171767,0.07942331,-0.01174058,0.1990184
0.1491189,0.9106113,0.3889252,0.02074923,0.01364024,-0.02324591,0.0780547,-0.01307952,0.2045438
0.1504712,0.9125746,0.3870744,0.02060203,0.01518106,-0.02389045,0.0721329,-0.006223537,0.1932319
0.1539389,0.9084256,0.385745,0.02260355,0.01061717,-0.02404509,0.06199142,0.005020083,0.1787972
0.1549111,0.9118793,0.3877755,0.02214339,0.01366362,-0.02087123,0.0590401,0.006362721,0.1773289
0.1521803,0.9121148,0.3888056,0.01801454,0.01349928,-0.0187286,0.05457481,0.009662368,0.1796827
0.1504292,0.9100022,0.3955829,0.0148998,0.01099428,-0.01086963,0.04469934,0.02241418,0.179865
0.1456319,0.9150757,0.4065828,0.008773681,0.01568263,0.001181158,0.04180199,0.01358853,0.1781948
0.1444973,0.9151117,0.4085728,0.006345727,0.01534048,0.004190849,0.04441893,0.004619194,0.1712655
0.1508633,0.9118545,0.4035556,0.01145431,0.01171195,0.0001616375,0.04409859,0.01145612,0.1679224
0.1563021,0.9067177,0.39874,0.0156719,0.006210593,-0.003698109,0.04379006,0.008071773,0.1671706
0.154324,0.9027345,0.3959455,0.01250889,0.00186959,-0.005569285,0.05041378,0.003926879,0.1603192
0.1494581,0.904736,0.3950199,0.006494271,0.003520256,-0.005603895,0.05713558,0.002931319,0.1567587
0.1484026,0.9041479,0.3943822,0.004326343,0.002588667,-0.005382673,0.05756905,0.004302078,0.1563295
0.1457957,0.9038611,0.3931671,0.0006433852,0.001965803,-0.005770896,0.06026391,0.009436887,0.1565491
0.1431291,0.905335,0.3930277,-0.003062746,0.003111538,-0.005114877,0.06448487,0.002794258,0.1611066
0.1418836,0.9072944,0.3941446,-0.005310884,0.004750753,-0.003233872,0.059409,-0.003970635,0.1621194
0.141759,0.9111168,0.3940072,-0.00640112,0.008260975,-0.002637879,0.05381345,-0.002036356,0.1595033
0.1470675,0.9098866,0.3919428,-0.002020857,0.00672656,-0.003999267,0.0557831,-0.001888969,0.1564828
0.1479967,0.9078647,0.3898778,-0.001982698,0.004408436,-0.005391224,0.05127248,-0.002779476,0.1521876
0.1455088,0.908744,0.392519,-0.005324333,0.004999326,-0.002106315,0.04434472,-0.007676012,0.1489631
0.1461935,0.9079132,0.3959912,-0.005456351,0.00388794,0.001980626,0.0457943,-0.01246901,0.1481737
0.1458739,0.9074004,0.3931254,-0.006555857,0.003102412,-0.0002987812,0.04592885,-0.00641197,0.1505957
0.1491184,0.9069076,0.3912274,-0.004054595,0.002344584,-0.001638294,0.0459323,0.0020931,0.1470508
0.15282,0.9072916,0.392782,-0.001060037,0.002471425,0.0004472753,0.04828904,0.003831261,0.1359015
0.1528876,0.9108767,0.3948991,-0.001663815,0.005807113,0.003068467,0.04594101,0.005072521,0.1305386
0.1515821,0.913305,0.3982574,-0.00360563,0.007993724,0.006904542,0.04015162,0.006299985,0.1305824
0.1479169,0.9117183,0.3961662,-0.007872786,0.006172781,0.005265006,0.03511142,0.002397273,0.1293585
0.1466514,0.9091709,0.3908856,-0.009706327,0.003398369,0.0004103358,0.03415169,-0.0004315347,0.1292113
0.1471656,0.9084986,0.3890488,-0.009726913,0.002506159,-0.001025517,0.03473493,-0.0007436276,0.1317732
0.1473253,0.9074809,0.3864837,-0.01006906,0.001275505,-0.003214079,0.03233838,-0.00132127,0.1300865
0.1474184,0.9064634,0.3846295,-0.01044543,5.207743e-05,-0.004715207,0.02963636,-0.001245415,0.126832
0.1464498,0.9080628,0.3879259,-0.01185154,0.001452526,-0.001088476,0.02977357,-0.00426741,0.130235
0.1457923,0.9085948,0.3920364,-0.01291535,0.001792509,0.003330666,0.03317532,-0.006072828,0.1311351
0.1445361,0.9072163,0.3915489,-0.01454697,0.0002289458,0.00313078,0.0361215,-0.00419809,0.1286104
0.1477412,0.9069226,0.3907856,-0.01168708,-0.0002429818,0.002634645,0.03611495,-0.003558613,0.1280071
0.1528259,0.9077195,0.3925457,-0.006917852,0.0003825972,0.004641992,0.03601118,0.0005962687,0.1275829
0.1514823,0.9086145,0.3913057,-0.008548135,0.001113107,0.003629903,0.03585295,0.005314286,0.1295322
0.1507885,0.9075017,0.3902697,-0.009500503,-0.0001573691,0.002803244,0.03484788,0.001428573,0.1282156
0.1518743,0.906334,0.3907601,-0.008646188,-0.001476184,0.003484787,0.03312197,-0.00708202,0.1242444
0.1510166,0.9071495,0.3901638,-0.009709116,-0.0008051158,0.003062194,0.03158126,-0.01297822,0.1207036
0.1504759,0.9070291,0.3932544,-0.01042969,-0.001063379,0.006309623,0.03312075,-0.0108066,0.1130804
0.1498193,0.9067673,0.3954888,-0.01124153,-0.001456397,0.008684547,0.03336041,-0.003035507,0.1099401
0.150359,0.9067346,0.3947374,-0.01083342,-0.001613958,0.008057841,0.03036533,-0.0007812302,0.1098545
0.1529106,0.9050807,0.3970666,-0.008390315,-0.003386162,0.0104961,0.02864752,-0.001268209,0.1055711
0.1548841,0.9036371,0.3994376,-0.006503358,-0.004941635,0.01296103,0.02577336,-1.495e-05,0.103677
0.1537394,0.9036177,0.3993505,-0.007713504,-0.005066328,0.01295301,0.0250854,-0.002866064,0.1015866
0.1495187,0.902758,0.3997644,-0.01197937,-0.006024854,0.01343123,0.02793566,-0.00579773,0.09842454
0.1454504,0.9017492,0.4006904,-0.01607366,-0.007125795,0.01440701,0.0263673,-0.006980995,0.09836055
0.1449227,0.9064188,0.3948076,-0.01660856,-0.002541658,0.008559698,0.02324671,-0.007358855,0.09827857
0.1472669,0.9113154,0.3883553,-0.01425337,0.002276261,0.002129102,0.0205001,-0.004309471,0.09999873
0.1469579,0.9063752,0.3962988,-0.01453376,-0.002736238,0.01008092,0.01949896,-0.002866165,0.1018672
0.1456987,0.9018037,0.4023564,-0.01574734,-0.007373679,0.01613423,0.02358994,-0.0008084796,0.1007676
0.1477679,0.9048582,0.3931467,-0.0136161,-0.004378999,0.006907737,0.02597995,0.002820017,0.0995141
0.1499482,0.9057639,0.3874233,-0.01135791,-0.003526843,0.001155615,0.02698914,0.001635628,0.09629407
0.1520287,0.9047681,0.3917834,-0.009184496,-0.004570072,0.005475735,0.03000808,7.273292e-05,0.09283033
0.1524388,0.9052149,0.3940415,-0.008667134,-0.004164732,0.007683318,0.03230599,0.0004440239,0.08877475
0.1526951,0.9037702,0.3933088,-0.008290252,-0.005644853,0.00689002,0.03139376,0.0001099101,0.08266046
0.1578865,0.903236,0.3961671,-0.002965643,-0.006208728,0.009678268,0.02822783,0.001621221,0.07954499
0.1594232,0.9021371,0.4010725,-0.001284326,-0.007331486,0.01450461,0.03021677,0.003367011,0.07393891
0.1559484,0.8996471,0.4044792,-0.004603966,-0.00983949,0.01782339,0.03441485,0.002923057,0.06773767
0.1533596,0.9041699,0.4009714,-0.007028088,-0.005328836,0.01421898,0.03601763,0.004131394,0.06830367
0.1493483,0.909222,0.3937589,-0.01086625,-0.000283175,0.006901278,0.0352838,0.005633137,0.06594195
0.1464943,0.9067855,0.3939284,-0.01353896,-0.002720452,0.00695727,0.03104508,0.008594175,0.06207552
0.1440869,0.9060593,0.3913129,-0.0157577,-0.003442165,0.004220644,0.03066156,0.01518023,0.06308188
0.1431884,0.9073811,0.3869483,-0.01646021,-0.002110802,-0.000272194,0.02881201,0.01555975,0.06330975
0.1456291,0.9049263,0.3945109,-0.01381666,-0.004551251,0.007155813,0.02356034,0.01199815,0.064825
0.1445877,0.9037373,0.3988127,-0.01464841,-0.005721265,0.01131726,0.02465128,0.008687,0.06780995
0.1457537,0.9061337,0.3966079,-0.01326648,-0.003301513,0.008966646,0.02280699,0.002222649,0.06701
0.1499492,0.9076354,0.3981867,-0.008849136,-0.00177216,0.01039459,0.02104398,0.002044446,0.06658996
0.1511328,0.9071661,0.4011762,-0.007438081,-0.002209706,0.01322836,0.02424417,0.00474683,0.06739493
0.1561916,0.9074965,0.4065812,-0.002146923,-0.001843868,0.01847292,0.02367222,0.005501968,0.06470668
0.159743,0.9088206,0.4071104,0.001640922,-0.0004808387,0.01883699,0.02412723,0.01027914,0.06213068
0.1548518,0.9084833,0.3994726,-0.003010542,-0.0007759509,0.01102917,0.02509196,0.007591681,0.06022474
0.1499391,0.9079216,0.3940693,-0.007680966,-0.001292642,0.005451128,0.02752517,0.003144025,0.05436909
0.148454,0.9084549,0.39548,-0.008921939,-0.0007116376,0.006682664,0.03157887,0.01092753,0.0502681
0.1487174,0.9074062,0.400519,-0.008412919,-0.001710313,0.01153859,0.02638913,0.01570733,0.05047229
0.1497218,0.9064879,0.4006862,-0.007161835,-0.002576589,0.01151912,0.02045809,0.01494104,0.04848553
0.1515006,0.9070919,0.398626,-0.005135536,-0.001918519,0.009268761,0.02251803,0.01476635,0.04547215
0.1536149,0.9071469,0.3984428,-0.002773433,-0.001807765,0.008892225,0.02488645,0.00603931,0.0439055
0.1541559,0.907955,0.3973122,-0.001984824,-0.0009424437,0.007565446,0.02470426,-0.006171824,0.04288265
0.1525794,0.9099078,0.3994539,-0.00331434,0.001069036,0.009508309,0.02511155,-0.006513189,0.04372006
0.1505382,0.9118428,0.3996534,-0.005109661,0.003063733,0.009506734,0.02509829,0.001357776,0.04368824
0.1507233,0.912993,0.3957373,-0.004680241,0.004274374,0.005387544,0.02094004,0.004796731,0.0419584
0.1492996,0.9116716,0.3921415,-0.005861488,0.003013781,0.001586935,0.01806808,0.006502738,0.04308302
0.1459161,0.907784,0.3856123,-0.009004646,-0.000813061,-0.005148282,0.01795708,0.01029111,0.04392996
0.1466755,0.9043338,0.386176,-0.008007079,-0.004202727,-0.004791001,0.01413596,0.01398148,0.04223979
0.1462494,0.9052215,0.3920881,-0.008197192,-0.003254759,0.0009149183,0.01179153,0.01637973,0.04167367
0.1436217,0.9073891,0.3914295,-0.01059141,-0.001027105,5.114958e-05,0.01525114,0.01081979,0.03997915
0.1461683,0.9067798,0.3933602,-0.00781354,-0.001576619,0.001778196,0.01943108,0.002014564,0.03769462
0.148954,0.9068449,0.3942205,-0.004798946,-0.001452127,0.002436638,0.02210289,-0.002129274,0.03688068
0.1495485,0.9072555,0.3922546,-0.003978055,-0.0009825007,0.000271051,0.02284185,-0.001245358,0.03575194
0.1519736,0.9066131,0.3975083,-0.001329249,-0.001566441,0.005327592,0.02182155,0.005655047,0.03545413
0.1517239,0.9071127,0.3989033,-0.001358161,-0.00100884,0.006528064,0.02112134,0.009313672,0.03295445
0.1483903,0.9073601,0.3937599,-0.004474151,-0.0007040527,0.001192983,0.02063238,0.009492756,0.02847573
0.1466118,0.9085107,0.390468,-0.006038588,0.000503361,-0.002287738,0.0190942,0.009911706,0.02645796
0.1453107,0.9110518,0.3910268,-0.007129162,0.003100352,-0.001914569,0.01759968,0.006504419,0.02656556
0.1460762,0.9128174,0.3939113,-0.006156584,0.004920887,0.0007878509,0.01547556,0.003129521,0.03185345
0.1491301,0.916083,0.3927126,-0.002899094,0.00824021,-0.0005890091,0.01148525,0.001679842,0.03743715
0.1500491,0.9171498,0.3922016,-0.001780213,0.00935908,-0.001274096,0.008411261,0.005358664,0.03514559
0.1481744,0.9122247,0.3912044,-0.003458685,0.004483943,-0.002441073,0.007263412,0.007334906,0.03212216
0.1449471,0.9078716,0.3878998,-0.006493489,0.0001783799,-0.005911009,0.006279873,0.003817011,0.03212558
0.1453705,0.9069278,0.3926376,-0.00588153,-0.0007203281,-0.001333578,0.005378057,0.006247481,0.03019666
0.1487253,0.9063916,0.3962444,-0.00234196,-0.001213906,0.002117961,0.005667852,0.004767385,0.0290273
0.1490489,0.9042663,0.3934742,-0.00183739,-0.003298911,-0.0008023506,0.006635897,0.0007839603,0.03002755
0.1499721,0.9021026,0.3920645,-0.000737007,-0.005424458,-0.002356967,0.006812879,0.002704299,0.02811691
0.1505631,0.9034063,0.3918041,2.695719e-05,-0.004084445,-0.002757015,0.006843106,0.001239398,0.02573941
0.1484477,0.9046762,0.392845,-0.001919569,-0.002779925,-0.001850283,0.00683759,0.003112216,0.02488148
0.1485184,0.9021576,0.3925714,-0.001684308,-0.005265308,-0.002252582,0.007363604,0.005214225,0.02319106
0.1487555,0.9009326,0.3922775,-0.001286928,-0.006458226,-0.002669683,0.008697117,0.00203116,0.02245661
0.1483978,0.9042327,0.3922174,-0.001488866,-0.003126899,-0.002847228,0.00848563,0.002002127,0.02179576
0.1484895,0.9097317,0.3898101,-0.001245691,0.002402559,-0.005366396,0.008069687,0.00158694,0.0208673
0.14666,0.9142575,0.3902388,-0.002928317,0.006958091,-0.005043671,0.007888662,0.002221389,0.02043435
0.1463881,0.9132161,0.3910556,-0.003057643,0.005945348,-0.004327002,0.006978152,0.003516357,0.01935983
0.1510811,0.9057914,0.3923815,0.001773548,-0.001451838,-0.003095286,0.008965263,0.001984979,0.01722837
0.1553335,0.8989149,0.3977776,0.006159665,-0.008302027,0.002212752,0.01256899,0.000559589,0.01245133
0.1511923,0.8997236,0.3979186,0.002147636,-0.007468256,0.002271421,0.01256647,-0.001345003,0.008781598
0.1459208,0.9061507,0.3927028,-0.00299955,-0.001016727,-0.003021118,0.008663455,0.0002414249,0.01034966
0.1481309,0.910765,0.3908836,-0.0006698355,0.003621381,-0.004911674,0.004439847,0.004074791,0.01355559
0.147911,0.9126399,0.3905625,-0.0007749888,0.005519546,-0.005298738,0.002595627,0.007186156,0.01465182
0.1461352,0.9145082,0.3900063,-0.0024406,0.007410137,-0.005915422,-0.0001886765,0.008396639,0.01429238
0.1491261,0.9163266,0.3922375,0.0006560285,0.00924966,-0.003739347,-0.004113652,0.007437924,0.01458245
0.1495548,0.9151963,0.3937879,0.001185922,0.008139009,-0.002238486,-0.004030437,0.01124788,0.01542125
0.1485876,0.9099738,0.3918537,0.0003154455,0.002934123,-0.004216877,-0.00209731,0.009591771,0.015666
0.1471469,0.9051941,0.3916197,-0.001032795,-0.001829957,-0.004489785,0.0006306769,-0.001516984,0.01397652
0.1449539,0.9022663,0.3936533,-0.003137756,-0.004744243,-0.002489905,0.003866376,-0.008724228,0.01177079
0.1483862,0.9018901,0.3949018,0.0003784401,-0.005108655,-0.001269992,0.00256812,-0.009830884,0.01054078
0.1523213,0.9027978,0.3943825,0.004393414,-0.004190624,-0.001812995,0.002888639,-0.004137703,0.009356997
0.1531433,0.9010495,0.3916311,0.005291139,-0.005929713,-0.004583313,0.006775131,6.804702e-05,0.009295808
0.1529693,0.9028343,0.3886628,0.005188637,-0.004136565,-0.007566018,0.005598176,0.0006458674,0.009002631
0.1509856,0.9061056,0.3866266,0.003272128,-0.0008574242,-0.009611831,0.003856272,0.003673059,0.007951029
0.1493727,0.9062918,0.3872136,0.001721949,-0.0006637242,-0.009029805,0.004252162,0.001610648,0.007063094
0.1474453,0.9088753,0.3882837,-0.000147072,0.001926939,-0.007959788,0.002767214,-0.001736684,0.006497397
0.1472205,0.9081472,0.3871177,-0.0003179142,0.001205538,-0.009120943,0.002021084,-0.002104066,0.008796423
0.1486039,0.9058078,0.3884317,0.001115337,-0.001127397,-0.007796975,0.001799967,0.001724659,0.01091355
0.1468321,0.9083544,0.3906174,-0.0006105679,0.001425143,-0.005596332,0.00028174,0.00825241,0.009797457
0.1467601,0.9087767,0.3938373,-0.0006405291,0.001852962,-0.002356443,-0.003223705,0.003894849,0.008046787
0.1480608,0.9079917,0.3990251,0.0006984739,0.001073006,0.002856008,-0.007179152,-0.0005388162,0.007260813
0.148057,0.9085152,0.3975222,0.0007296133,0.001600993,0.00138219,-0.005928535,0.002697944,0.006896834
0.1507273,0.9082535,0.3944005,0.003431393,0.001343306,-0.001706471,-0.003452113,0.002557104,0.005556575
0.1520605,0.9083599,0.3965139,0.004792645,0.001453012,0.0004433374,-0.004342819,0.005303069,0.004461063
0.1502247,0.9081606,0.397589,0.002981706,0.001256435,0.001558153,-0.0008702029,0.00899258,0.003314286
0.1494481,0.9074092,0.3972985,0.002226454,0.0005070396,0.001310128,0.003903056,0.005748238,0.0009296528
0.1493409,0.9065429,0.39718,0.002137376,-0.0003579503,0.001236437,0.001920334,0.003656549,-0.002026818
0.1493677,0.905709,0.3972408,0.002178906,-0.001191048,0.001344156,0.002001555,0.004188719,-0.003618471
0.1500415,0.9041119,0.3983567,0.002864363,-0.002788058,0.002508586,0.005302844,0.0004082932,-0.0003668014
0.1503271,0.9009746,0.3983855,0.003158545,-0.005925575,0.002587349,0.004468726,-0.004397135,0.002269838
0.1495999,0.9004943,0.3965321,0.00243681,-0.006406228,0.0007848113,0.002550184,-0.001991068,-0.001612262
0.1490466,0.9063533,0.392408,0.001885953,-0.0005474904,-0.003287613,-0.001955745,0.004127733,-0.006509348
0.1489377,0.9128675,0.3868228,0.001776707,0.005966794,-0.008820634,-0.007521886,0.009311392,-0.007103807
0.1500585,0.9119732,0.3834675,0.002894289,0.005072593,-0.01212292,-0.005589344,0.01188818,-0.006050408
0.1516927,0.9087661,0.3861283,0.004522596,0.001865592,-0.009408137,-0.000314243,0.006837752,-0.009117107
0.1489054,0.9073721,0.3955114,0.00172673,0.0004714298,3.014002e-05,0.002702863,0.002036471,-0.01245719
0.1457602,0.9030384,0.4022915,-0.001429549,-0.003862795,0.006866807,0.002360627,0.003068991,-0.0116655
0.147405,0.90322,0.399012,0.0002017347,-0.003681839,0.00364464,-0.0003266017,0.002651017,-0.01064777
0.1477319,0.9077222,0.3950713,0.0005128673,0.0008196203,-0.0002381719,-0.00118586,0.005510409,-0.007844948
0.1468738,0.9071972,0.3972748,-0.0003628588,0.0002939236,0.002023382,-0.003591788,0.0118334,-0.005383416
0.1483438,0.9094721,0.3969123,0.001087624,0.002568211,0.001718908,-0.00582352,0.01104618,-0.007125808
0.1491253,0.9125516,0.3955988,0.001848098,0.005646924,0.0004630035,-0.004011992,0.006455676,-0.007205468
0.1499484,0.9106412,0.4006529,0.002648549,0.003735631,0.005574319,-0.00426685,0.004347748,-0.006429792
0.1529222,0.9110345,0.4012738,0.005598183,0.004127439,0.006251496,-0.003666006,0.004033689,-0.00520248
0.1547623,0.9113583,0.3979807,0.007412656,0.004449236,0.003013523,-0.001876287,0.002005565,-0.002531304
0.152506,0.9108387,0.3979252,0.005129055,0.003926716,0.003011728,-0.003458164,-0.001568484,-0.006751722
0.1501099,0.9110184,0.3941917,0.002703877,0.004102632,-0.0006697258,-0.003548961,0.001222629,-0.0140304
0.1506515,0.9085647,0.3932264,0.003214607,0.001644069,-0.001584743,-0.003352872,0.005639238,-0.01594765
0.1501584,0.9052403,0.3962418,0.002688928,-0.00168627,0.00147917,-0.001129406,0.003294907,-0.01513505
0.149411,0.9033166,0.3965072,0.001907358,-0.003616927,0.001791363,0.005769547,0.002588414,-0.01411257
0.150255,0.9055505,0.3991595,0.002715514,-0.001390796,0.004488667,0.008496209,0.003120501,-0.01504895
0.1487166,0.9093301,0.3983818,0.001139926,0.002380389,0.00375397,0.005909968,-0.0004908259,-0.01526822
0.1462732,0.9109281,0.3948372,-0.001342064,0.003969374,0.0002503137,0.001882505,-0.0006328071,-0.01192512
0.1457163,0.9117453,0.3961638,-0.001938703,0.004776923,0.001615547,-0.001540062,0.003888376,-0.009408346
0.1468455,0.9111836,0.3961322,-0.0008501326,0.004204772,0.001620466,-0.001963263,0.007355523,-0.008915504
0.1496176,0.9126966,0.3961509,0.001880714,0.00570637,0.00167348,-0.002209755,0.006305022,-0.01106321
0.1507371,0.9140006,0.3972302,0.002958454,0.006997814,0.002784708,-0.00445477,0.004210184,-0.01451937
0.1507105,0.9092209,0.3962532,0.002889504,0.002204265,0.001837504,-0.005475873,0.006175244,-0.01302622
0.1516591,0.9053438,0.3972525,0.003795367,-0.0016881,0.002864188,-0.003818952,0.005589629,-0.01006859
0.1509676,0.9068807,0.3977775,0.003060612,-0.0001676981,0.003414206,-0.003310836,0.002191301,-0.01135705
0.1485213,0.9090585,0.395817,0.0005706608,0.00199255,0.001476326,-0.004428067,0.0005656421,-0.01309455
0.1466833,0.9099343,0.3934626,-0.001311554,0.002849634,-0.0008578209,-0.005268458,-0.0007134963,-0.01463924
0.1477811,0.9115694,0.391555,-0.0002581593,0.004465104,-0.002747442,-0.006004715,0.000854561,-0.01547484
0.1493159,0.9111351,0.3937454,0.001232078,0.004009975,-0.0005412082,-0.004606553,0.002853669,-0.01533912
0.147337,0.9070941,0.3950798,-0.000791339,-5.291158e-05,0.0008071214,-0.00083762,0.0045826,-0.01810779
0.145567,0.9038453,0.3923175,-0.002605752,-0.0033247,-0.001943026,0.001987503,0.005761701,-0.01900784
0.1449923,0.9019904,0.3920782,-0.003224528,-0.005203484,-0.00217188,0.0003169832,0.001313675,-0.0187186
0.1440034,0.9045084,0.3905529,-0.004256929,-0.00270984,-0.003688211,-0.002035993,-0.001054239,-0.02040282
0.1446419,0.9108493,0.3874005,-0.003661082,0.003606337,-0.006832846,-0.00134731,0.001541406,-0.01653432
0.1457429,0.9142255,0.3876574,-0.002601651,0.006957623,-0.006569149,-0.004706098,0.003966096,-0.01133768
0.1472908,0.9129908,0.3875689,-0.001094128,0.005697558,-0.006651381,-0.008895369,0.007023175,-0.01130703
0.1504123,0.9065373,0.3894531,0.001988481,-0.0007817697,-0.004760999,-0.006417621,0.008154549,-0.01387453
0.1515749,0.9012531,0.392492,0.003113488,-0.006092325,-0.001715842,-0.001587722,0.00486584,-0.01753767
0.1488325,0.9017106,0.3929963,0.000334819,-0.00566156,-0.001205088,0.00178033,-0.003110339,-0.01974727
0.1460351,0.9048039,0.3934939,-0.002497673,-0.002594857,-0.000700652,3.224638e-05,-0.007475644,-0.02142066
0.1470544,0.9088079,0.3921739,-0.001512296,0.001382913,-0.002013634,-0.004172434,0.001887844,-0.02137876
0.1479811,0.9089681,0.3925745,-0.0006180609,0.001517195,-0.001605474,-0.005509344,0.01311249,-0.01580551
0.1466584,0.9092118,0.3949736,-0.001971852,0.001735439,0.0008014106,-0.006733467,0.01196621,-0.01033702
0.1472815,0.9104918,0.3968455,-0.001378432,0.002990316,0.002681489,-0.007535204,0.005427234,-0.01205119
0.1480945,0.9070117,0.4012086,-0.0005936579,-0.0005145708,0.007052986,-0.007345254,0.001251808,-0.01560267
0.1494573,0.9051308,0.3999161,0.0007425654,-0.002420041,0.005768695,-0.005912317,-0.002003521,-0.01437558
0.1528606,0.9040485,0.3951181,0.004120659,-0.003526431,0.0009786648,-0.002494446,-0.001492959,-0.01389587
0.1531049,0.9027111,0.3941779,0.004340992,-0.004887344,4.587413e-05,-0.0008049505,-0.001377299,-0.01413904
0.1521102,0.9047154,0.3907903,0.003323489,-0.002905719,-0.003334922,-0.00253167,-0.004351489,-0.01410549
0.151475,0.9047745,0.3904131,0.002666411,-0.002868337,-0.003705765,-0.007103236,0.0009275373,-0.01831123
0.1497446,0.9054721,0.3912035,0.0009147357,-0.002191218,-0.002909271,-0.009744559,0.006609463,-0.02088629
0.1502853,0.9078433,0.3838577,0.001434803,0.0001606296,-0.01024909,-0.007474105,0.003984845,-0.02153664
0.1510199,0.9070213,0.3816271,0.002149446,-0.0006793696,-0.01247335,-0.004586653,0.003321976,-0.02192155
0.1511137,0.906508,0.3903263,0.002223652,-0.001209469,-0.003767143,-0.001795849,0.00325544,-0.01956263
0.151015,0.9068801,0.39723,0.002105816,-0.0008528655,0.00314466,0.0001309838,0.001029546,-0.01800738
0.1489338,0.9055048,0.3946649,5.797216e-06,-0.00224245,0.0005886518,-0.001159344,0.0009766661,-0.0158711
0.1483323,0.9052474,0.3897973,-0.0006143019,-0.002512826,-0.004269066,-0.003285121,0.003087984,-0.01608679
0.1480972,0.9076089,0.390581,-0.0008676078,-0.0001629761,-0.003474554,-0.004494792,0.003297804,-0.01808393
0.1481092,0.9084311,0.3902557,-0.0008733993,0.0006489027,-0.003788054,-0.005661163,0.0002081497,-0.01591763
0.1496185,0.907896,0.3897213,0.0006184974,0.0001047507,-0.004309643,-0.006706934,-0.001267819,-0.01539345
0.1491166,0.9087101,0.3911523,9.967457e-05,0.0009110035,-0.002864611,-0.007650934,-0.002516285,-0.0145129
0.1502048,0.9083209,0.3896049,0.001171448,0.0005150445,-0.00439689,-0.007961294,-0.002934805,-0.01487913
0.1516158,0.9078543,0.3905675,0.002566427,4.261687e-05,-0.003417847,-0.007226695,0.0009905821,-0.02104856
0.1506924,0.9078139,0.3916309,0.001627406,-2.649892e-06,-0.002336739,-0.007513031,0.003798207,-0.02010623
0.1509709,0.9064438,0.3911893,0.001890542,-0.00137667,-0.002759284,-0.005970341,0.005572356,-0.01624211
0.149676,0.9064761,0.3922585,0.0005804972,-0.001347551,-0.001669741,-0.002030569,0.006323706,-0.0195667
0.1496839,0.9055537,0.3902691,0.000573428,-0.002272193,-0.003637462,-0.001850515,0.004018196,-0.01898311
0.1518465,0.9032716,0.3904943,0.002721186,-0.004555566,-0.003389356,-0.002603795,0.003378353,-0.01708773
0.1520153,0.9042735,0.3933639,0.002875234,-0.003553922,-0.0004955145,-0.001519109,0.001708148,-0.01955962
0.1532388,0.9057192,0.3940805,0.00408406,-0.002107452,0.000246499,-0.0009613793,-0.003217211,-0.01631795
0.1528103,0.9063365,0.3912508,0.003640637,-0.001488109,-0.002556789,0.0007104036,-0.005031611,-0.01267512
0.1509424,0.9083196,0.3850011,0.001757528,0.0004982974,-0.00877888,0.00137093,-0.001687656,-0.01429725
0.1498792,0.9114295,0.3844699,0.0006788167,0.003612568,-0.009281455,-0.003083777,0.0044856,-0.01549709
0.1478834,0.9142411,0.3867649,-0.001332754,0.006429402,-0.006956254,-0.01141563,0.009496958,-0.01781622
0.1499435,0.9109552,0.3901089,0.0007112028,0.003149292,-0.003580486,-0.01655381,0.009804802,-0.02020388
0.1535871,0.9051987,0.3973685,0.004338463,-0.002600933,0.003712479,-0.01124473,0.005625792,-0.02181937
0.1541187,0.9065095,0.3979195,0.004853374,-0.001283604,0.004298406,-0.002054828,-0.0003019078,-0.02169304
0.1527876,0.907143,0.3975435,0.003505201,-0.0006433699,0.003958386,-0.0003638032,-0.005122129,-0.02069239
0.1503801,0.9043518,0.3992994,0.001080087,-0.003427426,0.005750887,-0.004433772,-0.005216795,-0.02212037
0.1514234,0.905581,0.3928643,0.002105171,-0.002190758,-0.0006470913,-0.007546465,0.002187264,-0.02132604
0.1530267,0.9051478,0.3872624,0.003689577,-0.00261602,-0.006211846,-0.006933496,0.00893352,-0.02249082
0.1520185,0.9032282,0.3871017,0.002661915,-0.004527058,-0.006335292,-0.006964846,0.006189535,-0.02367172
0.150818,0.9047063,0.3873531,0.00144124,-0.003039829,-0.006046233,-0.01018672,0.000773304,-0.01794249
0.1467363,0.9051479,0.3883195,-0.002661318,-0.002588281,-0.005041634,-0.009288201,-0.0007873357,-0.015046
0.144508,0.9055432,0.3889867,-0.004911002,-0.002182118,-0.004335623,-0.007550945,-0.0008474308,-0.01793891
0.1468879,0.9057749,0.3907341,-0.002552688,-0.001938827,-0.002548632,-0.007939115,-0.001713553,-0.02112848
0.1489677,0.9039015,0.3915978,-0.0004946321,-0.003799615,-0.001644682,-0.005008116,-0.005336873,-0.01852741
0.1523,0.9022812,0.3929884,0.002816117,-0.005406373,-0.0002130667,-0.005140751,-0.007103262,-0.01428874
0.1537224,0.9015278,0.3972186,0.004216958,-0.006145202,0.004058711,-0.005971672,-0.00111806,-0.01528067
0.1509866,0.9049146,0.3947518,0.001459632,-0.00274258,0.00163385,-0.004040632,0.003915716,-0.01659352
0.1492462,0.9098248,0.3892809,-0.000302317,0.002184783,-0.003795015,-0.005764552,0.001897246,-0.02098517
0.1483197,0.9100836,0.3891869,-0.001250362,0.002461827,-0.003847037,-0.004780201,0.0005273414,-0.02386266
0.1481084,0.9091891,0.3913432,-0.001483205,0.001586593,-0.00164855,-0.003201383,0.001056329,-0.02128231
0.148158,0.9082418,0.3948901,-0.001455016,0.0006593402,0.001940489,-0.005708528,-9.108816e-05,-0.02064329
0.1471163,0.9062456,0.3939756,-0.002517782,-0.001316215,0.001068115,-0.004947763,0.0007216453,-0.01907951
0.1487894,0.9044044,0.3899399,-0.0008653153,-0.003136296,-0.002925745,-0.004943809,0.003425551,-0.01891816
0.1510192,0.9019656,0.3907869,0.001344346,-0.005553425,-0.002037031,-0.007486379,0.003476812,-0.01889279
0.1498791,0.9031174,0.3929505,0.000184615,-0.004379361,0.0001679578,-0.008038785,0.002293203,-0.01509599
0.1496277,0.9081871,0.3938783,-8.582415e-05,0.0007133584,0.001136856,-0.007567909,-0.0003778967,-0.0134338
0.1503924,0.9107489,0.3888417,0.000660326,0.003298896,-0.003859072,-0.006219814,-0.002809144,-0.01396407
0.1498204,0.9108418,0.3823409,7.035868e-05,0.00341602,-0.01031944,-0.006236143,0.0007878764,-0.01619131
0.1499587,0.9096308,0.3872056,0.0001911844,0.002229552,-0.005414527,-0.005485836,0.003790517,-0.01740474
0.1501569,0.9077244,0.3911115,0.00037234,0.0003477525,-0.001468299,-0.00274624,0.002319318,-0.0183785
0.1498442,0.9065788,0.3870263,4.327636e-05,-0.0007733485,-0.005512997,-0.003559132,0.002972603,-0.01975855
0.1504398,0.9063475,0.3871198,0.0006228963,-0.000980334,-0.005378622,-0.004163035,0.005270704,-0.01776285
0.1517911,0.9065954,0.3895698,0.001958815,-0.0007082933,-0.002887396,-0.002917987,0.007446864,-0.01964969
0.1525456,0.9054916,0.3914645,0.00269834,-0.001788063,-0.0009509794,-0.003491802,0.00932808,-0.02413121
0.149498,0.9069142,0.3940572,-0.0003639194,-0.0003416159,0.001683842,-0.002720885,0.005715979,-0.02746244
0.1456575,0.9096244,0.3925775,-0.004218751,0.002392163,0.0002465825,-0.0008413866,-0.005047312,-0.02842948
0.1475507,0.9074844,0.3887717,-0.00233934,0.0002755228,-0.003516732,-0.00161282,-0.01062431,-0.0215665
0.1515545,0.9056578,0.3877993,0.001651073,-0.001528023,-0.004446512,-0.005880318,-0.002421007,-0.0166678
0.1550923,0.905327,0.3914872,0.005176143,-0.001836183,-0.0007158995,-0.0083632,0.005511248,-0.0172813
0.1580836,0.9049474,0.3965433,0.008155076,-0.002193464,0.004383051,-0.006178159,0.00406968,-0.01887349
0.1549745,0.904304,0.39546,0.005033699,-0.002814826,0.003342496,-0.005058971,0.003556078,-0.01946559
0.1508275,0.9014634,0.3932403,0.0008743072,-0.005633595,0.00116512,-0.002268137,0.002135744,-0.01725179
0.1511167,0.9018869,0.3950513,0.001150712,-0.005188244,0.003017847,0.002167426,-0.005427494,-0.01868654
0.1494158,0.9051955,0.3941067,-0.0005631738,-0.001857506,0.002114268,0.002663875,-0.005414854,-0.01788093
0.1470223,0.9079936,0.3925966,-0.002970039,0.0009628999,0.0006441552,0.003421303,-0.0005946413,-0.01529871
0.1470409,0.9092514,0.3927247,-0.002964894,0.002243234,0.0008112591,0.0002160572,-0.0003461123,-0.01866319
0.1479207,0.9073846,0.3911582,-0.002098426,0.0003991433,-0.0007173727,-0.0066179,0.003088865,-0.01817763
0.1509867,0.9069623,0.3899973,0.0009543437,-5.326335e-07,-0.001841528,-0.006320824,0.002440793,-0.01609784
0.1535283,0.9069981,0.3900384,0.003483015,5.779884e-05,-0.001764882,-0.004752121,-0.00097736,-0.01580183
0.1523046,0.9075552,0.3915412,0.00224665,0.0006372716,-0.0002275203,-0.005592277,0.001940136,-0.01402459
0.1504607,0.9090462,0.3923927,0.0003900515,0.002150387,0.0006574814,-0.004022929,0.0004636383,-0.01369298
0.1516266,0.9069979,0.393256,0.001543234,0.0001239117,0.001553292,-0.002023537,-0.001155986,-0.01587768
0.152841,0.9066046,0.3962043,0.002744955,-0.0002480548,0.00453294,-0.001921651,0.0006107324,-0.0214589
0.1526139,0.9069115,0.3959801,0.002505099,7.979119e-05,0.004338808,-0.004800516,0.001264252,-0.02146453
0.1542277,0.9048082,0.3945553,0.004106031,-0.002003105,0.002942654,-0.007038142,0.004417069,-0.01770319
0.1551068,0.9043219,0.3944543,0.004971891,-0.002469438,0.002868675,-0.004609718,0.003684296,-0.01992509
0.1543561,0.9056993,0.3941534,0.004207489,-0.001072399,0.00259294,-0.002263553,0.001503021,-0.01932937
0.1523147,0.9091484,0.3947539,0.002151695,0.002395942,0.003216818,-0.003244879,0.001578673,-0.01855315
0.1493696,0.910638,0.3934381,-0.0008083576,0.003904419,0.001922593,-0.003874985,-0.001133457,-0.02113169
0.1499449,0.9109024,0.3898525,-0.0002486552,0.004187135,-0.00164344,-0.003133904,-0.001235995,-0.01910783
0.1505196,0.9118901,0.3864124,0.0003098567,0.005192334,-0.005065917,-0.002245451,-0.0009245652,-0.01654199
0.1504746,0.9104966,0.3870344,0.0002481156,0.003815459,-0.004427788,-0.001495393,-0.0006324167,-0.01488326
0.1520052,0.9108057,0.3905104,0.001761726,0.004139925,-0.000937031,-0.004354373,0.004536725,-0.01371313
0.1513311,0.9092393,0.3902851,0.001070157,0.002587519,-0.001148616,-0.006046666,0.004290402,-0.01452496
0.1511361,0.9044756,0.3901704,0.0008573863,-0.002163631,-0.001250717,-0.003468262,-0.0007800854,-0.01360243
0.1516982,0.9045084,0.3906321,0.001401382,-0.002119697,-0.0007773296,-0.006428473,-0.0003342295,-0.01255146
0.150626,0.908584,0.38979,0.0003106832,0.001965765,-0.001608515,-0.008021128,0.00280822,-0.01199631
0.148815,0.9127033,0.390643,-0.001518997,0.006093821,-0.0007453878,-0.003688034,0.005543925,-0.01213765
0.1467626,0.9116419,0.3902169,-0.003590368,0.005039693,-0.001161964,-0.004686044,0.005168821,-0.01343794
0.1486128,0.9090741,0.3898534,-0.001759034,0.002477807,-0.001516593,-0.005354489,0.002840758,-0.01356115
0.1512796,0.9084372,0.3897887,0.0008890097,0.001845078,-0.001572829,-0.005027182,0.004399142,-0.01662007
0.149799,0.9044078,0.3882538,-0.0006100645,-0.002181694,-0.003099662,-0.008713869,0.004114842,-0.02044929
0.1495358,0.9047373,0.3894872,-0.0008914653,-0.001851021,-0.001858507,-0.00674197,0.0001974559,-0.01981168
0.1505257,0.9080124,0.3918436,8.056206e-05,0.001423891,0.000505472,0.0001137436,-0.005032511,-0.01691359
0.1497562,0.9070202,0.3926378,-0.0007063701,0.0004302747,0.001307144,0.00357099,-0.009816259,-0.01245151
0.1497466,0.9105603,0.3891623,-0.0007329719,0.003967852,-0.00216104,0.0005197477,-0.002323053,-0.009943091
0.1493543,0.9140938,0.3840168,-0.001141858,0.007497548,-0.007299344,-0.005722293,0.007494471,-0.01143411
0.1481004,0.9118592,0.3865697,-0.002411716,0.005257797,-0.004739128,-0.006753706,0.004661972,-0.01281764
0.1489696,0.910063,0.3909653,-0.001557957,0.003454946,-0.0003359424,-0.005232795,0.002894195,-0.01240197
0.1506505,0.907475,0.3919259,0.0001083563,0.0008585598,0.000632652,-0.004003009,0.002917473,-0.01426141
0.1515088,0.9052196,0.3932178,0.0009527796,-0.001406818,0.001932943,0.0001304715,-0.003055488,-0.01894943
0.1508277,0.9054642,0.3927194,0.0002584005,-0.001173711,0.001443129,0.002195351,-0.004229521,-0.01718704
0.1489691,0.906716,0.3920675,-0.001612654,6.535399e-05,0.0008000149,-0.0009076152,0.003081433,-0.008149183
0.1482189,0.9109285,0.3917976,-0.002374704,0.004263863,0.0005389166,-0.005285689,0.008240221,-0.004501315
0.1472518,0.9154468,0.3910863,-0.003352763,0.008767073,-0.0001636339,-0.006685564,0.004607037,-0.009212827
0.1476703,0.9140667,0.3919588,-0.002944412,0.007370562,0.0007176545,-0.005724803,0.0001993545,-0.01007778
0.1503826,0.909057,0.3907424,-0.0002412474,0.002342886,-0.0004900813,-0.007438441,0.002210436,-0.007333213
0.1502394,0.9049927,0.3898116,-0.0003925565,-0.001740987,-0.001412283,-0.009552296,0.002316613,-0.009141687
0.1495984,0.9018002,0.3915775,-0.001040613,-0.004954665,0.0003620998,-0.008314067,-0.001409819,-0.009955582
0.1503578,0.9040359,0.3910605,-0.000287225,-0.002741228,-0.000146462,-0.004848723,-0.002661243,-0.01168356
0.1503365,0.9085735,0.3881745,-0.0003136589,0.001773142,-0.003024103,-0.002492198,-0.002087297,-0.01441704
0.1526816,0.9076684,0.3855149,0.002027267,0.0008442061,-0.005675369,-0.004090113,0.002642662,-0.01212993
0.1551406,0.9090493,0.3884009,0.004482843,0.002200555,-0.002780864,-0.004406244,0.007608222,-0.01218728
0.1542668,0.9105568,0.3930967,0.003606299,0.003682823,0.001923748,-0.002967564,0.001193969,-0.01317603
0.1533708,0.9071092,0.3912344,0.002707971,0.0002094322,7.064492e-05,-0.002860881,-0.006265152,-0.01226553
0.1522486,0.9066341,0.3891289,0.001583546,-0.000292093,-0.00202547,-0.001127908,-0.00222969,-0.01244602
0.148788,0.9071654,0.3880978,-0.001879122,0.0002123539,-0.003046887,-0.0009005818,0.001776843,-0.0117554
0.1456575,0.907746,0.3869646,-0.005011579,0.0007656314,-0.00417008,-0.001746589,0.002194589,-0.01166562
0.1447599,0.9089049,0.3896808,-0.005910895,0.00189681,-0.001443405,-0.00187122,0.004348595,-0.009213473
0.1447095,0.9078671,0.3909848,-0.005962481,0.0008311152,-0.0001284389,-0.006711593,0.003519815,-0.006362228
0.1469984,0.9075091,0.3900461,-0.003673968,0.0004449557,-0.001055624,-0.01164312,0.001891118,-0.007248428
0.1499499,0.906579,0.3908193,-0.0007218767,-0.0005135477,-0.0002704268,-0.01090367,-0.00103946,-0.006879231
0.1495428,0.9059237,0.3933084,-0.001127464,-0.001197313,0.002231055,-0.009078197,-0.005890481,-0.007695905
0.1502458,0.9064604,0.3979887,-0.0004218889,-0.0006890861,0.006924021,-0.007946688,-0.003435903,-0.009647429
0.1527173,0.9060629,0.4016339,0.002053111,-0.001114971,0.01058189,-0.00501848,-0.00119532,-0.009005566
0.1521315,0.9065786,0.399897,0.001471628,-0.0006272414,0.008857207,-0.003701279,-0.001426432,-0.008688627
0.1502096,0.9069275,0.392646,-0.0004452571,-0.0003060264,0.001617508,-0.005837995,0.001869645,-0.009092212
0.1500595,0.9074387,0.3877659,-0.0005897412,0.0001778993,-0.00325241,-0.005651487,0.001481866,-0.009588204
0.1505057,0.9088131,0.3882781,-0.000137442,0.001525515,-0.002731102,-0.00473699,0.004199766,-0.0100115
0.1496451,0.9097834,0.3857738,-0.0009912972,0.002469453,-0.005227172,-0.003475566,0.01000887,-0.009708745
0.149666,0.9091887,0.3850102,-0.0009632613,0.001848886,-0.005983072,0.001809628,0.007373618,-0.009211715
0.1495926,0.9066079,0.3882132,-0.001028994,-0.0007574749,-0.002772784,0.004752213,0.004870194,-0.008980766
0.1482577,0.9063078,0.3874217,-0.002355782,-0.001082681,-0.003557109,0.005193802,0.006859937,-0.008806506
0.1504166,0.9054423,0.3912404,-0.0001882548,-0.001972899,0.0002688443,0.007636381,0.01387643,-0.009539285
0.1521775,0.9024745,0.3984566,0.001581737,-0.004964799,0.007492332,0.01155448,0.02789598,-0.01347171
0.1502136,0.9032594,0.3984471,-0.0003726376,-0.004203263,0.007489981,0.01834948,0.0336843,-0.01842001
0.1498029,0.9043822,0.3991449,-0.0007733904,-0.003102782,0.008194416,0.026532,0.02483359,-0.01870924
0.1509509,0.9052705,0.4006553,0.0003847251,-0.002235686,0.009710481,0.03361145,0.01267106,-0.01370247
0.1524815,0.9093501,0.3902426,0.001925757,0.001823994,-0.0006976972,0.03657375,0.00492571,-0.009686398
0.1550202,0.9136294,0.3705683,0.004475034,0.00608465,-0.02036882,0.03297728,0.01433679,-0.009002377
0.1568432,0.9161041,0.3627182,0.006308577,0.008541583,-0.02821637,0.01764723,0.04331294,-0.008492403
0.1524751,0.9161167,0.3726029,0.001950584,0.00853713,-0.01832855,-0.01005126,0.06155658,-0.01180014
0.1435768,0.916765,0.3802793,-0.006938039,0.009168525,-0.01064768,-0.02510953,0.04991781,-0.01588668
0.1403064,0.9205573,0.3806772,-0.01019903,0.01294362,-0.01024302,-0.02348401,0.02642581,-0.008040486
0.1395225,0.9218798,0.3833913,-0.01097356,0.01424824,-0.00751955,-0.02570311,0.01325114,0.004391336
0.1390247,0.9186304,0.3873644,-0.01146148,0.01097957,-0.003534307,-0.02381884,0.01402366,0.00738838
0.1448709,0.9124255,0.3929247,-0.005604334,0.004753597,0.002040947,-0.01896607,0.01730892,0.00781425
0.1498966,0.904466,0.4001452,-0.0005663609,-0.003228912,0.009279124,-0.01748349,0.01424848,0.009821812
0.14905,0.9034456,0.3996483,-0.001399345,-0.004274159,0.008801905,-0.01140891,0.01241474,0.006838249
0.1481279,0.9062172,0.3940988,-0.002306433,-0.001528915,0.003273647,-0.006963079,0.01823292,0.002913025
0.1496486,0.9015962,0.3942015,-0.0007695056,-0.006177444,0.003398702,-0.0007624459,0.02094374,0.003461552
0.1506077,0.8999664,0.3946156,0.00020709,-0.007835471,0.003835823,0.006684739,0.01775717,0.005215199
0.1494924,0.9033314,0.3930345,-0.0008896317,-0.004499091,0.002278171,0.01459376,0.01391561,0.007342966
0.1491074,0.9043685,0.3933085,-0.001255103,-0.003490458,0.002575736,0.02524053,0.009478926,0.01082859
0.1485613,0.9083393,0.3926744,-0.001780679,0.0004521799,0.00196515,0.01965586,0.01086138,0.01076818
0.1483831,0.9096513,0.392262,-0.001937506,0.001736451,0.001575977,0.01463315,0.0148878,0.006409679
0.1499532,0.9088,0.3889004,-0.0003452026,0.0008580097,-0.001762597,0.0194135,0.01566708,0.005652724
0.150074,0.9113851,0.3834979,-0.0002013867,0.003416446,-0.007142475,0.0127222,0.0164073,0.005705738
0.1498229,0.9124808,0.38246,-0.0004288197,0.004485778,-0.008157926,0.006622218,0.01738491,0.001291514
0.1491921,0.9170109,0.3803491,-0.001035415,0.008989742,-0.01024626,-0.001870038,0.02507691,0.001664787
0.1481321,0.9193103,0.3799633,-0.002070576,0.01126289,-0.01060893,-0.01292268,0.03994035,0.01267254
0.1487333,0.9134125,0.3842692,-0.001444113,0.005338459,-0.006278878,-0.01368009,0.04790521,0.02774636
0.1481549,0.9110903,0.38689,-0.001996803,0.002988804,-0.003632759,-0.01326897,0.02765628,0.03477908
0.1457966,0.9108427,0.3926772,-0.004328878,0.002712833,0.002181047,-0.005289137,-0.01964655,0.03702145
0.1460703,0.9093368,0.3984129,-0.004028394,0.00117772,0.007944585,0.001087397,-0.03218939,0.04896799
0.1577797,0.9111725,0.3887939,0.007708265,0.002983319,-0.001645809,-0.005632615,0.05075907,0.05498284
0.177455,0.9178677,0.3687108,0.02741104,0.009647551,-0.02169948,-0.02055771,0.1843244,0.04167302
0.1797552,0.9221253,0.3614466,0.02973796,0.01387311,-0.02893324,-0.05990717,0.2522237,0.02128087
0.1550852,0.9095806,0.3776322,0.005092821,0.001294979,-0.01271502,-0.0933453,0.2317573,-0.004407034
0.1247645,0.895503,0.4009335,-0.02520566,-0.01281755,0.01062159,-0.07863816,0.1652664,-0.01788547
0.1167328,0.9010131,0.4087898,-0.0332171,-0.007343409,0.01851569,-0.05281378,0.06097652,-0.009830666
0.1346262,0.905513,0.4034232,-0.01530411,-0.002879985,0.01318864,-0.03928516,0.01166748,-0.007116816
0.1463176,0.901254,0.4041846,-0.003592882,-0.007175565,0.01399016,-0.02633582,0.05924388,-0.007335862
0.1393037,0.9057477,0.4126692,-0.01058588,-0.002718057,0.02251463,-0.02886265,0.06587622,-0.007284281
0.1391917,0.9089259,0.4172639,-0.01067579,0.0004245568,0.0271478,-0.03102458,0.01534562,-0.0162733
0.1468571,0.9041014,0.4165807,-0.002986636,-0.004434784,0.02650059,-0.01582052,-0.005937221,-0.01781551
0.1477384,0.8992696,0.415959,-0.002079906,-0.009300547,0.02591108,-0.006993383,-0.008052823,-0.01886995
0.1473337,0.8931728,0.416796,-0.002457398,-0.01542977,0.02677518,0.007488272,-0.01183055,-0.02623153
0.147189,0.8972983,0.4150269,-0.002573268,-0.01133486,0.02502706,0.03033131,-0.02582152,-0.02544306
0.1468649,0.9058592,0.4113782,-0.002866899,-0.002802134,0.0213925,0.03855746,-0.03691478,-0.02803027
0.1468714,0.9042691,0.4066535,-0.002828481,-0.004417563,0.01667411,0.03490078,-0.02941958,-0.03739251
0.1423885,0.9104407,0.3990925,-0.007277896,0.001731482,0.009111379,0.02406904,-0.03209118,-0.04144105
0.1389035,0.9176427,0.3965528,-0.01072784,0.008913713,0.006561704,0.01771486,-0.05048343,-0.039162
0.141871,0.9118476,0.3930354,-0.007723539,0.003101113,0.003026292,0.008888816,-0.06255061,-0.03182191
0.1497873,0.9086756,0.380935,0.0002314819,-8.632026e-05,-0.009099644,-0.008833827,-0.03880067,-0.02731526
0.1560163,0.9073955,0.3810786,0.006501184,-0.001380099,-0.008988339,-0.02191501,0.002763853,-0.03340948
0.1508326,0.9081843,0.3933535,0.001359658,-0.0006032962,0.003248277,-0.03273038,0.005768807,-0.04011333
0.1426299,0.912689,0.3976745,-0.006799549,0.003891058,0.007525771,-0.03043033,-0.006409552,-0.03208723
0.14136,0.9075949,0.3965317,-0.008024926,-0.001211845,0.006334454,-0.01767572,-0.01222543,-0.02122815
0.1402346,0.8994949,0.3958224,-0.009104593,-0.00931929,0.005571843,0.00398071,-0.0385133,-0.01964747
0.1393781,0.8951064,0.3975055,-0.009913851,-0.01371355,0.007197062,0.0302987,-0.068948,-0.01381748
0.14197,0.891948,0.3979827,-0.007272997,-0.01687578,0.007611912,0.02526809,-0.06824338,-0.006038478
0.145161,0.8976719,0.3937352,-0.004031146,-0.01115298,0.003297719,0.01144797,-0.03838212,-0.004708494
0.1507753,0.9061301,0.388959,0.001635903,-0.002692699,-0.00154915,0.00594726,-0.01408743,-0.007611395
0.1525259,0.907969,0.3839953,0.003440821,-0.0008485643,-0.006587223,-0.004854289,-0.006996225,-0.01167119
0.1452224,0.9073681,0.3894579,-0.003807002,-0.001441015,-0.001201921,-0.0007683471,-0.01151994,-0.01010847
0.1403078,0.9073776,0.3984623,-0.008664763,-0.001420077,0.007722668,0.003104397,-0.01967239,-0.00905271
0.1397845,0.9102641,0.3918662,-0.009130079,0.001480584,0.001044563,-0.002730015,-0.01596956,-0.009954572
0.1402304,0.912581,0.3884879,-0.008624846,0.003814215,-0.002417588,-0.005771417,-0.01156737,-0.009311461
0.1418318,0.9109699,0.3927509,-0.006962492,0.002222002,0.00175995,-0.01470936,-0.00379384,-0.01528018
0.1407145,0.9074485,0.393875,-0.008017203,-0.001278612,0.002797261,-0.0171375,0.001495531,-0.01884027
0.1380511,0.9036974,0.3986274,-0.01061621,-0.005007313,0.007461958,-0.01524942,-0.01529697,-0.01092841
0.1345181,0.9040189,0.397949,-0.01408293,-0.004661794,0.006694777,-0.01903046,-0.03094727,-0.001765501
0.1354845,0.9046039,0.3936451,-0.01304785,-0.00405103,0.00230119,-0.0141954,-0.0390514,0.001412479
0.1431676,0.9030407,0.3957282,-0.0052936,-0.005586833,0.004293591,-0.00963278,-0.03437614,0.0002402056
0.1466042,0.9019794,0.3995296,-0.001783097,-0.006619072,0.008003556,-0.006714501,-0.01981481,-0.002011624
0.1461929,0.8993723,0.4097728,-0.002118195,-0.009195097,0.01815448,0.004597916,-0.02152589,-0.005907552
0.1457568,0.9026738,0.4164202,-0.00247576,-0.005860584,0.0247083,0.01129834,-0.02764232,-0.009410616
0.1466069,0.9115685,0.4067041,-0.001545249,0.003069323,0.01489677,0.01688483,-0.03358951,-0.01597255
0.1490057,0.9154809,0.3980619,0.0009356711,0.007018816,0.006156659,0.02189876,-0.0277332,-0.02512704
0.1476098,0.9143323,0.3982584,-0.0003767244,0.005908701,0.006252755,0.0119207,-0.006929676,-0.02063073
0.1441112,0.9118694,0.3963883,-0.003790883,0.003485407,0.004279726,-0.003182281,-0.0008581686,-0.0144528
0.1409127,0.9118672,0.3931042,-0.006904059,0.00352334,0.0008904554,-0.01096305,0.0002588641,-0.02424278
0.1424942,0.9093889,0.3951991,-0.005236397,0.001085379,0.002878277,-0.008200195,-0.004332967,-0.02924009
0.1459148,0.9052917,0.3997189,-0.001728803,-0.002971507,0.007289199,-0.003146353,-0.0141862,-0.02352634
0.1412372,0.9081823,0.4021017,-0.006318763,-4.069808e-05,0.009561728,-0.003778661,-0.01292218,-0.02019303
0.1387863,0.9103614,0.4020659,-0.008681315,0.002178524,0.00941405,-0.002368159,-0.01380419,-0.0167587
0.1410286,0.910263,0.4004622,-0.006349997,0.002119892,0.007696918,-0.005064168,-0.01144844,-0.0155734
0.1400948,0.9111681,0.4001981,-0.007194017,0.003064319,0.007317796,-0.009613602,-0.008024177,-0.01751207
0.1398642,0.9083447,0.3988531,-0.007333886,0.0002796095,0.00585621,-0.01109484,-0.006980079,-0.01674455
0.1386241,0.9057615,0.3982042,-0.008482339,-0.002265839,0.00508938,-0.01978855,0.001169578,-0.01539355
0.1367835,0.9059559,0.4035997,-0.01023034,-0.002034352,0.01036551,-0.01951449,-0.000909269,-0.009690444
0.1374834,0.90575,0.4050673,-0.009436641,-0.002203927,0.01171244,-0.01224064,-0.008280243,0.000953005
0.138085,0.9045075,0.4007039,-0.008739878,-0.003410848,0.007226991,-0.01284255,-0.01155544,0.004645822
0.1392066,0.9020347,0.3993213,-0.007521744,-0.005848599,0.005720885,-0.005482645,-0.01531287,0.001431553
0.141255,0.8998762,0.4007353,-0.005375388,-0.00797248,0.007009948,0.001439385,-0.01476243,0.000920776
0.1433183,0.9029866,0.4048709,-0.003212597,-0.004827567,0.01101939,0.001033849,-0.01567295,0.0009761896
0.1447965,0.9087397,0.4072867,-0.001633717,0.0009601761,0.01330759,0.003638673,-0.01228104,-0.003516844
0.1448787,0.9081873,0.4027647,-0.001449721,0.0004424876,0.008656596,0.0008648662,-0.005823842,-0.00646524
0.1437268,0.9074617,0.3982023,-0.002499115,-0.0002484493,0.003963699,-0.002729134,-0.008368797,-0.00580605
0.1422036,0.9095903,0.4005277,-0.003919228,0.001914715,0.006157186,-0.0009979429,-0.007104199,-0.00712304
0.139387,0.908846,0.4030023,-0.006632299,0.001204739,0.00849863,-0.0009741824,-0.00319311,-0.007233876
0.135965,0.9114529,0.4003895,-0.009950394,0.003845501,0.005751474,-0.003993714,-0.007924761,-0.003560998
0.136047,0.9156781,0.4002779,-0.009764052,0.008104053,0.005504488,-0.00860813,-0.01397392,-0.002207021
0.1375666,0.916265,0.400545,-0.008139358,0.008723187,0.005635309,-0.01097815,-0.0162701,-0.002957259
0.1393152,0.9132997,0.399067,-0.006285,0.005788856,0.004020242,-0.01028945,-0.0151026,-0.001513194
0.1412094,0.9066178,0.4006315,-0.00428426,-0.0008638846,0.005447138,-0.008751196,-0.01341843,0.0002701577
0.1402636,0.9055689,0.400879,-0.005122824,-0.001885333,0.005556536,-0.008332623,-0.01356586,0.0007242676
0.1406892,0.9071383,0.4039682,-0.004589368,-0.0002901708,0.008507372,-0.007670252,-0.01266072,0.0001431541
0.1418377,0.9045563,0.4080894,-0.003332375,-0.002848,0.01248991,-0.006463047,-0.01222593,-0.0001991284
0.1419251,0.9044142,0.4025044,-0.003136174,-0.002967475,0.00676592,-0.00702813,-0.01278018,0.0007597768
0.1453891,0.903146,0.3981046,0.0004367892,-0.004214321,0.002226654,-0.004466513,-0.01024788,0.001852533
0.1478377,0.9000907,0.4019668,0.002994387,-0.007249204,0.005949133,-0.00154484,-0.007822299,0.002634831
0.1467195,0.9005934,0.4038046,0.001984856,-0.006726846,0.007647099,-0.002473689,-0.008361195,0.0004173527
0.1453634,0.9037379,0.4005264,0.0007365645,-0.003563086,0.004229051,-0.001945212,-0.009154056,-0.001734024
0.1440409,0.9086055,0.399084,-0.0004792097,0.00132354,0.002646724,0.0006562935,-0.01055905,8.854592e-05
0.1435914,0.9097249,0.3997173,-0.0008231936,0.002461777,0.003140401,0.002848498,-0.01152596,-0.0001051166
0.1421974,0.9094168,0.396401,-0.002113271,0.002172329,-0.000315006,0.0003776071,-0.009289249,-0.0005698637
0.1393123,0.9128438,0.3931922,-0.00489591,0.005617463,-0.003662257,-0.003337756,-0.005168398,-0.002576915
0.1397924,0.9124626,0.3952927,-0.004314889,0.005253839,-0.001699061,-0.001541156,-0.00379189,-0.008218332
0.1411885,0.9073376,0.4006341,-0.002819433,0.0001455274,0.003506585,0.001236603,-0.007469562,-0.007802763
0.1397686,0.9017174,0.4050206,-0.004141383,-0.005458977,0.007759058,0.003102131,-0.013176,-0.007798973
0.140525,0.8982436,0.4036229,-0.003288514,-0.008917887,0.006229088,0.005140322,-0.01757787,-0.0100344
0.142564,0.9006014,0.3971968,-0.001154457,-0.00654576,-0.0003276787,0.004950882,-0.01506129,-0.007038075
0.1427237,0.9039134,0.3926405,-0.0009011996,-0.00321948,-0.005012817,0.001132707,-0.005361568,-0.009087767
0.1417513,0.9059487,0.3945822,-0.001781605,-0.001169744,-0.003197922,-0.002938358,0.0003129277,-0.01006392
0.1393786,0.9077271,0.3983707,-0.004063822,0.0006232651,0.0004662299,-0.001957543,-0.002177213,-0.001926863
0.140503,0.9050019,0.3997349,-0.002850653,-0.002087251,0.001708712,0.0009526644,-0.008205069,0.0007164281
0.1432847,0.9033802,0.4008344,1.830709e-05,-0.003694006,0.002689239,0.001993246,-0.01234639,-0.0009617617
0.1424194,0.9064797,0.4017572,-0.0007614062,-0.0005794079,0.0034959,0.002685935,-0.0117025,-0.0005662472
0.1426528,0.9074856,0.4028036,-0.0004440382,0.0004418812,0.004428934,0.003242528,-0.01109069,-0.001058165
0.144594,0.9065575,0.4024823,0.001579293,-0.0004705132,0.003996923,0.003827357,-0.01056832,-0.0009927611
0.1452012,0.9050291,0.4005208,0.002266731,-0.001983055,0.001927241,0.004198391,-0.005029582,-0.002073272
0.1435408,0.9036056,0.4014073,0.0006844034,-0.003390531,0.002708073,0.004749284,-9.438824e-05,-0.004661327
0.1413926,0.9041449,0.4017395,-0.001387802,-0.002834872,0.002937114,0.007026048,-0.002642464,-0.006511959
0.1401777,0.9043539,0.3995606,-0.002529005,-0.002609253,0.0006575051,0.009158264,-0.005437475,-0.00641736
0.1390887,0.9042542,0.3973419,-0.003546469,-0.002691812,-0.001659446,0.008809055,-0.002894004,-0.005273927
0.139118,0.9048629,0.3919918,-0.003447727,-0.002065507,-0.007105182,0.008461842,-0.00253657,-0.007779761
0.1369231,0.9051462,0.3877087,-0.005575064,-0.00176406,-0.01148097,0.008973325,-0.004273376,-0.009646721
0.1356437,0.9047425,0.3896343,-0.006788633,-0.002149202,-0.009644569,0.005394193,-0.004138773,-0.008696042
0.1374342,0.9048879,0.3939999,-0.004933813,-0.001984536,-0.005364428,0.0009267518,-0.004851922,-0.008103615
0.1373325,0.9061984,0.3987342,-0.004972376,-0.0006542736,-0.0007112151,0.002118915,-0.004103096,-0.005043403
0.1403239,0.907061,0.4024682,-0.001918949,0.0002285424,0.002945885,0.00203759,-0.004262328,-0.00138784
0.1418052,0.9072868,0.4047348,-0.0003766821,0.0004750913,0.005139753,-0.001181427,-0.006463132,0.001298411
0.1406618,0.9067754,0.4043898,-0.001460101,-1.52235e-05,0.004725867,-0.0003133354,-0.006174023,0.001610845
0.1433671,0.9063859,0.4003585,0.001304018,-0.000383339,0.0006292278,0.0007090165,-0.006886836,-0.0003849661
0.1412958,0.9057207,0.3974888,-0.0007095261,-0.00102704,-0.002302414,-0.0003350951,-0.002928076,0.000108187
0.1388015,0.9040536,0.3968386,-0.003147254,-0.002672475,-0.003011232,0.000864206,0.003132909,5.880961e-05
0.13948,0.9049149,0.3973834,-0.002413371,-0.001789298,-0.002521755,0.001756889,-0.003722999,-0.0001646706
0.1387988,0.905723,0.3994596,-0.003040387,-0.0009590961,-0.0004975165,0.003650859,-0.008382145,0.0007847584
0.1428323,0.9058638,0.3999127,0.001046343,-0.0007960211,-9.300053e-05,0.007154444,0.000847647,0.0002931242
0.1456065,0.9074648,0.3981764,0.003872553,0.0008274054,-0.001874699,0.004630005,0.005610046,-0.000820247
0.1433491,0.905139,0.3955164,0.001665979,-0.001475787,-0.004576798,0.001282303,-0.001826661,-0.003469036
0.1425778,0.9030483,0.3942934,0.0009441129,-0.00354379,-0.005838542,0.003407353,-0.009880533,-0.002591022
0.1424848,0.9053252,0.394775,0.0008989323,-0.001244146,-0.005392431,0.003099228,-0.009004279,-0.0001570649
0.1407126,0.9077792,0.3934144,-0.000827004,0.001232713,-0.006784869,0.0006138943,-0.0035117,-0.002098454
0.1381757,0.9102369,0.3921395,-0.003319223,0.00371336,-0.008087939,0.0003659074,-0.0002943575,0.0005049123
0.1403144,0.9082271,0.3943491,-0.001137448,0.001726427,-0.005902672,0.0009942295,-0.002214564,0.003810124
0.1434896,0.9036213,0.3996672,0.002079421,-0.002856716,-0.0006049657,0.003650242,-0.009695078,0.001572091
0.1429904,0.903906,0.400335,0.001620494,-0.002549726,4.638655e-05,0.00656834,-0.01438113,0.0007373403
0.1446995,0.9048647,0.3955955,0.003368249,-0.001568982,-0.004705835,0.006736905,-0.01219568,-0.002257567
0.145186,0.9056734,0.3960833,0.003891733,-0.0007382737,-0.004227034,0.003769782,-0.007803566,-0.007122082
0.1432657,0.9076751,0.3947266,0.002006639,0.001285145,-0.005589253,-0.000759973,-0.003668881,-0.004628508
0.1426622,0.9076246,0.3914515,0.001436298,0.001256257,-0.008866155,-0.00238417,-0.0002247255,0.004186808
0.1394736,0.9091636,0.3959288,-0.001720978,0.002816538,-0.004386954,-0.002132176,0.0007326359,0.0098039
0.1377335,0.9122543,0.3974633,-0.003431741,0.005927961,-0.002846809,-0.002126781,-0.0007787262,0.007499009
0.1398196,0.9104887,0.3968636,-0.001318013,0.004182474,-0.003437188,-0.001394368,-6.846725e-05,0.005241819
0.1407112,0.9058778,0.3978731,-0.0004004106,-0.0004092952,-0.002414842,-0.002070953,-0.0005899343,0.005483427
0.1418792,0.9036548,0.3972742,0.0007922264,-0.002614195,-0.002997454,-0.00425715,-0.003799137,0.004448183
0.1422156,0.905422,0.4011448,0.001151704,-0.0008297872,0.0008927057,-0.006524421,-0.002969495,0.004952814
0.1410722,0.9083753,0.4034355,2.990894e-05,0.002139923,0.003205886,-0.007541628,-0.0003968557,0.003302003
0.1418691,0.9079121,0.3991706,0.0008471132,0.001692171,-0.001033843,-0.00536955,0.00217768,-0.001534639
0.1418717,0.9077847,0.3930802,0.0008684973,0.001579355,-0.007096731,-0.0006884784,0.001057356,-0.003888442
0.141102,0.9093694,0.3904716,0.0001161999,0.003177542,-0.009675381,0.003871527,-0.002523517,-0.005093079
0.1410897,0.9084338,0.3960124,0.0001199196,0.002254421,-0.004102298,0.003209063,-0.0003020235,-0.004448882
0.1399011,0.9080138,0.4035051,-0.001053979,0.001845813,0.003425286,0.0008834391,-0.0007464115,-0.0008759027
0.1402383,0.9070939,0.4079068,-0.0007032775,0.00093599,0.007863969,0.00302344,-0.004652628,0.004146449
0.1416092,0.9053995,0.4059712,0.0006799326,-0.0007495809,0.005967145,0.002346399,-0.005193898,0.006732631
0.1416135,0.9056074,0.3996047,0.000695499,-0.0005339422,-0.0003593599,-0.0004929581,-0.004275426,0.004093508
0.1418549,0.9045726,0.3968688,0.0009470478,-0.001562066,-0.003054453,-0.001120024,-0.001046645,0.003723942
0.1414068,0.9072259,0.3939702,0.000508044,0.001096883,-0.005911455,-0.003028733,-0.0005546339,0.003653805
0.1406586,0.9104537,0.3913448,-0.0002322055,0.004329522,-0.008494388,-0.002992838,-0.002633439,0.0009320608
0.1402363,0.9087832,0.3954996,-0.0006474519,0.002662719,-0.004296163,-0.002585158,-0.004391631,0.001203959
0.1399628,0.9098727,0.4024792,-0.0009148479,0.003754871,0.002727878,-0.003499588,-0.006134762,-0.001655179
0.1403912,0.9082921,0.4035462,-0.0004812165,0.002175731,0.003840225,-0.003646528,-0.002029693,-0.003237395
0.1391641,0.9054437,0.3982091,-0.001703908,-0.0006724349,-0.001450913,-0.005694623,-0.0005390892,0.0005442551
0.1375274,0.9075057,0.3954237,-0.003336775,0.001388607,-0.004189832,-0.005136689,-0.003191004,0.0001108473
0.137759,0.9058268,0.396839,-0.003101733,-0.0002924341,-0.002727713,-0.002613495,8.582498e-05,0.001557375
0.13918,0.9040091,0.3994624,-0.001677785,-0.002113277,-5.72126e-05,-0.001084454,0.0006393118,0.003232294
0.1409759,0.904511,0.4008304,0.0001209779,-0.001615527,0.001358248,0.003603775,-0.001285707,0.00174785
0.1404551,0.9046656,0.3996288,-0.0003971077,-0.001465735,0.0002041864,0.008133226,-0.002941518,0.00578501
0.1395704,0.9062297,0.3999701,-0.001279187,9.28631e-05,0.0005930449,0.008222907,-0.01121268,0.008088533
0.1397788,0.9058423,0.3998831,-0.001068211,-0.0003005638,0.0005532535,0.005227659,-0.0132597,0.007617899
0.1387167,0.9071892,0.3980934,-0.002127684,0.001039847,-0.001189422,0.002766318,-0.003282599,0.006809864
0.1398572,0.910571,0.3978247,-0.0009846335,0.004414733,-0.001411632,-0.003514516,0.003425287,0.001806858
0.1429864,0.9116506,0.3985239,0.002147312,0.005486863,-0.0006664423,-0.01214509,0.001466256,0.0006864638
0.1442966,0.9112855,0.3991444,0.003460341,0.00511359,-4.074017e-07,-0.009970966,-0.002119436,-0.0001311701
0.1442158,0.9047051,0.3990233,0.003382215,-0.001475794,-7.649383e-05,-0.002474262,-0.004413622,-0.00370545
0.1417307,0.8971507,0.4020222,0.0008996262,-0.00904015,0.002966617,0.003918476,-0.009302552,-0.001807453
0.1394483,0.8996154,0.404466,-0.001380614,-0.006585808,0.005453944,0.006324185,-0.009135263,0.0005963605
0.141079,0.9038367,0.3971857,0.000251998,-0.002374956,-0.001784024,-1.139665e-05,-0.00104927,0.001576666
0.1424369,0.9035383,0.3883248,0.001611469,-0.002683717,-0.01060363,-0.004874495,0.002822626,0.002492327
0.1412719,0.9061753,0.3879232,0.0004477711,-5.676457e-05,-0.01096483,-0.008014271,0.002649481,0.002119336
0.1402013,0.9081864,0.392629,-0.000621893,0.00194465,-0.006218977,-0.008231574,-0.001176643,0.003150642
0.1385288,0.906215,0.3981036,-0.002293718,-3.602942e-05,-0.0007045564,-0.001285137,-0.005645509,0.00263334
0.1370365,0.9067087,0.404009,-0.003785621,0.000448659,0.005240608,-0.0004696376,-0.005459363,0.0008032447
0.1392467,0.9054764,0.4048714,-0.001575001,-0.0007923635,0.006142631,-0.002142103,-0.007772356,0.002578235
0.1413009,0.9032846,0.3981764,0.0004796709,-0.002992502,-0.0005133112,0.00228,-0.007378608,0.005225345
0.1402487,0.9053184,0.3931607,-0.0005719639,-0.0009666295,-0.005490781,0.00493429,-0.00252568,0.003731363
0.140883,0.9058095,0.3928871,6.308078e-05,-0.0004829906,-0.005726635,0.00408788,6.231336e-05,0.003396488
0.1421133,0.9043627,0.3967903,0.001294195,-0.001936739,-0.00178633,0.003332752,0.004287741,0.00563677
0.1405142,0.9029623,0.4039469,-0.0003040742,-0.003343523,0.00540705,0.005127053,0.006392826,-0.001329121
0.1387229,0.9023798,0.4059192,-0.002094426,-0.003931734,0.007415622,0.008409515,0.001734381,-0.007381874
0.1378292,0.9032014,0.4003517,-0.002987049,-0.0031149,0.001883501,0.0106998,-0.005100697,-0.001855293
0.1372472,0.9035769,0.3950986,-0.0035678,-0.00274335,-0.003335403,0.01075809,-0.00608926,0.001410621
0.137455,0.9044339,0.3977265,-0.003358368,-0.001889166,-0.0006743564,0.01044095,-0.003640968,0.002164872
0.1380149,0.9043504,0.4004624,-0.00279635,-0.001974411,0.002093674,0.01187993,-0.005211715,-0.0004045156
0.1391883,0.9040092,0.3978807,-0.0016203,-0.0023162,-0.0004570498,0.0075323,-0.002571356,-0.006256441
0.1408088,0.9053091,0.4007087,3.626192e-06,-0.001015752,0.002400844,0.0009140288,0.002117107,-0.003328244
0.1405798,0.9064615,0.4045061,-0.0002212398,0.0001383717,0.006226797,0.002059205,0.002632154,0.001292049
0.1397694,0.9091778,0.404011,-0.001026975,0.002857504,0.005758953,0.002700631,0.005003403,0.003160126
0.1410618,0.9119391,0.404187,0.0002706404,0.005622484,0.00596042,0.0001437012,0.005757387,0.004254938
0.1430595,0.9097349,0.4019229,0.002274221,0.003422544,0.003719977,-0.001673247,0.005509842,0.0003020985
0.1447888,0.9040911,0.3995268,0.004009717,-0.002216471,0.001345417,-0.003542832,0.006064301,-0.002084277
0.1436128,0.9006844,0.3981112,0.002840159,-0.005618171,-5.07893e-05,-0.001094149,0.001989226,-0.0005491794
0.1391824,0.9010347,0.3968549,-0.001583777,-0.005262339,-0.001289677,0.002234661,-0.002599572,-0.0002240542
0.1373141,0.90159,0.4000427,-0.003445579,-0.004700861,0.001913496,0.0006866031,-0.00387631,-0.001876758
0.1377726,0.900826,0.4051644,-0.002980543,-0.005457822,0.007048738,0.0006868737,-0.003643189,-0.003171683
0.139165,0.9012997,0.4083186,-0.001581369,-0.004975978,0.01021436,0.003942633,-0.003424746,-0.0020939
0.1403897,0.903951,0.406877,-0.0003495327,-0.002315435,0.008781908,0.007157729,-0.002676326,-0.0009801877
0.1366988,0.9058565,0.4032948,-0.004033066,-0.0003994078,0.005206226,0.01102741,-0.0008005424,-0.000165547
0.1332259,0.9070906,0.3994946,-0.007498235,0.0008464398,0.001409739,0.01213617,-0.001013051,-6.767215e-05
0.1350499,0.9076493,0.3937798,-0.005665723,0.001418059,-0.004304121,0.01037661,-0.001395496,-0.0009515444
0.1371439,0.9063604,0.3937424,-0.003562439,0.0001429624,-0.004343146,0.01001425,0.0001775202,-2.907474e-05
0.1378033,0.9069382,0.3975618,-0.002892693,0.0007353188,-0.0005274947,0.007794652,-3.420783e-06,0.001983425
0.1387555,0.907242,0.3981055,-0.001929068,0.001054368,1.058513e-05,0.00466821,-0.0002829419,0.002819397
0.1399403,0.905488,0.3993695,-0.0007317035,-0.0006837634,0.001267263,0.005339657,-0.0005425108,-0.001653018
0.1405778,0.905605,0.4005406,-8.06233e-05,-0.0005505894,0.002429509,0.008924927,-0.004856967,-0.008073986
0.1406985,0.9058432,0.4017969,5.46383e-05,-0.0002957391,0.003675374,0.01276147,-0.009277173,-0.007923393
0.1418623,0.9072385,0.4038781,0.001233855,0.00111661,0.005744501,0.01236806,-0.007861547,-0.008081668
0.1433457,0.9098816,0.4040627,0.002733456,0.003776848,0.00591542,0.007498033,-0.002378184,-0.01003598
0.141375,0.9117964,0.4027255,0.0007794008,0.005708888,0.004562822,0.002008424,0.0005509017,-0.007155004
0.1377182,0.9147508,0.3951809,-0.002860321,0.008680293,-0.002999127,0.002177807,0.0004658207,-0.005567912
0.1360732,0.9145551,0.3873844,-0.004487892,0.008500895,-0.01081455,0.006191039,0.001070672,-0.003196329
0.1344375,0.9125636,0.3909523,-0.00610559,0.006524708,-0.007266752,0.003887717,0.001352657,-2.027691e-06
0.1351597,0.9118534,0.3967245,-0.005364878,0.005828273,-0.00151527,0.00219406,0.003910587,-0.003807646
0.138252,0.9071358,0.4003312,-0.00225318,0.001122914,0.002070262,0.004161059,0.005911976,-0.002999763
0.1382662,0.9039752,0.4059494,-0.002218594,-0.002027159,0.007667067,0.004003211,-0.00120692,0.001624679
0.1381308,0.9068499,0.4053712,-0.002332836,0.000856318,0.007067029,0.005561596,-0.007832209,0.0003793012
0.1386129,0.9078547,0.4024226,-0.001828637,0.001868453,0.004096022,0.005856611,-0.005602546,0.003077216
0.1385503,0.9071855,0.4058073,-0.00186822,0.001204972,0.007457424,0.005842543,-0.003209465,0.003995977
0.139239,0.9078018,0.4044509,-0.001155652,0.001825532,0.006076688,0.007487459,-0.003808744,-0.001048065
0.1376291,0.906918,0.3980371,-0.002740812,0.000944576,-0.00036272,0.008263606,-0.004318046,-0.002408277
0.1358978,0.9064455,0.3940903,-0.004446673,0.0004734927,-0.004336188,0.01030538,-0.005136518,-0.004645716
0.1351385,0.9073722,0.3896879,-0.005179626,0.001400129,-0.008766192,0.009722349,-0.005269927,-0.003800025
0.1332598,0.9068615,0.3887972,-0.007030925,0.0008881319,-0.009684906,0.008346127,-0.003857547,0.0001635215
0.1337208,0.9072741,0.3916243,-0.006541506,0.001298125,-0.006885713,0.007000963,-0.003476824,-0.001223017
0.1361295,0.9099156,0.393401,-0.004103029,0.003935754,-0.005136259,0.002863611,-0.003705157,-0.0001290989
0.1381771,0.9117336,0.3919786,-0.002024326,0.005748516,-0.006585029,0.0004067203,-0.004163405,0.001276279
0.1380065,0.9107429,0.3884994,-0.002162364,0.004751214,-0.0100893,-0.00212977,-0.006467016,0.001125334
0.1367065,0.9070303,0.3896349,-0.003428541,0.001030416,-0.008977195,-0.004772697,-0.008129492,0.0038367
0.1378808,0.9047803,0.3899331,-0.002219152,-0.001229224,-0.008700327,-0.006634237,-0.007073298,0.003096323
0.1382165,0.9062785,0.3903891,-0.001847195,0.0002577922,-0.008263178,-0.005965259,-0.003900099,0.002364338
0.1396728,0.9076568,0.3946619,-0.0003534772,0.001623671,-0.004006431,0.001192495,-0.001194758,0.002523411
0.1424417,0.9069005,0.3922059,0.002453811,0.0008538052,-0.006475631,0.005880215,0.0003805552,-0.0005790716
0.1390703,0.9071044,0.3910872,-0.0008783216,0.00104298,-0.007604481,0.003446206,0.00161555,-0.001859882
0.1359817,0.9099791,0.3963637,-0.003927163,0.003901827,-0.002334843,0.0002081058,-0.0004725839,-0.0005898378
0.1383134,0.9118493,0.3988378,-0.001555138,0.005755078,0.0001354983,0.0011561,-0.001724531,0.00257011
0.1405898,0.9103475,0.3987029,0.0007621245,0.004235137,-9.3814e-08,0.003887503,0.001146601,0.005671658
0.1418843,0.9063227,0.3955009,0.002097907,0.0001908385,-0.003199969,0.0027303,0.002986875,0.006635543
0.1412236,0.9032389,0.3934953,0.001478679,-0.00291353,-0.005200579,0.003249116,0.004587938,0.008206879
0.1391532,0.9055892,0.3942912,-0.0005503553,-0.0005849605,-0.00439698,0.004478019,0.002683649,0.00921956
0.1383064,0.9083148,0.3936172,-0.001355882,0.002118031,-0.005060579,0.001165688,-0.003972032,0.00785515
0.1363387,0.9072598,0.3954056,-0.00328244,0.001039702,-0.003258994,-0.0008579147,-0.006357693,0.005549503
0.1342998,0.9091079,0.3991428,-0.005280463,0.002863762,0.0004941341,-0.005166889,-0.007374487,0.004229351
0.1352527,0.9125004,0.399735,-0.004286738,0.006231415,0.001104828,-0.01016807,-0.007906587,0.005986305
0.1376394,0.9104896,0.3992663,-0.001859063,0.00419499,0.0006568581,-0.009128005,-0.003019475,0.007920736
0.1431227,0.9056975,0.4008474,0.003665118,-0.0006235892,0.002260751,-0.006717435,-0.0002332527,0.002883658
0.1473172,0.8997408,0.401019,0.007900506,-0.006607676,0.002456822,0.001990721,-0.00159472,-0.003845769
0.1422656,0.8960692,0.4009108,0.00288926,-0.01030715,0.002374579,0.009630035,-0.002439872,-0.002814033
0.1377771,0.9025207,0.4017365,-0.001559563,-0.003883646,0.003227354,0.006470312,-0.00135345,-0.0009445405
0.1393258,0.9084401,0.3990825,2.784508e-05,0.002008171,0.0006012962,0.005164931,0.001769264,-0.001541603
0.1391263,0.9054543,0.3996278,-0.0001337625,-0.001004706,0.001175156,0.001254217,0.004971224,0.001358143
0.1390335,0.9071232,0.4007097,-0.0001897071,0.0006375915,0.002285991,-0.003946727,0.007257234,0.005944909
0.1393787,0.9134742,0.3954928,0.0001914714,0.006962512,-0.002901741,-0.004954034,0.006550432,0.007101647
0.1373584,0.9143725,0.396123,-0.001793866,0.007835176,-0.002242143,-0.01187684,0.004588308,0.004010969
0.1369196,0.911466,0.3999043,-0.002198712,0.00490303,0.001568695,-0.0108774,0.002721007,0.002076928
0.1365938,0.9076568,0.398352,-0.002491417,0.001068132,4.608165e-05,-0.0049773,0.000548056,0.003095971
0.137051,0.9060317,0.399172,-0.002001861,-0.0005830272,0.0008956335,-0.008197935,-0.001311617,0.004097485
0.1423643,0.9071432,0.400585,0.003343006,0.0005023765,0.002338153,-0.007988293,-0.006347226,0.005329771
0.1442919,0.9069739,0.3978137,0.005301354,0.0003067011,-0.0004039529,-0.00803769,-0.005514546,0.005095058
0.1403558,0.9058209,0.397085,0.001394954,-0.0008725341,-0.001103797,-0.008301452,0.0002408958,0.003327916
0.1387249,0.9053711,0.4000881,-0.0002073906,-0.001348671,0.001927677,-0.002880922,-0.0003428647,0.001959253
0.1383273,0.9056632,0.4020522,-0.0005776854,-0.001082703,0.003919743,0.0005440735,0.002780353,7.947623e-05
0.1359493,0.90676,0.4006291,-0.002929526,-1.167328e-05,0.00252393,0.002043043,0.003526623,-0.001411513
0.1331643,0.9080541,0.3980032,-0.005689432,0.001256938,-7.560864e-05,0.000827748,-0.001820805,-0.001856424
0.1331515,0.9084983,0.397461,-0.005677942,0.001676051,-0.0005922195,0.0004062875,-0.0007050169,-0.002870708
0.1370998,0.9074164,0.3961894,-0.001705971,0.0005694241,-0.001839182,0.001242596,-0.001984741,-0.002591582
0.1409523,0.9065045,0.3941732,0.002169741,-0.0003668289,-0.003831653,-0.001521154,-0.005013321,0.003364805
0.1424804,0.9075326,0.3951014,0.003720479,0.0006371882,-0.002880338,-0.002690127,-0.005795952,0.009824205
0.141765,0.9097841,0.3972239,0.003027192,0.002865051,-0.0007353359,-0.003985962,-0.006957064,0.008571939
0.1411051,0.911588,0.4002334,0.002388554,0.004645619,0.002296114,-0.004916217,-0.004827634,0.006448414
0.1422812,0.9104272,0.4008623,0.003584947,0.003461668,0.0029465,-0.003972501,-0.005711781,0.008483491
0.1425165,0.9079586,0.3996914,0.003839538,0.0009699855,0.001796274,-0.006392877,-0.00523982,0.00776536
0.1430417,0.9081907,0.4030072,0.00438262,0.001179037,0.005132057,-0.007942406,-0.001712208,0.006351616
0.1431962,0.9086212,0.4051779,0.004553638,0.001586392,0.007321609,-0.006956289,-0.001594508,0.006990792
0.140428,0.9080633,0.4040235,0.001800431,0.001005364,0.006184762,-0.005919035,0.001220658,0.004893815
0.1381005,0.9083067,0.4039916,-0.0005138344,0.001225615,0.006168815,-0.00501498,0.000746794,0.00340856
0.1369346,0.9074446,0.403516,-0.001668055,0.0003403483,0.005707386,-0.00519451,-0.003487132,0.004222913
0.1373327,0.906542,0.4007061,-0.00125979,-0.000585408,0.002909528,-0.004407355,-0.003878714,0.0038936
0.1382208,0.9071929,0.3971958,-0.0003628805,4.248118e-05,-0.0005907329,-0.00209732,-0.004213825,0.003700608
0.1379567,0.9079058,0.3973232,-0.0006193653,0.0007324801,-0.0004554522,-8.23897e-05,-0.003583482,0.003557492
0.1392485,0.9089096,0.3975472,0.0006788152,0.001713505,-0.0002254505,-0.0004780055,-0.005103016,0.003167743
0.1390547,0.9102345,0.3952398,0.0004904811,0.003015811,-0.002528682,-0.001445879,-0.01150844,0.002690962
0.1372309,0.9114519,0.3968174,-0.001329035,0.004210756,-0.0009484648,-0.0008656368,-0.01522735,0.00288208
0.1367517,0.9114482,0.3994911,-0.001804745,0.004184497,0.00172629,-0.003284339,-0.008350925,0.005270913
0.1361827,0.9090822,0.3988484,-0.002371172,0.001795719,0.001083396,-0.00710092,0.001283052,0.007607076
0.138694,0.9032116,0.3981867,0.0001420588,-0.004097844,0.0004202178,-0.007705876,-0.002153442,0.007000576
0.1415205,0.8964951,0.3987019,0.002969945,-0.01083727,0.0009327122,-0.005309712,-0.003909672,0.002470031
0.140003,0.8982551,0.3988334,0.001453213,-0.009099884,0.001060269,0.002290842,0.0005187222,8.711057e-05
0.1389604,0.9023717,0.398337,0.0004107336,-0.005005058,0.0005587738,0.01040858,-0.00829875,0.002256321
0.1389778,0.8996541,0.3987175,0.0004275821,-0.007743228,0.0009331594,0.008382058,-0.01349458,0.001688653
0.1385056,0.9021896,0.3985493,-4.583019e-05,-0.005226815,0.0007577877,0.001334463,-0.002016767,0.0006688355
0.1381108,0.9079083,0.3972904,-0.0004424586,0.0004746515,-0.000509222,-0.001097653,0.008054434,0.001419876
0.1372537,0.9086915,0.3962905,-0.001301857,0.001242366,-0.001518151,-0.005053294,0.007101813,0.0006569617
0.1372939,0.9114164,0.3955269,-0.001264354,0.003953468,-0.00229141,-0.008386005,-0.0008517793,0.001021916
0.1379694,0.9092344,0.3967701,-0.0005919765,0.00175925,-0.001058566,-0.002799949,-0.004341157,0.002425238
0.1382701,0.903825,0.397597,-0.0002947121,-0.003661085,-0.0002424098,0.0007394096,-0.002162624,0.003424131
0.1390859,0.905773,0.39609,0.0005175636,-0.001722766,-0.001760392,-0.001575166,-0.0009347283,0.003303219
0.1395216,0.9061103,0.3957477,0.0009494582,-0.001393849,-0.002114006,-0.001548416,-0.001522476,0.002281497
0.1408664,0.9046745,0.3968821,0.002290275,-0.002836624,-0.0009909556,0.0001016475,-0.001834403,0.002262899
0.1446705,0.9051529,0.3984961,0.006090031,-0.002363909,0.0006117999,0.00127677,0.001358579,-0.0007972499
0.1451885,0.9037247,0.3986231,0.006603261,-0.003796269,0.0007276161,0.001279336,0.002635215,-0.005105385
0.1414693,0.9039645,0.3966066,0.002878597,-0.00355915,-0.00130003,0.001101246,0.001059283,-0.003235557
0.1386909,0.9046052,0.3958837,9.389063e-05,-0.002919668,-0.002033962,0.002313969,0.001484229,0.001517519
0.135361,0.9041837,0.3983271,-0.003243247,-0.003340664,0.0003986417,0.005124908,0.001839508,0.003154349
0.1335398,0.9060706,0.401168,-0.005072297,-0.001451592,0.003229063,0.007254065,0.001496564,0.0008492327
0.1361646,0.9077355,0.4001959,-0.002455806,0.0002171341,0.002246619,0.005185048,-0.001181519,-0.002596659
0.1367029,0.9082615,0.3993942,-0.001926101,0.0007484513,0.001434568,0.003771307,-0.003102638,-0.003274079
0.1360916,0.9101078,0.4014912,-0.002545976,0.002601501,0.003521355,0.003336375,-0.0001670064,-0.001540322
0.1390799,0.9115467,0.401379,0.0004337291,0.004048421,0.003398749,-0.0001571281,0.002102851,-0.0006299749
0.1412749,0.9094085,0.3999502,0.002620382,0.001919046,0.001959234,-0.001028216,-0.0001598694,-0.0005056251
0.1412914,0.9069319,0.398159,0.002628505,-0.0005479274,0.0001571701,-0.001096594,-0.002704011,0.00106141
0.1419349,0.9067275,0.3963594,0.003263759,-0.0007421576,-0.001653728,-0.002714723,-0.0008545081,0.001255941
0.1436684,0.9053632,0.397874,0.004988693,-0.002095718,-0.0001506768,6.287657e-05,-0.0003185196,-0.0008795711
0.1444352,0.9049203,0.4004109,0.005746756,-0.002527282,0.002374562,0.0007989901,-0.002595113,-0.0008576591
0.1418035,0.9061987,0.402715,0.003105652,-0.001237002,0.004666788,-0.001169444,-0.003504816,-0.0009167531
0.1390585,0.9051808,0.4032394,0.0003505913,-0.002242396,0.005179008,0.00252473,-0.0038818,-0.001848634
0.1392091,0.9044239,0.4004462,0.0004904271,-0.00298619,0.002373163,0.00440565,-0.00198292,0.0005773634
0.1395717,0.9044872,0.3998053,0.0008415823,-0.002909113,0.001718968,0.003719263,-0.001383761,0.00254635
0.1402303,0.9046281,0.4019466,0.001488125,-0.002753668,0.003846362,0.007458692,-0.001814549,0.001898659
0.1421425,0.9064878,0.4031351,0.003387706,-0.0008787155,0.005020185,0.01095339,0.001344907,0.001130671
0.1412353,0.9074739,0.4019608,0.002467154,0.0001235095,0.003830406,0.0117648,0.002416327,-0.0003830499
0.1392286,0.9083874,0.3997295,0.0004464069,0.001053777,0.001582672,0.01062456,-0.0006007724,-0.001417394
0.140416,0.9088137,0.3986179,0.001619101,0.00149742,0.000453675,0.008587633,-0.004060348,-0.00214806
0.1397087,0.9070241,0.3939726,0.0008964229,-0.0002744496,-0.004209923,0.006984507,-0.002777831,-0.002629924
0.1385828,0.9076695,0.3886644,-0.0002455294,0.0003890502,-0.00953709,0.004062619,0.0005255513,-0.001693369
0.1424478,0.9088413,0.3932863,0.003602878,0.0015792,-0.004934429,-0.0009961892,0.0005530765,-0.00247788
0.1466138,0.9079729,0.4002264,0.007751688,0.0007292545,0.001986622,-0.003962845,0.002884249,-0.00403007
0.1472175,0.9074891,0.398356,0.008337345,0.0002638809,9.744136e-05,-0.0002524439,0.004168507,-0.004590101
0.1427269,0.9066582,0.3955481,0.003827717,-0.0005485882,-0.002729005,0.002073665,0.001499228,-0.004664258
0.1382191,0.9068071,0.3987869,-0.0007003872,-0.000381386,0.0004916192,0.0003990474,-0.0001485055,-0.003253989
0.1393655,0.9074283,0.3998512,0.0004245892,0.0002578902,0.001538266,0.002009319,-0.001094172,-0.00202757
0.1394602,0.9075886,0.3966419,0.000496776,0.0004361394,-0.00168828,0.001807665,-0.000227859,0.002147591
0.1379404,0.9087051,0.3969699,-0.001046458,0.001570463,-0.001377102,-0.001574615,0.0004748303,0.008716716
0.1383391,0.9083042,0.3978272,-0.0006719697,0.001186907,-0.0005360782,-0.002226271,0.0001865075,0.009155597
0.1373741,0.9065726,0.3968297,-0.00166177,-0.0005276536,-0.001549212,0.0008407122,6.25859e-05,0.00531606
0.1370198,0.904054,0.3985564,-0.002041326,-0.003029586,0.0001623873,0.005225646,-0.001003017,0.001708198
0.1380141,0.9007213,0.4007835,-0.001072544,-0.006345998,0.002375139,0.007170994,-0.001903978,-0.001741995
0.1373119,0.9000324,0.4044815,-0.001800366,-0.007018704,0.006059314,0.008558978,-0.003265582,-0.005077185
0.1376941,0.9009802,0.4086038,-0.001443644,-0.006054565,0.0101681,0.00876128,-0.0007428134,-0.006218778
0.1396162,0.9034076,0.405887,0.0004531405,-0.003610318,0.007437702,0.005033137,0.004157995,-0.003490877
0.1403671,0.9074954,0.399789,0.001178987,0.0004948334,0.001325771,0.001387627,0.00452283,-0.002954307
0.1395135,0.9074084,0.396318,0.0003006488,0.0004257163,-0.002159666,0.001696597,0.004570101,-0.004685997
0.1374069,0.9071728,0.3981556,-0.001830379,0.0002085639,-0.0003369962,0.004920668,0.004638945,-0.004944657
0.1371143,0.9117259,0.4013808,-0.002146968,0.004780509,0.002872878,0.006135779,0.003939881,-0.004800539
0.1377122,0.9121267,0.3978635,-0.001572481,0.005200338,-0.0006601402,0.005706412,0.003922029,-0.0003349214
0.1361886,0.9101568,0.3941752,-0.003118889,0.003249241,-0.004364407,0.006649078,0.00235202,0.004052615
0.1349913,0.9123375,0.3929644,-0.00433824,0.005448338,-0.005591278,0.00762014,0.0001352316,0.002478543
0.1351774,0.9120425,0.3897143,-0.004173158,0.005171208,-0.00885736,0.007036136,-0.002010943,0.002018659
0.1381845,0.9102412,0.3906514,-0.001185904,0.003386753,-0.007935607,0.003359191,-0.002281737,0.003637729
0.1416809,0.9102414,0.3925633,0.002291931,0.003402726,-0.006037971,-0.001258904,-5.211762e-05,0.002927021
0.1404414,0.9086009,0.393134,0.001035113,0.001776759,-0.00548035,-0.003182472,0.002287044,0.001171507
0.1395187,0.9083862,0.3983601,9.614464e-05,0.001575256,-0.0002658152,-0.001769962,0.002477072,0.0004437213
0.1409868,0.9112137,0.4005241,0.001548956,0.004414594,0.001888298,0.0007518874,0.0003930695,0.000414653
0.1411126,0.9126152,0.3979323,0.001660498,0.005826434,-0.0007119069,0.003873843,0.001107047,0.00223908
0.1413279,0.9090167,0.3947663,0.00186242,0.002236706,-0.003884933,0.008096811,0.002431409,0.003550065
0.1402839,0.9043409,0.3899019,0.0008057266,-0.002432086,-0.00875484,0.005982346,0.001225033,0.0005535581
0.1378047,0.9052002,0.3894288,-0.001685563,-0.001567371,-0.009231762,0.002009894,-0.0003794945,-0.001155598
0.1374931,0.906907,0.3916137,-0.002008483,0.0001433523,-0.007048795,0.004424629,-0.0010583,-0.0008719313
0.1360492,0.907676,0.3931138,-0.003462996,0.0009149983,-0.005548239,0.002565206,0.004719127,0.0001786653
0.1334111,0.9109905,0.3979411,-0.006110918,0.004230908,-0.0007181417,-0.000957468,0.008036867,0.002622073
0.1339254,0.912077,0.3999616,-0.005605211,0.005317458,0.00130759,0.0008227495,0.00010853,0.003823743
0.1341285,0.9120744,0.3980503,-0.005409489,0.00531347,-0.0005962911,0.0003104375,-0.004883506,0.008512729
0.1353222,0.91327,0.3983123,-0.00422166,0.006506101,-0.000324842,-0.001198773,-0.0008790738,0.01080404
0.1388199,0.9116075,0.3980581,-0.0007282468,0.004838726,-0.0005676598,-0.002334917,0.004256831,0.0084354
0.1381284,0.9095793,0.3963579,-0.001422263,0.002803858,-0.002254799,-0.003733894,0.004834254,0.007160836
0.1383497,0.9080789,0.3953635,-0.001201938,0.001294818,-0.003234421,-0.002707892,0.004843011,0.0007012461
0.1413737,0.9073387,0.3949223,0.001822747,0.0005440345,-0.003659222,-0.001783073,0.005127623,-0.001089537
0.1390675,0.9082407,0.3975762,-0.0004813774,0.00143376,-0.0009874045,-0.0002763421,-0.0005128091,0.0001956437
0.1361281,0.9067111,0.4011742,-0.003417376,-0.0001099389,0.002630131,0.001546278,-0.004531671,-0.003099773
0.136118,0.9074185,0.3985721,-0.003422756,0.0005819623,4.902077e-05,0.0001949744,-0.002685419,0.0007853376
0.1356552,0.9105948,0.3955815,-0.003879401,0.003741209,-0.002919521,-0.002841391,0.001303027,0.001762911
0.1354171,0.9103919,0.3977714,-0.004109924,0.003519917,-0.0007063975,-0.005592133,0.004528015,0.00144346
0.1345165,0.9113181,0.397586,-0.005001521,0.004426274,-0.0008675758,-0.006241002,0.003143733,0.006971714
0.1347041,0.9115381,0.3970755,-0.004803218,0.004624986,-0.001352997,-0.006407657,0.002668087,0.006338259
0.1373604,0.9101004,0.4004243,-0.002134428,0.003164477,0.002021767,-0.008274016,0.003572087,0.006223367
0.139578,0.9098077,0.4009763,9.729028e-05,0.00284741,0.00260048,-0.007347388,0.002820646,0.006258667
0.1409618,0.9074866,0.3961868,0.001496798,0.0005005181,-0.002161858,-0.005042604,0.002396901,0.002765534
0.140184,0.9071934,0.3920072,0.0007362016,0.0001800269,-0.006313894,-0.005305515,0.001461205,0.001513391
0.139221,0.9081876,0.3968894,-0.0002083606,0.001145691,-0.001403751,-0.005026272,0.001592262,0.001514462
0.1408724,0.9070336,0.4023603,0.001462488,-3.804431e-05,0.004095664,-0.004850551,0.00277107,0.00431373
0.1419546,0.9071137,0.3961892,0.002565052,1.13369e-05,-0.002046603,-0.004296335,0.005176451,0.004248458
0.1413819,0.9069352,0.3901404,0.002013383,-0.0001986987,-0.008066243,-0.001500757,0.007187271,0.00296037
0.1388011,0.9080942,0.389268,-0.0005458615,0.0009280363,-0.008909159,0.0004719475,0.003531889,0.005909343
0.1363654,0.9109356,0.3883209,-0.002959643,0.003736677,-0.009825992,0.003003222,-0.0005782255,0.005287334
0.1366248,0.9120788,0.3915451,-0.002678037,0.004846438,-0.006570528,0.003956649,0.0004471431,0.003205209
0.1361789,0.9122789,0.3979198,-0.003101326,0.005012442,-0.0001633322,-0.001449481,0.001047559,0.003349052
0.1357509,0.9113992,0.4031416,-0.003506255,0.004097881,0.005092237,-0.005804491,-0.001348647,0.00431707
0.1362032,0.9117315,0.402011,-0.00303035,0.004394495,0.003996306,-0.00212529,-0.001102088,0.00588152
0.1351565,0.9122539,0.3968963,-0.004052778,0.004880289,-0.001082996,0.0008308677,0.0003940664,0.00650901
0.1347275,0.9109631,0.3980924,-0.004456896,0.003551889,0.0001488696,-0.005978999,-0.002123361,0.007691746
0.1365076,0.9100825,0.4018677,-0.002651247,0.00263276,0.003960119,-0.01156929,-0.005939093,0.008435696
0.1385476,0.9073216,0.4040928,-0.0005847293,-0.0001677333,0.006221196,-0.00985941,-0.007170189,0.007863816
0.1397653,0.9050409,0.4009579,0.0006601531,-0.002488837,0.003121949,-0.01030726,-0.002186859,0.006982959
0.1421678,0.9046412,0.3943088,0.003090437,-0.002929614,-0.003492007,-0.009111934,0.004423736,0.003338149
0.1437685,0.9027921,0.3965193,0.004719336,-0.004820087,-0.001247037,-0.00497682,0.003065085,-0.0021743
0.1408612,0.9028824,0.3953205,0.001840347,-0.004771141,-0.00241201,-0.006007281,0.00107926,-0.003490352
0.13845,0.9047379,0.3888462,-0.0005426013,-0.002956701,-0.00885292,-0.005508649,0.003256087,-0.001184821
0.1389127,0.9059542,0.39279,-5.188193e-05,-0.001780784,-0.004876086,-0.0001132575,0.00150085,0.0001464277
0.1392636,0.9057535,0.3966294,0.0003267581,-0.002021148,-0.001003704,0.001008788,-0.0004204734,0.002791166
0.1406651,0.9041049,0.3990124,0.001755639,-0.00370835,0.001412257,-0.003381097,3.271145e-06,0.004288965
0.1417121,0.9041535,0.4030219,0.00282959,-0.00369723,0.005454534,-0.009084871,-0.0017228,0.003138731
0.1391293,0.9049195,0.4023013,0.0002730689,-0.002967279,0.004766529,-0.01328325,-0.001504957,0.004244108
0.1363488,0.9075601,0.4030981,-0.002481866,-0.0003613402,0.005595104,-0.01418313,0.0006617638,0.003991009
0.1376821,0.9110937,0.4025789,-0.001123587,0.003139306,0.005106808,-0.01435267,0.002913485,0.003614186
0.1400047,0.909378,0.3998164,0.001223329,0.001392013,0.002373965,-0.01230445,0.003541422,0.004846292
0.1403196,0.9062804,0.4021424,0.00156191,-0.001735666,0.004728224,-0.004488628,-0.004387989,0.002629116
0.1401528,0.9054466,0.4070598,0.001418043,-0.002598247,0.009672192,0.003368666,-0.01486025,0.0008163939
0.138414,0.9060522,0.4094915,-0.0002985283,-0.00201993,0.01212855,0.005220116,-0.01643191,0.001215815
0.1367479,0.9077988,0.4029942,-0.001943266,-0.0002990431,0.005653482,-3.287916e-06,-0.01069992,0.003870916
0.1379739,0.9079016,0.3961851,-0.0006967718,-0.0002204156,-0.001135955,-0.00828582,-0.004302188,0.007579479
0.1394749,0.9079566,0.3971598,0.0008240641,-0.0001881417,-0.0001444086,-0.01267717,-0.0006164939,0.007187311
0.1406177,0.9079783,0.3966126,0.001986015,-0.0001876275,-0.0006772387,-0.0109645,-0.001982439,0.01013044
0.140793,0.9063144,0.3970842,0.002179582,-0.001871258,-0.0001937085,-0.006179789,-0.004287458,0.01640584
0.1405245,0.9068072,0.3985381,0.001928506,-0.001396795,0.001269914,-0.005208565,0.00311793,0.01450438
0.1409102,0.9065717,0.3968012,0.002330661,-0.001649094,-0.0004592853,-0.007549034,0.01798977,0.01058071
0.1253664,0.9239355,0.3803759,-0.02048964,0.0334966,-0.04493368,0.1289458,-0.2015135,0.1184415
0.1364348,0.9177211,0.3661646,-0.009200399,0.02744831,-0.05969713,0.1371185,-0.1863898,0.1297954
0.1557809,0.9157333,0.3550559,0.01035859,0.02559924,-0.07130311,0.1306048,-0.1481611,0.1582577
0.1730089,0.9099699,0.3654174,0.02779146,0.01994752,-0.06138339,0.1306557,-0.1045922,0.1580787
0.1785818,0.8948413,0.3821866,0.03356045,0.004903905,-0.04500018,0.1499689,-0.09364387,0.1395265
0.1794025,0.8866409,0.3907217,0.03456693,-0.003236979,-0.03679549,0.1662011,-0.1362927,0.1195537
0.1838543,0.8882309,0.3885425,0.03919284,-0.001611314,-0.03925035,0.1978636,-0.1607444,0.09872106
0.1830709,0.8883192,0.3833642,0.03857021,-0.00150967,-0.04465077,0.2258119,-0.1665421,0.09323364
0.1857939,0.8871877,0.3849857,0.04143923,-0.002648338,-0.043199,0.2436222,-0.1855411,0.0886343
0.1874234,0.8881487,0.3848806,0.04319862,-0.001713523,-0.04342253,0.3005868,-0.1735139,0.09402577
0.1778733,0.8938203,0.3803877,0.033761,0.003914472,-0.04798369,0.3875553,-0.1499634,0.1295776
0.1752941,0.9083123,0.373608,0.03127589,0.01834674,-0.05478254,0.4262672,-0.1354192,0.1616809
0.1952375,0.9209781,0.352976,0.05129409,0.03093735,-0.07538536,0.3344156,-0.1316427,0.1268306
0.2224897,0.9176195,0.3307302,0.07860069,0.02748816,-0.09755375,0.2073917,-0.1149591,0.06504969
0.2242257,0.9119209,0.3251616,0.08036886,0.02168377,-0.1029961,0.2034117,-0.01218938,0.06520118
0.2200781,0.9174074,0.3227031,0.07622884,0.02704915,-0.1052783,0.2340514,0.1241702,0.06819699
0.2225476,0.9211227,0.3198337,0.07867898,0.03062816,-0.10792,0.2232751,0.170064,0.05173932
0.1942777,0.9310108,0.3223814,0.050361,0.04036485,-0.1050924,0.2246043,0.0977364,0.05420527
0.165825,0.9514638,0.3143567,0.02183052,0.06065089,-0.1127838,0.1858733,0.01169286,0.03571601
0.1730317,0.9515191,0.2945312,0.02893005,0.06052257,-0.1322217,0.1064312,-0.01844884,0.02852782
0.1734334,0.9421191,0.2861849,0.02919621,0.0509213,-0.1401246,0.0727425,-0.05088265,0.05555201
0.1523952,0.9460441,0.2961212,0.007995076,0.05462606,-0.1296878,0.07323399,-0.05901399,0.09579187
0.1519483,0.9490237,0.3054016,0.007359402,0.0573658,-0.1198483,0.07019841,-0.03657748,0.1405714
0.1939672,0.9546661,0.2979019,0.04916521,0.06274793,-0.1267296,0.05997303,-0.02458133,0.1237512
0.2331742,0.9591894,0.2967474,0.08813557,0.06698944,-0.1272061,0.04733169,0.0488581,0.08707465
0.2140657,0.9486192,0.3224691,0.06876595,0.05611523,-0.1007463,0.03811901,0.1025597,0.08628872
0.1818213,0.9318976,0.3425609,0.03623501,0.03906663,-0.07985723,0.0293844,0.0006525389,0.06678587
0.1917472,0.917847,0.3369934,0.04584853,0.02466633,-0.08456976,0.02813965,-0.1242586,0.05601689
0.2014381,0.9207672,0.3262065,0.05520155,0.02721482,-0.0944461,0.044925,-0.1274764,0.05522075
0.2090486,0.9317507,0.3228623,0.06244896,0.03780584,-0.09682626,0.05856314,-0.06971541,0.03570163
0.2238738,0.9294192,0.320538,0.07688559,0.03506201,-0.09813441,0.03944482,-0.0241203,0.04189183
0.2098821,0.9259886,0.3203653,0.06247931,0.03119996,-0.09724052,0.01670067,0.02213724,0.04686329
0.2056262,0.9195862,0.3263676,0.05778229,0.02434782,-0.09012289,0.0188128,0.04244922,0.03593812
0.2139841,0.910266,0.3260349,0.06567251,0.01456086,-0.08929306,0.01639502,0.03447116,0.03587431
0.2067263,0.9119353,0.3244875,0.05792045,0.01574785,-0.08963284,0.01270504,0.04267469,0.02612225
0.2108862,0.9147202,0.3223686,0.06155967,0.01803637,-0.09050098,0.02127223,0.04916997,0.02019317
0.2103837,0.9183055,0.3130895,0.06051023,0.02111289,-0.09848785,0.02125907,0.06263523,0.01926784
0.2056284,0.922016,0.3166249,0.05518208,0.02430331,-0.09362071,0.01918604,0.07572891,0.01071441
0.2008274,0.927842,0.3267352,0.04978291,0.02959904,-0.08214069,0.02189134,0.06186163,0.01136849
0.185246,0.9405548,0.3319887,0.03357863,0.04177218,-0.07548149,0.02527679,0.05570938,0.01575388
0.1882433,0.9354778,0.3327334,0.03592988,0.0361465,-0.07329752,0.03100175,0.04949637,0.02702311
0.1951323,0.9201505,0.3286742,0.04215104,0.02026177,-0.07588626,0.03112816,0.04594264,0.03607293
0.1935502,0.9144281,0.3349598,0.03988068,0.0139739,-0.0681015,0.03871782,0.05127759,0.03274761
0.1953527,0.9133225,0.3385095,0.04097592,0.01229603,-0.06302657,0.05166153,0.03705367,0.03296372
0.1918257,0.9247635,0.3355585,0.0367239,0.02315919,-0.06442875,0.05511237,0.02822342,0.02987807
0.1911532,0.9332379,0.3395693,0.0353098,0.03105118,-0.05884823,0.06073683,0.02470458,0.02878128
0.1931306,0.9275521,0.3372358,0.03653042,0.02477911,-0.05959386,0.05959226,0.01948977,0.03065927
0.1965977,0.9249709,0.3295232,0.03922682,0.02160812,-0.06570297,0.05494547,0.02750995,0.0248798
0.2021394,0.922847,0.3232661,0.04398506,0.01889172,-0.07034311,0.05426988,0.02710446,0.01942566
0.2005559,0.9210875,0.3249917,0.04160632,0.01653769,-0.06698905,0.05031478,0.02336235,0.01051815
0.2007553,0.9212211,0.3310118,0.04099951,0.01607573,-0.05933084,0.05432993,0.02328081,0.007658816
0.2033053,0.920432,0.3270369,0.04273329,0.01469069,-0.06166,0.05401806,0.01835557,0.01210788
0.1993435,0.9231042,0.3286161,0.03794599,0.01676753,-0.0584291,0.05272916,0.01552402,0.01089702
0.1954358,0.9238321,0.3318468,0.03320436,0.01690132,-0.05354278,0.05604756,0.01275797,0.01214516
0.1958344,0.921624,0.3238914,0.03276175,0.01410126,-0.05984053,0.04939441,0.01896321,0.008969145
0.1909523,0.9207423,0.3214757,0.02703216,0.01263026,-0.06059829,0.04678538,0.03022858,0.002638213
0.1836476,0.9222389,0.3258894,0.01887515,0.01354091,-0.05452779,0.03560286,0.03285478,0.0009836983
0.1892851,0.9249528,0.3301855,0.02365675,0.015673,-0.04857756,0.02210599,0.03533907,-0.0009198253
0.1983705,0.9243973,0.3299728,0.03188421,0.01454026,-0.04714056,0.02585867,0.03265542,0.00173462
0.1990609,0.9247269,0.3290434,0.0317157,0.01429774,-0.04642631,0.02394335,0.02286793,0.002861397
0.1975153,0.9250261,0.3363435,0.02931103,0.01403043,-0.0374902,0.02994734,0.01521067,0.003681376
0.1949185,0.9208429,0.3396531,0.02585579,0.009286724,-0.03255426,0.04132651,0.007410584,0.00470544
0.1938501,0.9201008,0.3329397,0.02393058,0.007990472,-0.03765257,0.03057561,0.00295713,0.0002546584
0.1961004,0.9274788,0.3244179,0.02532643,0.01482145,-0.04457251,0.01805625,0.008213327,0.003158693
0.1985253,0.9355439,0.3214943,0.02690031,0.02234687,-0.04590855,0.01507122,0.01340612,0.007220243
0.2027294,0.9337813,0.3234033,0.03025735,0.02005205,-0.04242755,0.01012976,0.01296846,0.009100894
0.2049196,0.9304873,0.3235837,0.03160515,0.01623309,-0.04069145,0.005914947,0.02204101,0.0103994
0.2006911,0.9367633,0.3294388,0.02653923,0.02199136,-0.03329812,0.005184355,0.03671888,0.006445417
0.1951596,0.9446222,0.3427063,0.02017587,0.02933958,-0.01851069,0.003968366,0.04043084,0.01444866
0.1940815,0.9504504,0.3498846,0.01827205,0.03466378,-0.009832541,0.009179986,0.04189415,0.03041813
0.1990842,0.9445919,0.3337152,0.02245601,0.02830712,-0.02452367,0.01515375,0.0669864,0.04457909
0.2059093,0.9279146,0.3087778,0.02846985,0.01113714,-0.04800598,0.01222196,0.1298346,0.04964945
0.2078368,0.9204708,0.3156707,0.02959404,0.003206091,-0.03968154,0.01682471,0.1836334,0.03041737
0.2026809,0.9133318,0.3337266,0.02364295,-0.004414421,-0.02021799,0.02898421,0.1673885,0.007581828
0.1942485,0.9122458,0.3342958,0.0144238,-0.005975077,-0.0182656,0.03150844,0.0876093,-0.00271346
0.1896886,0.9281026,0.3267783,0.009086123,0.009414744,-0.0244251,0.01146646,0.01610542,0.0005785579
0.1934438,0.9330721,0.3122995,0.01207326,0.01392551,-0.03757196,-0.0192795,0.02608326,0.009328834
0.2035273,0.9300625,0.3121798,0.02139933,0.0104656,-0.03638572,-0.03030013,0.06578681,0.005741454
0.2104668,0.9307662,0.3177214,0.02759218,0.0107275,-0.02956435,-0.04033529,0.07189583,-0.002529323
0.2059961,0.929772,0.3136826,0.02238599,0.009299981,-0.03234931,-0.06332712,0.09485788,-0.01983578
0.1975913,0.9311715,0.3237396,0.01325669,0.01027462,-0.02106435,-0.07476433,0.1090089,-0.03321799
0.1957039,0.9283409,0.3242278,0.01065602,0.007027881,-0.01937418,-0.08252963,0.1015613,-0.01859777
0.192404,0.9271223,0.3240786,0.006654693,0.005401835,-0.01834782,-0.09041973,0.1238441,-0.006869162
0.1818479,0.9304841,0.3495999,-0.004590449,0.008364924,0.0083222,-0.08617526,0.09296634,-0.004801201
0.1755634,0.9303006,0.3590224,-0.01155048,0.007791623,0.01886563,-0.08347991,0.01817997,0.003651963
0.1802138,0.9309373,0.3536453,-0.007561095,0.008047435,0.01458012,-0.08609612,0.0003134699,0.01296415
0.1899668,0.9274147,0.3533547,0.001546569,0.004152956,0.01535003,-0.0862892,0.006102592,0.02295903
0.1944733,0.9205344,0.3536165,0.005424317,-0.003090226,0.01663984,-0.08486735,0.01076084,0.02541176
0.1930377,0.9103138,0.3540793,0.003376822,-0.01366435,0.01809687,-0.07035599,0.01703172,0.027208
0.1891025,0.9042622,0.3524622,-0.001152954,-0.02005945,0.01743905,-0.05102934,0.0579305,0.04457389
0.1742698,0.9201893,0.3613944,-0.0165627,-0.004464779,0.02729459,-0.05432033,0.105682,0.06920336
0.1636322,0.9319846,0.3681018,-0.02775898,0.007009817,0.03488819,-0.06300472,0.04876842,0.08493531
0.1906249,0.9159202,0.3630398,-0.001305414,-0.009363555,0.03067408,-0.06281465,-0.01086799,0.07886507
0.2285525,0.8931783,0.357202,0.03610295,-0.03240235,0.02564454,-0.07021117,0.02121861,0.05820048
0.2269347,0.8856111,0.3401191,0.03398516,-0.04025343,0.009329821,-0.07721906,0.06161096,0.03932734
0.2161109,0.8897615,0.3280209,0.02267919,-0.03637237,-0.002040542,-0.09474139,0.1306628,0.02735374
0.2252742,0.890667,0.3398324,0.03137641,-0.03572,0.010459,-0.1196029,0.2214483,0.009202136
0.2165405,0.8879945,0.3699472,0.02219159,-0.03862795,0.04122278,-0.0863072,0.22067,-0.01654014
0.1882843,0.8871444,0.4072135,-0.006501826,-0.03969473,0.0790984,-0.01058621,0.1338203,-0.003635308
0.1668947,0.8861838,0.4159069,-0.02831489,-0.04085181,0.08835969,0.04403215,0.006731871,0.04227488
0.1703929,0.8829338,0.3824793,-0.02522555,-0.04427701,0.05545614,0.06870316,-0.11301,0.06894286
0.194981,0.8786107,0.3462862,-0.00103048,-0.04875285,0.01974174,0.04418287,-0.1136553,0.07339452
0.2101768,0.8711726,0.338867,0.0137885,-0.05632008,0.01275554,0.01373036,-0.07228779,0.04049948
0.229787,0.8648096,0.3506003,0.03303787,-0.06278718,0.0248773,0.02835309,-0.09340823,-0.02366313
0.2345796,0.8670741,0.3636286,0.03748409,-0.06060022,0.03825052,0.04162587,-0.09561328,-0.07588191
0.1994603,0.8623217,0.3795996,0.002031416,-0.06540223,0.05452341,0.080883,-0.1792585,-0.09575295
0.1831346,0.8582466,0.4005226,-0.01461565,-0.06949757,0.07570514,0.17369,-0.4055471,-0.07101297
0.1912027,0.8850978,0.4017873,-0.006856701,-0.04263612,0.07718468,0.2457607,-0.5583176,-0.0476788
0.2030407,0.9196599,0.3875873,0.004684541,-0.008032773,0.06315437,0.288192,-0.5399842,-0.04145807
0.2254031,0.9294916,0.3803808,0.02676245,0.001870211,0.05607182,0.3290702,-0.4389939,-0.02869592
0.2506793,0.9274622,0.3479617,0.05176556,-5.982438e-05,0.02373076,0.3481873,-0.2711273,-0.05495381
0.2639596,0.9218876,0.3172308,0.06478197,-0.005509437,-0.00696666,0.347119,0.003997063,-0.09540458
0.2420953,0.9108399,0.3270037,0.04266043,-0.01640826,0.002797534,0.3949675,0.09349848,-0.1148168
0.2138128,0.9187323,0.3255148,0.01412503,-0.008344919,0.001260809,0.5152573,-0.09300804,-0.1588056
0.1995915,0.9409378,0.3163417,-0.0003460202,0.01405208,-0.007996303,0.6324662,-0.1405588,-0.2191319
0.1940119,0.9452035,0.299661,-0.006172163,0.01852746,-0.02479411,0.706408,-0.106149,-0.2657113
0.202087,0.9373781,0.2594098,0.001659963,0.01092757,-0.06519158,0.768154,-0.1033136,-0.2850446
0.1896043,0.913919,0.2419783,-0.01106149,-0.01229251,-0.08279382,0.8947303,-0.01232892,-0.2823384
0.1704651,0.8834175,0.2267695,-0.03043458,-0.0425431,-0.09819191,1.076806,-0.008853874,-0.2895112
0.1582763,0.8843627,0.1892668,-0.04285089,-0.04133527,-0.1358957,1.172969,-0.03040292,-0.3212906
0.1418878,0.9050679,0.1600491,-0.05945854,-0.02035555,-0.1653189,1.155672,-0.003617338,-0.3645325
0.1484294,0.9222321,0.1340515,-0.05312533,-0.002904949,-0.1915176,1.092325,-0.01356057,-0.3756676
0.1581841,0.9290535,0.1038674,-0.04356563,0.004213653,-0.2218891,1.017695,0.008961187,-0.3394002
0.1743906,0.9244291,0.08549622,-0.02753875,-0.0001040855,-0.2404239,0.9949397,0.0206916,-0.2696285
0.2074783,0.9274909,0.07713443,0.005385772,0.003272067,-0.2489149,1.048398,0.118316,-0.1613038
0.2306362,0.9467009,0.05108281,0.02839668,0.02280257,-0.2750509,1.055227,0.3876586,-0.05612169
0.2398526,0.9810885,0.03778534,0.03748079,0.05751451,-0.2883772,0.8546771,0.6242719,0.004964116
0.2020799,1.024147,0.09269117,-0.0004114833,0.1008976,-0.2334348,0.4840305,0.6460859,0.07500195
0.1435527,1.05236,0.1574883,-0.05904663,0.1294317,-0.1685275,0.1700837,0.4241022,0.1546137
0.1156563,1.051146,0.1577697,-0.08703855,0.1285277,-0.1680572,0.03447102,0.1521721,0.1833958
0.1025405,1.028266,0.1350992,-0.1002344,0.10594,-0.1904571,-0.01379467,0.009592054,0.2200204
0.1347665,0.989866,0.1206596,-0.06806968,0.06781012,-0.2045418,-0.03167468,0.02591762,0.2929478
0.2051355,0.9481303,0.08156969,0.002259552,0.02631871,-0.2431892,-0.02761309,0.1442373,0.3410965
0.2320931,0.9402863,0.06567477,0.02919917,0.01869171,-0.25855,-0.05485314,0.2566016,0.3673607
0.2039776,0.9677107,0.08945831,0.001085694,0.04630561,-0.2341364,-0.06823366,0.2919735,0.342994
0.1738022,1.002902,0.08458862,-0.02906943,0.08165858,-0.2382761,-0.07182823,0.1691907,0.2690544
0.1771623,1.041923,0.078222,-0.02567173,0.120811,-0.2438096,-0.07964401,0.01471459,0.1926207
0.2047433,1.078972,0.05575382,0.001963891,0.1579579,-0.2653389,-0.0295813,-0.03356946,0.07937491
0.2283302,1.123282,9.828559e-05,0.02562155,0.2023281,-0.3199464,-0.009279243,-0.1038794,-0.003871941
0.2180984,1.13903,-0.00483218,0.01547469,0.2180915,-0.3237156,-0.02490462,-0.1890432,0.0128427
0.2011817,1.068202,-0.004077918,-0.001344783,0.1472274,-0.321682,-0.04936593,-0.1625074,0.04789006
0.2207498,0.9972307,-0.0236679,0.018331,0.07616234,-0.3398699,-0.1689631,0.03870184,0.0611691
0.2267714,0.9878085,-0.01011085,0.02446915,0.0665883,-0.3247837,-0.3673279,0.3145053,0.04461771
0.2022231,0.9864785,3.435723e-05,4.444617e-05,0.06504839,-0.3129788,-0.5679774,0.3585532,0.02498481
0.1710239,0.9938228,0.03204635,-0.03102536,0.07212605,-0.2791743,-0.6098098,0.09124297,0.06169853
0.1379443,1.010023,0.08790852,-0.06396959,0.08800359,-0.2213863,-0.5320339,-0.1950861,0.1203217
0.1559483,1.021514,0.09151565,-0.04582301,0.09911784,-0.2157218,-0.5101028,-0.289393,0.1627599
0.186424,1.021457,0.08898345,-0.01519599,0.09863006,-0.2160688,-0.4606191,-0.3479282,0.1983829
0.1828512,0.9995569,0.1047565,-0.01860807,0.07624398,-0.1979869,-0.453559,-0.4250489,0.2314373
0.2237049,0.977215,0.09370699,0.02241552,0.0533631,-0.2066083,-0.545644,-0.3094715,0.2397552
0.2725872,0.9537431,0.09335058,0.07147514,0.02930092,-0.2044222,-0.5898483,-0.1317778,0.2021719
0.2644693,0.9492642,0.1156518,0.06353892,0.02418339,-0.1794691,-0.6130412,-0.1307078,0.1652715
0.2514892,0.9615626,0.1305434,0.05074114,0.03579864,-0.1618214,-0.6109733,-0.1752175,0.1532195
0.2493688,0.9486985,0.1468416,0.04879992,0.02221045,-0.1426692,-0.5991166,-0.1697325,0.151687
0.252872,0.9378762,0.1645182,0.05247635,0.01062666,-0.1220479,-0.6172641,-0.1749885,0.1626767
0.2639666,0.9249029,0.1935901,0.06373542,-0.003141459,-0.0899485,-0.5777405,-0.1954258,0.1583275
0.2708776,0.9069796,0.2199146,0.0707994,-0.02188865,-0.06052241,-0.5217011,-0.241283,0.1427169
0.2771765,0.9073392,0.2190867,0.07723659,-0.02237686,-0.05818462,-0.468822,-0.2753717,0.1305293
0.2856685,0.9022536,0.2262412,0.0858493,-0.0283293,-0.04781036,-0.3997012,-0.251042,0.1100043
0.3025566,0.9101424,0.2316866,0.1028369,-0.02132121,-0.03910129,-0.3594263,-0.206885,0.09241959
0.3186388,0.9179001,0.2304892,0.1189941,-0.01445343,-0.03700074,-0.3075893,-0.1307966,0.06708456
0.3161481,0.8862328,0.2491395,0.1165494,-0.04701573,-0.01502797,-0.2544944,-0.0354112,0.03612141
0.3092268,0.8524292,0.2553242,0.1096416,-0.08171467,-0.00550589,-0.2049037,0.02337824,0.00776922
0.3024538,0.8447989,0.2521194,0.102846,-0.09023492,-0.00536795,-0.1304424,0.04605009,-0.01741122
0.2908994,0.8575754,0.2511737,0.09122996,-0.07833688,-0.002974757,-0.06191283,0.008771508,-0.02257018
0.2871243,0.8727674,0.2386238,0.08735229,-0.06400613,-0.01219807,0.000239971,-0.04400654,-0.02770601
0.2870318,0.8888922,0.2272184,0.08711476,-0.04872049,-0.02029713,0.02406181,-0.043361,-0.03509985
0.2892807,0.9071441,0.2210265,0.08917524,-0.03128217,-0.02320958,0.0318212,-0.04016269,-0.04980402
0.2983048,0.9204907,0.2201472,0.09796647,-0.01872107,-0.02084241,0.05978899,-0.04546161,-0.07067396
0.2913522,0.9427258,0.2070625,0.09073584,0.002758016,-0.0307188,0.06690431,-0.03283719,-0.06445614
0.2786934,0.9481867,0.1901326,0.07775287,0.007492672,-0.04448323,0.0737942,-0.01890447,-0.0537447
0.2832888,0.9357429,0.1899016,0.081978,-0.005647641,-0.04159527,0.06239636,0.01171351,-0.0428935
0.2851899,0.9336645,0.1800586,0.08346288,-0.008393264,-0.04836878,0.02968368,0.06590005,-0.04684449
0.2841364,0.9249256,0.1771332,0.08194734,-0.01776999,-0.04827669,0.01648696,0.08998682,-0.07336317
0.2807995,0.9320092,0.187398,0.07810288,-0.01129458,-0.03504853,-0.00610297,0.04852496,-0.07121255
0.2713276,0.9526358,0.1857397,0.06807879,0.008753602,-0.03379949,-0.03018666,0.001325956,-0.06067553
0.276644,0.9579492,0.1862259,0.07279903,0.0135177,-0.03046424,-0.05373074,0.004621472,-0.05313387
0.2843637,0.9685574,0.1804509,0.07987973,0.0236048,-0.03345014,-0.07497399,0.03049868,-0.05018089
0.2834139,0.968868,0.1700102,0.07824914,0.0234207,-0.04116342,-0.08280316,0.0641603,-0.05891637
0.2796707,0.958789,0.1757007,0.07378422,0.01287197,-0.03280822,-0.1059187,0.08553182,-0.04796847
0.2656972,0.9541788,0.185763,0.05904912,0.007815482,-0.02014501,-0.121279,0.07086015,-0.04739128
0.2590679,0.9373901,0.1926137,0.05162005,-0.009396982,-0.01075812,-0.129554,0.04934815,-0.04555662
0.2670214,0.9255247,0.1927332,0.05873745,-0.02166406,-0.008168807,-0.1446745,0.02844621,-0.02737044
0.275343,0.9264477,0.19028,0.06618855,-0.0211204,-0.008219733,-0.1431736,0.02251179,-0.03349883
0.28182,0.9326652,0.1961644,0.07176248,-0.01525961,-2.017162e-06,-0.1407775,0.03510626,-0.03583003
0.2817643,0.9427817,0.2015974,0.07077236,-0.005476938,0.007694263,-0.1296538,0.02998911,-0.03743622
0.2809687,0.9380413,0.2032682,0.0690123,-0.01052835,0.01155689,-0.1088545,0.03229278,-0.04653057
0.2839957,0.9290331,0.2047586,0.0710459,-0.01982508,0.01516642,-0.1027322,0.05175987,-0.0454607
0.284383,0.922068,0.2076602,0.07041202,-0.02705631,0.02011321,-0.09134739,0.06013978,-0.0685107
0.2883087,0.9047653,0.2163428,0.07329002,-0.04460227,0.03076591,-0.08093168,0.06101201,-0.1107008
0.2931118,0.9003364,0.2209493,0.07701997,-0.04925076,0.03726615,-0.08044275,0.05682524,-0.1497369
0.2869368,0.9147971,0.2189745,0.0697472,-0.03498498,0.03710737,-0.06614043,0.06598485,-0.1802926
0.2754421,0.926706,0.2160348,0.0571314,-0.02324541,0.0359049,-0.05565307,0.08572802,-0.1870605
0.2669557,0.9329636,0.2078145,0.04750189,-0.0171314,0.029342,-0.05931841,0.1009419,-0.1788204
0.2613189,0.9356884,0.2059017,0.04070217,-0.01452484,0.0290064,-0.05527151,0.1175871,-0.1714412
0.2555015,0.9411744,0.2086058,0.03370417,-0.009132508,0.03320743,-0.0509896,0.1117775,-0.1680115
0.2448116,0.9483511,0.2063715,0.02181877,-0.002025716,0.03238997,-0.05149387,0.0949302,-0.15195
0.231829,0.9467814,0.2167437,0.007628635,-0.00364281,0.04409907,-0.04961816,0.06845617,-0.1175232
0.2228057,0.9463487,0.225102,-0.002610811,-0.004101711,0.05371437,-0.04920626,-0.003283032,-0.0896267
0.2240857,0.9547452,0.2067893,-0.002551752,0.004288475,0.03657893,-0.0487254,-0.07141837,-0.07235762
0.2338405,0.9600838,0.1899468,0.005980952,0.009639077,0.02083422,-0.05731074,-0.08811273,-0.05316869
0.2346794,0.9580749,0.1985519,0.005599971,0.007658974,0.03045877,-0.07896347,-0.0648583,-0.03347852
0.2320317,0.9546107,0.2113937,0.00173747,0.004238567,0.0442432,-0.09042871,-0.04148437,-0.01914895
0.236824,0.9492174,0.2146167,0.005322872,-0.001097308,0.04833294,-0.08122728,-0.04730526,-8.636305e-05
0.2387924,0.9466941,0.2201224,0.006094815,-0.003550903,0.05463046,-0.06441332,-0.05468942,0.03931375
0.2436888,0.9604862,0.227518,0.009807443,0.01032211,0.06274337,-0.04938957,-0.088808,0.07930728
0.2481042,0.971818,0.2317185,0.01305359,0.02174478,0.06758719,-0.04118157,-0.1569639,0.0949031
0.2472559,0.9515741,0.2176707,0.01105208,0.001600039,0.05410907,-0.04957941,-0.1684324,0.09968956
0.2574694,0.9309603,0.1893182,0.02012987,-0.01890738,0.02625355,-0.06337336,-0.1150626,0.09828759
0.2689988,0.937419,0.1905095,0.03054201,-0.01233586,0.02787079,-0.07481921,-0.05859121,0.07650178
0.271101,0.9281962,0.2039582,0.03154585,-0.02143932,0.04167673,-0.09971522,-0.03714751,0.03873745
0.2732961,0.9019986,0.2018836,0.03266146,-0.04751086,0.03989292,-0.1147663,-0.05497328,-0.001458485
0.2759486,0.9066891,0.2040172,0.03425338,-0.04268662,0.0422529,-0.1012509,-0.06710811,-0.02105335
0.2765796,0.9249504,0.2021495,0.03384256,-0.0242828,0.04054907,-0.08337779,-0.05955881,-0.01990742
0.2793962,0.933835,0.1998486,0.03563576,-0.01524624,0.03835156,-0.06744939,-0.04919132,-0.02625432
0.2810062,0.9396678,0.2019125,0.03624048,-0.009252079,0.0404603,-0.05740901,-0.02040187,-0.02909573
0.2765788,0.9321636,0.2018645,0.03082554,-0.01658592,0.04040075,-0.05154265,0.01827586,-0.02427778
0.2749105,0.9220098,0.2114298,0.02818708,-0.02656064,0.0499001,-0.03997499,0.03138459,-0.03002239
0.271721,0.9172083,0.2165265,0.02404474,-0.03117432,0.05487822,-0.03698394,0.02116372,-0.03292979
0.2681646,0.9159834,0.2201058,0.01955276,-0.03220258,0.05828782,-0.03159888,0.01218131,-0.03550992
0.2711906,0.9265434,0.2285467,0.0216607,-0.02143653,0.0665091,-0.007288765,0.01568142,-0.04060997
0.2686875,0.9362879,0.2204522,0.01825721,-0.0114767,0.05814609,0.003768726,0.01905732,-0.02925276
0.2697599,0.9445863,0.210322,0.01844696,-0.002953958,0.04769979,-0.007845245,0.01793679,-0.01596602
0.272777,0.9459186,0.2104262,0.02059934,-0.001389191,0.04744169,-0.01269544,0.02282993,-0.01742902
0.2698843,0.9363209,0.2092499,0.01686,-0.01074739,0.04585889,-0.006428933,0.02128018,-0.0230318
0.2755482,0.9385781,0.208806,0.02169524,-0.008244289,0.04496612,0.002008704,0.01749528,-0.02884623
0.279499,0.9386831,0.21006,0.02483536,-0.007887936,0.04573083,0.006855799,0.01969931,-0.03581722
0.2786178,0.9372934,0.2068943,0.02316114,-0.009021303,0.04203741,-0.005056415,0.01650135,-0.03732877
0.2767494,0.9450688,0.2025441,0.02051721,-0.0009853854,0.03712295,-0.02810565,0.01610023,-0.03692018
0.2712376,0.9430422,0.2017247,0.01424707,-0.00274794,0.03570504,-0.03843837,0.01631642,-0.03987327
0.2712085,0.9452315,0.1995441,0.0134766,-0.0002919866,0.03289391,-0.03787328,0.02282148,-0.04111032
0.2706836,0.9491829,0.2008639,0.01222758,0.003927828,0.0335533,-0.04286461,0.03606124,-0.04687907
0.269396,0.9448537,0.2063809,0.01023296,-0.0001320638,0.03838226,-0.04864743,0.02945345,-0.05262923
0.27013,0.9435282,0.2068472,0.01027729,-0.001188356,0.038135,-0.04966089,0.01764712,-0.04916148
0.2695572,0.9349788,0.2045859,0.009032251,-0.009469243,0.03513654,-0.05033432,0.01510012,-0.05256497
0.2711071,0.9276207,0.2021889,0.009927377,-0.01655982,0.03198041,-0.05169764,0.02147804,-0.05933062
0.2675319,0.9318883,0.2051297,0.005714907,-0.01202586,0.03414226,-0.0564002,0.03339835,-0.06156174
0.261258,0.9396785,0.209875,-0.001178557,-0.00397047,0.03809054,-0.06030585,0.02406952,-0.06866278
0.2586708,0.9450992,0.2079884,-0.00436737,0.00171403,0.03539048,-0.05203547,0.007035968,-0.07161606
0.2580015,0.9422188,0.2065928,-0.005619948,-0.0009043753,0.03316662,-0.0446152,-0.001105157,-0.06975504
0.2614689,0.9395705,0.2017355,-0.002716896,-0.003293144,0.02746769,-0.05917553,-0.00921686,-0.07135123
0.2635663,0.9407603,0.1945328,-0.001164646,-0.001846739,0.01941185,-0.07267889,-0.007683502,-0.07120631
0.2633201,0.942164,0.197576,-0.001936582,-0.0001896973,0.02159235,-0.0659284,-0.01592618,-0.07067377
0.2647118,0.9430475,0.2032718,-0.001051,0.0009436074,0.02641775,-0.06482484,-0.04279262,-0.07019809
0.2679004,0.9403954,0.204057,0.001651123,-0.001462871,0.02632659,-0.06985163,-0.05895768,-0.06562693
0.2723529,0.9381569,0.2019245,0.005636558,-0.0034602,0.02331323,-0.06472819,-0.05936051,-0.06095039
0.2725081,0.9394086,0.199358,0.005343833,-0.001971855,0.01986296,-0.06291195,-0.0303142,-0.05967773
0.2679759,0.9411069,0.2027689,0.0003825642,-4.190567e-05,0.02238849,-0.06776668,0.01878662,-0.05865569
0.2615454,0.9391897,0.2092422,-0.006458559,-0.001732428,0.02797637,-0.06917162,0.0316178,-0.05724858
0.2556215,0.9380857,0.2116849,-0.01277469,-0.002614976,0.02953472,-0.0678289,0.01400577,-0.05614774
0.2535758,0.939734,0.2143544,-0.015194,-0.0007506843,0.03132178,-0.06378197,0.0004875138,-0.04908818
0.2526687,0.9396123,0.2174444,-0.01645571,-0.0006618752,0.0335319,-0.05629806,-0.02032329,-0.03822597
0.2524246,0.9421611,0.2181272,-0.01703494,0.002091759,0.03333806,-0.04910574,-0.04137913,-0.03219365
0.2540895,0.9458975,0.2186086,-0.01568558,0.006027216,0.03294642,-0.04506564,-0.04692062,-0.02504973
0.2544569,0.9477873,0.217687,-0.01561358,0.00810981,0.0311558,-0.04287482,-0.05517387,-0.01677077
0.255202,0.9463451,0.2164363,-0.01514379,0.006853845,0.02904072,-0.04150763,-0.05748236,-0.01780704
0.2607192,0.9382453,0.211317,-0.009881559,-0.001066689,0.02306195,-0.04161455,-0.03689018,-0.02199491
0.2668449,0.9326257,0.2032872,-0.003990867,-0.006514138,0.01417843,-0.03842271,-0.021061,-0.02576807
0.267126,0.9344472,0.2046833,-0.00392506,-0.004527243,0.01472738,-0.03556189,-0.02104493,-0.03422311
0.2657111,0.9376957,0.2070952,-0.005536197,-0.001120094,0.01629981,-0.04232195,-0.01778201,-0.03592369
0.2669878,0.9377399,0.2034267,-0.004437309,-0.0009235723,0.01180046,-0.04980081,-0.00625817,-0.03113453
0.2658359,0.9370717,0.20288,-0.005749156,-0.001445759,0.01043252,-0.0511462,-0.0005353205,-0.03324609
0.2632876,0.9380068,0.202254,-0.008440118,-0.0003708109,0.008995832,-0.05298423,-0.003888588,-0.03416234
0.263344,0.9371688,0.2019834,-0.008509674,-0.001075008,0.007925952,-0.05775735,0.002922816,-0.03260894
0.2629013,0.9374615,0.2064738,-0.009061849,-0.000654432,0.01162949,-0.06093416,0.01359283,-0.03430708
0.2628126,0.9370011,0.2102389,-0.009244236,-0.0009928199,0.01462069,-0.0607558,0.0155674,-0.03261369
0.2616324,0.9323121,0.2138599,-0.01050262,-0.005565362,0.01748152,-0.05905829,0.01490878,-0.0314125
0.2573951,0.9289069,0.2202221,-0.014803,-0.008859557,0.02309734,-0.04776718,0.006812523,-0.03071535
0.2536685,0.9296526,0.2248361,-0.0185778,-0.008007841,0.02697875,-0.03015601,-0.006522038,-0.02681399
0.2510196,0.9342543,0.2227077,-0.02126017,-0.003304569,0.02413136,-0.0240901,-0.01967545,-0.02502667
0.256019,0.9352046,0.2155546,-0.0162796,-0.00225684,0.01627264,-0.02572256,-0.02296664,-0.02153317
0.2655282,0.9314256,0.2100472,-0.006774524,-0.005942426,0.01007285,-0.02395483,-0.01171185,-0.0148581
0.2661725,0.9300304,0.2089503,-0.006120149,-0.007247842,0.008297061,-0.01994535,0.001282126,-0.01050156
0.2638091,0.930504,0.2106048,-0.008459902,-0.006687754,0.009286447,-0.01596372,0.02092197,-0.01430991
0.2637734,0.9328697,0.2127826,-0.008459108,-0.004238561,0.0108134,-0.01308569,0.03056403,-0.02188071
0.2638853,0.9347281,0.2132671,-0.008298485,-0.002299417,0.01066147,-0.01186341,0.01392229,-0.02082899
0.2651109,0.9375379,0.2116923,-0.00701248,0.0005885597,0.00846479,-0.01158521,0.005255494,-0.02007023
0.2653368,0.9418837,0.2100968,-0.006715143,0.005009896,0.006262148,-0.01751682,0.01293873,-0.0239112
0.2653521,0.9405626,0.2083436,-0.006618044,0.003761661,0.003916814,-0.03021581,0.02819942,-0.0263201
0.2649546,0.9390046,0.2077377,-0.006923898,0.00227355,0.002733967,-0.03610246,0.05227214,-0.03176101
0.2631036,0.9389347,0.211507,-0.008674079,0.002270551,0.005941784,-0.03693344,0.06169489,-0.03271989
0.2611579,0.9357707,0.2131099,-0.01051036,-0.0008297459,0.006998955,-0.03879062,0.05276312,-0.02835103
0.2593675,0.9345361,0.2116696,-0.01218317,-0.002003668,0.005028592,-0.0363421,0.04520331,-0.02695707
0.2588695,0.9353443,0.2139725,-0.0125556,-0.00113786,0.006817142,-0.0330822,0.03903174,-0.02405448
0.2579435,0.936298,0.2169658,-0.01334849,-0.0001293632,0.009311685,-0.02895621,0.03793667,-0.01939903
0.2571123,0.9380458,0.2203037,-0.01403929,0.00167043,0.01216643,-0.02523138,0.04197433,-0.0135038
0.257535,0.9378793,0.2206585,-0.01346903,0.001553131,0.01205304,-0.02169884,0.03721153,-0.01005791
0.258299,0.936728,0.2173636,-0.01255049,0.0004483206,0.008304758,-0.01403642,0.03299012,-0.01324647
0.2604727,0.9370536,0.2170527,-0.0102157,0.0008176665,0.007554845,-0.01148638,0.03036211,-0.01318738
0.2602802,0.9368938,0.2131154,-0.01024078,0.0006988991,0.003192705,-0.01082722,0.02290463,-0.009714192
0.2599777,0.937449,0.2114977,-0.01036995,0.001292488,0.001164055,-0.01098429,0.03188562,-0.009425796
0.2630508,0.9388848,0.2183308,-0.007117998,0.002763997,0.007600176,-0.0175291,0.04126908,-0.0103411
0.2636656,0.9372912,0.2204795,-0.00631918,0.001203534,0.009365624,-0.01701869,0.0276677,-0.0123297
0.263761,0.9345941,0.2185906,-0.006035163,-0.00146297,0.007106898,-0.01091233,0.01778279,-0.01260115
0.2645262,0.9333484,0.2147763,-0.005077368,-0.002680639,0.002935855,-0.007413815,0.02046103,-0.01167155
0.2643471,0.9374633,0.2111009,-0.005060327,0.001459959,-0.001083372,-0.00568328,0.02556814,-0.01459847
0.2657231,0.9462096,0.21341,-0.003485206,0.0102297,0.0008945407,-0.006269568,0.03138628,-0.01857228
0.2653234,0.948465,0.2143449,-0.003683325,0.01250604,0.001511002,-0.004616299,0.03779461,-0.02105167
0.2637122,0.945086,0.2118307,-0.005091063,0.009145212,-0.001309005,-0.007693825,0.04994436,-0.01988605
0.263116,0.9436251,0.210442,-0.005482293,0.007699298,-0.002990882,-0.01689902,0.06101373,-0.01662762
0.2619894,0.9426315,0.2119334,-0.006402907,0.006717202,-0.001780178,-0.02070512,0.06210067,-0.01767681
0.2624946,0.9360386,0.21604,-0.005690945,0.0001321862,0.002058237,-0.02002581,0.05959081,-0.02297801
0.2628297,0.927376,0.2190012,-0.005148683,-0.008526095,0.004763636,-0.01772623,0.05669672,-0.02907549
0.2621432,0.9299054,0.2187345,-0.005628057,-0.005995311,0.004252949,-0.0165711,0.0493743,-0.0270515
0.2626935,0.9358041,0.2173327,-0.004870769,-9.789069e-05,0.002618822,-0.01376227,0.04256422,-0.01798102
0.2625119,0.9377525,0.2191618,-0.004845785,0.00184705,0.004226677,-0.008422727,0.04215511,-0.01321463
0.2623471,0.9436431,0.2202255,-0.004804839,0.007731999,0.005079967,-0.01130893,0.04299711,-0.01061942
0.2623329,0.9438425,0.2194997,-0.004614403,0.007923637,0.00415401,-0.01816533,0.04120599,-0.01145719
0.2605752,0.9411038,0.2233386,-0.006168559,0.005174842,0.007802681,-0.01791224,0.03889957,-0.01307613
0.2588638,0.9436303,0.2250748,-0.00767795,0.007688765,0.009358036,-0.0137485,0.0370756,-0.009130847
0.257766,0.9380829,0.2197307,-0.008575262,0.002126192,0.003841792,-0.01463893,0.03078616,-0.008979987
0.257078,0.9320171,0.2141059,-0.009064341,-0.003957325,-0.00194681,-0.01504722,0.02356418,-0.01052859
0.2587647,0.9335283,0.2139277,-0.007180244,-0.002466191,-0.002280729,-0.0109665,0.02397687,-0.009622239
0.2625063,0.9332735,0.2159309,-0.003242821,-0.002743029,-0.0004251877,-0.009449243,0.02457248,-0.007480226
0.264368,0.9342834,0.2161638,-0.00118704,-0.001756858,-0.0003321144,-0.001156829,0.02224211,-0.001830167
0.2649568,0.938066,0.2173453,-0.0004062367,0.00200074,0.0007172463,0.006374462,0.02290927,0.000932498
0.267478,0.9420536,0.2151654,0.002304665,0.005962079,-0.001587222,0.003974321,0.03204949,0.002643518
0.2683531,0.9418264,0.2115186,0.003366696,0.005707344,-0.005351211,0.006409744,0.05084774,0.0006255327
0.2657576,0.9378183,0.2112532,0.0009549946,0.001670473,-0.005726612,0.002860377,0.05967287,-0.007194841
0.2625045,0.9387739,0.2099892,-0.002117827,0.002595939,-0.00709307,-0.005050332,0.04884902,-0.008068456
0.2600223,0.9385354,0.2095951,-0.004423553,0.002325972,-0.007582352,-0.001936176,0.03777309,-0.01034427
0.2593924,0.9364701,0.2072149,-0.00488075,0.0002280089,-0.01005005,-0.001256131,0.0322509,-0.016
0.2596788,0.9385454,0.2066529,-0.004425431,0.002269514,-0.01069199,-0.006283665,0.02575964,-0.01629571
0.2598512,0.9408466,0.2135078,-0.004087908,0.004535866,-0.003909096,-0.009225624,0.02939032,-0.01728348
0.2597288,0.9458181,0.2159316,-0.004048827,0.009471465,-0.00154949,-0.01161134,0.03614162,-0.01416655
0.2595735,0.9484577,0.2128984,-0.004046294,0.01207386,-0.004639269,-0.01677303,0.02419127,-0.01015677
0.2602524,0.9434705,0.2098485,-0.003213082,0.007047987,-0.007738371,-0.01798649,0.01178219,-0.01012073
0.2614279,0.9388984,0.2105746,-0.001886959,0.002435306,-0.007054194,-0.01382049,0.01194478,-0.007712389
0.2629905,0.9364383,0.2126727,-0.0001773288,-6.709249e-05,-0.004990628,-0.01380313,0.01163822,-0.008430127
0.2626893,0.9355904,0.2109529,-0.0003352454,-0.0009588687,-0.006737955,-0.01004676,0.01274353,-0.007002555
0.2610194,0.9362478,0.2132645,-0.001865642,-0.0003468804,-0.004446795,-0.003517761,0.01421894,-0.003340886
0.2613316,0.9360138,0.2150861,-0.001417683,-0.0006273266,-0.002638927,-0.002520282,0.01527593,-0.006281795
0.2623282,0.9351422,0.2145828,-0.0002892868,-0.001546314,-0.003149257,-0.001454611,0.01662954,-0.007618503
0.264095,0.934615,0.2160729,0.001605439,-0.002121606,-0.001659991,-0.003888711,0.01482063,-0.007444763
0.2645526,0.9361104,0.2133455,0.002186922,-0.0006745609,-0.004382366,-0.007080243,0.01683318,-0.006454648
0.2624486,0.9390456,0.2144615,0.0002027097,0.002211997,-0.003255642,-0.00895792,0.01908706,-0.005958995
0.2628429,0.9401914,0.2180807,0.0007125755,0.003309138,0.0003796305,-0.01298706,0.0185492,-0.01242163
0.2630587,0.938408,0.2164606,0.001039604,0.001477063,-0.001219267,-0.0114295,0.02103402,-0.01687743
0.2617674,0.9364897,0.2164583,-0.0001446361,-0.0004899287,-0.001195793,-0.007203452,0.02436015,-0.01550542
0.2624423,0.9362744,0.2168048,0.0006328949,-0.0007538574,-0.0008192584,-0.002888742,0.02599457,-0.01274238
0.2609195,0.9368891,0.2161017,-0.0007914677,-0.0001875543,-0.00148834,0.002679732,0.01954729,-0.01164512
0.2587323,0.9387911,0.2140493,-0.002884473,0.001666487,-0.003503085,0.003114792,0.01130564,-0.01063258
