accx,accy,accz,body_accx,body_accy,body_accz,body_gyrox,body_gyroy,body_gyroz
-0.3061294,0.4212943,0.7951628,-0.262638,-0.4010962,0.1864971,-0.7307456,0.05739534,-0.4427629
-0.3068351,0.4122584,0.8075554,-0.2612594,-0.4096912,0.1980759,-0.6627977,0.06724919,-0.4536888
-0.3145757,0.4065839,0.8227302,-0.2668262,-0.4148137,0.2123771,-0.6130653,0.04941226,-0.4499334
-0.335453,0.4017748,0.8668908,-0.2854389,-0.4189483,0.2555999,-0.5278547,0.03995948,-0.4319097
-0.3692824,0.3896281,0.8993922,-0.316911,-0.4302871,0.2870946,-0.4398155,0.009682826,-0.401972
-0.3868658,0.3810076,0.8952279,-0.3320424,-0.4379562,0.2818485,-0.4079546,-0.01082389,-0.3798754
-0.3756925,0.3821247,0.8784062,-0.3183194,-0.4357349,0.2638643,-0.4336883,-0.000799632,-0.3890859
-0.3652781,0.3823428,0.8729755,-0.305255,-0.4342515,0.257185,-0.4824299,-0.009571709,-0.3853299
-0.3597162,0.3852838,0.8775101,-0.2969413,-0.4298769,0.2603812,-0.5168456,-0.01491497,-0.3593392
-0.3510629,0.3856461,0.8802573,-0.2854338,-0.4279063,0.261697,-0.5377269,-0.009161504,-0.3256094
-0.3592741,0.3733641,0.8834684,-0.2906885,-0.4384004,0.2633808,-0.5296933,-0.002853713,-0.2870956
-0.3728256,0.3499816,0.8800484,-0.3011816,-0.4598108,0.2583353,-0.4919664,0.01311423,-0.2682593
-0.3720578,0.3224199,0.8771675,-0.2972543,-0.4852115,0.2537288,-0.451713,0.03761541,-0.2578548
-0.3716807,0.3048477,0.8810493,-0.2936169,-0.5004294,0.2557837,-0.4135608,0.06125501,-0.2350118
-0.368787,0.301673,0.8791714,-0.2873635,-0.5010513,0.2519768,-0.4086534,0.05677524,-0.2111594
-0.3634358,0.3042426,0.8823727,-0.2785543,-0.4957265,0.2531466,-0.4122515,0.04475388,-0.1969843
-0.3619735,0.3033044,0.8895445,-0.2735379,-0.4937034,0.2581842,-0.408372,0.05047511,-0.1942596
-0.3603869,0.2984855,0.8942662,-0.2683036,-0.4953525,0.2606692,-0.4343695,0.04429577,-0.1914111
-0.3650093,0.2917801,0.8961055,-0.2691873,-0.4986777,0.2601695,-0.4554685,0.03716414,-0.1823903
-0.3668926,0.2749727,0.8923097,-0.2672439,-0.5118934,0.2539328,-0.4930667,0.0420486,-0.1722703
-0.3684823,0.2546043,0.8952643,-0.264922,-0.5284577,0.2543456,-0.5435096,0.04014667,-0.1622057
-0.3791636,0.2382677,0.8957128,-0.2716098,-0.5407768,0.2521523,-0.5503709,0.05140476,-0.1555385
-0.3895634,0.2160693,0.8952546,-0.2779373,-0.5587431,0.2489538,-0.5546547,0.06387547,-0.1415372
-0.3997407,0.1995504,0.9042913,-0.283966,-0.5708141,0.2551535,-0.5349632,0.04599179,-0.1145799
-0.3970171,0.1920913,0.9067854,-0.2770201,-0.5736083,0.2547155,-0.5018096,0.03525956,-0.09135028
-0.3844546,0.1767649,0.9072335,-0.2601643,-0.5840518,0.2521383,-0.5222591,0.0505258,-0.07190108
-0.3833531,0.1603432,0.9092349,-0.2547012,-0.5953719,0.2510233,-0.5373835,0.05990643,-0.05523593
-0.3950433,0.1389509,0.9147859,-0.2619654,-0.6114433,0.2533687,-0.5351996,0.04882151,-0.06009698
-0.4162269,0.108679,0.9228251,-0.2786616,-0.6361743,0.2581154,-0.5432832,0.03610354,-0.07572587
-0.421376,0.08727318,0.9124817,-0.2792649,-0.651818,0.2443949,-0.5335898,0.03129422,-0.06940568
-0.411344,0.0707358,0.9019066,-0.264631,-0.6623709,0.2303605,-0.51217,0.01492917,-0.04832363
-0.4092408,0.05342015,0.9076477,-0.2578727,-0.6734783,0.2325633,-0.4782073,0.002395997,-0.01288251
-0.3975265,0.03521762,0.9085616,-0.2414531,-0.6852475,0.2298633,-0.4265564,0.01508077,0.03265265
-0.3817139,0.01823409,0.9055668,-0.2208887,-0.6955716,0.2231825,-0.3747666,0.0261609,0.03421604
-0.3773811,0.007382343,0.9082695,-0.2117622,-0.6995369,0.2221306,-0.3337466,0.01890622,0.0155747
-0.3801675,-0.00630576,0.9089738,-0.2097177,-0.7061109,0.2190156,-0.3208998,0.008930309,0.01611828
-0.3926588,-0.0137238,0.9063479,-0.2173459,-0.7061869,0.2125095,-0.31211,-0.0002054309,0.008937843
-0.399705,-0.01746047,0.9041319,-0.2195015,-0.7023538,0.2063563,-0.2535373,-0.01686826,0.02728276
-0.3942064,-0.02512508,0.8982953,-0.2090889,-0.7022219,0.1965295,-0.1845705,-0.02083979,0.06702933
-0.3876213,-0.02031948,0.8960693,-0.1975705,-0.6893947,0.1902649,-0.1765177,-0.01151541,0.07418784
-0.3882818,-0.01779211,0.9079665,-0.193283,-0.6786231,0.1980794,-0.1888972,-0.0135032,0.07373791
-0.4008785,-0.01941056,0.9216898,-0.2009213,-0.671778,0.2076802,-0.1751828,-0.02116699,0.08902788
-0.4151071,-0.02196577,0.9269901,-0.2101851,-0.6656547,0.208822,-0.1685358,-0.03235525,0.1188805
-0.4186759,-0.034095,0.9292889,-0.2087863,-0.6688951,0.2069297,-0.1718194,-0.03374093,0.1471702
-0.4080184,-0.03168203,0.9243211,-0.1931616,-0.6573883,0.1977412,-0.1672394,-0.01524941,0.1483441
-0.3983248,-0.03125513,0.9122927,-0.1785044,-0.6476681,0.1814659,-0.1616427,-0.005268809,0.1401354
-0.400038,-0.04619754,0.9132129,-0.1752612,-0.6531239,0.1781168,-0.1514033,-0.01288912,0.1328361
-0.3994037,-0.05094025,0.9137575,-0.1696816,-0.6481932,0.1743735,-0.1417519,-0.02150631,0.1186628
-0.3962549,-0.051372,0.8918701,-0.1616026,-0.6387713,0.1481839,-0.1429449,-0.01149368,0.1149298
-0.3949965,-0.04934482,0.8772394,-0.1554328,-0.626717,0.1292412,-0.1548167,0.0148839,0.1307194
-0.4043044,-0.05057858,0.8827236,-0.159852,-0.6177576,0.1304089,-0.1655928,0.0383155,0.1549693
-0.4307335,-0.05910818,0.8858688,-0.1814184,-0.6159359,0.1292382,-0.1574142,0.03029536,0.1723613
-0.4454105,-0.07334,0.8816516,-0.1912614,-0.619666,0.120711,-0.1319768,-0.0297987,0.1537881
-0.4313647,-0.1043022,0.8837262,-0.1724121,-0.6399839,0.1184864,-0.07418209,-0.07841901,0.1229782
-0.4155134,-0.1193237,0.9021685,-0.1517895,-0.6442253,0.132645,-0.004644022,-0.07104058,0.1298049
-0.4151937,-0.1083745,0.9166182,-0.1467329,-0.6223669,0.1428305,-0.004396232,-0.06388444,0.1196912
-0.4100798,-0.1075474,0.907682,-0.1369193,-0.6105081,0.129653,-0.03118271,-0.07248446,0.07883611
-0.406213,-0.1114725,0.8967518,-0.1283929,-0.6032861,0.1145073,-0.009871018,-0.06803266,0.07284501
-0.4182984,-0.1082418,0.9022521,-0.1358616,-0.5888005,0.1158214,-0.003431031,-0.06782716,0.07695453
-0.420371,-0.106142,0.9057083,-0.1333632,-0.5753461,0.1151238,-0.01633844,-0.07940491,0.07674688
-0.4197795,-0.104853,0.9054329,-0.1282485,-0.5626108,0.1107302,-0.01928426,-0.08357888,0.08836826
-0.422794,-0.09989763,0.9099594,-0.1267899,-0.5461263,0.1111769,-0.043437,-0.09446365,0.09506015
-0.4151477,-0.09774163,0.9047797,-0.1147227,-0.5323673,0.1019586,-0.04556728,-0.09969598,0.1013524
-0.411995,-0.1027287,0.902956,-0.1072033,-0.5256865,0.09614,-0.05989309,-0.08123727,0.08880651
-0.4052803,-0.1060957,0.9025629,-0.0961786,-0.5173305,0.09179834,-0.1488113,-0.06237731,0.05600292
-0.3998913,-0.1080283,0.8941654,-0.08653849,-0.5074938,0.07950124,-0.2143543,-0.0378695,0.03629622
-0.4073093,-0.1136663,0.8967378,-0.08976706,-0.5013254,0.07822575,-0.2286664,-0.02994958,0.02377108
-0.407379,-0.1269902,0.8942735,-0.08571122,-0.5028148,0.07196791,-0.2292097,-0.04333347,0.01558327
-0.4067347,-0.1498914,0.8923787,-0.08100753,-0.5138618,0.06633642,-0.2137263,-0.03503387,0.009512182
-0.4078349,-0.1733452,0.8983552,-0.07811649,-0.5254493,0.06863576,-0.196279,-0.02313368,-0.004188152
-0.4092228,-0.1881557,0.8978881,-0.07558315,-0.5283879,0.06455301,-0.176998,-0.02589036,-0.01755603
-0.4146896,-0.1919353,0.9058358,-0.07720038,-0.5202959,0.06894885,-0.1798382,-0.07239005,-0.03238557
-0.4118526,-0.1949827,0.9032285,-0.07058691,-0.5114774,0.0628549,-0.2008953,-0.1411382,-0.04312482
-0.4006435,-0.204276,0.8852563,-0.0556757,-0.5089161,0.04146294,-0.2218414,-0.1281601,-0.0377644
-0.3815796,-0.2115819,0.8718036,-0.03298576,-0.5043839,0.02465921,-0.2624345,-0.07029021,-0.03049973
-0.3679368,-0.224834,0.8646763,-0.01579497,-0.5058195,0.01425212,-0.2887929,-0.03097504,-0.03360577
-0.3682344,-0.2538858,0.8721478,-0.01262537,-0.5230808,0.01851761,-0.2954646,0.001861589,-0.04744168
-0.3663626,-0.2788816,0.8726367,-0.00737002,-0.5363159,0.01587681,-0.2901047,-0.003232803,-0.06985142
-0.368094,-0.291816,0.8665674,-0.005804047,-0.5375223,0.006756472,-0.249812,-0.01204619,-0.08129685
-0.3756447,-0.3006259,0.8655364,-0.01014612,-0.534639,0.002755106,-0.2290729,0.002651211,-0.08382499
-0.3790441,-0.2997072,0.8549972,-0.01042736,-0.5220637,-0.01067185,-0.2536933,-0.004612282,-0.09214905
-0.378539,-0.302496,0.8547107,-0.00689607,-0.5132347,-0.01376126,-0.2743937,-0.01123337,-0.07809914
-0.3762628,-0.3206866,0.8591409,-0.001687012,-0.5198484,-0.0120471,-0.2689559,-0.03364599,-0.04214157
-0.3761969,-0.340485,0.8540995,0.001217524,-0.5281127,-0.01971582,-0.2532553,-0.08061328,-0.003674481
-0.3724711,-0.3602976,0.8550065,0.007686818,-0.5364353,-0.02134593,-0.2391612,-0.08509717,0.04649863
-0.363462,-0.3849365,0.846142,0.01934324,-0.5496293,-0.03265579,-0.2118223,-0.0771413,0.06685158
-0.3561086,-0.4082359,0.8277754,0.02924699,-0.5615287,-0.05337438,-0.192025,-0.07050498,0.04058193
-0.3540189,-0.4168305,0.8189377,0.03378885,-0.5587677,-0.06446898,-0.1852886,-0.03572179,0.01887484
-0.3608,-0.4255581,0.8126338,0.02936057,-0.5561833,-0.07293227,-0.1525996,-0.01432732,0.008414151
-0.3669743,-0.4405102,0.8069114,0.02543894,-0.5598656,-0.08071439,-0.1130447,-0.01269827,0.007441925
-0.3694748,-0.4366461,0.8087279,0.02509064,-0.5447732,-0.08085545,-0.08825424,-0.0260862,0.02138847
-0.3714676,-0.441425,0.8131931,0.02514973,-0.5383646,-0.07824373,-0.06753281,-0.0605037,0.03031041
-0.3652575,-0.4556379,0.8100854,0.03331161,-0.5414304,-0.08309902,-0.03853095,-0.0854923,0.0413868
-0.3584014,-0.4509291,0.8066289,0.04201977,-0.5256146,-0.08819615,-0.0024547,-0.09235313,0.06280986
-0.3576146,-0.4523493,0.8024319,0.04455917,-0.515968,-0.09392548,0.003740997,-0.08234928,0.07129426
-0.3576658,-0.4512497,0.7878357,0.04616137,-0.5038422,-0.1099447,-0.01277124,-0.07075085,0.06131233
-0.355034,-0.4503259,0.7829441,0.05034772,-0.4919339,-0.1161488,-0.01911723,-0.0823713,0.05380266
-0.3450205,-0.4681238,0.7904347,0.0618172,-0.4987901,-0.1098587,-0.01682624,-0.08890045,0.05467549
-0.334144,-0.4841708,0.7903032,0.07405143,-0.5039394,-0.111078,0.004072799,-0.07682269,0.05459737
-0.3310826,-0.5062965,0.7854282,0.07837212,-0.5152121,-0.1169275,0.04712006,-0.07181469,0.06043118
-0.338486,-0.5257631,0.7826314,0.07212964,-0.5238705,-0.1205851,0.0936326,-0.07255212,0.06758939
-0.3486269,-0.5197535,0.7867927,0.06305145,-0.5070974,-0.1171708,0.1282472,-0.08216361,0.06710924
-0.3473831,-0.5056994,0.7933079,0.06526029,-0.4823242,-0.1112887,0.1497805,-0.1034048,0.07480789
-0.3425189,-0.5036362,0.7936069,0.07099288,-0.4695868,-0.1115098,0.1678434,-0.1160082,0.07969239
-0.3400768,-0.5072605,0.7942786,0.07420807,-0.4625831,-0.1112461,0.1834619,-0.1197503,0.07826501
-0.3336216,-0.5038195,0.7935097,0.08134183,-0.4485622,-0.1123122,0.1970886,-0.1234375,0.09396758
-0.3254546,-0.5031703,0.7878281,0.09009407,-0.437383,-0.1181815,0.2110993,-0.1248291,0.1122509
-0.3212452,-0.5015699,0.7824636,0.09479597,-0.4253048,-0.1236258,0.2199523,-0.1204871,0.1199434
-0.3248435,-0.5005326,0.7780858,0.09159824,-0.4138447,-0.1279768,0.2250444,-0.114766,0.1213919
-0.3252858,-0.5083544,0.7769362,0.09146528,-0.4113014,-0.1289945,0.2323454,-0.1101707,0.1281269
-0.3173866,-0.514031,0.7784881,0.09958362,-0.4066736,-0.1272067,0.2419261,-0.09764808,0.1457729
-0.3138864,-0.5235337,0.7799561,0.1032137,-0.4059349,-0.1254007,0.2597261,-0.09102127,0.1567827
-0.31485,-0.5220565,0.7830917,0.1022918,-0.3942823,-0.1218266,0.2816517,-0.111075,0.1785965
-0.315954,-0.510686,0.7863493,0.1011423,-0.3728047,-0.1180325,0.29623,-0.1323186,0.2082224
-0.3153395,-0.5074397,0.7885584,0.1016252,-0.3595226,-0.1151908,0.3006226,-0.1277704,0.2124675
-0.3161488,-0.4930879,0.7917516,0.1005996,-0.3352097,-0.1112719,0.2738993,-0.1249877,0.206912
-0.3241328,-0.4877277,0.795353,0.09231627,-0.319967,-0.1068546,0.2347774,-0.1308422,0.1935745
-0.329154,-0.4985766,0.7982795,0.08691463,-0.3210163,-0.1030251,0.2282851,-0.1166799,0.165309
-0.324382,-0.5023636,0.7993228,0.0912271,-0.3150909,-0.100995,0.2137765,-0.1047955,0.1396567
-0.3165322,-0.5096024,0.7967868,0.0985408,-0.3127082,-0.102464,0.1815831,-0.106646,0.1340389
-0.3125528,-0.5132992,0.7887694,0.1019096,-0.306878,-0.1093376,0.1870403,-0.1003237,0.1418863
-0.3082551,-0.5143667,0.7759217,0.1055242,-0.2985164,-0.120968,0.2026632,-0.09219651,0.1406561
-0.3038278,-0.5207171,0.7701813,0.1091975,-0.2955384,-0.12542,0.2052888,-0.08470579,0.1488839
-0.3107475,-0.5194033,0.7757802,0.1014547,-0.2850001,-0.1184644,0.21694,-0.08113545,0.1546001
-0.3170334,-0.5178847,0.7783147,0.09427869,-0.2743634,-0.1145071,0.2162746,-0.07796323,0.1424901
-0.3157156,-0.5190888,0.7776863,0.09464144,-0.2665588,-0.1136494,0.2099812,-0.07252066,0.1444028
-0.3169213,-0.5202034,0.7789879,0.0924181,-0.2587768,-0.1108011,0.2152876,-0.07670537,0.1367947
-0.3151257,-0.5258552,0.7752524,0.09313615,-0.2556468,-0.1129321,0.2137453,-0.06878733,0.1278102
-0.3101929,-0.5334363,0.771045,0.09693372,-0.2545631,-0.11548,0.2200877,-0.05255606,0.1356581
-0.3045047,-0.5471423,0.7680075,0.1014316,-0.2597234,-0.1168058,0.2335993,-0.04797017,0.1318766
-0.3011363,-0.5578757,0.7631332,0.1035567,-0.2620316,-0.1199184,0.2383308,-0.04613986,0.1358629
-0.3050408,-0.5536368,0.7628291,0.09835787,-0.249489,-0.1184134,0.2512181,-0.05413298,0.1350867
-0.3057152,-0.5498688,0.7604726,0.09634012,-0.2375398,-0.1189155,0.2615044,-0.05704759,0.1260989
-0.3006204,-0.5511436,0.7535437,0.1000449,-0.2307564,-0.123947,0.2626553,-0.05185375,0.1329787
-0.2956501,-0.5529496,0.7525939,0.1035805,-0.2246286,-0.1229585,0.2721685,-0.05503144,0.1301059
-0.2901344,-0.5609612,0.7563359,0.1076187,-0.2248315,-0.1172391,0.2802569,-0.04640326,0.129801
-0.2846961,-0.5666549,0.7596484,0.1115384,-0.2228422,-0.1119123,0.2856241,-0.03586941,0.1386945
-0.2845315,-0.565124,0.758828,0.1101448,-0.2137546,-0.1106838,0.2981841,-0.03158552,0.1414925
-0.2891409,-0.5635066,0.7567972,0.1039393,-0.2047069,-0.1106333,0.3069171,-0.02105104,0.1430351
-0.291995,-0.5574185,0.7573153,0.09945255,-0.1913154,-0.108004,0.30815,-0.01819508,0.1391469
-0.2967693,-0.5492687,0.7553968,0.09301104,-0.1759898,-0.1077836,0.3086477,-0.01946405,0.1448858
-0.2979734,-0.5475076,0.7570499,0.09010724,-0.1671812,-0.1039663,0.3052365,-0.02831463,0.1572188
-0.2941764,-0.546563,0.7621759,0.09217429,-0.1593185,-0.09665303,0.300494,-0.04327364,0.1633024
-0.3003441,-0.5464115,0.7598243,0.08424874,-0.1523794,-0.09679681,0.3003814,-0.04149232,0.164509
-0.3045248,-0.5514578,0.7555845,0.07828452,-0.1507698,-0.09881076,0.3009262,-0.03687198,0.153769
-0.302609,-0.5544835,0.7562534,0.07839357,-0.147272,-0.09590029,0.3024859,-0.03289643,0.1428966
-0.3048046,-0.5562514,0.7628305,0.07437075,-0.1426492,-0.08706827,0.3085218,-0.025165,0.1339127
-0.3018589,-0.5612142,0.7687674,0.07547123,-0.1413547,-0.07886552,0.3173371,-0.02841393,0.1313532
-0.298579,-0.5621965,0.7642852,0.07689024,-0.1362131,-0.08107362,0.3231068,-0.03156405,0.1365229
-0.2986467,-0.5583141,0.7602754,0.07494853,-0.1263403,-0.08280376,0.3206389,-0.03216677,0.1288816
-0.2971517,-0.554129,0.7624422,0.07455832,-0.1162981,-0.07835405,0.3112343,-0.036877,0.126499
-0.2948299,-0.5552392,0.758913,0.07498609,-0.1116846,-0.07959945,0.301096,-0.03127203,0.1316726
-0.2899639,-0.5610333,0.7523953,0.07795093,-0.1118885,-0.08383481,0.2992714,-0.01658799,0.1284124
-0.2911293,-0.5627529,0.7519535,0.07487922,-0.1081512,-0.0819974,0.3018484,-0.006204069,0.1280266
-0.2948833,-0.5656597,0.7537127,0.06921529,-0.105734,-0.0779642,0.3000443,-0.007629069,0.1251611
-0.2957292,-0.569214,0.7544207,0.06645785,-0.1040966,-0.07498892,0.3002438,-0.01531609,0.1239657
-0.3000634,-0.5695997,0.7563462,0.06021214,-0.09942207,-0.07080473,0.3032577,-0.01586411,0.1295595
-0.2993103,-0.5726371,0.7579146,0.0590558,-0.09752982,-0.0669881,0.308693,-0.01807949,0.1334294
-0.2969462,-0.5730985,0.7592109,0.05951442,-0.09319101,-0.06345568,0.3190722,-0.02366248,0.1388785
-0.2986098,-0.574348,0.7604913,0.05595133,-0.08976867,-0.05995331,0.324755,-0.02515513,0.1388055
-0.2958401,-0.5774289,0.7580552,0.05682917,-0.08830469,-0.06018336,0.3261398,-0.03113792,0.1364393
-0.2951749,-0.5744438,0.7515915,0.05561194,-0.0809005,-0.06445861,0.3295322,-0.03340106,0.1383203
-0.2975186,-0.5735922,0.7431299,0.05139673,-0.07575401,-0.07075097,0.3358618,-0.03059991,0.1378885
-0.2970693,-0.578205,0.7400627,0.04998713,-0.07619499,-0.07166913,0.3468906,-0.03023515,0.1379255
-0.2971867,-0.5814462,0.7444912,0.04802491,-0.07538581,-0.06511251,0.3525305,-0.02542795,0.1356822
-0.2963479,-0.5770487,0.747852,0.04703448,-0.06705787,-0.05964553,0.3520601,-0.02313195,0.1303222
-0.2953472,-0.5705344,0.7506856,0.04622298,-0.05673153,-0.05472854,0.358129,-0.0197163,0.1272812
-0.2960233,-0.5703425,0.7513867,0.04375301,-0.05284454,-0.05196792,0.3636078,-0.01358881,0.1316382
-0.2959911,-0.5694165,0.7492839,0.04201089,-0.04833916,-0.05203613,0.3617867,-0.01689361,0.1418579
-0.29651,-0.5685489,0.7514474,0.03973854,-0.04400669,-0.04786416,0.3641113,-0.01957867,0.1433735
-0.2968423,-0.5693009,0.7512762,0.03767482,-0.04140712,-0.04605398,0.3688345,-0.02148867,0.1429907
-0.2962999,-0.5672567,0.7510068,0.03650883,-0.03612334,-0.04437017,0.3641035,-0.02915662,0.1470166
-0.296378,-0.5667823,0.756272,0.03474665,-0.03252025,-0.03718083,0.3593991,-0.03665843,0.143016
-0.2959042,-0.5660518,0.7569122,0.03356163,-0.02877051,-0.03464667,0.3627983,-0.03907156,0.1393338
-0.2949513,-0.5646188,0.7543427,0.03288182,-0.02442651,-0.03535354,0.3640998,-0.02991652,0.1418635
-0.2933321,-0.5664407,0.7520465,0.03289536,-0.02344441,-0.03581936,0.3649056,-0.01713894,0.1410799
-0.2911155,-0.5666046,0.7512291,0.03353411,-0.02091002,-0.03483953,0.3681345,-0.01050379,0.1359151
-0.2922054,-0.5635511,0.7504916,0.03089462,-0.01526239,-0.03381356,0.3657058,-0.00780364,0.1299547
-0.2953562,-0.5608582,0.7457851,0.02622318,-0.01007818,-0.03679105,0.3618284,-0.009981683,0.1281699
-0.2963008,-0.5608907,0.7492547,0.02378742,-0.00772098,-0.03162725,0.3616073,-0.0124047,0.1309351
-0.2972376,-0.563374,0.7579545,0.02138967,-0.007914809,-0.02126853,0.3610861,-0.01019014,0.1322092
-0.296952,-0.5643797,0.7634053,0.02024504,-0.006729755,-0.01419469,0.3622293,-0.004862615,0.1310223
-0.2948696,-0.563478,0.7691201,0.02092849,-0.003734659,-0.006893635,0.367785,0.0009635855,0.1330078
-0.2959682,-0.5616687,0.7668459,0.01846295,7.244529e-05,-0.00761947,0.3759626,0.0009884442,0.13708
-0.2964852,-0.5591355,0.7640398,0.01661121,0.004509315,-0.008916121,0.3801507,0.001122803,0.1358407
-0.2961023,-0.5597955,0.7656171,0.01569205,0.005660477,-0.005869203,0.3766562,0.00597318,0.1335416
-0.2977342,-0.5635805,0.7601824,0.01279112,0.00359546,-0.00987496,0.3764974,0.002318112,0.1356969
-0.296367,-0.5644881,0.7573139,0.01292275,0.004318544,-0.01135553,0.3839764,-0.00282779,0.1373482
-0.2958391,-0.5615268,0.7617512,0.01224868,0.008822959,-0.005571666,0.3901404,0.000418667,0.1370351
-0.3006539,-0.5593147,0.7674779,0.006265795,0.01249227,0.001459759,0.3919072,-0.002071872,0.1349142
-0.3072367,-0.5578462,0.774582,-0.001450805,0.01533393,0.009826515,0.3964188,-0.006485868,0.130586
-0.3118478,-0.5536124,0.7804224,-0.007161077,0.02085836,0.01688667,0.4145727,-0.004634563,0.1264806
-0.3114547,-0.5489001,0.7809941,-0.007831815,0.02678025,0.01863436,0.4300138,-0.005109733,0.1218332
-0.3091741,-0.5451384,0.7739182,-0.006578922,0.03167197,0.01268981,0.4208389,-0.005830126,0.1188041
-0.3030603,-0.5389204,0.7673694,-0.001456357,0.03894142,0.007227136,0.4069753,-0.003404249,0.1215542
-0.2914439,-0.533396,0.7666193,0.009205695,0.04543988,0.007517778,0.4022988,0.002705159,0.1317113
-0.2874619,-0.5338831,0.7663469,0.01226987,0.04585014,0.008240579,0.4042034,0.01627027,0.1494126
-0.292047,-0.5382533,0.7659447,0.006802843,0.0423014,0.008788319,0.4194853,0.0285582,0.1643131
-0.2946956,-0.5432618,0.7649494,0.003307674,0.03803957,0.008697922,0.4343657,0.03262702,0.1673284
-0.2986599,-0.5433576,0.7657441,-0.001468472,0.03861691,0.01035291,0.4375549,0.03836294,0.1571421
-0.3046556,-0.5364562,0.7695342,-0.008241489,0.04611941,0.01495895,0.4361758,0.04531436,0.140544
-0.3062702,-0.5322939,0.7727518,-0.01059908,0.05081194,0.01894838,0.4331598,0.0435006,0.1368406
-0.3057117,-0.5328881,0.7761153,-0.01074928,0.05067855,0.02304001,0.4367704,0.04294978,0.1421388
-0.3056992,-0.5323837,0.7811953,-0.01141124,0.05157549,0.02880446,0.4495532,0.04907015,0.1434599
-0.3075434,-0.5287764,0.7867494,-0.0138956,0.05550822,0.03499917,0.4612664,0.05198129,0.1479828
-0.3110626,-0.5199087,0.7861841,-0.0180208,0.06463549,0.03503058,0.4604229,0.05504356,0.1492526
-0.3124518,-0.5076096,0.7847851,-0.01998174,0.07712908,0.03418413,0.45406,0.05747077,0.1460682
-0.3153854,-0.4990215,0.7876442,-0.02345296,0.08584724,0.03755155,0.4622437,0.05474024,0.1483614
-0.3207364,-0.5006835,0.7844735,-0.02930714,0.084251,0.03484483,0.47662,0.05084154,0.1528169
-0.3247394,-0.5041275,0.7849647,-0.03377874,0.08080876,0.03575589,0.4861384,0.04265289,0.1611316
-0.3280759,-0.5018792,0.7905618,-0.03754884,0.0829951,0.04172882,0.4904944,0.03945082,0.1629699
-0.325374,-0.501819,0.790195,-0.03524505,0.08293016,0.04169405,0.4859698,0.04884756,0.1509597
-0.3202025,-0.4966137,0.7968984,-0.03043587,0.08794775,0.04868566,0.4832938,0.05356644,0.1445568
-0.3242343,-0.4842005,0.8038656,-0.03479417,0.1001112,0.05589751,0.4814503,0.0505727,0.1472696
-0.3292867,-0.4785592,0.8014841,-0.04013698,0.1054412,0.05371675,0.4765846,0.04975351,0.1506054
-0.3312389,-0.4783326,0.8045977,-0.04234357,0.105295,0.05698698,0.476815,0.05090447,0.1536385
-0.3398387,-0.4785415,0.8107077,-0.0511616,0.1046518,0.0632096,0.4808898,0.04962618,0.1558468
-0.3477861,-0.4742573,0.8112439,-0.0592904,0.1084404,0.06381396,0.4935361,0.03974898,0.1565952
-0.3467968,-0.4626081,0.8076233,-0.05844517,0.119533,0.06021699,0.5049781,0.02035441,0.1542036
-0.3416499,-0.4520027,0.8070716,-0.05340442,0.1295209,0.05964439,0.5009212,0.007042129,0.152297
-0.3358148,-0.4510387,0.8105021,-0.04763719,0.1298061,0.06300964,0.4960968,0.02066483,0.1519023
-0.3321692,-0.4521948,0.8113582,-0.04402102,0.1279097,0.06375637,0.4956784,0.05088523,0.1512193
-0.3285872,-0.4438275,0.8161263,-0.04043043,0.135475,0.06837099,0.4917144,0.07343174,0.151621
-0.3291005,-0.4376215,0.8235033,-0.04089765,0.140817,0.07555088,0.4830367,0.07795539,0.1516115
-0.3387637,-0.4332206,0.828032,-0.05047806,0.1442918,0.07983863,0.4738959,0.05753488,0.1559711
-0.3451515,-0.4257629,0.829457,-0.05674675,0.1507609,0.08097878,0.4700407,0.02910346,0.1622151
-0.3491931,-0.4251242,0.8240123,-0.06063309,0.1503483,0.07520518,0.4632509,0.01151923,0.1587482
-0.3589302,-0.4157554,0.8215033,-0.07017897,0.1586026,0.07232338,0.4514509,0.01013761,0.1526185
-0.3638926,-0.4072837,0.8227035,-0.07491379,0.1658963,0.07310718,0.4502476,0.02500245,0.1471183
-0.3609835,-0.4133447,0.826523,-0.0717404,0.1585932,0.07646731,0.454631,0.02904786,0.1359124
-0.3608101,-0.405586,0.8358364,-0.07126565,0.1650456,0.08527862,0.4542909,0.01857126,0.1312977
-0.3633519,-0.3922268,0.8344853,-0.07346878,0.177034,0.08338328,0.4604868,0.005116281,0.139308
-0.3584689,-0.3856029,0.830253,-0.06820985,0.1822221,0.07856474,0.4662008,-0.007497152,0.1537903
-0.3504202,-0.3793066,0.8320219,-0.05974796,0.1870172,0.07970582,0.4614639,0.001671606,0.1730514
-0.3474105,-0.3776841,0.830666,-0.0562884,0.1870724,0.07768126,0.459477,0.01345513,0.1810675
-0.3478762,-0.3734725,0.8341147,-0.05626841,0.1896499,0.08042122,0.4593035,0.01569043,0.1741509
-0.3497286,-0.3744065,0.8389972,-0.05760024,0.1870149,0.08455547,0.4634775,0.027024,0.171221
-0.3490211,-0.378914,0.8440625,-0.05633848,0.1807391,0.08883381,0.4806985,0.02835837,0.1698762
-0.3518909,-0.375513,0.8487023,-0.05862115,0.1823048,0.0926483,0.4973873,0.02325323,0.1660632
-0.359523,-0.3720816,0.8467791,-0.06563431,0.1838345,0.08986193,0.5115129,0.02703818,0.1637524
-0.3644557,-0.3614573,0.8509566,-0.06991698,0.192491,0.09313885,0.5225262,0.02551197,0.1548316
-0.3711904,-0.3502382,0.8517988,-0.07597132,0.2016769,0.09304341,0.5143788,0.02221124,0.143929
-0.3733714,-0.3437127,0.8491699,-0.07744167,0.2061036,0.08944033,0.5042668,0.01671905,0.1425862
-0.3706586,-0.3314316,0.8577741,-0.07398828,0.2162206,0.09703439,0.5124987,-0.0002163614,0.1501263
-0.3715544,-0.3274629,0.8624133,-0.07411399,0.2179596,0.1006281,0.5235843,-0.01186564,0.1601016
-0.3713272,-0.3290639,0.8632081,-0.07308741,0.2140631,0.1003422,0.5402643,-0.007235676,0.1606384
-0.3763446,-0.3221246,0.8589403,-0.07727674,0.2186408,0.09495906,0.5575986,-0.005201786,0.1517887
-0.3834421,-0.3067626,0.849366,-0.08351785,0.2315752,0.0842354,0.5518487,-0.009337378,0.1446542
-0.3807681,-0.2927635,0.8485852,-0.0799595,0.2430806,0.08227203,0.549344,0.001987147,0.1437966
-0.3733856,-0.296203,0.8431099,-0.07166499,0.2370807,0.07558245,0.5677438,0.02811991,0.154365
-0.3644733,-0.2973017,0.8409578,-0.06181366,0.2333544,0.07218578,0.5987832,0.04563757,0.1717346
-0.3626448,-0.2865871,0.8573326,-0.05902016,0.2413741,0.08728753,0.6467147,0.03856091,0.1777044
-0.3720505,-0.2821531,0.8712706,-0.06743613,0.2430459,0.09992512,0.6872145,0.01703838,0.1718543
-0.3832516,-0.2651182,0.8753585,-0.07762398,0.2572512,0.1026863,0.7158787,-0.01062015,0.1792718
-0.3933651,-0.241247,0.8777876,-0.08670151,0.278225,0.1037626,0.7497083,-0.05029585,0.2164946
-0.3940407,-0.2391948,0.8831789,-0.08631855,0.277311,0.1077752,0.7747522,-0.06577808,0.2563318
-0.3802551,-0.22847,0.8835572,-0.0714522,0.2849999,0.1067493,0.7863726,-0.05136528,0.2567904
-0.3696891,-0.2049072,0.8778034,-0.05978374,0.3054557,0.09956591,0.7859177,-0.05634362,0.2373862
-0.3765863,-0.202868,0.8807304,-0.06555791,0.3043153,0.1010385,0.7895718,-0.06173142,0.2407144
-0.3875836,-0.1898686,0.8863909,-0.07541279,0.3140609,0.1052201,0.8074907,-0.05547524,0.2499987
-0.3882027,-0.1598434,0.8920651,-0.07487096,0.340756,0.1093914,0.809907,-0.05940459,0.2552277
-0.3872251,-0.1558419,0.8977445,-0.07271472,0.3413493,0.1135444,0.8054095,-0.05320898,0.261694
-0.388386,-0.1419091,0.8975295,-0.07267989,0.351793,0.1117797,0.8135939,-0.04900453,0.250728
-0.3896178,-0.1070272,0.9041882,-0.07269963,0.3831023,0.1168652,0.8288488,-0.06344139,0.2419656
-0.3929612,-0.09015497,0.9142575,-0.07481545,0.3963153,0.1253382,0.8589237,-0.08163808,0.2409656
-0.3919111,-0.06742032,0.9214982,-0.07252292,0.4153005,0.130959,0.8769663,-0.1049246,0.2304105
-0.3910195,-0.04075611,0.928034,-0.07037476,0.4381207,0.1358511,0.8645975,-0.1338395,0.2303858
-0.3943857,-0.02317735,0.9249506,-0.07247095,0.4517563,0.1310995,0.8539272,-0.1623795,0.2277966
-0.3920678,0.004161297,0.9180716,-0.0688704,0.4750477,0.1225273,0.8416921,-0.1638249,0.2098593
-0.3798862,0.02124484,0.9117523,-0.05539444,0.4879747,0.1144897,0.8102242,-0.1238117,0.1949558
-0.3605183,0.02866762,0.9137151,-0.03472172,0.4911261,0.1147096,0.7739829,-0.07649052,0.1813472
-0.3553618,0.04039486,0.9304239,-0.02825188,0.498462,0.1296513,0.7453144,-0.06442533,0.1737455
-0.3711625,0.05283405,0.9413369,-0.0427331,0.5063851,0.1387733,0.7301156,-0.09641911,0.1764694
-0.3780798,0.07946789,0.9411987,-0.04832693,0.5283734,0.13682,0.720425,-0.1237389,0.1830647
-0.3700869,0.1031381,0.9378896,-0.03900837,0.547264,0.1316712,0.6911456,-0.1194466,0.1839041
-0.3655422,0.1073886,0.9363865,-0.03313725,0.5465961,0.128304,0.645252,-0.1027248,0.1768816
-0.3685114,0.1154035,0.937988,-0.0347812,0.5495491,0.128017,0.6133974,-0.08667934,0.1739454
-0.3701134,0.1281979,0.9348522,-0.03506081,0.5571341,0.1229687,0.6026598,-0.09503295,0.1734458
-0.3685202,0.1378005,0.9313149,-0.03214967,0.5613762,0.1174953,0.5912981,-0.1181763,0.1715252
-0.3685295,0.1638825,0.9300532,-0.03084715,0.5819434,0.1142748,0.5729628,-0.132903,0.1605806
-0.3611042,0.1880632,0.9296656,-0.0221176,0.6004516,0.1119068,0.5496639,-0.137873,0.1370347
-0.3482453,0.1784389,0.9291315,-0.007963721,0.5849937,0.1093716,0.5073224,-0.1132605,0.1207675
-0.3467669,0.1765773,0.9239945,-0.005201892,0.5771348,0.1022143,0.4681988,-0.08518496,0.1207246
-0.3568974,0.1893777,0.9225225,-0.01406246,0.5837724,0.09870427,0.457111,-0.08160865,0.1291247
-0.3663736,0.1893553,0.9233514,-0.02228428,0.5774205,0.09747891,0.4537696,-0.07154544,0.1406566
-0.364135,0.1992826,0.9188833,-0.01880829,0.5808512,0.09094223,0.4509274,-0.05698669,0.1511776
-0.3582514,0.204666,0.9154132,-0.01170542,0.5795708,0.08539099,0.4407198,-0.04237871,0.1439446
-0.357534,0.2047513,0.9168091,-0.009788097,0.5728256,0.08469534,0.4333675,-0.02846493,0.129465
-0.3576032,0.219913,0.9205101,-0.008678133,0.5809912,0.08629621,0.4503631,-0.04971896,0.1389261
-0.364124,0.2211219,0.9192153,-0.01404158,0.5750398,0.08289499,0.4678952,-0.07581413,0.1526028
-0.3696506,0.2242686,0.913776,-0.01843372,0.5708636,0.07534463,0.4807978,-0.0641027,0.1589922
-0.3610974,0.2449456,0.9100793,-0.0087695,0.5840575,0.0695343,0.4853173,-0.06000896,0.1620326
-0.3503005,0.2572763,0.9081885,0.003114018,0.588747,0.06552966,0.4770867,-0.07513848,0.1612921
-0.3445849,0.2613676,0.9114856,0.00989101,0.5850413,0.06671493,0.4758212,-0.07812951,0.1780597
-0.3404446,0.2651416,0.9154367,0.01506598,0.5808649,0.06855828,0.4669608,-0.07925239,0.1936348
-0.3393102,0.2814482,0.9119192,0.01720691,0.5890705,0.06293927,0.4540129,-0.06795965,0.209817
-0.3367442,0.2963204,0.9050312,0.02074965,0.5956938,0.05395794,0.4549532,-0.04867021,0.2317697
-0.3301197,0.2902796,0.9003138,0.02831971,0.5812593,0.04715755,0.4690404,-0.05870662,0.2206494
-0.3322299,0.2871307,0.8942615,0.02712224,0.569575,0.0390348,0.5111672,-0.07928801,0.2091254
-0.3377768,0.2899967,0.8802484,0.0224537,0.5637679,0.02296656,0.5730281,-0.09124409,0.1975246
-0.3335752,0.2917977,0.8706141,0.02749831,0.5567625,0.01129534,0.6251682,-0.09124721,0.1715352
-0.3314554,0.3074759,0.8830398,0.03042442,0.5635057,0.02170541,0.6451326,-0.07924244,0.1856461
-0.3238603,0.3360913,0.896738,0.03878826,0.5830624,0.03341228,0.6432921,-0.07546634,0.2007051
-0.3096804,0.3506627,0.8900793,0.05369792,0.5884555,0.02478908,0.6619262,-0.06837608,0.1927705
-0.312556,0.3461954,0.8832658,0.05151178,0.5746941,0.01603979,0.7101531,-0.06489413,0.2077969
-0.3152304,0.3534904,0.8823139,0.04948485,0.5725832,0.01318299,0.7770827,-0.07542624,0.2243906
-0.3108125,0.3723484,0.8793658,0.05450694,0.5819275,0.008363183,0.8357167,-0.07610975,0.2338288
-0.3177936,0.4022224,0.8769253,0.04808563,0.6021839,0.004086178,0.8406376,-0.0833845,0.2506169
-0.3191069,0.4535214,0.8609905,0.04728662,0.6437647,-0.01364762,0.8142016,-0.08905597,0.2713449
-0.3042553,0.4898447,0.8420658,0.06260637,0.6702707,-0.03433122,0.8054293,-0.08057097,0.2927674
-0.2871428,0.5056945,0.8368594,0.08014012,0.6762046,-0.04125341,0.8028269,-0.08538816,0.3043297
-0.280997,0.5321584,0.8253438,0.08665875,0.6926536,-0.05443813,0.7996861,-0.08581715,0.3064528
-0.2850399,0.5650106,0.8088826,0.08293872,0.7153911,-0.07251822,0.7921315,-0.08042532,0.3051311
-0.2821414,0.5953837,0.7980535,0.08610835,0.7355482,-0.08491177,0.7318547,-0.07151752,0.3074594
-0.2746752,0.6235915,0.7871056,0.09379262,0.7534367,-0.09736549,0.616789,-0.03189955,0.3122711
-0.2668071,0.6462073,0.7756558,0.1018244,0.7656273,-0.1102576,0.5214864,0.01304405,0.3241398
-0.2542482,0.6575726,0.7634369,0.1144908,0.7664585,-0.123851,0.4797793,0.03276157,0.3532133
-0.2503419,0.6637042,0.7510883,0.1184468,0.7619446,-0.1375011,0.4433299,0.02972896,0.3678489
-0.2474987,0.6723193,0.7351156,0.12128,0.7598005,-0.1546974,0.3996254,0.02547339,0.3577552
-0.2371596,0.674485,0.7167467,0.1315475,0.7510918,-0.1742066,0.387086,0.03078899,0.3482448
-0.2368825,0.67735,0.7059909,0.1316895,0.7429664,-0.1860142,0.3867304,0.04124405,0.3370975
-0.240118,0.6861153,0.7051086,0.1282538,0.7406252,-0.1878537,0.3697553,0.08490801,0.3188259
-0.240955,0.6962789,0.7086508,0.1271501,0.7395667,-0.1851692,0.3421935,0.1370493,0.2929086
-0.2484029,0.717072,0.7087611,0.1193678,0.7490228,-0.1858121,0.303741,0.1370835,0.2723636
-0.2533103,0.7360121,0.708417,0.114058,0.7565122,-0.186801,0.2664234,0.1208236,0.2697135
-0.2513462,0.7411822,0.7061706,0.1155515,0.7501186,-0.18958,0.2360482,0.1194024,0.2591686
-0.2484298,0.738615,0.6983035,0.1179295,0.7358758,-0.1978649,0.2146771,0.0926433,0.2365855
-0.2463052,0.7326219,0.6959639,0.1194482,0.718097,-0.2005042,0.2166065,0.05685346,0.2172007
-0.2448039,0.7320537,0.6912214,0.1202765,0.7056359,-0.2054261,0.2191698,0.05139412,0.1842965
-0.2439527,0.7348907,0.6788026,0.1203883,0.6964761,-0.2179016,0.2040438,0.04353122,0.1451765
-0.242045,0.7443238,0.6699016,0.1214906,0.6938129,-0.2267345,0.1850294,0.02239221,0.1183118
-0.234186,0.76129,0.6594664,0.1284791,0.6985874,-0.2369744,0.1570937,0.003003893,0.09449966
-0.2269921,0.77231,0.6549352,0.1347379,0.6973249,-0.241181,0.1395198,-0.03040335,0.08624506
-0.2241684,0.7756205,0.6599106,0.1365626,0.6882663,-0.2357499,0.1519249,-0.05929314,0.105878
-0.2149382,0.7688417,0.657327,0.14473,0.6690364,-0.237745,0.1495529,-0.05490378,0.1382412
-0.2013026,0.7584813,0.6531109,0.1572393,0.6461478,-0.2412389,0.1228945,-0.03239756,0.1587898
-0.1909884,0.751327,0.6520001,0.1663637,0.6263943,-0.241493,0.10846,-0.01717745,0.1571232
-0.1842541,0.7481521,0.6465246,0.1718442,0.6105559,-0.2459771,0.1156583,-0.006627701,0.1560534
-0.1805601,0.759328,0.6374793,0.1742197,0.6090114,-0.2538961,0.1255127,0.01628582,0.1513549
-0.1810731,0.7793623,0.6224534,0.1723231,0.6162757,-0.2676606,0.1082628,0.04469909,0.1218947
-0.1883673,0.7997567,0.6133531,0.1635797,0.6238573,-0.2753644,0.08430075,0.05999437,0.09219235
-0.1949102,0.8081301,0.6168483,0.1555222,0.6193815,-0.2703372,0.07181107,0.05228189,0.08597133
-0.1924172,0.8033886,0.6155058,0.1564357,0.6017601,-0.2700123,0.05907407,0.04206996,0.08750454
-0.1850033,0.8063627,0.6128332,0.1622062,0.5918298,-0.2708825,0.06596532,0.04973149,0.08585398
-0.1773843,0.8065018,0.6097118,0.1681187,0.5790463,-0.2720671,0.07244096,0.05766451,0.09411582
-0.1717752,0.8039577,0.5965915,0.1719589,0.5635677,-0.2831175,0.0687796,0.06324832,0.09237859
-0.1706426,0.8096659,0.5899032,0.1712611,0.5563365,-0.2876034,0.09239299,0.06655311,0.06757708
-0.1745356,0.8131055,0.5858517,0.1654765,0.5468384,-0.2893214,0.1127771,0.06543729,0.04455733
-0.1790983,0.8256124,0.5662427,0.1589624,0.5464164,-0.3064664,0.0927236,0.0789738,0.02061567
-0.1804187,0.8411174,0.5510722,0.1556317,0.5490075,-0.3190434,0.062463,0.09164879,0.008248364
-0.1821236,0.8459994,0.5542488,0.1518594,0.5409967,-0.3131442,0.05657712,0.09125254,0.01436377
-0.1842584,0.8529182,0.5520042,0.1476021,0.5350495,-0.3125376,0.05793033,0.09830383,0.02121018
-0.1822256,0.8612441,0.5350302,0.1474592,0.5305418,-0.3265329,0.04634826,0.1066171,0.03432122
-0.1789003,0.8744314,0.5195891,0.1485578,0.530933,-0.3388685,0.0210541,0.1072926,0.03287337
-0.1736706,0.8916699,0.510339,0.151512,0.5354179,-0.3448869,-0.0317625,0.1009841,0.01631611
-0.1630621,0.8980741,0.5104588,0.1597981,0.5291152,-0.3414097,-0.0738694,0.08866595,0.001082523
-0.1554354,0.8969585,0.5127751,0.1650573,0.5153436,-0.335611,-0.08773922,0.08968614,-0.01742387
-0.1549016,0.8953447,0.5087606,0.1631799,0.5011285,-0.3360191,-0.1186222,0.1084138,-0.01348263
-0.1612588,0.8942952,0.5168999,0.1543691,0.487537,-0.3241511,-0.1419132,0.1215183,-0.001589746
-0.1724407,0.8959676,0.5228905,0.1406931,0.4767311,-0.3143116,-0.1410042,0.1096257,0.003672557
-0.1753499,0.8980476,0.5072625,0.1352513,0.4664009,-0.3259731,-0.1511707,0.08096525,0.02420402
-0.1736065,0.8954674,0.4907239,0.134426,0.4514837,-0.3384304,-0.176413,0.05695981,0.02776406
-0.1731007,0.8890615,0.483716,0.1323299,0.4328185,-0.3412445,-0.2090546,0.03636043,0.01731636
-0.1635829,0.8803263,0.4892279,0.1392151,0.4119071,-0.3314288,-0.2221787,0.01765128,0.02287685
-0.150996,0.8723429,0.4949709,0.1491411,0.3918359,-0.3212741,-0.2152808,0.01678812,0.02097727
-0.1408413,0.8725672,0.4940732,0.1566084,0.3800668,-0.3176556,-0.2339373,0.04093788,0.01700261
-0.1349082,0.8738615,0.4994269,0.159829,0.3694681,-0.3076845,-0.2532849,0.06568778,0.0209612
-0.1404783,0.8712923,0.5016652,0.1515226,0.3551121,-0.3007315,-0.2348697,0.0641683,0.02274481
-0.1453237,0.8734361,0.5011036,0.1439184,0.3455814,-0.2964852,-0.2081569,0.06511156,0.03509358
-0.145042,0.8791663,0.5006245,0.1414203,0.3397548,-0.292068,-0.1821228,0.07737697,0.04860703
-0.1476162,0.8842359,0.4960397,0.1360469,0.333391,-0.2916724,-0.1668928,0.06827555,0.05063913
-0.1454376,0.8842685,0.4956797,0.1354089,0.3221183,-0.2869729,-0.1821646,0.05501039,0.04942745
-0.1378989,0.8801857,0.4950631,0.1401156,0.3068632,-0.2824553,-0.1889753,0.03632538,0.04778484
-0.1298649,0.8817975,0.4908094,0.1453038,0.2974405,-0.2815049,-0.1690648,0.01765931,0.05523744
-0.1203466,0.8887805,0.4780063,0.151964,0.2935312,-0.2890389,-0.151966,0.053585,0.06467636
-0.1174833,0.8979986,0.4599734,0.1519578,0.2920033,-0.3017419,-0.1535183,0.09452792,0.06511561
-0.1221839,0.9049769,0.4568966,0.1443774,0.2883859,-0.2994318,-0.1831889,0.08570421,0.06698166
-0.1232737,0.9057513,0.4614153,0.1403985,0.2787179,-0.2894727,-0.223078,0.08378172,0.0705284
-0.1225361,0.9058913,0.4633742,0.138239,0.2685715,-0.2820236,-0.2253128,0.1095444,0.07717007
-0.1237197,0.9041421,0.467756,0.1341514,0.2566949,-0.2721056,-0.1824707,0.151794,0.09047916
-0.1219684,0.9015668,0.47043,0.1329933,0.2441537,-0.2638537,-0.1379447,0.1900102,0.1077812
-0.1213786,0.9037341,0.4644111,0.1306697,0.2365192,-0.2642574,-0.126965,0.166931,0.133469
-0.1280129,0.9125787,0.4500681,0.1211197,0.2357287,-0.2729522,-0.1349311,0.106405,0.1605851
-0.1328551,0.9289674,0.4369489,0.1133611,0.2426507,-0.2803941,-0.1347428,0.05429994,0.1739179
-0.1225587,0.9413883,0.4310284,0.1207421,0.2457748,-0.2806117,-0.1398669,-0.0004000075,0.1712189
-0.1029912,0.9519174,0.4295593,0.1373971,0.2471776,-0.2763554,-0.1558736,-0.008682419,0.1602371
-0.08779563,0.9618269,0.4265314,0.1496842,0.248131,-0.2736384,-0.1737143,0.02411297,0.1454821
-0.07658294,0.9569397,0.4179257,0.1579926,0.2344577,-0.2764824,-0.2042327,0.0187568,0.1222189
-0.07058262,0.9564602,0.4033438,0.1610926,0.2253611,-0.2852887,-0.2326705,-0.008290302,0.1017941
-0.0664791,0.9639676,0.3884687,0.1622993,0.2244199,-0.2943765,-0.2540007,-0.03800894,0.09768515
-0.05796676,0.9617762,0.3806424,0.1679176,0.2139477,-0.2964056,-0.2934019,-0.04933853,0.09024131
-0.05378502,0.9647987,0.379701,0.1692073,0.2088563,-0.2915414,-0.3385113,-0.04037941,0.07984862
-0.04805374,0.9690672,0.3929595,0.1720477,0.2051772,-0.2724703,-0.3657472,-0.07133436,0.08102434
-0.03740303,0.9664732,0.4096002,0.1798075,0.1948006,-0.250012,-0.3783091,-0.1045606,0.07271939
-0.03077767,0.9670156,0.4102043,0.1835408,0.1877248,-0.2435879,-0.3871359,-0.1107855,0.05578108
-0.01582514,0.960154,0.411945,0.1955988,0.173408,-0.2360283,-0.394712,-0.1018179,0.04248966
-0.0008891566,0.9461711,0.4147509,0.2076361,0.1521328,-0.227408,-0.402591,-0.06022941,0.01961621
-0.0009102985,0.9350121,0.4112724,0.2047098,0.1338437,-0.2250801,-0.4063414,-0.02192061,-0.01479008
0.0001694189,0.9227536,0.4159083,0.202876,0.1146178,-0.2146495,-0.3978694,0.007233735,-0.05643124
0.001425878,0.9143103,0.420365,0.2012086,0.09937067,-0.2044137,-0.3905054,0.03602703,-0.09044504
-0.003410418,0.9164847,0.4210044,0.1934363,0.09490603,-0.1980144,-0.380597,0.06279916,-0.1055028
-0.008914014,0.9216289,0.4229907,0.1849836,0.09357687,-0.1902915,-0.3666802,0.07609758,-0.1164886
-0.01751584,0.9252212,0.4199289,0.1734186,0.09086242,-0.1876439,-0.375165,0.03325474,-0.1286355
-0.02699274,0.9326382,0.4139876,0.1609645,0.09213968,-0.187907,-0.3906825,-0.005309462,-0.139473
-0.0282754,0.9396204,0.4095029,0.1566911,0.09314913,-0.1867481,-0.3931603,0.00130781,-0.1469024
-0.02106042,0.9454943,0.4106446,0.1609027,0.09321665,-0.1800008,-0.3918403,0.000913088,-0.1481177
-0.01960502,0.9518226,0.4152521,0.1593429,0.09390394,-0.1698288,-0.3824204,-0.01507861,-0.1428135
-0.02364391,0.9463189,0.4181677,0.152278,0.08292329,-0.1613932,-0.3620263,-0.03499077,-0.1287372
-0.02600993,0.9426806,0.4201864,0.1468762,0.07397072,-0.1539021,-0.3423223,-0.05205095,-0.1201632
-0.03278039,0.9591085,0.4105051,0.1370614,0.08524558,-0.1581622,-0.3428653,-0.1135075,-0.1185481
-0.03354851,0.9712883,0.3938243,0.1332422,0.09243172,-0.1694756,-0.3589298,-0.2185753,-0.1121805
-0.02337209,0.9581529,0.3946633,0.1403624,0.07445967,-0.1633257,-0.364101,-0.2461811,-0.1048299
-0.01027922,0.9306989,0.409442,0.1503955,0.04232395,-0.1432945,-0.3609362,-0.1859394,-0.08829669
0.00158679,0.9096723,0.4188633,0.1591994,0.01676909,-0.1286814,-0.3540184,-0.1336374,-0.07472201
0.002456376,0.9111163,0.4153008,0.1570052,0.01383789,-0.1271155,-0.3361815,-0.1339684,-0.07605905
-0.001175748,0.9342942,0.4076922,0.150308,0.03279335,-0.1296617,-0.3164362,-0.1983204,-0.07213041
-0.0005913464,0.9534617,0.4046193,0.1478265,0.04789037,-0.1277409,-0.3105024,-0.2816782,-0.06758418
0.004643863,0.9496936,0.398473,0.1499958,0.04020196,-0.128964,-0.3163593,-0.2850516,-0.05841274
0.01635266,0.9340118,0.3974052,0.1586394,0.02074783,-0.1251809,-0.308729,-0.2132244,-0.04277326
0.02615754,0.9182738,0.4011191,0.1653799,0.001383431,-0.1166901,-0.2926848,-0.1348316,-0.04486138
0.03094021,0.9128865,0.3953802,0.1670993,-0.007485453,-0.1177273,-0.2893166,-0.06466988,-0.06219069
0.02889208,0.9258205,0.3962783,0.1619886,0.002110575,-0.1122043,-0.2898637,-0.05960886,-0.08308214
0.02388567,0.9415969,0.3995124,0.1539203,0.01469144,-0.104423,-0.2861416,-0.1083008,-0.08673717
0.02586578,0.945509,0.3945178,0.1528393,0.01554838,-0.1049496,-0.2603012,-0.127425,-0.07535088
0.02972619,0.9433316,0.3931552,0.1536398,0.01045384,-0.1019242,-0.2281403,-0.1358352,-0.07980834
0.03910862,0.9456315,0.3843328,0.1599639,0.009971764,-0.1064396,-0.2328925,-0.1142055,-0.09176484
0.05152367,0.9525741,0.3738374,0.1693222,0.01426489,-0.1127093,-0.2456794,-0.07529644,-0.104228
0.05257829,0.9560067,0.3685528,0.1673215,0.01517748,-0.1138496,-0.2502595,-0.08050036,-0.1191939
0.05222695,0.9554805,0.3564491,0.163916,0.01225754,-0.1218901,-0.2824426,-0.07082863,-0.1377212
0.05529781,0.9570707,0.3530334,0.1639334,0.01157685,-0.1213228,-0.3352055,-0.05500204,-0.1577926
0.05529218,0.9627087,0.3553343,0.160875,0.01506355,-0.1151179,-0.3679917,-0.06571721,-0.1548987
0.05899583,0.9674328,0.3506486,0.1615265,0.01775247,-0.1159776,-0.3692109,-0.05449343,-0.1573008
0.06418529,0.9606268,0.3532205,0.1636643,0.009023634,-0.1096564,-0.3816748,-0.02667752,-0.1843798
0.06020647,0.9487123,0.3647629,0.1566344,-0.004704702,-0.09444039,-0.407559,-0.002890741,-0.2070442
0.05223265,0.9490952,0.3739638,0.14561,-0.006029772,-0.08164094,-0.4004394,-0.00586586,-0.2383824
0.04946111,0.9538903,0.3702684,0.1397892,-0.002839647,-0.08181275,-0.4017751,-0.0251274,-0.2572252
0.05089585,0.9560615,0.3569673,0.1381765,-0.002173315,-0.09166483,-0.4258825,-0.02369209,-0.2456012
0.05645925,0.9595035,0.3428491,0.1406955,-0.0001390895,-0.1024082,-0.4186163,-0.01783177,-0.2482932
0.06151807,0.9567942,0.3346002,0.1427138,-0.004162124,-0.1073552,-0.4183193,0.006789516,-0.2618026
0.05431401,0.9544472,0.357553,0.1324738,-0.00773191,-0.08117221,-0.4372491,0.03330376,-0.2760729
0.03557299,0.9600658,0.3911772,0.1107026,-0.003248134,-0.04438842,-0.4358355,-0.009147444,-0.2924833
0.02202591,0.96593,0.3865866,0.09413265,0.001566019,-0.04589022,-0.4225128,-0.08770747,-0.2897668
0.0308157,0.968018,0.3726341,0.0999092,0.002685746,-0.05682526,-0.3929491,-0.1200378,-0.2790043
0.04572055,0.9597249,0.3707678,0.1118128,-0.006497389,-0.05574604,-0.3683343,-0.09276296,-0.2703193
0.04251285,0.9483277,0.3610915,0.1056178,-0.0187092,-0.0625486,-0.3552886,-0.07835239,-0.258943
0.03710885,0.9496638,0.3594419,0.09724207,-0.01811515,-0.06139591,-0.3246842,-0.1318962,-0.2573068
0.0373105,0.9558518,0.3636931,0.0944894,-0.01259899,-0.05441321,-0.3027942,-0.1825291,-0.2647354
0.03891342,0.9573657,0.360559,0.0931572,-0.01168912,-0.05488603,-0.3025217,-0.1725206,-0.2675157
0.04548241,0.9535733,0.3575859,0.09681204,-0.01602049,-0.05526721,-0.3016893,-0.1336048,-0.2633195
0.04229864,0.9412642,0.3517147,0.09073665,-0.02880565,-0.05861525,-0.2936294,-0.08788309,-0.2577667
0.0355102,0.925965,0.3522613,0.08108068,-0.04452028,-0.05561314,-0.3027428,-0.0533012,-0.2573455
0.03414602,0.9201856,0.3564366,0.07687469,-0.05065589,-0.04904884,-0.3163642,-0.04660025,-0.2619849
0.02905143,0.927094,0.3535793,0.06896584,-0.04404537,-0.04958278,-0.2811952,-0.06769567,-0.2638481
0.0342468,0.940149,0.3570983,0.07137641,-0.03123106,-0.04380504,-0.2220587,-0.0913111,-0.2550929
0.04277848,0.9505392,0.3617493,0.0771545,-0.021026,-0.03695906,-0.1624426,-0.07470377,-0.2353214
0.04012709,0.9444165,0.359273,0.07178226,-0.02728021,-0.0373033,-0.1095809,-0.05258644,-0.2177603
0.03469993,0.9177582,0.3520327,0.06366827,-0.05401853,-0.0424739,-0.08394292,-0.0563553,-0.2087125
0.02458857,0.8944479,0.3424243,0.05090556,-0.0773587,-0.05007388,-0.04426247,-0.03795781,-0.2016486
0.02081618,0.8937202,0.3418802,0.044519,-0.07806649,-0.04866956,0.008725018,-0.00126034,-0.203342
0.02624908,0.90885,0.3394897,0.04737682,-0.06286674,-0.04917014,0.04051626,0.01490918,-0.21614
0.02877062,0.9355776,0.3254885,0.04736416,-0.0360197,-0.06133826,0.07207365,-0.01410055,-0.2215873
0.03395774,0.9669098,0.3170537,0.05005948,-0.004519895,-0.06799478,0.1221055,-0.05650256,-0.2052122
0.03769723,0.9805251,0.3077606,0.0513508,0.009308293,-0.07556198,0.1679718,-0.04104973,-0.1765312
0.03853606,0.9876465,0.2897506,0.04978603,0.01668392,-0.09189559,0.2089323,-0.03277954,-0.1529885
0.04186058,0.9974013,0.278923,0.05075226,0.02673018,-0.101093,0.31232,-0.06582095,-0.122164
0.04612459,0.9766492,0.2494819,0.05270384,0.006302106,-0.1289462,0.4191125,-0.06484506,-0.07984652
0.05354676,0.9563513,0.1959238,0.05785974,-0.01364304,-0.1809537,0.4465372,-0.05197333,-0.06148306
0.0527974,0.9616109,0.1928824,0.0548903,-0.008004991,-0.1824755,0.5173082,-0.003469612,-0.06946816
0.04428383,0.9477952,0.2304093,0.04420276,-0.02141893,-0.1434532,0.5743162,0.1296889,-0.08209062
0.03898279,0.9381744,0.249036,0.03677394,-0.03061654,-0.1233493,0.4427277,0.2487711,-0.1059617
0.02682484,0.9549495,0.274825,0.0225348,-0.01339848,-0.096097,0.2408698,0.2562858,-0.1275045
0.01481996,0.9824514,0.2888809,0.008496146,0.01456449,-0.0805891,0.02301707,0.1880562,-0.1344654
0.009253141,1.025163,0.2727634,0.0009442458,0.0577524,-0.09526427,-0.2834148,0.1292533,-0.1550188
0.006925425,1.061812,0.260873,-0.003318259,0.09488917,-0.1057204,-0.5537151,0.0721902,-0.1834683
0.01779902,1.069938,0.2347503,0.005672437,0.103507,-0.1304151,-0.6397316,0.05133359,-0.1895729
0.02369681,1.029617,0.2254668,0.009740494,0.0636775,-0.1382742,-0.5661708,0.08404355,-0.1778995
0.01689761,0.9789995,0.2475673,0.001165585,0.01354444,-0.1147499,-0.4963698,0.06314429,-0.1699149
0.01842796,0.980483,0.2458689,0.0009749401,0.01550317,-0.1150225,-0.4630712,0.05189488,-0.1824755
0.0290748,0.9883024,0.2421809,0.00995606,0.02378643,-0.1172807,-0.3954029,0.09105077,-0.1991137
0.0388237,0.9820974,0.2334882,0.01809474,0.01803257,-0.1245377,-0.360958,0.1197323,-0.1945178
0.03042031,1.001771,0.2054102,0.008136392,0.03814348,-0.1511721,-0.3276689,0.1606538,-0.1747391
0.01830675,1.027716,0.1992588,-0.005477137,0.06450902,-0.1558693,-0.3013894,0.1300596,-0.1478505
0.02499461,1.029194,0.2076642,-0.0002343321,0.06639004,-0.1459964,-0.3332767,0.05135691,-0.1278259
0.02800153,1.016577,0.2120385,0.001382475,0.05415338,-0.1401383,-0.2941626,0.03398271,-0.1157823
0.0328721,1.005499,0.2079959,0.004917681,0.04343243,-0.1426788,-0.2600142,0.04246093,-0.09778381
0.04457069,0.9922273,0.2075047,0.0153351,0.03049268,-0.1416476,-0.2545006,0.06389073,-0.09189164
0.03905171,0.9794576,0.2253262,0.008588272,0.01802783,-0.1222818,-0.1750717,0.06129444,-0.1091073
0.03497923,0.9699877,0.2369712,0.003340233,0.008836017,-0.1090698,-0.1552711,0.06143575,-0.1415607
0.04292301,0.964639,0.2294412,0.01015976,0.003739075,-0.1150099,-0.1833352,0.1015648,-0.1697599
0.04428201,0.9769121,0.2017724,0.0104448,0.01623827,-0.1410658,-0.1949074,0.1287624,-0.1742163
0.04322912,0.9997202,0.1739273,0.008367046,0.03924744,-0.1672744,-0.2154985,0.1798413,-0.1741358
0.04223401,1.023256,0.1754659,0.006394948,0.06295878,-0.1640741,-0.2123498,0.1955569,-0.1765405
0.03385934,1.041098,0.1890387,-0.002909983,0.08095007,-0.1488125,-0.2128817,0.1273065,-0.1759611
0.0265392,1.037388,0.1903071,-0.01111455,0.07736062,-0.1458267,-0.2079925,0.08545972,-0.1762264
0.03021107,1.024471,0.1778542,-0.008281893,0.06453364,-0.1565327,-0.2094526,0.08742521,-0.1720758
0.03262215,1.013677,0.1687481,-0.006665358,0.05379759,-0.1638613,-0.2342213,0.09812353,-0.1689655
0.02111865,1.001154,0.1740542,-0.01891933,0.04129891,-0.1567461,-0.2568882,0.07945809,-0.1607403
0.009240523,0.9977223,0.1810563,-0.03150423,0.03785858,-0.1479025,-0.2934561,0.03528335,-0.1457154
0.01006132,0.9990941,0.1802184,-0.03134655,0.03918853,-0.1468659,-0.3086527,0.004104573,-0.1357895
0.02029286,0.994773,0.1749689,-0.02173432,0.03479295,-0.1502077,-0.3263219,-0.005856799,-0.1300099
0.0336204,0.9946859,0.1711724,-0.008982509,0.03459959,-0.1520632,-0.3666555,0.03342016,-0.1340282
0.04222103,1.007042,0.1717481,-0.0009147912,0.04681869,-0.1495133,-0.3822307,0.07223325,-0.1394577
0.04450763,1.020049,0.1844283,0.0008803806,0.05965728,-0.1348258,-0.385077,0.08234107,-0.1442412
0.03957604,1.012236,0.2009602,-0.004502723,0.05164536,-0.1162542,-0.3721425,0.08482562,-0.1591869
0.0301399,0.9941278,0.2058541,-0.01435197,0.0333081,-0.1092895,-0.3571566,0.06379017,-0.1708714
0.02902859,0.9857886,0.2062315,-0.01583917,0.02470979,-0.1068123,-0.3381119,0.06534944,-0.175566
0.02754432,0.982129,0.2085567,-0.01766306,0.02076253,-0.1023605,-0.2996802,0.08535014,-0.1708415
0.01452319,0.9839114,0.2160187,-0.03098829,0.02223029,-0.0927476,-0.2657377,0.09375,-0.1446883
0.004846342,0.9860703,0.2199603,-0.04093418,0.02404923,-0.08663333,-0.2250711,0.08416215,-0.1103353
0.008580078,0.9853382,0.207989,-0.03743448,0.0229536,-0.09641306,-0.2119488,0.05716042,-0.09820499
0.02014743,0.9885087,0.1949656,-0.02606617,0.02573825,-0.1072284,-0.231321,0.07493049,-0.1049754
0.02969971,0.9886358,0.1954328,-0.01667833,0.02545883,-0.1045388,-0.2297009,0.09950228,-0.1030381
0.03295328,0.9913729,0.199747,-0.01355552,0.02776982,-0.0979897,-0.2273635,0.1035907,-0.1062894
0.026204,0.9950701,0.1980256,-0.02040307,0.03102267,-0.0974654,-0.2278385,0.1112433,-0.1105515
0.01474308,0.9920085,0.1991702,-0.0319309,0.02749953,-0.09406622,-0.2137393,0.08364136,-0.08728921
0.01471707,0.9931924,0.2008109,-0.03199323,0.02820564,-0.09016382,-0.1955952,0.07168993,-0.06387896
0.01880619,0.9935122,0.1987422,-0.02791042,0.02803244,-0.08996586,-0.1778935,0.08775742,-0.05576903
0.0199679,0.992317,0.2018703,-0.02672564,0.02633004,-0.08456779,-0.1581655,0.08383604,-0.04991811
0.02302508,0.9943313,0.2010669,-0.02361679,0.02782401,-0.08310019,-0.1295457,0.06288939,-0.04722809
0.02676419,0.9962929,0.1963625,-0.01979834,0.02925305,-0.0855342,-0.1137216,0.02599576,-0.0475649
0.03408127,1.004086,0.1925923,-0.01237539,0.03650271,-0.08703654,-0.1124267,0.02225052,-0.05201954
0.03678719,1.010409,0.1855416,-0.009538441,0.04227107,-0.09182342,-0.0994925,0.03724758,-0.05612602
0.03601312,1.009916,0.1802348,-0.0101579,0.04121229,-0.09487188,-0.09664744,0.02995133,-0.0588258
0.03889167,1.008369,0.1725452,-0.007102793,0.0390904,-0.1003094,-0.1046301,0.03656719,-0.0632121
0.03722003,1.006006,0.1650951,-0.008577529,0.03614141,-0.1055144,-0.1074044,0.05444008,-0.0684511
0.037947,1.005241,0.1605791,-0.007634933,0.03478155,-0.1077925,-0.1288428,0.07838763,-0.06988388
0.04008077,1.005949,0.1588114,-0.005268367,0.03488604,-0.1073299,-0.1494744,0.08679247,-0.06808807
0.0377441,1.0084,0.1650823,-0.007356588,0.03672341,-0.09883616,-0.1433229,0.06286996,-0.07590107
0.03741276,1.010103,0.1636258,-0.007425316,0.03780592,-0.09807766,-0.1267551,0.03944087,-0.07995931
0.03618169,1.005785,0.1568502,-0.008380977,0.03285871,-0.1026463,-0.1050775,0.00833065,-0.07763286
0.03894908,0.9982149,0.1523881,-0.005326677,0.02465312,-0.1049098,-0.1009433,-0.005494416,-0.08427738
0.04553616,0.9953343,0.1439945,0.00155749,0.02113006,-0.1111132,-0.1208987,0.02380336,-0.08754066
0.04663404,1.003803,0.1436683,0.002961195,0.02895059,-0.1092574,-0.1353504,0.03918253,-0.09340249
0.04454803,1.011855,0.143906,0.001188213,0.03635055,-0.1068457,-0.1395512,0.0243185,-0.1000981
0.03908228,1.008258,0.1426278,-0.00395874,0.03209651,-0.1059577,-0.1335778,0.01571606,-0.09416653
0.03347393,1.00576,0.1480745,-0.009243735,0.02893805,-0.09835243,-0.1239587,0.01969317,-0.09156491
0.03349949,1.006858,0.1474019,-0.008891179,0.02937147,-0.09687423,-0.1083663,0.009016935,-0.0892695
0.03393257,1.000637,0.1476941,-0.008128176,0.02248422,-0.09443917,-0.07732738,-0.01250672,-0.08211214
0.03121857,0.9929207,0.1496958,-0.01050998,0.01409883,-0.09030308,-0.05452481,-0.01480697,-0.07603224
0.03119669,0.9920479,0.1477457,-0.01019801,0.01255637,-0.09012763,-0.03300072,-0.01054771,-0.06139287
0.03269408,0.9937484,0.1470212,-0.00836562,0.01358734,-0.08873589,-0.003068211,-0.01324652,-0.04114656
0.02958936,0.9950789,0.1377382,-0.0111347,0.01424958,-0.09591239,0.01448015,-0.01748553,-0.02333382
0.02841286,0.9964496,0.1275181,-0.01197537,0.01495434,-0.1040361,0.03020965,-0.02611882,-0.002750377
0.03090565,0.9987501,0.1258617,-0.00914691,0.01659211,-0.1036059,0.04452295,-0.03763403,0.01850197
0.03510519,1.003437,0.1210344,-0.004612285,0.02062041,-0.1063563,0.05530439,-0.05161739,0.03928987
0.04240971,1.007043,0.1130765,0.003026206,0.02357152,-0.1122464,0.07176088,-0.05785157,0.0601665
0.04695826,1.005925,0.1061216,0.007906793,0.02180475,-0.117142,0.07925481,-0.05395562,0.06125692
0.05141502,1.005422,0.09677171,0.01269265,0.02065778,-0.1244401,0.08900318,-0.05605396,0.05032717
0.0544726,1.010609,0.0918278,0.01607517,0.02520528,-0.1273386,0.1012635,-0.05358696,0.05384856
0.05602027,1.014388,0.08961076,0.0179423,0.0283514,-0.1275153,0.09048335,-0.03106101,0.05365875
0.06864209,1.014363,0.07193727,0.03087669,0.0276985,-0.1431521,0.07332084,-0.004715261,0.04553257
0.07609614,1.01666,0.05645921,0.03863477,0.02937343,-0.1565954,0.06171382,-0.000345975,0.04166837
0.06824817,1.01918,0.05593805,0.03108042,0.03127593,-0.1550815,0.05703106,-0.01300846,0.03949938
0.06729522,1.018832,0.04856842,0.03040888,0.03031577,-0.1604134,0.06114769,-0.01615785,0.04280674
0.07441333,1.014521,0.042576,0.03779462,0.02539747,-0.1643629,0.0502564,-0.01640864,0.03761894
0.0807847,1.008252,0.04173623,0.0444183,0.0185252,-0.1631523,0.03312241,-0.02501556,0.03077651
0.08477981,1.008014,0.03779547,0.04864874,0.01768981,-0.1650329,0.03181237,-0.03289521,0.02804056
0.0846866,1.013848,0.03845039,0.04877209,0.02293098,-0.162306,0.03739709,-0.04519527,0.01425684
0.0871893,1.018484,0.03870585,0.05147085,0.02697949,-0.1599648,0.04259035,-0.05582659,0.01908565
0.09032797,1.017824,0.03169435,0.05478341,0.02573685,-0.1648751,0.03508787,-0.05613625,0.02742017
0.08960988,1.012411,0.01399536,0.05421549,0.01974646,-0.1804559,0.007302844,-0.05286518,0.007636483
0.09321648,1.006182,-0.0009967537,0.05794699,0.01294644,-0.1933108,-0.02643631,-0.03445057,-0.006069053
0.09982602,1.004346,0.005200716,0.06465475,0.01054373,-0.1849549,-0.03617414,-0.00798392,-0.01687652
0.1009504,1.007385,0.01611809,0.06584916,0.01302211,-0.1718558,-0.01996905,-0.004085124,-0.03829597
0.09938471,1.010266,0.01719713,0.06432389,0.0153497,-0.16857,-0.006478814,-0.01256694,-0.05151865
0.09931269,1.010985,0.0156659,0.06426132,0.01552173,-0.1678686,0.01994861,-0.009089939,-0.04946161
0.09899776,1.008453,0.01291347,0.06392381,0.01244981,-0.1683617,0.04314212,-0.00341949,-0.04743355
0.09841819,1.00298,0.006840334,0.06328869,0.006444479,-0.1721482,0.03346998,0.003195788,-0.06268387
0.09764512,0.9989445,0.002775246,0.06242635,0.001884029,-0.1738989,0.04241879,0.01607718,-0.06705845
0.09738161,0.9977622,0.002421346,0.06203934,0.000185426,-0.17191,0.06627013,0.01123569,-0.05875465
0.1003761,1.003404,-0.001900787,0.06487565,0.005320244,-0.1738606,0.0704441,-0.006626865,-0.06167735
0.1040464,1.014978,-0.01708306,0.06835278,0.01639647,-0.1866421,0.05542189,-0.01839462,-0.05808337
0.1043601,1.022132,-0.03782984,0.06843791,0.02306227,-0.2049582,0.02230729,-0.0253818,-0.05389076
0.1008851,1.025241,-0.05172101,0.06469873,0.0256934,-0.2163874,0.009254082,-0.01610336,-0.0428573
0.09714391,1.021406,-0.05410319,0.06065758,0.02138791,-0.2162747,-0.005462274,-0.002569892,-0.01374612
0.0976495,1.008435,-0.04901788,0.06082763,0.007956088,-0.2086597,-0.04762286,0.002319708,-0.002748762
0.1018546,1.002805,-0.04919844,0.06466189,0.001872334,-0.2062743,-0.06580475,0.003508087,-0.01029965
0.1050737,1.002528,-0.05257281,0.06747525,0.001150973,-0.2070454,-0.0697321,-0.003732004,-0.01842065
0.1019369,1.000135,-0.0484303,0.06389799,-0.001677029,-0.2002614,-0.07019761,-0.01008486,-0.0243136
0.09810252,1.00749,-0.04193582,0.05958888,0.0052513,-0.1910868,-0.04706336,-0.03089014,-0.01975168
0.1014022,1.020407,-0.03574784,0.06238012,0.01775239,-0.1821801,-0.02537536,-0.06247477,-0.006550536
0.1067627,1.023539,-0.04527228,0.06719904,0.02047825,-0.1889478,-0.02158214,-0.06358971,0.005909547
0.1127074,1.014514,-0.06304025,0.07256963,0.01105626,-0.2039215,-0.02257235,-0.0539753,0.006302601
0.1160731,1.006939,-0.05858562,0.07532905,0.003092431,-0.1966355,-0.01484751,-0.05720897,-0.002360273
0.1130982,1.00974,-0.05394462,0.07171579,0.005514278,-0.1891262,-0.01361278,-0.07001649,-0.007166567
0.1136939,1.009612,-0.0595,0.07164151,0.005015837,-0.191777,-0.02219717,-0.08258617,-0.003083732
0.1168949,1.001979,-0.06493272,0.07414119,-0.002977913,-0.1942694,-0.02396276,-0.06719946,0.004436608
0.1173315,0.9951686,-0.0758087,0.07384564,-0.01013995,-0.20217,-0.03472541,-0.04392579,0.008766322
0.1188996,0.9918117,-0.07415169,0.07465112,-0.01383836,-0.197503,-0.04359457,-0.0402418,0.01356358
0.1191577,0.990707,-0.06862729,0.07411667,-0.01527378,-0.1889348,-0.03517357,-0.03813394,0.01219593
0.1207569,0.9870495,-0.07585002,0.07489391,-0.01925022,-0.1930804,-0.03283958,-0.03558565,0.003735692
0.1254495,0.9847709,-0.07957429,0.07873556,-0.02183505,-0.1936952,-0.03194287,-0.03984602,-0.002594056
0.1271641,0.9933779,-0.08615322,0.07957077,-0.01352083,-0.1971333,-0.01963853,-0.04579559,-0.009010107
0.1275916,1.009628,-0.0947353,0.0790908,0.002450306,-0.2025439,-0.008381716,-0.05364002,-0.01493871
0.1278719,1.022801,-0.09982459,0.07843598,0.01535899,-0.2044317,-0.01399791,-0.05933083,-0.02100668
0.1286709,1.02564,-0.1121946,0.07827279,0.01794747,-0.2135705,-0.02319439,-0.05644278,-0.01718284
0.1297255,1.015096,-0.1169302,0.07833867,0.007164561,-0.2150455,-0.01869691,-0.04824503,-0.004517802
0.1286809,0.9977822,-0.1146345,0.07627941,-0.01037574,-0.2094599,-0.02502688,-0.04258292,-0.005035182
0.1283305,0.9902453,-0.1184711,0.07488901,-0.0181278,-0.2099775,-0.04013674,-0.04991586,-0.005773703
0.127832,0.992517,-0.1184475,0.073326,-0.01605945,-0.2066061,-0.04781645,-0.06728005,-0.003077318
0.1284611,0.9924994,-0.1173077,0.07286701,-0.01626796,-0.2020903,-0.06946169,-0.07999794,-0.008322943
0.1308473,0.9938889,-0.1166036,0.07414234,-0.01505646,-0.1979826,-0.09389491,-0.09091536,-0.006581742
0.131151,0.9979435,-0.1154252,0.07331345,-0.01116663,-0.1933742,-0.09560679,-0.1033568,-0.004997731
0.133502,0.9979394,-0.1208246,0.07451081,-0.01132215,-0.1953184,-0.09391837,-0.1052279,-0.005893287
0.1383476,0.9974624,-0.1257336,0.0781827,-0.0119371,-0.1967479,-0.10135,-0.09495436,0.002055244
0.1428276,0.9980579,-0.1258728,0.08146951,-0.01146609,-0.1933848,-0.09360058,-0.07519652,0.004927619
0.1464857,0.9935225,-0.1258435,0.08391573,-0.01611259,-0.1898315,-0.08063149,-0.04224971,-0.001518011
0.1458649,0.9884656,-0.1268506,0.08206461,-0.02126703,-0.1872943,-0.08587123,-0.02514351,-0.01586865
0.1423876,0.9921137,-0.1255502,0.07733907,-0.01770276,-0.1824307,-0.076003,-0.04219568,-0.03153918
0.1400908,0.9966617,-0.1247504,0.07377669,-0.01322471,-0.1780504,-0.05203188,-0.04951592,-0.03170863
0.1397234,0.9946187,-0.1299659,0.07212722,-0.01532368,-0.1796697,-0.04028972,-0.04550067,-0.01962754
0.1398046,0.9903666,-0.1355881,0.07091086,-0.019618,-0.181682,-0.02794854,-0.05530454,-0.008193603
0.1400603,0.9863134,-0.1405282,0.06985442,-0.0236995,-0.1829998,-0.02573838,-0.05518417,-0.005224924
0.1429884,0.9881448,-0.144681,0.07145668,-0.02188238,-0.1835194,-0.03811281,-0.04847675,-0.00330332
0.1458574,0.9942155,-0.1483188,0.07298729,-0.01581187,-0.1835144,-0.05318153,-0.04017397,0.001854186
0.1453441,0.9949661,-0.1531423,0.07112392,-0.01504736,-0.1846867,-0.0651106,-0.02682227,0.0007721767
0.1454749,0.9943152,-0.1541556,0.06989365,-0.01567037,-0.1820415,-0.06202193,-0.03883087,0.002650909
0.1464808,0.9945983,-0.1558878,0.06952844,-0.01534588,-0.180109,-0.06396364,-0.06116747,0.01249058
0.1460357,0.9942871,-0.1587312,0.06770312,-0.01560241,-0.1792827,-0.0818544,-0.07134042,0.02132409
0.148374,0.9956846,-0.1623681,0.06865292,-0.01413716,-0.1792459,-0.1031366,-0.07690997,0.02572267
0.1526621,0.995084,-0.1680747,0.07154517,-0.01465746,-0.1812759,-0.1227112,-0.04648849,0.01950288
0.1572513,0.9913044,-0.1610304,0.07473182,-0.01834457,-0.1705531,-0.1215113,0.004866552,0.0009649046
0.1637258,0.9876877,-0.1493297,0.07979761,-0.02185676,-0.1551735,-0.1077236,0.01080172,-0.02663135
0.1638672,0.9880783,-0.1500216,0.07852458,-0.02134983,-0.1521875,-0.105745,-0.001360757,-0.04546511
0.1597082,0.990183,-0.1564863,0.07294557,-0.01911707,-0.1549773,-0.1107524,0.01066297,-0.044991
0.1605118,0.9882892,-0.1662735,0.07232399,-0.02087116,-0.1610944,-0.125396,0.02351769,-0.05098474
0.1593608,0.9880203,-0.172522,0.06974325,-0.02098902,-0.1636794,-0.1499714,0.04065389,-0.0591471
0.155624,0.9870647,-0.1691677,0.06457259,-0.02178223,-0.1566691,-0.1676367,0.05319844,-0.05268361
0.1528991,0.9832824,-0.1666859,0.06041061,-0.02539109,-0.1505403,-0.1701727,0.03675344,-0.05347313
0.1504772,0.9856451,-0.1624445,0.05654933,-0.02284402,-0.1426622,-0.1688433,0.02690065,-0.05869502
0.1540996,0.9871878,-0.1547401,0.05873107,-0.02110588,-0.1313331,-0.1773737,0.03305336,-0.06374395
0.1574546,0.9853823,-0.1583135,0.06064522,-0.02270524,-0.1312958,-0.1815281,0.03067956,-0.0780921
0.1557922,0.9870752,-0.1657782,0.05754257,-0.02079565,-0.1351657,-0.1803582,0.02862342,-0.07998771
0.1567193,0.9904686,-0.1672851,0.05703087,-0.01717531,-0.1330955,-0.1861417,0.03156967,-0.07299674
0.1557059,0.9961241,-0.1723765,0.05458116,-0.01128295,-0.1346292,-0.1930538,0.03575539,-0.07561145
0.1533541,0.9984248,-0.1693044,0.05079638,-0.008736198,-0.1280202,-0.2092832,0.04066509,-0.07902131
0.156101,0.9936109,-0.159108,0.05211448,-0.01329564,-0.1143093,-0.2164978,0.03763976,-0.0830317
0.1575029,0.9895922,-0.1621287,0.05209272,-0.01705197,-0.1138394,-0.2048848,0.0287166,-0.08523053
0.1532203,0.9869216,-0.1603975,0.0463926,-0.01945298,-0.1086435,-0.2043809,0.02570885,-0.08344
0.1442391,0.9835854,-0.1524522,0.03600074,-0.0225127,-0.09726125,-0.201612,0.02421743,-0.08149683
0.1366943,0.9829477,-0.1543262,0.02705368,-0.02286717,-0.09572826,-0.2012497,0.009990025,-0.07236327
0.1386472,0.985386,-0.1511478,0.02761399,-0.02013902,-0.08917489,-0.218777,-0.01917664,-0.06058015
0.1440718,0.9871801,-0.1469958,0.0316575,-0.01804866,-0.08168215,-0.2280707,-0.04364434,-0.05382856
0.1443081,0.9883534,-0.1498257,0.0305255,-0.01657293,-0.08120762,-0.2339971,-0.05449282,-0.05029828
0.1417847,0.9936683,-0.1526453,0.02664794,-0.01094982,-0.08076137,-0.2504668,-0.09192335,-0.04479079
0.1416702,1.003224,-0.1557236,0.02519456,-0.00108117,-0.08061441,-0.2733877,-0.1333489,-0.03203636
0.1503811,1.008099,-0.153997,0.03258295,0.004111491,-0.07570482,-0.2838571,-0.09186444,-0.02281871
0.1615054,1.000206,-0.1532994,0.04240212,-0.003460147,-0.07186809,-0.2857522,-0.03097866,-0.02423097
0.1589191,0.9909738,-0.1552887,0.03852849,-0.01237014,-0.07076376,-0.3244839,-0.03045165,-0.03533124
0.1538497,0.9932961,-0.1530437,0.03218973,-0.009723846,-0.06547214,-0.3772529,-0.02032963,-0.06404332
0.1538353,0.9944187,-0.1512922,0.03092438,-0.008276287,-0.06072243,-0.396998,-0.008968951,-0.1022265
0.1460112,0.9907398,-0.1440661,0.02186809,-0.01162989,-0.05054804,-0.4122578,-0.0346024,-0.1265556
0.1421922,0.9946505,-0.1331976,0.01683642,-0.007393869,-0.03678268,-0.44811,-0.03808027,-0.1312967
0.151178,1.003011,-0.1273631,0.02462987,0.001291429,-0.02810489,-0.4705272,-0.02366374,-0.131395
0.1602612,1.01076,-0.122763,0.03254157,0.009364345,-0.02071705,-0.4810258,-0.008628968,-0.1398068
0.161618,1.011541,-0.1207371,0.03274814,0.01046684,-0.01596137,-0.5329096,0.01893321,-0.1602593
0.1569984,1.00562,-0.1155916,0.0269995,0.004863407,-0.008146373,-0.5801094,0.03841553,-0.1922576
0.1514804,1.006024,-0.1002032,0.02037371,0.00558142,0.009848927,-0.57893,0.0463369,-0.2275983
0.1380865,1.006064,-0.08411042,0.005893598,0.0059303,0.02848316,-0.5867017,0.03952398,-0.2528459
0.1268618,1.004307,-0.07960082,-0.006395061,0.004475243,0.03546575,-0.5935289,0.03707098,-0.2628963
0.1303549,1.006718,-0.07764968,-0.003942269,0.00718174,0.03981804,-0.5906798,0.04931026,-0.267564
0.1269429,1.005997,-0.05655233,-0.008369708,0.00675017,0.06324128,-0.6061398,0.05064568,-0.2695092
0.1182317,1.010711,-0.03542842,-0.01807009,0.01174418,0.08661214,-0.6125542,0.05386237,-0.2709671
0.1145204,1.020125,-0.0375954,-0.02274284,0.02143013,0.08660904,-0.6141443,0.05410183,-0.2793435
0.1074306,1.021719,-0.03438175,-0.03076469,0.02328656,0.09189924,-0.6296471,0.05275649,-0.2858269
0.1055156,1.018839,-0.01654559,-0.03358048,0.02065865,0.1117206,-0.6466587,0.06614797,-0.2974029
0.1023514,1.014987,-0.006295332,-0.03761249,0.01704664,0.1238605,-0.6555115,0.06996224,-0.3151074
0.08808271,1.01488,0.0001800647,-0.05271406,0.01716701,0.1321258,-0.6602596,0.06521079,-0.319246
0.08043278,1.016877,0.006462817,-0.06115984,0.0193779,0.1400945,-0.6760329,0.05957189,-0.3170674
0.07893158,1.020272,0.009137305,-0.06341752,0.02297327,0.1443469,-0.6950527,0.06000024,-0.3095792
0.07098561,1.026565,0.01720864,-0.07207818,0.02945253,0.1538842,-0.7122697,0.06965363,-0.2992288
0.0617627,1.025759,0.03182248,-0.08197149,0.02881691,0.1698485,-0.7232046,0.06840023,-0.2969838
0.0530079,1.023512,0.05584683,-0.09134983,0.02672477,0.1951041,-0.712478,0.05308909,-0.2865829
0.0422188,1.024566,0.08431099,-0.1027128,0.02791722,0.2246759,-0.6888522,0.01834715,-0.267333
0.03755578,1.01965,0.09727273,-0.1078971,0.02312173,0.238617,-0.6560389,-0.01261301,-0.2567361
0.03887271,1.010927,0.1075992,-0.1070459,0.01450252,0.2497893,-0.6320603,-0.02117437,-0.2574742
0.03705949,1.006227,0.1195295,-0.1092665,0.009887878,0.2624267,-0.6383969,-0.02860826,-0.2554444
0.03660785,1.014136,0.1186915,-0.1100647,0.01786522,0.262152,-0.6520281,-0.02085702,-0.249705
0.03609044,1.024699,0.1308189,-0.1108657,0.02847932,0.2746944,-0.6574697,-0.00734325,-0.2519523
0.02640792,1.020439,0.1534969,-0.1207668,0.0242535,0.2976345,-0.6426867,-0.01626746,-0.2451691
0.01742157,1.014372,0.1665978,-0.129905,0.01820362,0.3108404,-0.6095025,-0.04131914,-0.235417
0.01718442,1.011707,0.1795747,-0.130225,0.01553917,0.3237606,-0.5961541,-0.07530064,-0.2420664
0.02042581,1.003258,0.1782364,-0.1269959,0.007074021,0.3221996,-0.6041959,-0.08144995,-0.2568014
0.02032516,0.9983321,0.1745391,-0.1270365,0.002115034,0.3181096,-0.627057,-0.0498097,-0.2850157
0.0110383,0.9982376,0.191413,-0.1361899,0.001972923,0.3344177,-0.6628954,-0.03681718,-0.3068975
-0.003520352,1.002307,0.2146679,-0.1505404,0.00598027,0.3569307,-0.6550381,-0.05995198,-0.2993119
-0.01271592,1.008633,0.2387694,-0.1594519,0.01223184,0.3801111,-0.5824852,-0.0803101,-0.2743726
-0.01105403,0.9997191,0.2429111,-0.1574282,0.003231255,0.3831493,-0.5165357,-0.07789675,-0.248502
-0.007569154,0.9877737,0.234549,-0.1535024,-0.008812484,0.3734979,-0.5196099,-0.08022639,-0.2569687
-0.005523609,0.9860846,0.2414817,-0.1509357,-0.0106102,0.3789531,-0.5565987,-0.08565489,-0.2841993
-0.0003442757,0.9804945,0.2448713,-0.1451545,-0.01631753,0.3806752,-0.5672104,-0.03831637,-0.2951752
-0.007977998,0.9777286,0.260235,-0.1521054,-0.01920777,0.3941801,-0.5663373,0.04655169,-0.3126727
-0.02753698,0.9803693,0.2975836,-0.1709005,-0.0166968,0.4294773,-0.545549,0.08718491,-0.317416
-0.04202379,0.9758498,0.3170927,-0.1845419,-0.02134974,0.4467408,-0.4871629,0.07360184,-0.3044941
-0.05024039,0.9631877,0.3140738,-0.1918309,-0.03414719,0.4412801,-0.4554704,0.06531573,-0.3084651
-0.04870136,0.9460363,0.3079748,-0.1892808,-0.05143389,0.4325411,-0.4806268,0.08190247,-0.3136722
-0.05005817,0.9424728,0.3126726,-0.1895422,-0.05513009,0.4343997,-0.5311975,0.1041562,-0.3282546
-0.06046629,0.9539078,0.3252639,-0.1987697,-0.04382241,0.4439525,-0.5533786,0.1366567,-0.3467121
-0.06741896,0.9592913,0.3404621,-0.2044561,-0.03855855,0.4559129,-0.5156737,0.1458267,-0.3365924
-0.08218517,0.9704034,0.3643556,-0.2178695,-0.02755635,0.4763693,-0.4590867,0.1064349,-0.3164425
-0.09873772,0.9880667,0.3833079,-0.2329819,-0.009992018,0.4916851,-0.4143026,0.06412323,-0.2874508
-0.09669854,0.9799768,0.3811905,-0.2294138,-0.01816948,0.4857313,-0.3987847,0.03412451,-0.2630443
-0.09159321,0.9489932,0.368429,-0.2226896,-0.04922876,0.4689336,-0.4317604,0.05245607,-0.268898
-0.09617743,0.922187,0.3698654,-0.2255645,-0.07609744,0.4661349,-0.4728693,0.1104601,-0.2700736
-0.09962277,0.916261,0.3769747,-0.2272094,-0.08207052,0.4688119,-0.4714424,0.1313472,-0.2572312
-0.1088754,0.9197532,0.386179,-0.2345705,-0.07860711,0.4733891,-0.45074,0.1409301,-0.2464072
-0.1333134,0.9081023,0.4138012,-0.2570257,-0.09026562,0.4961916,-0.4299971,0.1184402,-0.2228167
-0.1464614,0.9037073,0.4242761,-0.2680987,-0.09464401,0.5016565,-0.3716544,0.05027579,-0.1969192
-0.1485307,0.9124953,0.4298135,-0.268,-0.08581245,0.5019955,-0.3113093,0.004226915,-0.1871331
-0.1623484,0.9070753,0.4548528,-0.2795553,-0.09115943,0.5216499,-0.2875893,-0.04812208,-0.1762237
-0.1646276,0.905945,0.4503479,-0.2794769,-0.0921848,0.5115755,-0.2644396,-0.07680209,-0.1580057
-0.1546411,0.9060555,0.4409982,-0.2670366,-0.09193534,0.496474,-0.2449169,-0.05714469,-0.1380447
-0.1563421,0.8950543,0.4515202,-0.2661871,-0.1027618,0.5010647,-0.2295446,-0.04600688,-0.1175812
-0.1571092,0.8969091,0.4486265,-0.2643073,-0.1006944,0.4920636,-0.216558,-0.03294548,-0.10398
-0.1561919,0.9000345,0.4488442,-0.2606473,-0.09731668,0.486002,-0.2122769,-0.05824665,-0.09279378
-0.1599996,0.9000805,0.4535187,-0.2616173,-0.09697722,0.4842296,-0.1930535,-0.1233197,-0.08917623
-0.1598747,0.9041439,0.4513747,-0.2585608,-0.09257787,0.4754758,-0.1734375,-0.1586529,-0.08975918
-0.1608533,0.8987403,0.4568054,-0.2565156,-0.09760229,0.474139,-0.1673004,-0.1708039,-0.07549641
-0.1636267,0.8955395,0.4630002,-0.2561744,-0.1003797,0.473414,-0.1545043,-0.1656782,-0.06522756
-0.1635412,0.8980892,0.4677933,-0.2528857,-0.09736175,0.4711406,-0.1379146,-0.1626605,-0.06305659
-0.1620602,0.8990185,0.4749525,-0.2481146,-0.09591891,0.4710923,-0.1357671,-0.1745904,-0.05439408
-0.1571346,0.9013502,0.4752077,-0.2398148,-0.09302805,0.4640045,-0.1411264,-0.1923836,-0.05412186
-0.15136,0.9045505,0.473832,-0.2305845,-0.08922292,0.4551563,-0.1437702,-0.2245431,-0.07452864
-0.1397633,0.9118976,0.4766946,-0.2154538,-0.08122563,0.4504229,-0.1582478,-0.2235387,-0.1063425
-0.1234694,0.9148471,0.4792998,-0.1955517,-0.07758119,0.4453153,-0.1907469,-0.1730796,-0.1226022
-0.1228821,0.90655,0.4858666,-0.1912865,-0.08513974,0.4440585,-0.2422209,-0.1265833,-0.1279823
-0.1311531,0.8977336,0.4993044,-0.1958149,-0.09317463,0.4495687,-0.2709957,-0.1105701,-0.1430524
-0.1319479,0.8953164,0.5099056,-0.1928074,-0.09476827,0.4521443,-0.2601124,-0.1179782,-0.1525448
-0.1338769,0.8950525,0.5073737,-0.1908791,-0.09416707,0.4414947,-0.2817523,-0.1142168,-0.1586617
-0.1420966,0.8919478,0.503418,-0.1951911,-0.09636549,0.4293352,-0.306033,-0.1032419,-0.1704181
-0.1496048,0.8910766,0.5071334,-0.1987456,-0.09628986,0.4247669,-0.2985824,-0.1039189,-0.1797385
-0.1477875,0.8905836,0.5072579,-0.1929325,-0.09579614,0.4165343,-0.3345184,-0.0893727,-0.1873867
-0.1443412,0.8816217,0.5136719,-0.1854525,-0.1037319,0.4145243,-0.3935359,-0.06342182,-0.1891366
-0.1519928,0.8651606,0.5279522,-0.1890363,-0.1191278,0.4203198,-0.4129228,-0.0360003,-0.186612
-0.1571023,0.8546661,0.5362908,-0.190048,-0.1285182,0.4201192,-0.3991916,-0.01444922,-0.1860723
-0.1569922,0.8597442,0.5504223,-0.1858136,-0.1222967,0.4256625,-0.3975775,-0.01818668,-0.1869112
-0.1678766,0.8609721,0.5649737,-0.1925506,-0.1198855,0.4315822,-0.4253154,-0.02997745,-0.1920967
-0.1811028,0.845078,0.5724223,-0.2016097,-0.1345564,0.43036,-0.4337053,-0.04360144,-0.2044691
-0.1872185,0.8173753,0.5881677,-0.2035412,-0.1609953,0.4374001,-0.4222663,-0.05338426,-0.2204747
-0.1913892,0.7919208,0.6086193,-0.2035128,-0.1851442,0.4491155,-0.4106695,-0.05564339,-0.2253459
-0.1896638,0.7972341,0.6207288,-0.1975756,-0.1784813,0.4524613,-0.3938729,-0.05175574,-0.2205761
-0.1801319,0.8057647,0.6164802,-0.1838215,-0.168555,0.4394246,-0.395397,-0.00772699,-0.2064328
-0.1760983,0.7873975,0.6132694,-0.1755576,-0.1854783,0.4274038,-0.4073826,0.0471831,-0.1663302
-0.1912561,0.7775229,0.6299192,-0.1864799,-0.1938591,0.4352254,-0.4209489,0.05887355,-0.1331016
-0.2183399,0.7635556,0.644386,-0.2093254,-0.2062806,0.4408485,-0.4394832,0.04185087,-0.1316692
-0.2351617,0.7427369,0.650599,-0.2219076,-0.2254991,0.4382053,-0.4309921,0.02824977,-0.1359633
-0.235871,0.7474896,0.655164,-0.2183768,-0.2190892,0.433904,-0.3929505,0.02331774,-0.1463916
-0.2337118,0.7475878,0.660211,-0.2119774,-0.217274,0.4300774,-0.3510752,0.003482468,-0.1625889
-0.2270089,0.758211,0.6699604,-0.2010346,-0.2048719,0.430948,-0.3355331,-0.001251565,-0.1711863
-0.2077646,0.78942,0.6674917,-0.177552,-0.1718208,0.4195981,-0.3666347,0.03320294,-0.176377
-0.1917779,0.7820524,0.6697223,-0.1573303,-0.1772829,0.4129476,-0.4101507,0.06038916,-0.1762127
-0.1900339,0.7487687,0.6896237,-0.1513571,-0.208598,0.4239707,-0.4328703,0.06461487,-0.1658847
-0.1995571,0.7178027,0.6997262,-0.15666,-0.2375322,0.4252001,-0.4454163,0.06148709,-0.1457869
-0.2127806,0.6972811,0.7058964,-0.165675,-0.2559576,0.4225044,-0.461576,0.08224638,-0.1236057
-0.2167975,0.6946298,0.7118385,-0.1654976,-0.2564461,0.41959,-0.4700257,0.1117101,-0.1121382
-0.2185611,0.6887865,0.7175083,-0.1630828,-0.2600576,0.4164142,-0.4630038,0.1103402,-0.1054873
-0.2211161,0.6876845,0.7279484,-0.1614775,-0.2588566,0.4180217,-0.4642739,0.1196707,-0.08569485
-0.2165184,0.6804529,0.7294766,-0.1527391,-0.2637123,0.4107319,-0.4689093,0.1415276,-0.06884686
-0.2174323,0.6506041,0.7396966,-0.1495339,-0.29111,0.4121502,-0.4638916,0.1413349,-0.06850261
-0.2269263,0.625385,0.7613819,-0.154932,-0.3138009,0.4250516,-0.4606675,0.139245,-0.05419805
-0.2381549,0.6032665,0.7639903,-0.1620896,-0.333311,0.4188952,-0.4473815,0.1467579,-0.04355286
-0.2478775,0.5896028,0.7605769,-0.1677673,-0.3442823,0.4067371,-0.4438474,0.1607829,-0.06781523
-0.2506631,0.5899555,0.7665945,-0.1665348,-0.3411494,0.4040311,-0.4626728,0.1729499,-0.0926878
-0.2566367,0.5876678,0.7668569,-0.1685175,-0.3405655,0.3955926,-0.4806556,0.1805381,-0.0975474
-0.2679328,0.5876544,0.7702194,-0.1758503,-0.3376128,0.3902783,-0.4978836,0.2011723,-0.08320166
-0.2805998,0.5822689,0.7911629,-0.1845813,-0.3399352,0.4025708,-0.4857215,0.2204784,-0.06158351
-0.2993664,0.5683793,0.8206501,-0.1994387,-0.3506624,0.4234338,-0.4420557,0.1812218,-0.04698076
-0.3056157,0.5504524,0.8394728,-0.2018046,-0.3653258,0.4336598,-0.3823246,0.09450687,-0.03508209
-0.2869282,0.5259925,0.8298993,-0.1792581,-0.3864186,0.4155164,-0.3328824,0.058868,-0.05658824
-0.270945,0.509779,0.8214209,-0.1594393,-0.399159,0.3984949,-0.3547937,0.08875831,-0.1084324
-0.2793828,0.5010406,0.8294617,-0.164065,-0.4043151,0.3980197,-0.3723433,0.1104388,-0.1298879
-0.2929381,0.490972,0.8249316,-0.1738317,-0.4106893,0.3850014,-0.3392384,0.1144527,-0.1182495
-0.3024862,0.4802535,0.8314497,-0.1796146,-0.4175986,0.3830602,-0.3151372,0.1286781,-0.1015483
-0.3189939,0.4717377,0.8507065,-0.1923802,-0.4221878,0.3938876,-0.2666538,0.1190645,-0.09211094
-0.321286,0.4674942,0.8528573,-0.1909521,-0.4223849,0.3876398,-0.2335241,0.07810865,-0.09556001
-0.3124834,0.4639014,0.8544737,-0.1784501,-0.4218094,0.3808892,-0.2480914,0.06973345,-0.09921586
-0.3139789,0.4677323,0.8593228,-0.1762663,-0.413687,0.3774036,-0.2340681,0.07393614,-0.0954568
-0.3083296,0.470872,0.8644666,-0.1669569,-0.4061319,0.3742459,-0.2259914,0.04651268,-0.09066077
-0.3008658,0.46381,0.8599775,-0.1558523,-0.408654,0.3614894,-0.2330341,0.02223926,-0.08337523
-0.3019071,0.4562042,0.8512963,-0.1532721,-0.4115963,0.3445762,-0.2193691,0.01953092,-0.06793118
-0.3098028,0.4362499,0.870349,-0.1575662,-0.4267637,0.3554339,-0.211493,0.01876885,-0.05640267
-0.3267846,0.4100573,0.8918206,-0.1709666,-0.4480462,0.3687491,-0.178102,-0.01381107,-0.05611681
-0.3293846,0.4061895,0.8946848,-0.1700051,-0.4468809,0.3634963,-0.1281656,-0.05072679,-0.0629515
-0.3216433,0.4038086,0.8880244,-0.158722,-0.4441054,0.3487589,-0.1220273,-0.04909981,-0.08408754
-0.3185137,0.384705,0.8762746,-0.1520702,-0.4579293,0.3289733,-0.1513264,-0.03092978,-0.1054814
-0.3104744,0.3839041,0.8754507,-0.1405283,-0.4533271,0.320156,-0.1844337,0.004184478,-0.1108497
-0.3060347,0.3891395,0.8795164,-0.1326064,-0.4425659,0.3162727,-0.1873092,0.03096985,-0.10329
-0.3026956,0.3659084,0.8892638,-0.1258063,-0.4601491,0.3181175,-0.1731324,0.02875615,-0.08566621
-0.2994306,0.3540897,0.9025432,-0.1191029,-0.4661989,0.3235429,-0.1703093,0.02583425,-0.07240927
-0.3062828,0.3581752,0.9013017,-0.1225406,-0.4562241,0.3144969,-0.1655973,0.01692149,-0.06160211
-0.3084988,0.349129,0.905948,-0.1213675,-0.4592618,0.3113901,-0.1668567,0.01395746,-0.047138
-0.3050819,0.3461588,0.9169053,-0.1145879,-0.4561058,0.3146467,-0.1751087,0.02827772,-0.03142311
-0.3016737,0.3462283,0.9134325,-0.1078448,-0.4497941,0.3035268,-0.1780101,0.05349093,-0.01069286
-0.292268,0.3407147,0.9127295,-0.09513334,-0.4489517,0.2952314,-0.1782139,0.07184667,0.005378163
-0.2891397,0.3356667,0.9196436,-0.08873005,-0.4475322,0.2946092,-0.1726817,0.06328496,0.02878105
-0.3008595,0.3202123,0.9186372,-0.09720754,-0.4564102,0.2861239,-0.1614429,0.06619992,0.05130076
-0.3198871,0.2868095,0.9182584,-0.1130271,-0.4831302,0.2783251,-0.1396676,0.07823871,0.03301493
-0.3353325,0.2500182,0.9193546,-0.1252995,-0.513134,0.2720614,-0.1210184,0.0735426,-0.007176449
-0.3326739,0.2380142,0.9085616,-0.1195033,-0.5182463,0.2539704,-0.1433872,0.08527701,-0.04625644
-0.3109476,0.2419603,0.9033953,-0.09467439,-0.5073044,0.24157,-0.1725291,0.1151288,-0.06982805
-0.2935358,0.2485264,0.9191808,-0.07419574,-0.4936388,0.2501874,-0.1327985,0.1218792,-0.05079774
-0.3019507,0.2650847,0.9414476,-0.07958061,-0.4698785,0.2653541,-0.03874268,0.07080372,-0.01340362
-0.3189868,0.2696835,0.9526618,-0.09362515,-0.4579775,0.2695374,0.04173689,-0.02824529,0.01067992
-0.3223279,0.2434354,0.9560245,-0.09401397,-0.4768262,0.2659391,0.06027418,-0.1289083,0.009011599
-0.3231922,0.1931242,0.9590507,-0.09196589,-0.5196436,0.2620741,0.03830018,-0.180118,-0.01008714
-0.3244455,0.1417335,0.935221,-0.09034677,-0.5634478,0.2314237,0.01699134,-0.1386968,-0.02019662
-0.3268603,0.1133557,0.9030033,-0.08992959,-0.5841459,0.1924566,-0.02095248,-0.04753755,-0.03305167
-0.3398798,0.1106968,0.9107283,-0.1001575,-0.5790305,0.1935057,0.006473921,0.005524978,-0.01460005
-0.3475478,0.1179114,0.9163029,-0.1050742,-0.5639453,0.1924807,0.08773596,0.003641361,0.04222942
-0.3353593,0.1174068,0.9060595,-0.09017407,-0.556482,0.1757167,0.0737358,-0.01576683,0.04871004
-0.3112,0.1232622,0.9228732,-0.06334249,-0.5425616,0.1860913,0.07442862,-0.01590064,0.04375961
-0.2991672,0.13835,0.9322524,-0.04867729,-0.5193123,0.1891151,0.1136545,-0.01670446,0.06725022
-0.3039005,0.1521075,0.9190568,-0.05081931,-0.497299,0.1696498,0.09278094,-0.004602296,0.08088222
-0.2966839,0.1826242,0.9191296,-0.04105409,-0.4584353,0.16354,0.09501158,0.08792524,0.1227641
-0.2886869,0.1988102,0.9249857,-0.03055266,-0.4338162,0.1633028,0.07111021,0.1633243,0.1598783
-0.3078899,0.1606402,0.9413962,-0.04729709,-0.4634727,0.1737109,0.02868465,0.1133624,0.155726
-0.3330846,0.1144549,0.9627845,-0.07008025,-0.5010697,0.1891886,0.05567257,0.0621449,0.1405874
-0.3362517,0.1045744,0.9522811,-0.07088314,-0.5022913,0.1728669,0.06195556,0.09288671,0.1058393
-0.3250719,0.1104496,0.9401406,-0.05738603,-0.48769,0.1550004,0.06056436,0.09764976,0.08895736
-0.3216347,0.1137897,0.9502584,-0.05167802,-0.4755598,0.1594848,0.1090273,0.06114328,0.112864
-0.3256336,0.1228469,0.9545029,-0.05345271,-0.4576525,0.1581891,0.1892178,0.03231147,0.1401868
-0.3292744,0.1269851,0.9682549,-0.05491579,-0.4446086,0.1664943,0.2868132,-0.06160591,0.1439216
-0.3282939,0.1247942,0.9876078,-0.05180385,-0.4378432,0.1804933,0.3700089,-0.1480161,0.1348864
-0.3144604,0.1163867,0.9659826,-0.03588496,-0.4372493,0.1536065,0.3959593,-0.132184,0.1324595
-0.3025246,0.07680185,0.932738,-0.02191008,-0.4677927,0.1151918,0.3357574,-0.1129238,0.1067708
-0.3152003,0.04468585,0.9304102,-0.03259357,-0.4908313,0.107786,0.2694311,-0.07102799,0.07742064
-0.3328078,0.05992636,0.9347725,-0.04825614,-0.4664806,0.1071635,0.2627767,-0.02710257,0.0834245
-0.3279803,0.0809335,0.9361007,-0.04153098,-0.4363334,0.1036016,0.2893795,-0.0434084,0.1143222
-0.3196465,0.09895947,0.937487,-0.03134632,-0.4091414,0.1001933,0.3183625,-0.03080092,0.1635804
-0.3101841,0.1273301,0.9317007,-0.02007974,-0.3715839,0.08970919,0.2979796,-0.02176663,0.1872364
-0.2933661,0.1341566,0.9296312,-0.001504427,-0.3555564,0.08303938,0.2545098,-0.007269451,0.1726436
-0.3026519,0.1284301,0.9412769,-0.009080574,-0.3520747,0.09018333,0.2380769,0.04464341,0.1694297
-0.3139674,0.1486951,0.9635686,-0.01873494,-0.3226019,0.1080724,0.2559658,0.03133576,0.1836014
-0.2973865,0.1620314,0.9765612,-0.0005416875,-0.3000664,0.1167611,0.2933681,0.02648716,0.1975726
-0.2957118,0.1335398,0.9736262,0.002695929,-0.3193752,0.1096201,0.2769719,0.04504004,0.2103787
-0.3150883,0.09288325,0.9697627,-0.01516742,-0.3508732,0.101647,0.2400478,-0.01579345,0.2055154
-0.3296242,0.07168495,0.9579588,-0.02824016,-0.3629431,0.08582876,0.2070598,-0.05528212,0.1717952
-0.3293045,0.07643796,0.9435103,-0.02650673,-0.3490967,0.06746058,0.158375,-0.02616304,0.1383584
-0.3191554,0.0977891,0.9459376,-0.0149922,-0.3186913,0.06606261,0.1973,-0.008964214,0.1252787
-0.309447,0.1183511,0.9462678,-0.003965975,-0.2891189,0.06266197,0.2358907,-0.01483647,0.1410088
-0.2926904,0.1174751,0.9315178,0.01406119,-0.2810343,0.04427586,0.1562743,0.006342119,0.1592351
-0.2919018,0.105816,0.9273411,0.01607276,-0.2837884,0.03655798,0.07581414,0.05166677,0.1476377
-0.3084371,0.105752,0.9352741,0.0007123752,-0.2750087,0.04104535,0.02586422,0.0562225,0.1546686
-0.3073154,0.09730824,0.9369902,0.002960941,-0.2746756,0.03941187,0.004706545,0.0803501,0.1770466
-0.3101675,0.08710788,0.9428726,0.001187641,-0.2761708,0.0420408,0.0003507488,0.155039,0.1841847
-0.317226,0.08236085,0.9572283,-0.004839397,-0.2722888,0.05323885,-0.03315453,0.1707133,0.1945901
-0.315636,0.06543387,0.9696617,-0.002264804,-0.2806667,0.06260972,-0.03259328,0.1241952,0.1804346
-0.3245832,0.05490674,0.9695195,-0.01027323,-0.2827281,0.05949872,-0.005746492,0.07877626,0.1526434
-0.3310207,0.03228489,0.9600711,-0.01581672,-0.2969701,0.0471734,0.02068293,0.04248571,0.1370827
-0.3352132,0.0008464453,0.9614289,-0.01915857,-0.3201161,0.04574458,0.06281609,0.007477034,0.1242737
-0.3347507,0.004180794,0.9575071,-0.01788692,-0.3085774,0.03912528,0.08121226,0.01103188,0.1319864
-0.3261859,-0.0007830905,0.9468608,-0.008552958,-0.305425,0.02586935,0.09824553,0.04185887,0.1382114
-0.3309554,-0.02575719,0.9512943,-0.01259182,-0.3223708,0.02778006,0.1301791,0.02661702,0.1307498
-0.3296989,-0.03284741,0.9495597,-0.01064157,-0.3215198,0.02360866,0.1624007,0.02638938,0.1298884
-0.3222672,-0.0342385,0.9387673,-0.002551942,-0.315056,0.01046475,0.1847798,0.05987715,0.1209952
-0.3185626,-0.02452095,0.933006,0.001775922,-0.2975686,0.00243653,0.173332,0.06124949,0.1123565
-0.3083924,-0.004474492,0.9352546,0.01253566,-0.2698369,0.002502472,0.1757645,0.05672383,0.1252846
-0.3109683,0.0003636443,0.9460299,0.010516,-0.2573983,0.01117897,0.1913659,0.04528978,0.1542476
-0.3136893,-0.003356848,0.9549898,0.008318276,-0.2536039,0.01812316,0.1893286,0.05043153,0.1809151
-0.3093154,-0.004830452,0.9652758,0.01318302,-0.2476495,0.02647537,0.1926847,0.06676208,0.1830175
-0.3168976,-0.005564667,0.9638567,0.006059684,-0.2410435,0.02320265,0.1683371,0.04098656,0.169787
-0.3193111,-0.01193293,0.9547955,0.004073568,-0.2401606,0.01236597,0.1350349,0.03156783,0.1628425
-0.3155983,-0.02352902,0.9626768,0.008183233,-0.2445954,0.0185483,0.1348335,0.03765655,0.1557662
-0.3177097,-0.03090724,0.9611796,0.006438917,-0.2449028,0.01542676,0.13132,0.04217267,0.1529068
-0.3281024,-0.03773867,0.9512143,-0.003615625,-0.244754,0.003910128,0.1395217,0.05801481,0.1582407
-0.3410066,-0.0458711,0.9502141,-0.0162094,-0.2459967,0.001429919,0.1739161,0.04156192,0.1541263
-0.3371475,-0.04747889,0.9471681,-0.01206604,-0.2408049,-0.003025998,0.1923022,0.02262251,0.1506704
-0.331138,-0.04935908,0.9468226,-0.005796714,-0.2359753,-0.004712454,0.1936667,0.0155448,0.1496636
-0.3330955,-0.0643321,0.942222,-0.007517283,-0.2443276,-0.01058633,0.2057917,0.005097433,0.1426911
-0.3283903,-0.0754917,0.9411604,-0.002596626,-0.2489549,-0.0128544,0.2289259,-0.001380076,0.1494729
-0.3303291,-0.07220642,0.9488164,-0.004340219,-0.2392246,-0.006339252,0.2507628,-0.03078653,0.1610781
-0.3364002,-0.07909653,0.9464026,-0.0102352,-0.2397556,-0.009829318,0.2722962,-0.05201728,0.1672901
-0.3317994,-0.08744243,0.9471529,-0.005476123,-0.2418272,-0.01009194,0.290894,-0.03708736,0.1692195
-0.3299424,-0.08132076,0.9467739,-0.00347752,-0.2295145,-0.01142196,0.2959629,-0.01878847,0.1543151
-0.3300616,-0.08069829,0.9374474,-0.003470568,-0.2227832,-0.02163875,0.294134,-0.01202351,0.1413237
-0.3295324,-0.08323778,0.933553,-0.002829886,-0.219295,-0.02636395,0.302329,-0.01517443,0.1420157
-0.3329903,-0.08129033,0.931776,-0.006189959,-0.2114004,-0.02891294,0.3209216,-0.02248196,0.1462225
-0.3285404,-0.08234695,0.9317709,-0.00165488,-0.2065895,-0.029632,0.3385291,-0.02751695,0.1508977
-0.3197058,-0.08398585,0.9295614,0.007253013,-0.2024401,-0.03249827,0.3472587,-0.01967825,0.1528346
-0.3119626,-0.08482199,0.9331227,0.01505811,-0.1975667,-0.0295373,0.3518755,-0.008153246,0.1556174
-0.3035602,-0.08417975,0.9433418,0.02351104,-0.1912933,-0.01986307,0.3576488,0.002653174,0.1535878
-0.3055758,-0.08353161,0.9400447,0.02153442,-0.185092,-0.02365069,0.351269,0.03108786,0.1479239
-0.3128808,-0.08784308,0.940295,0.01425656,-0.1839282,-0.02383799,0.3439242,0.05800839,0.1463745
-0.3197595,-0.0916143,0.9481659,0.007392946,-0.1823018,-0.01635331,0.3522364,0.06004424,0.1413303
-0.3284455,-0.08834859,0.9498605,-0.001289678,-0.1737158,-0.01499519,0.3544785,0.04852789,0.1346394
-0.3289855,-0.08405231,0.9476678,-0.001837338,-0.1641764,-0.01747642,0.3516486,0.03596093,0.1290734
-0.3266615,-0.08351805,0.9410596,0.0004687771,-0.1584762,-0.02432708,0.3564481,0.0255159,0.1302641
-0.3283247,-0.08236551,0.9421067,-0.001221678,-0.1522351,-0.02347782,0.3682526,0.02687583,0.1435103
-0.3277301,-0.08136299,0.9431318,-0.0006630796,-0.1462217,-0.02260767,0.386917,0.03272637,0.1597994
-0.3275414,-0.08204614,0.9379622,-0.0005181192,-0.141972,-0.02789062,0.3950303,0.02252771,0.1742506
-0.328094,-0.08105187,0.9405713,-0.001121618,-0.1361233,-0.02535482,0.3981127,0.01377371,0.1748427
-0.3271659,-0.07995839,0.9390989,-0.000250816,-0.1302543,-0.02686178,0.4036642,0.01415671,0.1575443
-0.3261168,-0.07919036,0.9358403,0.0007351883,-0.1247901,-0.03011742,0.3927992,0.01868786,0.1339922
-0.3248194,-0.07594437,0.93865,0.001964308,-0.1169278,-0.02726875,0.3783838,0.03400438,0.1108502
-0.3264708,-0.07133837,0.9394953,0.0002398865,-0.1077859,-0.02634954,0.3740952,0.04220335,0.1034293
-0.3286974,-0.06672245,0.9421013,-0.002063921,-0.09871542,-0.02363618,0.3717532,0.04623334,0.1124795
-0.3267789,-0.06248875,0.9426397,-0.0002262163,-0.09010939,-0.0229583,0.369974,0.04585086,0.1220903
-0.3263871,-0.06252417,0.940323,8.162629e-05,-0.08585581,-0.02510493,0.365749,0.0263187,0.130563
-0.3304816,-0.06863989,0.9398687,-0.004099333,-0.08776694,-0.02535997,0.3653653,0.009357903,0.136819
-0.3339551,-0.07454967,0.93712,-0.007661504,-0.08955741,-0.02788167,0.3724483,0.006786659,0.1379932
-0.3336686,-0.0779935,0.9364012,-0.007465015,-0.08896774,-0.02834696,0.3771718,0.02516464,0.1348795
-0.3318831,-0.08151004,0.9405973,-0.005770222,-0.08853678,-0.02387199,0.3802285,0.04275727,0.1320909
-0.3321619,-0.08090929,0.9481203,-0.006139721,-0.08407458,-0.01604605,0.3846185,0.02063003,0.1343841
-0.3338633,-0.07663751,0.9547493,-0.007931388,-0.07602727,-0.009091774,0.3872534,-0.005988215,0.1379878
-0.3337035,-0.07461582,0.9453679,-0.00786069,-0.07031598,-0.01812714,0.3841966,-0.006226796,0.1413939
-0.3279025,-0.07286673,0.9321493,-0.002147123,-0.06496329,-0.03098067,0.3800152,0.009575323,0.1442023
-0.3220475,-0.07030226,0.9408609,0.003622385,-0.05888133,-0.02188611,0.3806553,0.02587231,0.142338
-0.3289718,-0.0688592,0.9475851,-0.00338534,-0.05400707,-0.01476226,0.3777985,0.02021798,0.1345074
-0.3392095,-0.06689907,0.9404055,-0.0137042,-0.04870226,-0.02152674,0.3724878,0.01466271,0.1254566
-0.3389422,-0.06352957,0.9430064,-0.01351527,-0.04207481,-0.01849658,0.3696608,0.02247859,0.1234765
-0.3381086,-0.05828983,0.943446,-0.01275668,-0.03366417,-0.01761478,0.3668369,0.02005417,0.1233577
-0.3384029,-0.05407272,0.9383446,-0.01312199,-0.02636362,-0.02226213,0.3675075,0.02041638,0.118349
-0.3345592,-0.05162809,0.9393268,-0.009344782,-0.02092351,-0.0208153,0.3637424,0.02698367,0.1183112
-0.3323892,-0.04581773,0.9373224,-0.007236234,-0.01220627,-0.02234525,0.3490839,0.024236,0.1229024
-0.3321803,-0.04381551,0.9405964,-0.00708353,-0.007386392,-0.01858794,0.3346999,0.01782136,0.1218157
-0.3350274,-0.04841335,0.9490606,-0.009981447,-0.009256494,-0.009632563,0.3289327,0.009599483,0.1185437
-0.3410281,-0.05137154,0.9509497,-0.01602725,-0.009577322,-0.007245583,0.3277354,0.01016589,0.1185667
-0.3425654,-0.05873966,0.9504348,-0.01760369,-0.01439861,-0.007257338,0.3303917,0.01695192,0.1189191
-0.340213,-0.06901286,0.9490549,-0.01528396,-0.02221525,-0.0081301,0.3424404,0.01178887,0.1184694
-0.3376047,-0.07350224,0.9491313,-0.01270135,-0.02433758,-0.007543925,0.3439302,0.004364595,0.1203134
-0.3352514,-0.07278347,0.9470529,-0.01036645,-0.02134012,-0.009110986,0.3340534,-0.002824771,0.1218624
-0.3342351,-0.06597835,0.9415557,-0.009361204,-0.01234338,-0.01409645,0.3348278,-0.003489604,0.1185549
-0.334776,-0.0613182,0.9396684,-0.009905819,-0.005577521,-0.01547234,0.3263688,0.005359747,0.110098
-0.3359856,-0.05899412,0.9396601,-0.01111179,-0.001232667,-0.01497032,0.3103208,0.004380282,0.1003591
-0.3361639,-0.05395983,0.9423132,-0.01127904,0.005738259,-0.01180846,0.3059233,0.006811188,0.09856616
-0.3366846,-0.05367366,0.9475488,-0.01178134,0.007877646,-0.006066272,0.3060488,0.01247762,0.101912
-0.3390294,-0.05359995,0.952111,-0.01410036,0.009721801,-0.001000503,0.3113623,0.009714635,0.1042398
-0.3418063,-0.05573923,0.9495075,-0.01684402,0.009270942,-0.003104351,0.3107132,0.008249575,0.1102489
-0.3424558,-0.06187456,0.943169,-0.01745264,0.004742877,-0.008948046,0.3050874,1.078082e-05,0.1129023
-0.3410629,-0.06031301,0.9491332,-0.01601101,0.007831654,-0.00249462,0.3023493,-0.002951281,0.1106112
-0.3415182,-0.05992438,0.9539748,-0.01640963,0.009668728,0.002829935,0.2942783,0.001043688,0.1102844
-0.3411822,-0.06488418,0.9494784,-0.01600884,0.006079951,-0.0011907,0.291839,-0.003315307,0.1030842
-0.3394965,-0.06658083,0.9475046,-0.01425026,0.005678364,-0.002696485,0.293016,-0.002363023,0.09419206
-0.3404891,-0.06749074,0.9417809,-0.0151618,0.005989205,-0.007960746,0.2932237,-0.002367995,0.0951542
-0.3404765,-0.06784613,0.9376083,-0.01506001,0.006781997,-0.01168265,0.2965965,-0.001743956,0.09843699
-0.3401085,-0.06455629,0.940284,-0.01459487,0.01114923,-0.008565295,0.296959,0.003247398,0.1001755
-0.3414742,-0.06102616,0.9441048,-0.01585533,0.01568765,-0.004311781,0.2981287,-0.004615402,0.09838152
-0.3417767,-0.06253111,0.9490536,-0.01604479,0.0151235,0.001060305,0.2945005,-0.01029168,0.09410082
-0.3410683,-0.0640847,0.9468572,-0.01521548,0.01444477,-0.0007223199,0.2882503,-0.007736552,0.09399151
-0.3376356,-0.06272414,0.9413767,-0.01165426,0.01661588,-0.005799138,0.2888486,-0.008370081,0.09521723
-0.3331774,-0.06327319,0.9404481,-0.007060078,0.0168147,-0.006334251,0.2855864,-0.008704018,0.09684328
-0.3330818,-0.06316093,0.9423657,-0.006821347,0.0176138,-0.004033387,0.2826552,-0.00825978,0.09875614
-0.3364302,-0.06225043,0.9468696,-0.01002017,0.01915177,0.0008433758,0.2866366,-0.007212357,0.09807409
-0.3384349,-0.06247172,0.9464226,-0.01186916,0.01950023,0.0007586403,0.2909113,-0.00707076,0.09730531
-0.3372957,-0.06248035,0.9447165,-0.01056841,0.02000525,-0.0005959564,0.2930381,-0.008730923,0.09677884
-0.3360565,-0.06228339,0.9466715,-0.009162201,0.02066144,0.001699635,0.296094,-0.01301822,0.09725443
-0.335243,-0.06056284,0.9455992,-0.008176534,0.0227884,0.0009567855,0.3049517,-0.01609021,0.1022252
-0.3342705,-0.05921311,0.9458979,-0.007027182,0.02449334,0.001573638,0.3082926,-0.008934571,0.1074489
-0.3350927,-0.06015794,0.9486885,-0.007668262,0.02385405,0.004671,0.3006016,-0.002723998,0.1038783
-0.3367368,-0.06261239,0.9513616,-0.009127205,0.02165702,0.007639231,0.2976258,-0.009773985,0.09801897
-0.3378289,-0.06416084,0.9524352,-0.01003075,0.0203195,0.008996145,0.3000093,-0.01560214,0.09847077
-0.3386858,-0.06135252,0.9436197,-0.01069571,0.02329393,0.000451721,0.2992459,-0.008128049,0.09833786
-0.341601,-0.05847622,0.9318037,-0.01341602,0.02629317,-0.0111054,0.297977,-0.002928872,0.1017404
-0.3459059,-0.05946276,0.9300271,-0.01752303,0.02538794,-0.01263482,0.3019033,-0.00742483,0.1068565
-0.3431895,-0.05947696,0.9328521,-0.01460586,0.02541491,-0.009573673,0.313478,-0.01183525,0.105539
-0.3333096,-0.05760789,0.9321972,-0.004522268,0.02728648,-0.01000281,0.3243824,-0.02050731,0.1090276
-0.3266868,-0.05785512,0.9319791,0.002306857,0.02700453,-0.01000491,0.326329,-0.02896289,0.1105705
-0.3272781,-0.05709922,0.9363416,0.00192395,0.02768989,-0.005435422,0.3238736,-0.02628182,0.1073195
-0.329816,-0.05398959,0.9403611,-0.0004044962,0.03069452,-0.001217565,0.322442,-0.02029713,0.1103246
-0.3316815,-0.05316742,0.9418134,-0.002059935,0.03137851,0.0004247095,0.3274249,-0.01458317,0.1086249
-0.3383463,-0.05242867,0.9445458,-0.008514603,0.03194711,0.003338823,0.3411943,-0.007534595,0.1065759
-0.3427464,-0.05096394,0.9486565,-0.01270494,0.03321087,0.007623071,0.3508942,-0.002547376,0.1093128
-0.3374513,-0.04937799,0.948879,-0.007200462,0.03456612,0.008010644,0.3481561,-0.003874096,0.1062065
-0.3363654,-0.04700821,0.9446527,-0.005905542,0.03667651,0.003940849,0.346939,-0.01328365,0.09944769
-0.3385416,-0.04716957,0.9429873,-0.007873377,0.03622805,0.002423333,0.3607239,-0.02402916,0.09167161
-0.3368531,-0.04500039,0.9418597,-0.005977211,0.03808332,0.001434883,0.3845197,-0.02664797,0.09189701
-0.3373679,-0.03931735,0.9380121,-0.006285342,0.04342651,-0.002282031,0.400418,-0.01738516,0.09636062
-0.3354995,-0.03306295,0.9379562,-0.004211317,0.04931578,-0.002215444,0.395002,-0.0005948805,0.09398828
-0.3319956,-0.02386582,0.9407436,-0.0005031477,0.05812294,0.0006865738,0.3825781,0.009705721,0.0976777
-0.3321987,-0.01893777,0.9446227,-0.0005037671,0.06263628,0.004672716,0.3804322,-0.001773528,0.1018564
-0.3347968,-0.01758732,0.9542286,-0.002901343,0.06354716,0.01437807,0.3879376,-0.02404173,0.099009
-0.3399889,-0.01525932,0.9602164,-0.007895206,0.06541046,0.02045759,0.4079619,-0.03088303,0.1021081
-0.3434816,-0.01423776,0.9511092,-0.01119218,0.06594201,0.01143397,0.4219639,-0.03032888,0.1094485
-0.3439817,-0.007251682,0.9421511,-0.01149882,0.0724125,0.002550792,0.4128757,-0.04169431,0.1139019
-0.3403996,0.002327397,0.9440617,-0.007725371,0.08145007,0.004527704,0.4037301,-0.05311313,0.1107719
-0.3332462,0.00796136,0.9428851,-0.0003826503,0.08651599,0.003409039,0.3921003,-0.04639436,0.1069311
-0.3276078,0.01267526,0.9400222,0.005442699,0.09063451,0.0005959366,0.3699327,-0.02656215,0.110907
-0.3255594,0.01495229,0.9423659,0.007675475,0.09228787,0.00298173,0.3666742,-0.009523785,0.110678
-0.3321645,0.0189067,0.9426625,0.001251478,0.09558938,0.003312933,0.3773183,-0.00555302,0.1051931
-0.3390627,0.0239373,0.9445263,-0.005469199,0.0999369,0.005204156,0.37521,-0.02379375,0.1023363
-0.3392935,0.02774197,0.9481885,-0.005526396,0.1030273,0.008886861,0.3671015,-0.04538432,0.1032208
-0.3417414,0.0364082,0.9438929,-0.007804494,0.1109471,0.004604905,0.3590339,-0.047774,0.1095954
-0.3396755,0.04176077,0.9393647,-0.005572385,0.1155198,8.365878e-05,0.3509993,-0.05115738,0.1144426
-0.332905,0.04189687,0.9406004,0.001360778,0.1148415,0.001320035,0.3451948,-0.05123216,0.11396
-0.330914,0.05027611,0.9379949,0.003510755,0.1223705,-0.001290831,0.3330863,-0.03211215,0.1123408
-0.3286073,0.05881831,0.9360449,0.005972631,0.1300254,-0.003251592,0.3203962,-0.01290234,0.1099332
-0.3283042,0.05799282,0.9447307,0.006426688,0.1282742,0.005418332,0.3156582,0.001203491,0.105387
-0.3302324,0.05748396,0.9534708,0.004644627,0.1267999,0.0141379,0.3132615,0.005490559,0.09960941
-0.3290598,0.05626853,0.9522396,0.005958531,0.1245784,0.0128814,0.3136836,-0.005936429,0.09501061
-0.330908,0.05300853,0.9498247,0.004246237,0.1202708,0.01043625,0.3169025,-0.01675282,0.09078515
-0.3339496,0.05585235,0.9509521,0.001334915,0.122025,0.0115282,0.3241899,-0.01598341,0.09053241
-0.3333187,0.06099833,0.9490847,0.002090617,0.1260392,0.00962011,0.3275706,-0.01203091,0.09291292
-0.3330415,0.06357765,0.948093,0.002486849,0.1274443,0.008582489,0.3209605,-0.01242493,0.0895385
-0.3325637,0.06389658,0.9519642,0.003077943,0.1265462,0.01240249,0.318035,-0.006704347,0.08139274
-0.3315477,0.06371107,0.9519161,0.004201464,0.125101,0.01229779,0.3115786,-0.001331298,0.0668592
-0.3317728,0.06628478,0.944702,0.004078108,0.1263723,0.00502175,0.3032641,-0.005170234,0.05668934
-0.3308277,0.06886514,0.9380453,0.005119099,0.1276076,-0.001701995,0.3122127,-0.003823309,0.06272165
-0.328404,0.07259301,0.9415775,0.007632662,0.1299481,0.001758351,0.3259704,-0.003570546,0.06854953
-0.3280315,0.07985221,0.9483949,0.008088883,0.1357777,0.008499525,0.3379961,-0.01379785,0.07117842
-0.3322603,0.08478944,0.9471082,0.00393755,0.1392434,0.007132607,0.3521749,-0.02954728,0.07537137
-0.3363902,0.0862522,0.9462621,-0.0001211842,0.1391925,0.006202444,0.3556644,-0.03756203,0.07743898
-0.3349919,0.08896532,0.9453351,0.001342088,0.14035,0.005187698,0.3473496,-0.02027804,0.08043953
-0.3341043,0.09303298,0.9414324,0.00228878,0.1428201,0.001193667,0.3423663,0.00112881,0.07677208
-0.3371317,0.09338425,0.9431769,-0.0006853563,0.141532,0.002843822,0.3448815,-0.0007076507,0.07114256
-0.3370042,0.09352861,0.9437679,-0.0005101138,0.1399954,0.003337551,0.3543525,-0.01761689,0.07335772
-0.3319111,0.1013687,0.9422347,0.00462545,0.1461132,0.001704714,0.3812582,-0.02939264,0.07493631
-0.3275804,0.1103966,0.9428733,0.008993489,0.1533779,0.002241434,0.4091846,-0.01945486,0.07992716
-0.3286879,0.1166891,0.9393353,0.007918132,0.1578663,-0.001400234,0.4103854,-0.005537397,0.08258951
-0.3320226,0.1257244,0.9375029,0.004610275,0.1650564,-0.003337655,0.4036753,-0.01120981,0.07823331
-0.3338291,0.1354319,0.9436339,0.002825318,0.1728774,0.002687371,0.4059552,-0.02236699,0.0842433
-0.3353667,0.1433803,0.9496465,0.001304148,0.1788973,0.008593435,0.4091374,-0.03479807,0.09628514
-0.3283764,0.1486447,0.9472509,0.008305828,0.1821906,0.006090678,0.4185954,-0.04520316,0.1065143
-0.3161744,0.1485287,0.9428329,0.02051428,0.1800601,0.001565117,0.4291095,-0.04258466,0.1088563
-0.3166574,0.1501551,0.9439092,0.02003226,0.179628,0.002533372,0.4285535,-0.04815001,0.1049738
-0.3201957,0.1607021,0.9454326,0.01648912,0.1880718,0.003948608,0.4341967,-0.06024933,0.1134628
-0.3188362,0.1712754,0.9449673,0.01783728,0.1964968,0.003375093,0.4498393,-0.06223388,0.1182905
-0.3221972,0.1777986,0.9339393,0.01445823,0.2008259,-0.007761075,0.4525941,-0.06383548,0.1205682
-0.3249028,0.1844481,0.919997,0.01172737,0.2052345,-0.02181088,0.4528143,-0.0578933,0.1377566
-0.3255594,0.1879283,0.9275237,0.01103847,0.2064261,-0.01439013,0.4632181,-0.05417165,0.1442891
-0.325643,0.1967404,0.9352679,0.0109153,0.2129011,-0.006749413,0.4744291,-0.07069007,0.13964
-0.3227094,0.2130769,0.9286278,0.01380218,0.2268508,-0.01348972,0.4965355,-0.08381253,0.1333869
-0.3215051,0.2217422,0.9308829,0.01495261,0.2330786,-0.01133106,0.5127167,-0.08075507,0.1240408
-0.3185346,0.2352881,0.9339737,0.01786201,0.2441347,-0.00833232,0.5002403,-0.07680454,0.1187666
-0.31417,0.2588802,0.9314201,0.02215821,0.2651828,-0.01097304,0.4859849,-0.08213643,0.1103158
-0.3118977,0.2680233,0.9367835,0.02435434,0.2717258,-0.005691654,0.4790386,-0.08561807,0.1088466
-0.3091441,0.2665222,0.9399875,0.02702368,0.2675658,-0.002564087,0.4808068,-0.08417944,0.1149116
-0.3128116,0.2661051,0.9350637,0.02326336,0.2644285,-0.007558811,0.4907755,-0.08544229,0.1152373
-0.3175702,0.2665141,0.9318747,0.01840287,0.2620545,-0.010813,0.4830545,-0.08231214,0.1152114
-0.3133793,0.2830444,0.9300871,0.02248287,0.2757374,-0.01266005,0.4745044,-0.08317163,0.1111548
-0.3074832,0.3195658,0.9190762,0.02825866,0.3093453,-0.02372408,0.4676409,-0.08623567,0.10826
-0.3017377,0.3472207,0.9044731,0.03387421,0.3340182,-0.03837331,0.427473,-0.08256627,0.1069293
-0.2969336,0.3450344,0.9069188,0.03853823,0.3287782,-0.03596562,0.3887825,-0.08441284,0.1072493
-0.2932444,0.3424574,0.9090452,0.04207651,0.3230724,-0.03386778,0.3848232,-0.08192844,0.1115585
-0.2908333,0.3516066,0.8972001,0.04432483,0.329015,-0.04573074,0.3732831,-0.06819991,0.09989731
-0.2987982,0.3465932,0.8991402,0.03618463,0.3207146,-0.04379642,0.3300196,-0.05004616,0.08982435
-0.3072706,0.3548939,0.9060724,0.02752368,0.3256461,-0.03685663,0.2947777,-0.03930628,0.09917856
-0.3065925,0.374227,0.9054323,0.02799972,0.3415262,-0.03747458,0.2880417,-0.04943058,0.1081907
-0.3061706,0.3685829,0.9108726,0.02820617,0.3323436,-0.03199698,0.281599,-0.0652187,0.1138274
-0.3019025,0.3708465,0.9110891,0.03224557,0.3309819,-0.03172717,0.2779876,-0.07460965,0.1147845
-0.2907988,0.3752159,0.907685,0.04310719,0.3316382,-0.03506181,0.2842002,-0.06161938,0.1071963
-0.2837885,0.3648635,0.9064165,0.0498617,0.3174844,-0.03624405,0.2887446,-0.03958302,0.09263591
-0.2853921,0.3679529,0.9006413,0.04798796,0.3166843,-0.0419161,0.3065716,-0.05396292,0.07532977
-0.2873622,0.3757619,0.8983456,0.04573284,0.320516,-0.044091,0.3253599,-0.06581056,0.06680672
-0.2820303,0.385255,0.8972924,0.05076397,0.3259451,-0.04500531,0.3197862,-0.05573442,0.06942086
-0.2750138,0.3913195,0.8969899,0.05746365,0.3278596,-0.04515016,0.3146204,-0.06841407,0.07218836
-0.2689935,0.3871063,0.8960511,0.06315019,0.319411,-0.04591209,0.3276083,-0.0812796,0.07107331
-0.2676936,0.3959367,0.8922399,0.06409835,0.3239218,-0.0495266,0.3351816,-0.07924575,0.07712273
-0.2720312,0.4091982,0.8926832,0.05939029,0.3327807,-0.04886641,0.3274108,-0.07106406,0.08091454
-0.2709648,0.4135847,0.8866866,0.06006656,0.332683,-0.05462547,0.3098462,-0.04104832,0.06975538
-0.270946,0.417387,0.8806713,0.05967503,0.3319202,-0.06038182,0.2880469,-0.01509478,0.06239903
-0.2737746,0.4236688,0.8814027,0.05641538,0.3335575,-0.05936963,0.2897097,-0.02122268,0.06729397
-0.2723615,0.4282596,0.8771748,0.05737632,0.3334256,-0.06329403,0.3052627,-0.03680129,0.07882883
-0.2734086,0.4275787,0.8767625,0.05585584,0.3279452,-0.06337947,0.3160536,-0.0482965,0.09616059
-0.2709534,0.4317146,0.8763101,0.05781641,0.3272066,-0.06348106,0.3486212,-0.06928465,0.1147529
-0.2647084,0.4368119,0.8702246,0.06354537,0.3273561,-0.06919106,0.3767405,-0.07622333,0.1280081
-0.262702,0.4412911,0.865748,0.06501414,0.3268162,-0.07326688,0.3785875,-0.06402352,0.1382045
-0.2601848,0.4537386,0.8624159,0.06697196,0.3341753,-0.07617231,0.3914136,-0.07111084,0.1483747
-0.2580731,0.4595871,0.8621837,0.06850218,0.3348681,-0.07595102,0.4098878,-0.0693356,0.1492477
-0.2545368,0.4618673,0.8566616,0.07143458,0.3319269,-0.08099213,0.4152959,-0.0552818,0.150192
-0.2490155,0.4709256,0.8471617,0.07632922,0.3357002,-0.08998273,0.4204494,-0.05311899,0.1580699
-0.2472635,0.4785088,0.8451724,0.07743135,0.3379364,-0.09143354,0.4326835,-0.03559991,0.164829
-0.2458244,0.4859212,0.8424598,0.07819693,0.3399416,-0.09357731,0.4432577,-0.02160171,0.1892474
-0.246709,0.4875631,0.8390899,0.07661469,0.336118,-0.09634708,0.4574724,-0.02014462,0.2255547
-0.2555291,0.488235,0.8392315,0.06707251,0.3312677,-0.09557307,0.4870958,-0.03220017,0.2440243
-0.2634784,0.509444,0.8327496,0.05837694,0.3468998,-0.1013894,0.5077009,-0.05240885,0.2486312
-0.2619156,0.5390108,0.8248308,0.05916972,0.3708364,-0.1086085,0.5115148,-0.02616707,0.2497688
-0.2576235,0.5564259,0.8237278,0.06266866,0.382569,-0.1089768,0.5131732,0.01011912,0.248911
-0.2507773,0.5768432,0.8183913,0.06869924,0.3972513,-0.1135425,0.4971165,0.01943935,0.2453165
-0.2368151,0.6106587,0.8096013,0.08182393,0.4252787,-0.1215245,0.4754204,0.01926511,0.2397082
-0.232321,0.624444,0.8055474,0.08545854,0.4332212,-0.1247321,0.4660991,-0.0008464505,0.2352553
-0.2373585,0.6184677,0.8001428,0.07953933,0.4213456,-0.1292507,0.4497216,-0.008762506,0.2357243
-0.2305368,0.636425,0.7852073,0.08545685,0.4333453,-0.1432595,0.4373083,0.01255713,0.2387292
-0.2201696,0.6506698,0.7675289,0.09489714,0.4415723,-0.1599687,0.4280558,0.02897848,0.2314736
-0.2180285,0.6462878,0.7620362,0.09608829,0.431111,-0.1644476,0.4075722,0.01391172,0.2172796
-0.2169424,0.6642072,0.7561276,0.09620058,0.442888,-0.1692957,0.4032318,-0.009530682,0.2037233
-0.213653,0.6812398,0.7417175,0.09849191,0.4537139,-0.1825961,0.3877451,-0.006294611,0.1912225
-0.2054296,0.6934903,0.7322747,0.1056923,0.459692,-0.1908775,0.3358635,-0.01060731,0.180551
-0.1969089,0.711413,0.7259544,0.1131645,0.4712747,-0.1959822,0.2956918,-0.01545093,0.1646993
-0.1915539,0.7054929,0.7273327,0.1174445,0.4589457,-0.1933313,0.2627268,0.0009016129,0.1524322
-0.1856423,0.7033312,0.73063,0.1222535,0.4503046,-0.188702,0.2225223,0.005409883,0.1462277
-0.1861723,0.7130762,0.7266786,0.1205922,0.4534992,-0.1912602,0.1953489,0.01108032,0.1393294
-0.1874841,0.7174846,0.7241721,0.1181195,0.4512859,-0.1923107,0.1727766,0.02356956,0.1436187
-0.1805395,0.7270408,0.7138187,0.1238725,0.454149,-0.2011438,0.1516297,0.03949762,0.1488041
-0.1774139,0.7237677,0.705562,0.1257751,0.4441115,-0.2078146,0.133868,0.07006616,0.1435949
-0.18108,0.7189511,0.7073476,0.1208541,0.4324599,-0.2043763,0.1143853,0.08476819,0.1321936
-0.186561,0.72543,0.7022281,0.1140852,0.4320344,-0.2077747,0.09733627,0.06833357,0.1189159
-0.1921306,0.7260697,0.7001719,0.1071951,0.4257018,-0.2080407,0.09705981,0.05928288,0.1236389
-0.1898404,0.7291599,0.6980178,0.1081322,0.4217539,-0.2083346,0.1017447,0.1082498,0.1318434
-0.1811515,0.7265552,0.6906551,0.1154359,0.4120473,-0.2137667,0.07260065,0.16977,0.1236467
-0.1759211,0.7169379,0.6942496,0.1192491,0.395267,-0.2081703,0.04091446,0.1688633,0.1212218
-0.1753745,0.7169892,0.6970317,0.118347,0.3880974,-0.2033153,0.04008713,0.1588333,0.1217879
-0.1781698,0.7158313,0.6895729,0.1140714,0.3796644,-0.20863,0.04208643,0.1801932,0.1208188
-0.1838948,0.7116835,0.6872815,0.1068353,0.3681914,-0.2087067,0.04718282,0.1924502,0.1306817
-0.191728,0.712789,0.6966016,0.09746041,0.361926,-0.1971018,0.0692999,0.1813507,0.1413392
-0.1957022,0.7176573,0.7048134,0.09191543,0.3593821,-0.186536,0.114543,0.1570112,0.1544445
-0.1915982,0.7298884,0.6979453,0.09442092,0.3641646,-0.1909823,0.1494886,0.140202,0.1701839
-0.188525,0.7457838,0.6797812,0.09586932,0.3725792,-0.2066585,0.1416699,0.1573698,0.1826804
-0.1841178,0.7498105,0.6657289,0.09862705,0.3690966,-0.2181581,0.1352584,0.2040625,0.2037338
-0.1816607,0.7416246,0.6664236,0.0994111,0.3533768,-0.2148468,0.1424946,0.2331216,0.212328
-0.2018381,0.7384659,0.66919,0.07753863,0.3426631,-0.2094006,0.1571818,0.2209585,0.1928153
-0.2229133,0.7444139,0.6592979,0.05474797,0.3410394,-0.2165506,0.1855626,0.1906955,0.1734971
-0.2162169,0.7546126,0.6469463,0.05971126,0.3436539,-0.2260988,0.1951941,0.1653434,0.1548586
-0.2021261,0.7737434,0.6353948,0.07205404,0.3551919,-0.2347861,0.1920668,0.1614228,0.1320357
-0.1965843,0.7953232,0.6286133,0.0758354,0.3691735,-0.2386432,0.1819264,0.1560678,0.1250185
-0.19156,0.8052824,0.6296498,0.07908886,0.3715318,-0.2346224,0.1532849,0.1117615,0.1226064
-0.1855366,0.8094468,0.6197135,0.08333265,0.3680945,-0.2415146,0.14256,0.05818964,0.1104747
-0.1812591,0.8183479,0.6110687,0.08582293,0.3693949,-0.247056,0.1391239,0.04374078,0.1081605
-0.1758152,0.8273869,0.6078357,0.08947325,0.3708359,-0.2471262,0.1144189,0.0509201,0.1113935
-0.1672478,0.8341638,0.5864817,0.09624147,0.3700192,-0.2652585,0.09128266,0.05095951,0.1108219
-0.1600917,0.8405867,0.5724712,0.1015934,0.3688539,-0.2759882,0.05696787,0.06674672,0.1138521
-0.1574858,0.8392412,0.5815962,0.1023901,0.3599272,-0.2635226,0.00703689,0.08585427,0.08978212
-0.1537722,0.8365652,0.5886822,0.1042899,0.3496784,-0.2530359,-0.02526886,0.06967705,0.04977888
-0.1502068,0.8423231,0.583284,0.1060367,0.3478739,-0.2549739,-0.03328416,0.04570818,0.04712999
-0.1518324,0.8444535,0.577085,0.1025876,0.3424538,-0.2576533,-0.01453674,0.03290071,0.05598536
-0.1527668,0.8451439,0.5772126,0.09982476,0.335608,-0.2539478,-0.0008755857,0.01641225,0.05521729
-0.1572891,0.851684,0.5744918,0.09346934,0.3346281,-0.2530331,-0.02641842,-0.0008472867,0.06184324
-0.164584,0.8541043,0.5748688,0.08433705,0.3295468,-0.2489641,-0.05700563,-0.01562127,0.06277064
-0.162288,0.8474739,0.5745166,0.08479209,0.3154352,-0.2455691,-0.07002735,-0.01918077,0.0585127
-0.1570338,0.8353588,0.5704746,0.08820254,0.2958619,-0.2458101,-0.07074309,-0.01401795,0.05432142
-0.1528223,0.8325456,0.5717395,0.09056838,0.2856163,-0.2406922,-0.06824505,-0.02214245,0.04688031
-0.1483671,0.8390171,0.5645387,0.09317657,0.2846847,-0.2439896,-0.06847401,-0.04124317,0.05069882
-0.1461171,0.8394111,0.5622085,0.09357853,0.2777082,-0.2423678,-0.05864225,-0.05502426,0.0556309
-0.1402206,0.8387197,0.56719,0.09762632,0.2696823,-0.2333877,-0.0516207,-0.04984413,0.03994156
-0.1351143,0.8391912,0.5663948,0.1008835,0.2628586,-0.2301397,-0.06160719,-0.03926736,0.01881726
-0.1375753,0.84086,0.5721968,0.09657291,0.2572748,-0.2202522,-0.08093198,-0.05405553,0.003469616
-0.1380677,0.8485639,0.5675154,0.09423041,0.2577721,-0.2208085,-0.1063519,-0.08037258,-0.01346825
-0.1327876,0.8566531,0.5552738,0.09766017,0.2587038,-0.2288881,-0.121692,-0.1078853,-0.02422776
-0.1257759,0.8635096,0.5469922,0.1028213,0.2584545,-0.2329731,-0.1260942,-0.124353,-0.02274813
-0.1148876,0.8680125,0.5296994,0.1118587,0.2559058,-0.2460369,-0.1460923,-0.1048783,-0.02104808
-0.1066973,0.8661885,0.5210654,0.1181973,0.2470863,-0.250411,-0.1912625,-0.09057639,-0.02593847
-0.1110021,0.8540692,0.5279718,0.1120392,0.2280301,-0.239215,-0.2335982,-0.100597,-0.02541707
-0.1254874,0.8300453,0.5503667,0.09569853,0.1971302,-0.2125023,-0.2269734,-0.1428543,-0.01782445
-0.1423779,0.809625,0.5786879,0.07695054,0.1698986,-0.1798376,-0.1698354,-0.2507399,-0.02132375
-0.1389429,0.8139737,0.5761408,0.07852653,0.1675049,-0.1780187,-0.1242476,-0.3425242,-0.0524338
-0.1029794,0.836084,0.5615315,0.1126304,0.1829461,-0.1882438,-0.1350254,-0.3278997,-0.110389
-0.06613714,0.8506559,0.5599208,0.1476123,0.1909261,-0.1854558,-0.1484668,-0.2102126,-0.1503919
-0.06117689,0.8574177,0.5517249,0.1507102,0.191176,-0.1892422,-0.1211133,-0.05512193,-0.154894
-0.07466205,0.8617471,0.5555467,0.1353585,0.1890758,-0.1810031,-0.1084118,-0.005834869,-0.1593626
-0.08301889,0.86284,0.5753959,0.1251291,0.1838232,-0.1567324,-0.09930157,-0.0640303,-0.1466026
-0.1013784,0.8625476,0.5734132,0.1048898,0.1772711,-0.1542927,-0.05591217,-0.08945753,-0.1112319
-0.1196312,0.8510007,0.556422,0.08474995,0.159552,-0.1668646,-0.02670351,-0.09273713,-0.09717406
-0.1111798,0.8401473,0.5381817,0.09130747,0.1426158,-0.1806924,-0.005335531,-0.09883106,-0.1012625
-0.1089088,0.8466396,0.5289521,0.09167888,0.1431168,-0.1855188,0.01242064,-0.06988548,-0.1155001
-0.1178293,0.8680962,0.5322134,0.08085395,0.1586761,-0.1778656,-0.01199975,-0.08352339,-0.144935
-0.1255733,0.9105412,0.5194366,0.0712021,0.1953188,-0.1862637,-0.06274803,-0.1801975,-0.1571339
-0.1433127,0.9444272,0.5056181,0.05155279,0.2234975,-0.1957183,-0.1333189,-0.2994116,-0.1161986
-0.1356693,0.9302857,0.4981649,0.0572865,0.2037417,-0.1988232,-0.1881365,-0.3473806,-0.04413977
-0.1047354,0.9033288,0.4867124,0.08631302,0.1712617,-0.2059439,-0.1977001,-0.2852215,-0.001965471
-0.08209081,0.8942189,0.5101749,0.1070536,0.1567187,-0.1781663,-0.206313,-0.2555399,0.004944568
-0.06007049,0.8830864,0.5521039,0.1271735,0.1402427,-0.1319401,-0.1953647,-0.2618583,0.01098247
-0.04830956,0.8855271,0.5596293,0.1370365,0.1374302,-0.1201376,-0.1387196,-0.2053649,0.01403096
-0.03577196,0.8958354,0.5438801,0.147677,0.1425757,-0.1316333,-0.08643158,-0.1586961,-0.002081193
0.1300741,0.9209701,0.3845085,0.03769376,-0.03304029,0.02588545,0.2288812,0.09673489,0.1983073
0.1326068,0.9192607,0.3845312,0.04134975,-0.03413774,0.02370057,0.2327192,0.07849312,0.2089045
0.1266269,0.9141067,0.3862567,0.03639826,-0.0386759,0.02329848,0.2342786,0.06043067,0.213544
0.1288105,0.9045984,0.3855957,0.03951764,-0.04756432,0.02058874,0.2270421,0.05199909,0.2095677
0.1332927,0.9023008,0.3856995,0.04484505,-0.04923785,0.01872135,0.227241,0.06583494,0.2099695
0.1377912,0.9108266,0.3850915,0.05010033,-0.04008349,0.01621845,0.2296736,0.08148623,0.2045407
0.141256,0.922696,0.3889073,0.05423526,-0.02758077,0.0182143,0.2302536,0.06687037,0.1977676
0.1380916,0.9379824,0.3935796,0.05165628,-0.01165679,0.02114041,0.2346437,0.06204016,0.2027672
0.1416323,0.9427865,0.3905909,0.0556994,-0.006211699,0.01647755,0.2363516,0.07728516,0.204223
0.1458109,0.938441,0.3893677,0.06029927,-0.009914284,0.01365075,0.2467771,0.09422539,0.2045314
0.1434699,0.9397312,0.3894365,0.05830027,-0.007980803,0.01218484,0.2575903,0.1040173,0.2030588
0.1425771,0.9351579,0.3841154,0.05767197,-0.01191155,0.005396678,0.2562785,0.08762049,0.1944232
0.1392953,0.927473,0.3784289,0.054579,-0.01895596,-0.001690651,0.258823,0.06539616,0.1930218
0.1379322,0.9290026,0.3798568,0.05333118,-0.0167887,-0.001598553,0.2612553,0.05888918,0.1928688
0.1396558,0.9316915,0.3814812,0.0550988,-0.01346567,-0.001245787,0.2590636,0.05320077,0.1860104
0.1404403,0.9352111,0.3759703,0.05585821,-0.00931618,-0.007965364,0.2524908,0.04803812,0.1804169
0.1450725,0.942084,0.3731348,0.06039841,-0.001818502,-0.01194743,0.2359315,0.05553634,0.1760642
0.148541,0.948398,0.3715935,0.06371011,0.005114051,-0.01457422,0.2199356,0.06790959,0.1715089
0.1465646,0.9555456,0.3674192,0.06151415,0.01287283,-0.01977355,0.2081524,0.07507133,0.1683329
0.1449549,0.9590481,0.3671025,0.05962409,0.01697735,-0.02105567,0.1934757,0.0779848,0.162721
0.1469839,0.953849,0.3668229,0.06131382,0.01236957,-0.02224169,0.1729221,0.08038876,0.1545335
0.1468938,0.9452306,0.3642603,0.0608278,0.004330189,-0.02565243,0.1483624,0.0863969,0.1467993
0.1411137,0.935301,0.363464,0.05459711,-0.005033746,-0.0272391,0.1295326,0.08623111,0.1381513
0.1365752,0.9299051,0.364686,0.0495556,-0.009877992,-0.02675047,0.12152,0.07210724,0.1350259
0.1368801,0.9330116,0.3686088,0.04930766,-0.006233857,-0.02350494,0.1192011,0.05791775,0.1364492
0.1411726,0.9309274,0.3765074,0.05299985,-0.007794751,-0.01622833,0.1174894,0.05854549,0.1349025
0.1489516,0.9269229,0.3833245,0.06013352,-0.01129004,-0.009979233,0.1155044,0.06761259,0.1346193
0.1566541,0.9291188,0.3854175,0.06714774,-0.008599046,-0.008401987,0.1167829,0.07547596,0.1345154
0.1546293,0.9229764,0.3916494,0.06439361,-0.01426019,-0.002635482,0.1282308,0.09135833,0.1345179
0.1449697,0.9118526,0.399606,0.05396527,-0.02491637,0.004903979,0.1434403,0.1013038,0.1349526
0.1416291,0.9058071,0.3947598,0.04981836,-0.03050698,-0.0003134871,0.1485572,0.09414735,0.13246
0.1401273,0.9032955,0.3889412,0.04747504,-0.03257542,-0.0064597,0.1551445,0.09326063,0.1330595
0.1385985,0.9077705,0.3960712,0.0450717,-0.02766784,0.0003839892,0.1726934,0.09097082,0.1345854
0.1396925,0.9113869,0.3995005,0.04526051,-0.02362832,0.003566189,0.1825516,0.07943867,0.1313873
0.1381912,0.9085588,0.3959711,0.04282587,-0.02604188,-0.0001732326,0.1821812,0.06879619,0.1289761
0.1405878,0.9094832,0.3975891,0.04426334,-0.02471065,0.001269636,0.186066,0.05691347,0.1289193
0.1437623,0.9194268,0.3985351,0.04645494,-0.01436743,0.002073248,0.1951299,0.05659225,0.1295028
0.1436435,0.9321029,0.3977404,0.04533169,-0.001298302,0.001166802,0.2051386,0.06128882,0.1311983
0.1408627,0.9374063,0.395665,0.0415269,0.004391124,-0.0009916141,0.2076982,0.05824038,0.1327406
0.1314678,0.9382318,0.3886673,0.0310904,0.005595291,-0.008045526,0.2014462,0.0601166,0.1336346
0.1298938,0.9389062,0.3870011,0.02845951,0.006640067,-0.009742546,0.195281,0.05733034,0.1329507
0.137683,0.9342353,0.3931986,0.03517889,0.002330812,-0.003551946,0.1848068,0.04910403,0.1322639
0.1414303,0.9290275,0.3974111,0.03784564,-0.0025249,0.0006761524,0.1751767,0.04925174,0.1330911
0.1384436,0.9265168,0.3942795,0.03376961,-0.004693099,-0.002418904,0.176915,0.04541114,0.1265986
0.1342597,0.9217587,0.3901098,0.02848928,-0.009118517,-0.006532555,0.174437,0.04068658,0.1174864
0.1397366,0.920906,0.3911645,0.03286471,-0.009648095,-0.005403709,0.1660316,0.04808317,0.1183411
0.144886,0.9251358,0.3907102,0.03690917,-0.00510462,-0.005767024,0.1638197,0.05472377,0.1168955
0.1440785,0.9272108,0.3912668,0.03499485,-0.002725107,-0.005103791,0.1605124,0.05374728,0.1099354
0.1451544,0.9288625,0.3953277,0.03496332,-0.0007779975,-0.000921797,0.1564209,0.05695785,0.107352
0.1434189,0.9255804,0.3973337,0.03212118,-0.003773826,0.001218606,0.1567434,0.06411753,0.1062078
0.1413038,0.9188755,0.4008234,0.02890148,-0.01020158,0.004854626,0.1577007,0.06025432,0.1084461
0.1379429,0.9210472,0.4008493,0.0244392,-0.007761609,0.005037315,0.1614811,0.05384807,0.1098011
0.1335186,0.9224145,0.3963759,0.01891819,-0.00613459,0.00072986,0.1652953,0.0564812,0.1057299
0.1324847,0.9198014,0.3946219,0.01679397,-0.008496262,-0.0008502948,0.1634345,0.05312537,0.1052584
0.1294887,0.9236825,0.3895666,0.01271535,-0.004371703,-0.005724979,0.161155,0.04669726,0.1049343
0.1303953,0.9252282,0.3860394,0.01254889,-0.002590188,-0.009065642,0.1619931,0.04411013,0.1039645
0.1337349,0.9244849,0.391136,0.01482644,-0.003105408,-0.003776951,0.1622146,0.04069681,0.1066503
0.1341388,0.9282273,0.3956116,0.01418067,0.0008574238,0.0008953345,0.1605137,0.04357682,0.1070124
0.1373243,0.9284548,0.3964421,0.01633012,0.001297936,0.001926546,0.158134,0.04517714,0.1051414
0.1380314,0.9270256,0.3956249,0.01601598,7.40454e-05,0.001313152,0.15477,0.04224908,0.1017943
0.1370945,0.9281641,0.3945985,0.01407339,0.00141015,0.0004927839,0.1528019,0.04258728,0.09992252
0.1378615,0.9272497,0.3943385,0.01385123,0.0006856318,0.0004402523,0.1531633,0.04111127,0.1009122
0.1375365,0.9248669,0.3932997,0.01255426,-0.001514913,-0.0003903009,0.1532215,0.04176649,0.09723036
0.1394637,0.9232289,0.3929176,0.01352754,-0.002978314,-0.0005640289,0.1510263,0.04337417,0.09458393
0.1408705,0.9243862,0.3930448,0.01399894,-0.001653784,-0.0002288652,0.1459533,0.0414319,0.09486251
0.1402406,0.9278769,0.3930161,0.01245274,0.001996782,-5.05994e-05,0.142931,0.04228308,0.09233695
0.1391319,0.9291049,0.3931975,0.01044735,0.003377503,0.0003363843,0.1425471,0.04259628,0.0922973
0.1348374,0.929198,0.3932503,0.005276192,0.003616124,0.0005928015,0.1427622,0.03940691,0.09163849
0.1305145,0.9292252,0.3949204,9.719577e-05,0.003781662,0.002464261,0.1454071,0.03656342,0.08932705
0.1314912,0.9277944,0.3948247,0.0002391522,0.002481797,0.002567003,0.1458617,0.03739032,0.08937945
0.1349838,0.9267538,0.387856,0.002918946,0.001564924,-0.004206455,0.143711,0.03887873,0.08648733
0.1348238,0.9259186,0.38242,0.001968576,0.0008462305,-0.009450706,0.141599,0.03523259,0.0828643
0.1344319,0.9253555,0.3913912,0.0008092045,0.0003926031,-0.0002911638,0.139284,0.02718732,0.08081328
0.1355771,0.9254424,0.401568,0.001210348,0.0005820511,0.01007027,0.139808,0.01685875,0.08011282
0.1360174,0.926393,0.3954262,0.00093015,0.001628592,0.004109276,0.140625,0.01510052,0.08182325
0.1380836,0.9282348,0.3925884,0.002299538,0.003559718,0.001447658,0.1394258,0.02273496,0.08055883
0.1369904,0.9262596,0.4022602,0.0005334289,0.001667491,0.01129082,0.1380128,0.02353349,0.07918958
0.1349686,0.9237373,0.40685,-0.002137209,-0.0007781371,0.01604666,0.1371646,0.01913486,0.07879371
0.1367121,0.9247986,0.4053633,-0.001018662,0.0003537482,0.01471991,0.1368923,0.01415504,0.07352501
0.1353666,0.9226161,0.3959445,-0.00296501,-0.001764039,0.005454199,0.1355113,0.003285471,0.06855359
0.1322227,0.9199232,0.3835112,-0.006685682,-0.004397677,-0.006833076,0.135533,-0.01166552,0.06787155
0.1298832,0.9231405,0.3849058,-0.009577808,-0.001126369,-0.005299468,0.1358469,-0.01614071,0.06858701
0.1294244,0.9273766,0.3897017,-0.01056488,0.003158986,-0.0003714045,0.1315483,-0.0004710528,0.06894917
0.1297845,0.9284218,0.3905589,-0.01070864,0.00424871,0.0006115862,0.12757,0.008849854,0.07315898
