accx,accy,accz,body_accx,body_accy,body_accz,body_gyrox,body_gyroy,body_gyroz
0.002045441,0.8362437,0.5841604,-0.003787842,0.01507947,0.007596094,-0.2478405,-0.2229158,0.04647619
0.002947598,0.8382501,0.5841982,-0.00293286,0.01742908,0.007114837,-0.2459046,-0.219922,0.04285579
0.003000057,0.8411186,0.5804649,-0.00292216,0.02060995,0.002876656,-0.2418364,-0.2203355,0.04594685
0.001608038,0.8414331,0.5759166,-0.004350634,0.02120643,-0.002162227,-0.2451575,-0.2176441,0.04618378
0.002159049,0.8414837,0.577655,-0.003830876,0.021509,-0.0008998377,-0.2485801,-0.2137201,0.04641564
0.004036756,0.8362744,0.5790648,-0.001979321,0.01652203,4.886692e-05,-0.2474699,-0.2056543,0.04388429
0.007180248,0.8292262,0.5799194,0.001142953,0.009667207,0.0004573495,-0.237763,-0.1978017,0.0367402
0.01092741,0.8288426,0.5866362,0.004873544,0.009448816,0.006743249,-0.2270308,-0.2017554,0.03423973
0.009118462,0.8308144,0.5914806,0.003052249,0.01155876,0.0111717,-0.2264,-0.2085679,0.03665876
0.006181292,0.8331705,0.5906131,0.0001065282,0.01402705,0.009902931,-0.2208433,-0.2082603,0.03939807
0.007112568,0.8328458,0.5879922,0.001032696,0.01378929,0.006894947,-0.2124268,-0.2075688,0.03693612
0.006935793,0.8334003,0.5830957,0.0008539723,0.01440654,0.00162516,-0.2112482,-0.2073524,0.03251715
0.005757501,0.8369842,0.5795109,-0.0003233684,0.01802979,-0.002319341,-0.2101151,-0.2065431,0.03150181
0.005509421,0.8377564,0.5806273,-0.000567823,0.0188187,-0.001549001,-0.2084373,-0.2045234,0.03222414
0.00503046,0.8386728,0.578469,-0.001040671,0.01972975,-0.004039714,-0.2091565,-0.1947853,0.03712239
0.003886878,0.8380601,0.5760977,-0.002175801,0.01909041,-0.006729751,-0.212064,-0.1820729,0.04249417
0.002998552,0.8369728,0.579419,-0.003053446,0.01795577,-0.003713281,-0.2117292,-0.1743108,0.04377237
0.006150754,0.8378927,0.5804107,0.000111585,0.01880829,-0.003012581,-0.2027916,-0.169717,0.03669594
0.01088391,0.8371869,0.5814836,0.004859569,0.01801571,-0.002216698,-0.1946619,-0.1593956,0.02393832
0.009639684,0.8373045,0.5805473,0.003631871,0.01802788,-0.003416314,-0.1966977,-0.1412918,0.02391253
0.006156674,0.8352598,0.5761981,0.0001667688,0.01585971,-0.008015037,-0.1970844,-0.1339399,0.02749753
0.005315377,0.8311826,0.5805841,-0.0006554954,0.01164201,-0.003864927,-0.1885072,-0.1373784,0.0227012
0.005345059,0.8301208,0.5836788,-0.0006058003,0.01042345,-0.0009926515,-0.183763,-0.1327365,0.0207474
0.006599534,0.8311977,0.5797676,0.000669562,0.01132837,-0.005112794,-0.1848085,-0.1274119,0.01761379
0.006054884,0.832775,0.5786006,0.0001465543,0.01271947,-0.006475668,-0.1838379,-0.1285602,0.01735806
0.003198456,0.8321246,0.5773894,-0.002687585,0.0118695,-0.007869772,-0.1786313,-0.1283912,0.0249915
0.002338641,0.833704,0.5774427,-0.003524504,0.01323702,-0.007986393,-0.1694735,-0.129186,0.02962705
0.002680192,0.8379908,0.578185,-0.003159419,0.01730022,-0.007401154,-0.1604356,-0.1330272,0.03169411
0.003032416,0.8396017,0.5764503,-0.002782967,0.01867665,-0.009280203,-0.1557867,-0.1359,0.02989811
0.00271521,0.8400491,0.5767886,-0.003075212,0.01887913,-0.009073556,-0.1567201,-0.1361579,0.02761692
0.002584755,0.8368612,0.5790731,-0.003179939,0.0154363,-0.006908231,-0.1573328,-0.1327227,0.03036038
0.003259204,0.8329991,0.5808171,-0.002478965,0.01131002,-0.005270976,-0.1557997,-0.1250188,0.03413256
0.003448812,0.8332548,0.5783179,-0.002262024,0.01129286,-0.007864767,-0.1577521,-0.11698,0.0369754
0.004468144,0.831055,0.5754765,-0.001214565,0.008812249,-0.01078898,-0.157602,-0.1161415,0.02814275
0.004432767,0.8283037,0.5804598,-0.001221061,0.005773179,-0.005876904,-0.1519049,-0.1197295,0.01681293
0.002993505,0.8328242,0.5855163,-0.002630746,0.009999672,-0.0008800845,-0.1465714,-0.1201464,0.02112896
0.0007383437,0.8403024,0.58498,-0.00485565,0.01717847,-0.001465276,-0.1434978,-0.1223566,0.0262179
-0.003431853,0.8417498,0.5844188,-0.008994833,0.01832168,-0.002064956,-0.1414681,-0.1245249,0.02823825
-0.003106434,0.8355199,0.5848198,-0.008637441,0.01178296,-0.001692638,-0.138748,-0.1201029,0.03142577
0.00088623,0.82945,0.5847705,-0.004611599,0.005400261,-0.0017614,-0.1364432,-0.1147563,0.02877193
0.001781027,0.8316201,0.5846494,-0.003682261,0.00725416,-0.001893167,-0.1341383,-0.1098585,0.02654093
0.001016583,0.8343566,0.5843889,-0.00441075,0.009671781,-0.002156126,-0.1313126,-0.1084103,0.02358417
-0.001471612,0.8313748,0.5829706,-0.006861545,0.006369154,-0.00356916,-0.1297997,-0.1106924,0.01969913
-0.003515315,0.8307177,0.5820508,-0.008866311,0.005389793,-0.004476278,-0.1253372,-0.1104557,0.02703728
-0.001367637,0.8299023,0.585353,-0.006678002,0.004251382,-0.001154546,-0.1134851,-0.1133377,0.03434922
0.001906943,0.828992,0.5888162,-0.003360966,0.003018055,0.002334678,-0.1031331,-0.1175024,0.03005042
0.003485966,0.8342863,0.586805,-0.001737645,0.007989959,0.000355473,-0.1102988,-0.1193402,0.0282407
0.00289331,0.8368747,0.5849674,-0.002284261,0.01025723,-0.001444825,-0.1204243,-0.1195848,0.03211477
0.001819461,0.8335711,0.5880318,-0.00331046,0.006633986,0.001661866,-0.1117627,-0.1133287,0.03240308
0.0003759318,0.833881,0.5925603,-0.004704826,0.006626045,0.006237023,-0.1060363,-0.1105595,0.03362369
-0.002211675,0.8477204,0.5944339,-0.007241785,0.02014991,0.008161117,-0.1083093,-0.1146836,0.03991458
-0.002063268,0.8596982,0.5891303,-0.007041193,0.03181411,0.002910858,-0.1016965,-0.1124393,0.04256056
-0.001457969,0.8419892,0.5825591,-0.006382081,0.0137933,-0.003604497,-0.0974073,-0.1052685,0.03630574
-0.002759905,0.8233598,0.5824114,-0.007628482,-0.005146427,-0.003694227,-0.09327365,-0.1121143,0.03068511
0.000566292,0.8324235,0.5831702,-0.004244963,0.003608635,-0.002875542,-0.0856351,-0.1232303,0.03113038
0.004504607,0.835657,0.5851226,-0.0002475538,0.006535924,-0.0008615744,-0.08343864,-0.1118901,0.02924088
0.002696866,0.8287595,0.5855037,-0.001994569,-0.0006649557,-0.0004172693,-0.08161178,-0.1100513,0.02691521
0.002076592,0.8337907,0.5818521,-0.002552683,0.004066291,-0.004004414,-0.08436049,-0.1171713,0.02614446
0.003398172,0.8346236,0.5838423,-0.001167686,0.00460303,-0.001948445,-0.08546648,-0.1044732,0.02376253
0.002584199,0.8302014,0.5854741,-0.001917153,-0.0001112184,-0.0002498992,-0.07963581,-0.1079501,0.02625406
0.002612599,0.8311535,0.582826,-0.001823325,0.0005534198,-0.002830461,-0.08246376,-0.1095587,0.02907838
0.003070233,0.8282915,0.5780611,-0.0012995,-0.002591096,-0.00752706,-0.08365094,-0.09962841,0.02934447
0.002559302,0.8284761,0.573294,-0.001743629,-0.002683504,-0.01222501,-0.07851415,-0.1047777,0.02964369
0.002300226,0.830934,0.584546,-0.001935435,-0.0004967282,-0.0009029701,-0.07863443,-0.09667902,0.02787783
0.0001788723,0.8297585,0.5971235,-0.003989166,-0.001937054,0.0117455,-0.07766874,-0.09342595,0.03190057
-0.0012769,0.8329444,0.5913015,-0.005377012,0.0009906949,0.005994919,-0.07442884,-0.09461009,0.0342172
0.004124299,0.8328386,0.5874868,9.240392e-05,0.0006336799,0.002251443,-0.06840086,-0.08447568,0.02729346
0.01094561,0.8325186,0.5901859,0.006982096,6.946125e-05,0.00502132,-0.0638316,-0.08751896,0.02308265
0.01021769,0.836317,0.588252,0.006322374,0.003630827,0.003157219,-0.07531541,-0.08011609,0.02527182
0.005599571,0.8369708,0.5875038,0.00177184,0.004054746,0.002477656,-0.08536376,-0.07640043,0.03142288
0.0006172997,0.846672,0.5881204,-0.003143792,0.01353321,0.003161387,-0.06997838,-0.08762698,0.03187072
-0.004705538,0.8558521,0.5867531,-0.008401007,0.02249712,0.00185943,-0.0546423,-0.07892947,0.02506391
-0.003631442,0.8405034,0.5879332,-0.007262153,0.006938252,0.003103048,-0.06015658,-0.06956641,0.02051705
-0.001416502,0.8230772,0.5887671,-0.004983078,-0.01069246,0.003998361,-0.05962627,-0.07076255,0.01840855
-0.005551478,0.8282184,0.587563,-0.009054321,-0.005750259,0.002853453,-0.05087728,-0.07623106,0.02016439
-0.006272582,0.8317893,0.5851352,-0.009711859,-0.002372123,0.0004824538,-0.05129211,-0.08719515,0.02275762
-0.004865121,0.8248513,0.5805273,-0.008240714,-0.009496573,-0.004071125,-0.04948436,-0.08850345,0.0197428
-0.005018975,0.8286167,0.5835809,-0.008330488,-0.005910735,-0.000965658,-0.0491347,-0.08218898,0.01545825
9.340675e-05,0.8324046,0.5895675,-0.00315343,-0.002295301,0.005070681,-0.0517566,-0.08195414,0.01469497
0.004432988,0.8325125,0.5885631,0.001251469,-0.002352464,0.004113584,-0.04577754,-0.07911352,0.01601952
0.003129968,0.8369136,0.5872326,1.427589e-05,0.001890894,0.002827904,-0.04262188,-0.07066374,0.02187824
0.001768159,0.8337996,0.5828863,-0.001281413,-0.001373572,-0.001476135,-0.03934823,-0.07127025,0.0273423
0.002136792,0.8320129,0.5790039,-0.0008465458,-0.00330356,-0.005318819,-0.03316824,-0.07302745,0.01911758
0.00153215,0.8332989,0.5825674,-0.001384979,-0.002153687,-0.001717866,-0.03389828,-0.07538216,0.009664033
0.0008312909,0.8322354,0.584239,-0.002019769,-0.003346127,-1.095346e-05,-0.03309755,-0.08314049,0.009634468
0.00285605,0.835838,0.58183,7.08181e-05,0.0001346206,-0.002386685,-0.03323797,-0.07755355,0.01244442
0.003047029,0.8332529,0.579597,0.0003272667,-0.002565268,-0.004588166,-0.03570221,-0.06604279,0.01793068
0.002385091,0.8298929,0.5788141,-0.000269706,-0.006033236,-0.005341244,-0.03394951,-0.06030614,0.01746489
0.002692094,0.8323646,0.5796696,0.0001016135,-0.003662482,-0.004457161,-0.03349552,-0.05985903,0.0150052
-0.0002562697,0.8312085,0.582108,-0.002783191,-0.004912652,-0.001991322,-0.03165624,-0.0663005,0.01743861
-0.002102019,0.8336705,0.5851042,-0.004566176,-0.002537819,0.001031307,-0.02909786,-0.06722663,0.01578931
-0.001523052,0.8360787,0.5848012,-0.003925185,-0.0002099469,0.0007539421,-0.02790755,-0.06489728,0.01568553
-0.001147963,0.8337319,0.5825342,-0.003488724,-0.002630521,-0.001488424,-0.02415626,-0.06458651,0.01620638
-0.0007577676,0.8329939,0.5815214,-0.003037738,-0.003435727,-0.002477398,-0.02259873,-0.06293423,0.01405948
0.0009123026,0.8315654,0.5817982,-0.001307422,-0.004925247,-0.002177627,-0.02121684,-0.06275233,0.01633805
0.003963619,0.8313783,0.5824429,0.001803566,-0.005167031,-0.001510681,-0.01888818,-0.05921641,0.01922064
0.002990814,0.8317682,0.5815935,0.0008897401,-0.004825701,-0.00233838,-0.01952578,-0.05573949,0.01869441
0.001943028,0.83088,0.5781989,-9.991394e-05,-0.005756339,-0.005711831,-0.01838639,-0.05666342,0.01321036
0.003490092,0.8326478,0.5736524,0.001504301,-0.004024833,-0.01023752,-0.01642094,-0.05705993,0.01141524
0.002508539,0.8350958,0.5748513,0.0005787962,-0.001607316,-0.009017645,-0.01614531,-0.05823128,0.01556832
0.002636497,0.8359239,0.5812873,0.0007615811,-0.0008038622,-0.002560374,-0.01593745,-0.05872561,0.01290798
0.0031303,0.8333563,0.5845124,0.001308885,-0.003390578,0.0006867633,-0.01556043,-0.05932869,0.01391931
0.002424003,0.8279865,0.585725,0.0006546648,-0.008774248,0.001921913,-0.01096035,-0.06100173,0.01838507
0.002105366,0.8275702,0.5865828,0.0003865946,-0.009199078,0.002802665,-0.005387189,-0.0615542,0.01442122
-0.001734009,0.8332088,0.5872305,-0.003403758,-0.003563831,0.003473559,-0.006070918,-0.06414261,0.01394609
-0.005624966,0.8378332,0.5867317,-0.007247159,0.001062486,0.002997997,-0.007879563,-0.06611274,0.01473842
-0.004540194,0.8379635,0.5818262,-0.006116076,0.00119962,-0.001884523,-0.007709085,-0.06403487,0.01300142
-0.003279007,0.8351901,0.5801773,-0.00480955,-0.001562445,-0.003510691,-0.008665299,-0.06049905,0.01226777
-0.004585282,0.8342531,0.5826179,-0.006071213,-0.002483861,-0.001047592,-0.00856119,-0.05878612,0.007693808
-0.004391051,0.8360392,0.5820602,-0.005832879,-0.0006783148,-0.00158292,-0.007732094,-0.06040428,0.005850158
-0.003630436,0.8372729,0.5820618,-0.005028459,0.0005785867,-0.001559061,-0.01042276,-0.06136323,0.006874741
-0.004421311,0.8374531,0.5838297,-0.00577564,0.0007852403,0.0002309877,-0.01469707,-0.05920632,0.009442931
-0.003177625,0.8348112,0.5852545,-0.004488207,-0.001827223,0.001677694,-0.0131839,-0.05750288,0.01484465
-0.001202638,0.829495,0.5855263,-0.002469295,-0.007111165,0.001971236,-0.005966327,-0.05980583,0.01355391
0.002304435,0.8269943,0.5868447,0.001081911,-0.009576897,0.00331108,-0.00241692,-0.06105867,0.006638814
0.007309966,0.830535,0.5895486,0.006131665,-0.00599836,0.00603585,-0.00113971,-0.05606671,-0.00084576
0.00510448,0.8357496,0.5865062,0.003970215,-0.0007432058,0.003013502,0.001572516,-0.05356027,-0.001069737
-0.001114793,0.8365459,0.5830233,-0.002205507,9.641057e-05,-0.0004503302,0.00163245,-0.06099549,0.004549669
-0.002948166,0.835692,0.5850618,-0.003995942,-0.0007116712,0.001606207,0.003264594,-0.07031493,0.004851492
0.0002261059,0.8344648,0.5851952,-0.0007793222,-0.001890938,0.001756582,0.003751295,-0.06912265,0.008055249
0.004036971,0.8321073,0.5838111,0.003073317,-0.004198484,0.0003883317,0.0003031182,-0.05961763,0.008978881
0.0004509034,0.8318099,0.5831926,-0.0004716404,-0.004444192,-0.0002153942,0.002549938,-0.05110924,0.004494962
-0.003525199,0.8310876,0.5819941,-0.004407377,-0.005112921,-0.001400319,0.006765347,-0.04687223,0.007579984
-0.0003496753,0.8312029,0.5841993,-0.001192205,-0.004942342,0.0008175265,0.008813902,-0.05047002,0.008383787
0.001056238,0.8334434,0.5869937,0.000252691,-0.002644881,0.003623549,0.008291736,-0.05353443,0.008645736
0.002314062,0.8336495,0.5834897,0.00154881,-0.002380097,0.0001301684,0.004749381,-0.04875779,0.01268978
0.005714947,0.8340381,0.5803509,0.00498719,-0.001931464,-0.002999051,0.005590833,-0.04627873,0.0100951
0.005581946,0.8339249,0.5824708,0.004890678,-0.001983253,-0.0008706209,0.005233164,-0.04438729,0.006534924
0.005568514,0.831616,0.5832723,0.00491247,-0.004229482,-6.127126e-05,0.00510718,-0.03955428,0.003254012
0.005905124,0.8289109,0.5832349,0.005282777,-0.006870927,-9.167789e-05,0.01443177,-0.03807195,0.002764786
0.006079631,0.8281794,0.5848094,0.005489211,-0.007537633,0.001489037,0.02178438,-0.03754004,0.007009936
0.007064071,0.834148,0.5856844,0.006503565,-0.001502969,0.002369634,0.02227519,-0.03520211,0.007335002
0.004177137,0.8407261,0.5858779,0.003644307,0.005142225,0.002567859,0.02175013,-0.03063988,0.01017656
0.001676006,0.8390507,0.5835711,0.001168462,0.003534707,0.000264967,0.0234084,-0.0240353,0.01230724
0.003198118,0.8349486,0.5807874,0.00271342,-0.0004991091,-0.002515588,0.02635615,-0.01856714,0.006060816
0.004892853,0.8344856,0.5818772,0.00442855,-0.0008937127,-0.001423501,0.0262917,-0.01540352,0.0007104633
0.005560738,0.8352158,0.58253,0.005114322,-9.522009e-05,-0.0007690395,0.02237622,-0.01113422,-0.002439927
0.003904285,0.8373293,0.5813142,0.003473157,0.002086302,-0.001983705,0.01446532,-0.001758425,-0.003279881
0.00200721,0.8396184,0.5811386,0.001588712,0.00444292,-0.00215852,0.01410437,0.003852665,-0.001447298
0.002653257,0.8371547,0.5804704,0.002244744,0.002045918,-0.002826274,0.01962595,-0.0007348428,0.0009506258
0.003228015,0.835005,0.5803678,0.002826892,-3.808052e-05,-0.002928526,0.01582635,-0.005683016,0.004763993
0.002518825,0.8362171,0.5818253,0.002122544,0.001238416,-0.001470611,0.01558108,-0.008006523,0.006435531
0.002696429,0.8350679,0.5822755,0.002302487,0.0001522934,-0.001019988,0.01684678,-0.009229092,0.008960027
0.003064339,0.8324047,0.5824467,0.002670288,-0.002449203,-0.000848103,0.01205056,-0.005674531,0.01286962
0.002509278,0.8313989,0.5820448,0.002112726,-0.003394811,-0.00124916,0.0156615,-0.001552968,0.01096398
0.002871851,0.8321458,0.5809083,0.00247046,-0.002589034,-0.00238447,0.01822546,-0.003863764,0.00867442
0.002885741,0.8330912,0.5818972,0.002477237,-0.001586106,-0.001394105,0.01756374,-0.007710644,0.009888064
0.002548118,0.8331912,0.582716,0.002130287,-0.001429805,-0.0005734635,0.02128138,-0.007095622,0.007974916
0.002826798,0.8326375,0.582585,0.002397493,-0.00192842,-0.0007021299,0.02217705,-0.005757195,0.004744535
0.001760742,0.8315089,0.5845215,0.001317889,-0.003003181,0.001237067,0.02500347,-0.00548258,0.00429425
0.00127521,0.8320071,0.5853618,0.0008168341,-0.002452256,0.002080371,0.02742393,-0.004955101,0.002451703
0.002310254,0.8331967,0.5846832,0.001834496,-0.001210936,0.001405064,0.02715124,-0.005980331,0.0003328906
0.003078352,0.8333192,0.5865541,0.002583459,-0.001037825,0.003279349,0.0304134,-0.00804798,0.0020168
0.002752467,0.8335193,0.5882253,0.002236761,-0.0007880399,0.004953827,0.0318055,-0.007359789,0.004454924
0.001570251,0.8330493,0.5858772,0.001032121,-0.001209499,0.002608846,0.03013467,-0.006443946,0.004599159
0.001303949,0.8323636,0.5791973,0.000741879,-0.001847644,-0.004068317,0.02772313,-0.008640077,0.002347362
0.001321801,0.8322209,0.5727258,0.0007343946,-0.001943822,-0.01053729,0.02672401,-0.008794032,0.000790946
0.000857605,0.8338,0.574569,0.0002436009,-0.0003192121,-0.008691594,0.02747756,-0.007270909,0.002325007
-0.001159478,0.837339,0.5794589,-0.001801189,0.003264331,-0.003798649,0.02657219,-0.006558851,0.003943315
-0.003784029,0.8378476,0.5800347,-0.004454345,0.003816298,-0.003219133,0.02401164,-0.006931024,0.003647655
-0.002261377,0.8353422,0.5835772,-0.002960914,0.001352958,0.0003280915,0.02064599,-0.007788005,0.003913854
0.001787233,0.8342181,0.5878335,0.001058132,0.0002695203,0.004589913,0.02065531,-0.001778533,0.005007601
0.005215695,0.8346089,0.5855845,0.004456829,0.000699377,0.002347084,0.02326649,0.004694064,0.003133807
0.006051875,0.8348521,0.5833004,0.005263018,0.0009801308,6.966752e-05,0.02827163,0.004199236,-0.0004667027
0.002458975,0.8338695,0.5850187,0.001639794,3.350638e-05,0.001795005,0.03522844,0.003740713,-0.002509559
0.0003118193,0.8338423,0.590063,-0.0005380702,4.078313e-05,0.006846476,0.03433417,0.001672434,-0.002941076
0.001055264,0.8354847,0.5930515,0.000174337,0.001715999,0.00984219,0.03211026,-0.005043298,-0.002301381
-0.00141406,0.8368018,0.5873791,-0.002326234,0.003064283,0.004176454,0.03218866,-0.01166185,-0.002866021
-0.00525198,0.838507,0.5797164,-0.006195423,0.004799032,-0.003480165,0.027262,-0.01215479,-0.003571691
-0.004571941,0.838636,0.5771244,-0.00554639,0.004955659,-0.006066898,0.02648867,-0.009276861,-0.002282252
-0.001769716,0.8361882,0.5809603,-0.002774581,0.00253355,-0.002226235,0.02654958,-0.00996991,0.002243333
-0.002520055,0.8335819,0.5862179,-0.003554482,-4.922845e-05,0.00303586,0.01206086,-0.0105652,0.008628082
-0.003509493,0.8304097,0.5842488,-0.00457242,-0.003200005,0.001070928,-0.01876738,-0.01221846,0.009346267
-0.002087259,0.8331056,0.5830552,-0.003177429,-0.0004845937,-0.0001189278,-0.03645356,-0.01872597,0.01209391
-0.0019343,0.8491926,0.5867277,-0.003050279,0.01561995,0.003557027,0.003205998,-0.01816437,0.02118501
-0.001414514,0.8608868,0.5863554,-0.002554736,0.02732954,0.003187666,0.04819818,-0.004502368,0.01810994
-0.001068643,0.8449972,0.5861901,-0.002231446,0.01145224,0.003024695,0.03097597,0.001218161,0.008184053
-0.002757318,0.8242002,0.5892066,-0.00394096,-0.009336051,0.006042857,0.02386942,-0.005809957,0.003994226
-0.002187708,0.8270103,0.5906445,-0.003390358,-0.006520762,0.007481463,0.05101063,-0.006545118,0.001334608
0.0008746503,0.8280474,0.5889097,-0.0003451019,-0.005481659,0.005746067,0.04975476,-0.009262523,0.00493672
0.003728147,0.8216525,0.5835908,0.00249319,-0.01187695,0.0004252643,0.04674576,-0.007963547,0.004454482
0.002697136,0.8303752,0.5806091,0.001448749,-0.003156493,-0.002559706,0.05037986,0.004698091,-0.001367917
-0.00180546,0.8348954,0.5822986,-0.003065654,0.001360015,-0.0008749191,0.04281993,-0.0004791326,0.002333629
-0.002865381,0.8346064,0.5841682,-0.004135798,0.001066015,0.0009889005,0.04640424,-0.007924338,0.001648189
-0.0002749744,0.8405674,0.5850779,-0.001553979,0.007020991,0.001891719,0.04400978,-0.005310141,-0.0005220773
0.002395081,0.8364542,0.586034,0.001109151,0.002900372,0.002839963,0.03956833,-0.006236356,7.830966e-06
0.001894377,0.8353344,0.5908183,0.0006031138,0.001771875,0.007615247,0.04080003,0.001479648,-0.004806911
0.000704114,0.8380086,0.595186,-0.0005910096,0.004435961,0.01197275,0.0312275,0.001835132,-0.0004564833
0.003807333,0.8337087,0.5880328,0.002509701,0.0001244622,0.004807813,0.02823387,0.001914157,0.001701032
0.004639733,0.8338962,0.5769014,0.003340791,0.00029902,-0.006337221,0.02372476,0.02140704,-0.0008103103
0.002856267,0.8296157,0.5772357,0.00155701,-0.003995594,-0.006018067,0.01727911,0.0341137,0.001597866
0.00280553,0.8261253,0.5838619,0.001506761,-0.007501226,0.0005917367,0.02189731,0.03542516,-0.005518046
0.001732744,0.8292973,0.5873606,0.0004351242,-0.004345054,0.004073102,0.02370191,0.028428,-0.009524434
-0.000513369,0.8269086,0.5884624,-0.001809267,-0.006749817,0.005156597,0.03130665,0.02000384,-0.009995438
-0.003836825,0.8277509,0.5878297,-0.005130425,-0.005923539,0.004504432,0.04219506,0.01285663,-0.01285298
-0.003549711,0.8292331,0.5901564,-0.004840321,-0.004456842,0.006810627,0.0458922,-0.0007139199,-0.009687303
-0.001484494,0.8305158,0.5921936,-0.00277126,-0.003188938,0.008825922,0.04792833,-0.006832909,-0.0101294
-0.003530912,0.8361444,0.5872155,-0.004812839,0.002425685,0.003824428,0.04571621,-0.01293441,-0.006452513
-0.002862809,0.8348934,0.5837543,-0.004138784,0.001161628,0.0003381077,0.04227349,-0.01481697,-0.006512817
-0.002125138,0.8329334,0.580726,-0.003393932,-0.0008105786,-0.002716885,0.04031602,-0.008535214,-0.01610971
-0.003529473,0.8337915,0.5765344,-0.004789757,3.604807e-05,-0.006936504,0.03843626,-0.01112743,-0.01512869
-0.002301507,0.8330493,0.5788005,-0.003551865,-0.0007168177,-0.004699306,0.03276622,-0.005360263,-0.01494479
-0.00283174,0.8343019,0.5807855,-0.004070676,0.0005258174,-0.002743766,0.02546566,-0.0003691008,-0.01440508
-0.003073971,0.833764,0.5813538,-0.004299922,-2.12428e-05,-0.002205161,0.02420725,-0.002960854,-0.009725333
-0.002686779,0.8311672,0.5828794,-0.003898123,-0.002626565,-0.0007092865,0.02359922,0.001691607,-0.01008816
-0.004951693,0.8299708,0.5798023,-0.006146739,-0.003830805,-0.00381583,0.02296458,-0.0006051448,-0.005939513
-0.005736099,0.8302499,0.5788432,-0.006913058,-0.003558552,-0.004804044,0.0250145,-0.000447796,-0.002389755
-0.004116754,0.8295943,0.5819189,-0.005273703,-0.004220052,-0.00175676,0.02945732,-8.753562e-05,0.000165474
0.0002380045,0.8258561,0.5842459,-0.0008969266,-0.007962976,0.0005425526,0.03887722,-0.008572495,0.002290414
0.004437903,0.8244792,0.5873507,0.003326935,-0.009343147,0.003620521,0.04694245,-0.008206461,-0.002270321
0.004636245,0.8268921,0.5850827,0.003550944,-0.006931813,0.001326539,0.04814692,-0.009008653,-0.003158126
0.003970774,0.8294214,0.5809442,0.002912502,-0.004402044,-0.002837255,0.04732535,-0.01272518,-0.003962789
0.004044563,0.8327133,0.5836217,0.003014343,-0.001107499,-0.0001842694,0.04585948,-0.01232465,-0.005211495
0.004349042,0.8377189,0.5860562,0.003347588,0.003902845,0.002226518,0.04202342,-0.01689331,-0.0005506818
0.004125517,0.8407454,0.5866643,0.003153249,0.006935921,0.002811571,0.03825186,-0.01992101,0.001898866
0.003139504,0.839975,0.5852819,0.002196572,0.006173701,0.001406833,0.03275858,-0.01188405,-0.001454499
-8.11952e-05,0.8396067,0.580965,-0.0009948499,0.005814435,-0.002931728,0.02878773,-0.001880742,-0.006327767
-0.004136967,0.8368722,0.5789178,-0.005021491,0.003089721,-0.004999954,0.0303964,-0.005169844,-0.005047508
-0.002376583,0.8320249,0.5802575,-0.003232069,-0.001747409,-0.003680471,0.02814594,-0.00795795,-0.004771709
2.26491e-05,0.8323158,0.5841849,-0.0008037931,-0.001446139,0.000227694,0.02356511,-0.002704876,-0.009816875
-0.001619094,0.8330587,0.5837667,-0.00241644,-0.0006926051,-0.000208603,0.02145076,-0.004952337,-0.008571373
0.0003397283,0.832121,0.581238,-0.0004284667,-0.001619417,-0.002754304,0.02133863,-0.004499203,-0.002515032
0.003409487,0.831628,0.5830245,0.002670457,-0.002101244,-0.0009836368,0.02667559,-0.003097987,0.002334645
0.002612208,0.8288887,0.5838316,0.001902236,-0.004828987,-0.0001912752,0.0312259,-0.008556624,-0.005231942
0.001368382,0.827811,0.5877778,0.0006871988,-0.00589475,0.003741394,0.03431041,-0.00980464,-0.01651736
-0.0005238084,0.8313972,0.5904356,-0.001176591,-0.002295878,0.006386629,0.03863595,-0.01132088,-0.009195091
-0.002145929,0.8355838,0.5861673,-0.002770734,0.001904159,0.002106582,0.03868463,-0.01117182,-0.003052966
-0.001510873,0.8354273,0.5834581,-0.002108082,0.001761713,-0.0006138828,0.03670015,-0.008620117,-0.004368772
-0.003770888,0.8337466,0.5820616,-0.004340802,9.552834e-05,-0.002021192,0.03696459,-0.008848837,-0.0001372771
-0.01225486,0.8348378,0.5847316,-0.01279761,0.001201782,0.0006385179,0.03889123,-0.006197707,-0.001613597
-0.01941008,0.8331039,0.5864617,-0.01992538,-0.0005168798,0.002358851,0.03973604,-0.004874675,-0.003973625
-0.01568409,0.8308555,0.5833686,-0.01617099,-0.002749694,-0.0007435059,0.03868082,-0.002967536,-0.002014568
-0.00514982,0.8329905,0.5859874,-0.005606703,-0.0005989885,0.001866353,0.03617807,0.002839825,-0.001639942
0.002529341,0.8356512,0.5870458,0.002104436,0.002077731,0.002916179,0.03336519,0.005860195,0.001826999
0.004636743,0.8376175,0.5851684,0.004245688,0.004060113,0.001030466,0.032628,0.00624477,0.004184036
0.002851484,0.8340368,0.5874276,0.00249582,0.0004955422,0.003281535,0.0321214,0.008706753,0.0006707908
0.005616705,0.827204,0.5895321,0.005297587,-0.006321355,0.005377891,0.03420288,0.01796272,-0.004328558
0.01005467,0.8270101,0.5925245,0.009772829,-0.006499262,0.008361924,0.03986253,0.02357951,-0.00742839
0.005376008,0.8287972,0.5925331,0.005131674,-0.004696115,0.008361684,0.04270267,0.02003004,-0.009589834
0.002421143,0.8292824,0.5904014,0.002214094,-0.004194434,0.006220331,0.04005703,0.02000866,-0.01098323
0.004772373,0.8314607,0.5918058,0.004602065,-0.001999,0.007613975,0.03437913,0.02240447,-0.007087625
0.003233429,0.8326758,0.5889433,0.003099072,-0.0007661866,0.004739299,0.03010962,0.02321771,-0.003653798
0.002267901,0.8333318,0.5851542,0.002168486,-9.18271e-05,0.0009364529,0.02566836,0.02492891,-0.008793528
0.002915247,0.833662,0.5869051,0.002849593,0.0002572245,0.002672191,0.02558916,0.02618625,-0.01423118
0.00226857,0.8320727,0.5898218,0.002235358,-0.001312762,0.005572059,0.03319301,0.02344792,-0.01173413
-0.000225605,0.8316348,0.5921085,-0.0002277992,-0.001730838,0.007840385,0.03498218,0.01554477,-0.008516545
-0.004139312,0.8321569,0.5889619,-0.004111923,-0.001188582,0.004673736,0.03310243,0.009923392,-0.004775477
-0.004500286,0.8318152,0.5830723,-0.004444629,-0.001509677,-0.001237795,0.03362358,0.009968397,0.003126443
-0.001706907,0.8319988,0.5825462,-0.001624099,-0.001305149,-0.001787582,0.03171357,0.01234718,0.002203363
0.001183087,0.8319749,0.5822656,0.00129207,-0.001307737,-0.002093307,0.02851598,0.01372519,5.90747e-05
0.002881592,0.8318408,0.5788923,0.003015788,-0.001420168,-0.005492949,0.02232355,0.01313017,0.006114143
0.00290244,0.8320768,0.5773984,0.003060796,-0.001162201,-0.007014069,0.02028284,0.01499357,0.005038179
0.002049885,0.8318412,0.5808659,0.002231218,-0.001375571,-0.003574223,0.02552048,0.01778149,0.00692494
-0.0008718991,0.831977,0.5859874,-0.0006688655,-0.00121719,0.001519558,0.02823949,0.01758849,0.01342661
-0.003087842,0.831812,0.5867188,-0.002864384,-0.001359295,0.002223257,0.03061248,0.01746841,0.006059524
0.0005512248,0.8309533,0.5848766,0.0007939166,-0.002194838,0.0003535043,0.03222192,0.0210338,-0.00249028
0.00533738,0.8300312,0.5847907,0.005598158,-0.003093508,0.0002401236,0.03243304,0.02477135,-0.004019958
0.00367513,0.8285912,0.5865072,0.003952748,-0.004509761,0.001929237,0.03494742,0.02367451,-0.004360953
0.0008095851,0.8274544,0.5881983,0.001102647,-0.005622411,0.003593071,0.03675182,0.02227359,-0.003095657
-0.0005588945,0.8285714,0.5874305,-0.0002518605,-0.004480526,0.002798071,0.03575719,0.02040815,-0.003142558
-0.005555107,0.8334434,0.5865198,-0.005235511,0.0004169586,0.001860116,0.03199523,0.01522537,-0.002934393
-0.006819658,0.8375481,0.5876009,-0.006488702,0.004547833,0.002913943,0.0285716,0.01275798,-0.003612352
-0.003553539,0.8352785,0.5873027,-0.003212119,0.002304832,0.002588333,0.02635328,0.01321395,-0.005098977
-0.004175636,0.832037,0.5849433,-0.003824365,-0.0009098367,0.0002013708,0.02752332,0.01352672,-0.0002721898
-0.004052043,0.8335623,0.5841083,-0.003691316,0.0006424108,-0.0006613874,0.02999081,0.01259678,0.004017758
-0.002020013,0.8358065,0.585939,-0.001650043,0.002913619,0.0011415,0.02522565,0.01178659,0.0009925779
-0.001542881,0.8361764,0.5862625,-0.001163759,0.003310214,0.001437228,0.02190576,0.01438845,-0.001703555
-0.002757266,0.8358148,0.5837993,-0.002369004,0.002974963,-0.001053697,0.02332859,0.01594843,-0.0004810527
-0.005140861,0.8334874,0.582006,-0.004743387,0.0006732696,-0.002874674,0.02271166,0.01422697,0.001459065
-0.003433458,0.8313429,0.5815361,-0.003026566,-0.001446145,-0.003371936,0.02341365,0.01296891,0.003305455
0.001023463,0.8312382,0.5829606,0.001440095,-0.001526455,-0.001974376,0.02497072,0.01346605,0.002394054
0.002970087,0.8304816,0.5866141,0.00339677,-0.002259332,0.001652769,0.02661291,0.01415594,-0.003877943
0.000855179,0.8311328,0.5893958,0.001292091,-0.001584984,0.004408821,0.0268532,0.01358562,-0.008225092
-0.00306644,0.8326942,0.5864316,-0.002619244,-8.925686e-07,0.001419454,0.02715419,0.01422303,-0.007271832
-0.001761921,0.8317668,0.580164,-0.001304407,-0.0009061337,-0.004872772,0.03139616,0.01600905,-0.007909549
-0.001088626,0.8317158,0.5803023,-0.0006207179,-0.0009354445,-0.004758508,0.0322708,0.01655825,-0.009023952
-0.004126644,0.8329974,0.5839855,-0.003648222,0.0003673012,-0.001098592,0.03148074,0.01425531,-0.005011845
-0.002524163,0.8354559,0.5850763,-0.002035042,0.002846507,-3.0081e-05,0.03238672,0.01154541,-0.000954426
-0.002211095,0.8395494,0.5852035,-0.001711007,0.006960187,7.575015e-05,0.02987145,0.01469596,-0.002432717
-0.003601244,0.8396725,0.5840247,-0.003089854,0.007102479,-0.001123386,0.02807132,0.01675284,-0.00263211
-0.002160918,0.8378323,0.5843866,-0.00163783,0.005280351,-0.0007807691,0.02790956,0.01128233,0.001905013
-0.002972617,0.8381598,0.5856681,-0.002437378,0.005624417,0.0004824279,0.02626406,0.007156415,0.005079144
-0.002979278,0.8365265,0.5854542,-0.002431386,0.004006044,0.0002512107,0.02354068,0.008150819,0.005531222
-0.002357441,0.8353033,0.5866673,-0.001796348,0.002795898,0.001447941,0.0194895,0.008579872,0.005308254
-0.003199683,0.8365686,0.5899228,-0.002624804,0.004072386,0.004687881,0.01884971,0.005927444,0.004719706
-0.002519693,0.8360955,0.5928519,-0.001930409,0.003608336,0.007602215,0.01977337,0.006287159,-0.0005191908
-0.002093181,0.8351434,0.5890724,-0.001488848,0.002663348,0.003808251,0.01778077,0.01048894,-0.007052674
0.0006305395,0.8323089,0.585405,0.001250553,-0.0001662958,0.0001265809,0.02042458,0.01319308,-0.002866196
0.004127743,0.8262251,0.5877509,0.004763967,-0.006247045,0.002458261,0.02389808,0.01590931,0.001978818
0.002967533,0.823396,0.5840423,0.003620281,-0.009074866,-0.001264583,0.02270519,0.01684125,-0.002240344
0.002077395,0.8245669,0.580154,0.002746729,-0.007903947,-0.005166954,0.02552139,0.01546531,-0.003557299
0.002478065,0.8279175,0.5823153,0.003163818,-0.004553963,-0.00301962,0.02954337,0.0138193,-0.003121582
-0.0007452389,0.8327197,0.5822101,-4.340033e-05,0.0002472504,-0.003138365,0.03381939,0.00729367,-0.004794253
-0.004168432,0.8347298,0.5813661,-0.003450919,0.002256111,-0.003995252,0.03919066,-0.00131758,-0.004370932
-0.002945765,0.8360007,0.5805205,-0.00221294,0.003525475,-0.004852889,0.03650836,-0.004235578,-0.005572754
-0.001999901,0.8372001,0.580121,-0.001252023,0.004723055,-0.005263505,0.03210485,0.0008254808,-0.005042599
-0.003512189,0.835423,0.5805164,-0.002749434,0.002943543,-0.004878017,0.02947499,0.005075428,-0.001760045
-0.003606017,0.836082,0.5790756,-0.002828478,0.00359944,-0.006327324,0.02352034,-0.0001625445,-0.00333136
-0.004152887,0.8375981,0.5785785,-0.003360553,0.005111701,-0.00683125,0.0163226,-0.00402601,-0.006033917
-0.004460457,0.836143,0.5798745,-0.003653197,0.003651777,-0.005540292,0.007492437,-0.002302091,-0.005605973
-0.002831738,0.83605,0.5814521,-0.002009304,0.003552809,-0.003965613,0.003489864,-0.001692842,-0.0008855225
-0.002635544,0.8349626,0.5838952,-0.001797607,0.002458317,-0.001523331,0.004589194,-0.000511245,0.006068525
-0.002131209,0.8331422,0.5861022,-0.001277398,0.0006295922,0.0006849351,0.004966188,-0.0002979289,0.005109219
0.0008948781,0.832003,0.5863469,0.001764922,-0.0005191196,0.0009328877,0.009296356,0.0003378147,-0.00554408
0.003182083,0.8286496,0.5875353,0.004068627,-0.003883082,0.002126442,0.01544692,0.003932284,-0.01498479
0.0006594053,0.8271245,0.588726,0.001562536,-0.005419569,0.003323798,0.02076415,0.003530775,-0.0137039
-0.002368762,0.8280542,0.5881261,-0.001449122,-0.004501906,0.002731906,0.02198096,-0.003096044,-0.01122135
0.002205677,0.8302933,0.5885015,0.003141662,-0.002274942,0.003116287,0.01831508,-0.008996443,-0.01487285
0.005829032,0.8338706,0.5840267,0.00678108,0.001290055,-0.001348583,0.01851365,-0.007244792,-0.01274665
0.001539621,0.8354197,0.579713,0.002507223,0.002827034,-0.005651739,0.01813693,-0.003459533,-0.00807194
-0.001414292,0.8345954,0.5837622,-0.0004318442,0.001990511,-0.001591177,0.01738839,-0.002393512,-0.004925644
-0.001516181,0.8322404,0.5852059,-0.0005196659,-0.0003767465,-0.0001352776,0.01972698,0.001133518,-0.003267401
-0.001556931,0.8307128,0.5852458,-0.0005471043,-0.001916708,-8.245397e-05,0.01730169,0.0001094029,-0.01156018
-0.001128205,0.8304939,0.5878798,-0.000105779,-0.002147886,0.002565257,0.01426483,-0.003593748,-0.01294567
-0.0009967307,0.8312676,0.587167,3.761482e-05,-0.001386468,0.001866641,0.01197882,0.001538502,-0.004251313
0.001257224,0.8322848,0.5856153,0.002302816,-0.0003812079,0.0003296542,0.0111538,0.00412614,-0.001765665
0.003748266,0.8299427,0.5839763,0.004804374,-0.002734941,-0.001294437,0.01570101,0.001228264,0.001476242
0.00274855,0.8291378,0.5816232,0.003814305,-0.003550996,-0.003632421,0.0190527,0.0003627965,-0.00212915
0.001372347,0.8329156,0.5775493,0.00244672,0.0002161549,-0.007690864,0.02375869,-0.002890983,-0.01009209
0.00140226,0.8367477,0.5736261,0.002484104,0.004038162,-0.01159801,0.02528621,-0.006966341,-0.005565606
0.001349877,0.8396329,0.5774925,0.002437973,0.006913734,-0.007714687,0.01969202,-0.009283895,-0.003380676
0.001341659,0.8420953,0.5811434,0.002434732,0.00936674,-0.004045509,0.01938801,-0.005734291,-0.004082802
0.001149013,0.8421593,0.5785431,0.002245742,0.009421122,-0.006626169,0.02078129,0.001172424,-0.002317778
-0.0004928182,0.8379639,0.5787737,0.0006062227,0.005215511,-0.006374249,0.02058625,-0.000878053,-0.005582225
-0.001929733,0.8356816,0.5798465,-0.0008296997,0.002922086,-0.005278384,0.01923104,-0.002110377,-0.005219517
-0.0009817138,0.8361615,0.5786991,0.0001180742,0.003389895,-0.006400906,0.01527587,0.001685225,-0.00309604
0.001585758,0.8346761,0.5792679,0.002684147,0.001891198,-0.005805302,0.01559896,0.00296232,-0.003822755
0.003480572,0.8338662,0.5793435,0.004576417,0.001067001,-0.005700804,0.01366486,0.009495011,-0.002177058
0.002823045,0.8329391,0.5797844,0.003915125,0.0001245005,-0.005228841,0.009822251,0.01346762,-0.0009236648
0.001430897,0.8329304,0.5842052,0.002517892,9.936122e-05,-0.0007749379,0.01236959,0.01012393,-0.0001016164
0.001858134,0.8330476,0.5888264,0.00293866,0.0001993027,0.003881487,0.01297475,0.01309193,-0.001070886
0.004058143,0.8310985,0.5875942,0.005130771,-0.001767878,0.002686197,0.01153221,0.01649988,-0.003241597
0.006356109,0.8320793,0.5814719,0.007419315,-0.0008057655,-0.003397794,0.01212773,0.01627983,-0.003990017
0.005585883,0.8326679,0.5773055,0.006637975,-0.0002362852,-0.007524593,0.01157839,0.01808549,-0.005502221
0.003077742,0.8331995,0.5758852,0.004116849,0.0002758317,-0.008904065,0.01158912,0.01821967,-0.001495449
0.002560746,0.8357028,0.5756924,0.003584888,0.002759317,-0.009054616,0.01318108,0.01769673,0.002764665
0.002720209,0.8350889,0.5761688,0.003727378,0.00212533,-0.008534124,0.01244776,0.0183791,-0.001282845
0.002786495,0.8360505,0.5745334,0.003774681,0.003066518,-0.01012359,0.009191483,0.01855845,-0.002191628
0.002926852,0.8384687,0.5749077,0.003894049,0.005463875,-0.009701213,0.009032961,0.01908776,-8.277974e-05
0.002579899,0.8369794,0.5780991,0.00352411,0.003953279,-0.006459371,0.01110503,0.01941478,0.001388006
0.002875061,0.8336939,0.5811788,0.003794303,0.0006457613,-0.003326831,0.01246347,0.01858873,0.00566364
0.002844537,0.8292325,0.5866083,0.003736851,-0.003838223,0.002157892,0.01543434,0.01610338,0.006448847
0.002592613,0.8267184,0.5888385,0.003456063,-0.006375431,0.004445363,0.01554215,0.01405599,0.004942751
0.002975343,0.8297579,0.5868358,0.003808024,-0.003359109,0.002501643,0.01226049,0.01589916,0.004270687
0.002666127,0.8330617,0.5863752,0.003466172,-7.830279e-05,0.00210106,0.01233876,0.01660664,0.002529531
0.002760186,0.833979,0.5851119,0.003525766,0.0008162374,0.0008986828,0.01228034,0.008467327,0.002667499
0.002902581,0.8372009,0.5842341,0.003631909,0.004015827,8.23752e-05,0.01111302,-0.0005807117,0.002586023
0.002611796,0.8403701,0.5848872,0.003303133,0.007162824,0.000797096,0.01063162,-0.001756274,0.001049029
0.003267537,0.8401648,0.5847526,0.003919194,0.006935363,0.0007242574,0.00711295,-0.004806894,0.0007661404
0.004514507,0.8395163,0.584146,0.005124827,0.0062645,0.0001792943,0.002931074,-0.01122153,-0.002258626
0.006058541,0.8388886,0.5818416,0.006625863,0.005613879,-0.002063806,-0.00435309,-0.0128629,-0.01087917
0.005876172,0.8404535,0.5790797,0.00639878,0.007155078,-0.004764834,-0.01707467,-0.01539461,-0.01746093
0.004125758,0.8426823,0.579258,0.004601866,0.009359213,-0.004526048,-0.02512788,-0.02495942,-0.017138
0.001381747,0.841524,0.5809518,0.00180956,0.008175014,-0.002772073,-0.02189773,-0.03582951,-0.01871062
-0.002694949,0.8413239,0.5811415,-0.002317113,0.007947451,-0.002522372,-0.01744351,-0.03436416,-0.02558609
-0.002196018,0.8411611,0.5813519,-0.001869591,0.007755436,-0.002252344,-0.02993195,-0.02118047,-0.02837574
-6.188117e-05,0.8360954,0.582585,0.0002120167,0.002658628,-0.0009597509,-0.04929336,-0.001502574,-0.0257883
-0.002058936,0.8276659,0.5861511,-0.001838402,-0.005803972,0.002665323,-0.05427032,0.02664888,-0.02434143
-0.002141712,0.8189994,0.5934744,-0.001975113,-0.01450508,0.01004705,-0.0423024,0.0297344,-0.02104255
-0.003354511,0.8127925,0.5995978,-0.003242138,-0.02074739,0.01622788,-0.01691542,0.003138149,-0.01118878
-0.006695554,0.8103701,0.6037123,-0.00663737,-0.0232051,0.02039807,0.005952774,-0.009270042,-0.0001770355
-0.003259818,0.8114774,0.6010847,-0.003255416,-0.02213178,0.01782339,0.02496631,-0.01183543,0.005013774
0.001220168,0.8138092,0.5903725,0.001171516,-0.01983158,0.007160498,0.04523783,-0.005007267,0.004929299
0.001688865,0.8167154,0.5867947,0.001588054,-0.01695338,0.003628125,0.05461557,0.01226519,0.006445713
0.001619637,0.8199884,0.5874628,0.001467596,-0.01370421,0.00433728,0.05743293,0.01297753,0.01145162
0.0005118919,0.8223245,0.5851953,0.0003095557,-0.01138713,0.002106632,0.05919469,0.008782634,0.01559293
-0.001198258,0.8286751,0.5836934,-0.00144992,-0.005050558,0.0006374001,0.06159471,0.003495877,0.01544483
-0.002321712,0.8367114,0.5788169,-0.002621638,0.002976996,-0.004210471,0.05853049,0.001544949,0.0109204
0.001923017,0.8389849,0.5750615,0.001576013,0.005246641,-0.007941014,0.04305849,0.01880353,0.007734433
0.007910201,0.8402701,0.5763801,0.007517327,0.006532266,-0.006600789,0.03037783,0.03506116,0.006973821
0.004911902,0.8419909,0.5783734,0.004474217,0.00825727,-0.00458856,0.01862467,0.03537885,0.004043626
0.002233512,0.8410505,0.5789011,0.001751866,0.007324258,-0.00404417,0.01317728,0.01484515,-0.001274326
0.004707536,0.8394159,0.5799301,0.004182643,0.005699509,-0.003000501,0.01831696,-0.003033057,-0.004599825
0.003867126,0.8382693,0.585166,0.0032996,0.00456463,0.002248475,0.01409596,0.001996467,-0.003241163
0.003812294,0.8374557,0.5866993,0.003202645,0.00376436,0.00379318,0.0113717,3.443005e-05,-0.006069797
0.004234328,0.8366409,0.5851446,0.003582969,0.002963912,0.002248322,0.01120645,-0.009046608,-0.01504693
0.003280742,0.8353053,0.5859072,0.002588001,0.001643565,0.003019068,0.005810781,-0.008223051,-0.01857
0.004542329,0.830792,0.5841639,0.003808458,-0.002853881,0.001282256,0.007298682,-0.002459037,-0.0162441
0.002412146,0.8278934,0.5849766,0.001637333,-0.005735998,0.00209966,0.006782664,0.003535105,-0.01508398
0.000177533,0.8322951,0.5880817,-0.000638051,-0.001317128,0.00520779,0.0001965279,0.003406507,-0.01779482
0.002856554,0.834627,0.5890862,0.002000411,0.001032573,0.006213615,-0.00702406,0.001978626,-0.02205693
0.005817458,0.8329587,0.5893431,0.004920993,-0.000617189,0.006469751,-0.01512736,0.005953791,-0.02581486
0.009435754,0.8342624,0.5874012,0.008499116,0.0007056415,0.004525043,-0.02079702,0.008059549,-0.02752827
0.009236356,0.8388542,0.5863812,0.008259465,0.005316962,0.003500025,-0.02414809,0.00280219,-0.02510271
0.006064826,0.8427708,0.583382,0.00504733,0.009253303,0.00049349,-0.02675529,-0.0007745417,-0.02328553
0.004586625,0.8393516,0.5796806,0.003527974,0.005853587,-0.003217276,-0.03138518,0.004687297,-0.02237128
0.0001985103,0.8342384,0.5853429,-0.0009019077,0.0007592676,0.002433564,-0.03359529,0.01148332,-0.02243206
0.0001443138,0.8338752,0.5924766,-0.0009984005,0.0004141185,0.00955411,-0.03221832,0.01372556,-0.02378341
0.002808863,0.8301751,0.5923721,0.001623481,-0.003268695,0.00943443,-0.02901485,0.01232573,-0.01803809
-0.001491595,0.8244768,0.5919275,-0.002719862,-0.008950356,0.008972512,-0.01805365,0.007272996,-0.01319151
-0.002885983,0.8231323,0.5962908,-0.004157164,-0.01027871,0.01331592,-0.006441721,-0.001319632,-0.01734213
-0.001622739,0.8236462,0.5998201,-0.0029366,-0.009748561,0.01682259,0.006409782,-0.007298132,-0.01915685
-0.00265128,0.8254546,0.5968745,-0.00400731,-0.007923454,0.01385097,0.02243901,-0.008825017,-0.01422343
-0.002436546,0.8267899,0.5926672,-0.003833967,-0.006570454,0.009613881,0.02682889,-0.009000346,-0.006309161
-0.003207351,0.8275268,0.589984,-0.004645129,-0.005814851,0.00689694,0.02408165,-0.005063459,-0.0001669436
-0.002756738,0.8321034,0.5865148,-0.004233585,-0.001218194,0.003390013,0.02030087,0.00115675,0.002411562
-0.002335998,0.8355655,0.5869446,-0.003850393,0.002265179,0.003778049,0.01208439,0.01078941,0.006454846
-0.002682319,0.8347542,0.5904889,-0.004232532,0.001476412,0.00727685,0.008758053,0.0191116,0.01068641
0.001241602,0.834565,0.5896804,-0.0003425434,0.001310749,0.006419183,0.01393841,0.01556234,0.002820248
0.004150687,0.8347523,0.5864861,0.002534549,0.001522192,0.003172164,0.01715075,0.01501628,-0.01329245
0.004712827,0.8344036,0.5841984,0.003066548,0.001198264,0.000828384,0.0124378,0.02101936,-0.01913192
0.005725287,0.8329513,0.5847702,0.004050534,-0.0002289395,0.001340982,0.008781415,0.01986708,-0.01988731
0.004698928,0.831284,0.5872588,0.002997152,-0.001870851,0.003767554,0.009285808,0.01782603,-0.02057758
-3.553441e-05,0.8315401,0.5850073,-0.001763058,-0.001589161,0.001451466,0.006018173,0.01392481,-0.0168974
-0.005326602,0.8304459,0.5849805,-0.007078626,-0.002657509,0.001357828,0.002283367,0.006663303,-0.01813306
-0.004134946,0.8286174,0.5918493,-0.005910056,-0.00445988,0.00815761,0.002556973,0.008327346,-0.01834108
-0.002656774,0.830034,0.5950161,-0.004453303,-0.003016845,0.01125336,0.005568123,0.01302997,-0.01086422
-0.006726695,0.8322097,0.590693,-0.008542738,-0.0008143186,0.006857224,0.01058388,0.01200857,-0.0041432
-0.007642864,0.8315368,0.5857832,-0.009476249,-0.001459993,0.001872134,0.01331482,0.007833731,0.0007120696
-0.005585751,0.8290588,0.5907281,-0.007433992,-0.00391037,0.006739645,0.01033413,0.005685839,0.003690135
-0.00496478,0.8269776,0.5959159,-0.006825103,-0.005963533,0.01184803,0.007857282,0.0185831,0.008735056
-0.003803109,0.8264381,0.5912466,-0.005672536,-0.006474308,0.007097334,0.01668486,0.03274046,0.01511747
-0.002318403,0.8267522,0.5890731,-0.00419383,-0.006130837,0.004840205,0.0243473,0.02141857,0.01800509
-0.002486191,0.8260741,0.5874537,-0.004364459,-0.006778614,0.00313518,0.01315148,0.01136424,0.02155262
-0.003386628,0.8261346,0.5871769,-0.005264564,-0.00668663,0.002770766,0.004281007,0.02277809,0.02161061
-0.003504801,0.8258896,0.5942151,-0.005379216,-0.006898825,0.009719647,0.0128891,0.02636459,0.01598435
-0.00430095,0.8250184,0.5968569,-0.006168621,-0.007735687,0.01227044,0.01643209,0.02131666,0.01212869
-0.004727704,0.8288431,0.5949053,-0.006585361,-0.003875056,0.01022594,0.007576146,0.02131299,0.01121787
-0.004629503,0.8328538,0.5929672,-0.006473817,0.0001731661,0.008192984,0.003222672,0.01861603,0.01118752
-0.005817272,0.83169,0.5917581,-0.007644852,-0.0009514272,0.006886968,0.006836905,0.01784312,0.01076976
-0.004007899,0.8288474,0.5901898,-0.00581529,-0.003753367,0.005219642,0.009176827,0.01729949,0.009534553
0.001066058,0.8270581,0.5859662,-0.0007176914,-0.005500754,0.0008950326,0.009816782,0.00945051,0.007858222
0.003709099,0.8276345,0.5867053,0.001952293,-0.00488104,0.001531443,0.01289066,0.004105675,0.005833605
0.002283262,0.8281844,0.5869558,0.0005563988,-0.004286541,0.001677958,0.01637776,0.001531684,0.0003829818
-0.0005452985,0.8280749,0.583187,-0.002239551,-0.00434996,-0.002195944,0.01949583,-0.003285398,-0.005770797
-0.002894584,0.8306338,0.5846418,-0.00455379,-0.001743644,-0.0008468023,0.02405372,-0.008323064,-0.003059493
-0.006405424,0.8337758,0.5843457,-0.008027241,0.001447092,-0.001248935,0.02671467,-0.01345668,0.0001543597
-0.006758658,0.8341837,0.5814115,-0.008340705,0.001904765,-0.004289034,0.02292221,-0.0156424,-0.00446804
-0.003770893,0.8349789,0.5818092,-0.00531069,0.002750654,-0.00399678,0.01733731,-0.01617272,-0.006097355
-0.00424103,0.8385863,0.5807584,-0.005736038,0.006409093,-0.005151965,0.0156188,-0.01720636,-0.004943591
-0.002796405,0.8398217,0.5783938,-0.004244101,0.007695561,-0.007619489,0.009853318,-0.0130651,-0.005801119
-0.001541019,0.8382183,0.5772511,-0.002938942,0.006142884,-0.008863218,-0.0002029568,-0.007300935,-0.004619681
-0.004013432,0.8380041,0.5776492,-0.005359228,0.005978447,-0.008563604,-0.004445828,-0.003555157,-0.004202292
-0.002335801,0.8365647,0.5781802,-0.003627217,0.004587593,-0.008128015,-0.009815782,0.004440854,-0.004920799
-0.002348525,0.8325047,0.5774966,-0.003583406,0.0005745125,-0.008903514,-0.01450561,0.01129739,-0.002057757
-0.004027636,0.8286496,0.5783282,-0.005203928,-0.00323529,-0.008159992,-0.009672246,0.01075657,0.002876002
-0.003736304,0.8276959,0.5809992,-0.004852041,-0.004145341,-0.005572686,-0.006714174,0.009265476,0.005856369
-0.006495327,0.8269681,0.5844938,-0.007548582,-0.004830967,-0.00215713,-0.003250834,0.01039015,0.005034113
-0.005900539,0.8222895,0.5871731,-0.00688938,-0.009468714,0.0004476443,0.004406193,0.01070252,0.006429611
-0.004635785,0.821231,0.5880937,-0.00555825,-0.01048713,0.001298356,0.01132262,0.00604714,0.01194501
-0.006360938,0.8255673,0.5881484,-0.007215053,-0.006111279,0.001287603,0.0252421,-0.001658102,0.01186334
-0.004843945,0.8285084,0.5849781,-0.005627736,-0.003130692,-0.001944,0.03275033,-0.01086022,0.008564474
-0.003487292,0.8335928,0.5825083,-0.004198813,0.00199318,-0.004470857,0.02638357,-0.01710076,0.009618195
-0.001719772,0.8400044,0.581431,-0.002357162,0.008444063,-0.005601188,0.02335418,-0.01096613,0.0114336
-0.0004700383,0.8427255,0.574351,-0.001031605,0.01120402,-0.01272992,0.02058294,-0.001145132,0.01163144
-0.00254165,0.8417269,0.5704764,-0.003025919,0.01024339,-0.0166487,0.01377136,0.001511708,0.009853964
-0.003968788,0.8380469,0.573529,-0.004374483,0.006599661,-0.01363515,0.006767487,0.001006244,0.007862811
-0.006099189,0.8362707,0.573868,-0.006425148,0.00485792,-0.0133297,0.002703848,0.0004894937,0.006379467
-0.005382638,0.8340563,0.5745938,-0.005627739,0.002675709,-0.0126315,0.002130206,0.00238529,-0.001048571
-0.0001492833,0.8310621,0.5731534,-0.000312443,-0.0002886535,-0.01409318,0.0004884848,0.007861987,-0.009939226
0.00177834,0.8339383,0.569445,0.001698047,0.002615074,-0.01781633,0.004334129,0.01288064,-0.008585665
-0.001820588,0.8372904,0.5739756,-0.00181736,0.005992411,-0.01329347,0.006007334,0.01111193,-0.005117048
-0.008596888,0.8357212,0.581205,-0.008509702,0.004445985,-0.006064663,-0.002899479,0.006358923,-0.008157995
-0.01137774,0.8322679,0.5846186,-0.01120616,0.001012856,-0.002644371,-0.008456564,0.008124316,-0.008673165
-0.009019672,0.8312338,0.5840967,-0.008763077,-3.501681e-06,-0.003152823,-0.01164258,0.01381918,-0.006935944
-0.008249111,0.8334299,0.5821011,-0.007906663,0.002207772,-0.005128252,-0.01534065,0.01935667,-0.004412593
-0.006666393,0.8343871,0.5840217,-0.006237115,0.003177723,-0.003181323,-0.01560458,0.01746283,0.0004833587
-0.004098156,0.83411,0.5846204,-0.003581027,0.002910956,-0.002550471,-0.01014005,0.005874125,-0.002257421
-0.002972781,0.8339389,0.5841583,-0.002366836,0.002747852,-0.002974726,-0.003965323,5.338401e-05,-0.006605218
-0.0008884425,0.8339171,0.5855364,-0.0001928764,0.002731643,-0.001553709,-0.009504815,0.003674002,-0.005554135
-0.0007739611,0.8344431,0.5842767,1.180181e-05,0.003260792,-0.002765636,-0.01331836,0.01045183,-0.004439647
-0.002105526,0.8345528,0.5845757,-0.001229253,0.003371354,-0.00241447,-0.00901361,0.01434123,0.002001095
-0.001152233,0.834644,0.5856391,-0.0001853814,0.003460965,-0.001294724,-0.006926186,0.01193768,0.007638034
-0.00115181,0.8329312,0.5858916,-9.453625e-05,0.001744239,-0.0009822128,-0.002101128,0.01116901,0.004242783
-0.001975519,0.831113,0.5877023,-0.0008281964,-8.01005e-05,0.0008918628,0.002398156,0.009617351,-0.0009414628
-0.001998459,0.8319119,0.5841408,-0.0007616579,0.0007104036,-0.002603274,0.006021596,0.002584406,-0.003401908
-0.003078972,0.8309009,0.5804893,-0.001753421,-0.000311,-0.006185703,0.01155047,-0.005925968,-0.000246146
-0.003068334,0.8282562,0.5839346,-0.001654891,-0.002967921,-0.002668929,0.01206137,-0.01165858,0.004462672
-0.002313901,0.827984,0.5858326,-0.0008135221,-0.003253963,-0.0006972012,0.01027172,-0.01022144,0.004215406
-0.003066758,0.8314722,0.5844394,-0.001480501,0.0002191016,-0.002014632,0.008954389,-0.01146858,0.003531335
-0.002779012,0.8356312,0.5835348,-0.001108032,0.00436184,-0.002841749,0.00670068,-0.01707415,0.004712785
-0.002560901,0.8353762,0.580617,-0.0008064384,0.004089497,-0.00568046,0.005984887,-0.01530537,0.00527985
-0.003232547,0.8350704,0.576831,-0.001395926,0.003765245,-0.009385913,0.004318992,-0.01296151,0.006336308
-0.003475278,0.8376502,0.5797678,-0.001557893,0.006325314,-0.006367116,-0.000875241,-0.0142972,0.007330462
-0.004485589,0.8368624,0.5839087,-0.002488874,0.005516441,-0.002142668,-0.00244194,-0.0130859,0.006886961
-0.004366908,0.8317581,0.5806275,-0.002292308,0.0003895935,-0.005338929,-0.001329935,-0.01080852,0.004746088
-0.002899057,0.8273406,0.5795184,-0.0007480198,-0.004051828,-0.006361799,-0.004123326,-0.006313578,0.0007254749
3.742169e-05,0.8274702,0.5816251,0.002263407,-0.003947386,-0.00416758,-0.006180844,0.0002583586,-0.001258771
0.004011944,0.830553,0.5815942,0.006311234,-0.0008906407,-0.004109736,-0.01129989,0.005336118,-0.0008407474
0.002539006,0.8323251,0.5848258,0.004909684,0.000854867,-0.0007883494,-0.0233565,0.01572673,0.0001526052
-0.0009989411,0.8321157,0.5873659,0.001440911,0.0006183362,0.001842359,-0.03297192,0.02787891,-0.0004794697
-0.002524866,0.8298191,0.5858567,-1.824625e-05,-0.001705779,0.0004244254,-0.03203195,0.02717256,-0.006151785
-0.006920634,0.8298125,0.5881552,-0.004349693,-0.001740148,0.002814271,-0.01714074,0.0172029,-0.00927963
-0.009483985,0.8366372,0.5981893,-0.006851047,0.005056625,0.01293955,-0.002897673,0.006042417,-0.004468489
-0.01174835,0.8408724,0.6083345,-0.009055462,0.009263777,0.02317496,-0.0002069711,-0.004595065,0.006764371
-0.01520094,0.831293,0.6034149,-0.01244976,-0.0003439516,0.01834365,0.01092657,-0.01734444,0.02094613
-0.004207046,0.8158741,0.5870785,-0.001398785,-0.01579162,0.002092655,0.03599384,-0.02697412,0.02868257
0.00795071,0.8124516,0.5785905,0.01081502,-0.01924262,-0.006313405,0.04555579,-0.004684403,0.02798663
0.001476229,0.8178979,0.5806514,0.004395346,-0.01382394,-0.004173988,0.0340111,0.02237523,0.02251241
-0.003039486,0.8215594,0.5816643,-6.714488e-05,-0.01018825,-0.003085774,0.03143533,-0.007489424,0.01845382
-6.59932e-05,0.8262966,0.5762873,0.002957783,-0.00547449,-0.008390422,0.04106036,-0.0372659,0.01860783
-0.001366767,0.8299193,0.5747482,0.001706551,-0.001872544,-0.009859835,0.04298606,-0.0176629,0.01530795
0.0009416733,0.8412362,0.5780791,0.004062525,0.009426183,-0.006461315,0.03099018,-0.01348823,0.006305447
0.00436888,0.8599306,0.5767344,0.007535093,0.02810471,-0.007740279,0.01132269,-0.01846539,-0.001302285
0.002791064,0.8562565,0.5772397,0.006000226,0.024416,-0.007170707,0.002022589,0.000552524,-4.347395e-05
0.004182203,0.8451647,0.5758501,0.007431623,0.01330951,-0.008497163,0.00284007,0.02198293,0.00342109
0.006599844,0.8485116,0.5670371,0.009886542,0.0166409,-0.01724779,-0.002788082,0.05283537,0.002427601
0.00457795,0.8441238,0.5653386,0.007898639,0.01223584,-0.01888415,-0.01055901,0.05849625,0.004089963
0.0007222551,0.8377453,0.5731628,0.004073373,0.005837992,-0.0109974,-0.01343175,0.01765826,0.00503563
-0.002433405,0.8366729,0.5807773,0.0009444528,0.004743669,-0.003319318,-0.01170895,-0.008285946,0.003444938
-0.002004954,0.8338176,0.5787708,0.001395994,0.001864012,-0.005261117,-0.006331655,-0.008340128,0.005003358
0.0004405405,0.839168,0.5757985,0.003861034,0.007187565,-0.008167498,-0.002512331,-0.006111507,0.008104144
0.002712883,0.844667,0.5821354,0.006149433,0.01265728,-0.001763519,-0.004854462,-0.004607426,0.009692468
0.006629273,0.8495036,0.5824077,0.01007833,0.0174618,-0.001423041,-0.01871565,0.007095457,0.004310624
0.006659551,0.8533813,0.5790479,0.01011739,0.02130415,-0.004713525,-0.03513418,0.02750679,0.0007410106
0.004079637,0.8468753,0.5788319,0.007542298,0.01475904,-0.004859308,-0.03309445,0.02707959,0.005073297
0.006158346,0.8393734,0.5780025,0.009621671,0.007213684,-0.005617571,-0.01990386,0.02140249,0.00619464
0.006522799,0.8219648,0.5826931,0.009982473,-0.01024273,-0.0008549374,-0.01051155,0.01878034,0.00567434
0.007291713,0.8111155,0.5838212,0.01074324,-0.02114373,0.0003459051,0.004108796,0.00917761,-0.003093684
0.008853045,0.8220844,0.5790272,0.01229175,-0.01022919,-0.004374674,0.01844973,0.01116315,-0.00836099
-0.002747545,0.822625,0.57799,0.0006735052,-0.009744741,-0.005338101,0.02078895,-0.003759163,0.008457346
-0.01301111,0.8264074,0.5815621,-0.009612397,-0.006019266,-0.001691687,0.02300582,-0.02358687,0.01373874
-0.003174285,0.8387002,0.5873619,0.0001979025,0.006216346,0.004182762,0.02416844,-0.001325855,0.01113367
0.006028834,0.8395312,0.5867775,0.009370799,0.006989987,0.003673054,0.01734861,0.01574777,0.01588992
0.000242964,0.8424946,0.5864813,0.003551215,0.009895879,0.003451187,0.01449913,0.003942896,0.009877179
-0.003197891,0.8435943,0.5891404,7.325011e-05,0.01093751,0.006184043,0.01555853,-0.001306404,0.01207707
-0.0008405441,0.8433581,0.5849115,0.002390292,0.01064244,0.002027727,0.0138015,0.003260819,0.01413286
-0.000327691,0.8440101,0.5793629,0.002859898,0.0112344,-0.003449584,0.01101224,0.01138548,0.007647386
0.003935267,0.8369438,0.5734063,0.007076852,0.004106665,-0.009336337,0.004917176,0.02193333,0.008293078
0.004697556,0.8306031,0.5730166,0.007790449,-0.002296943,-0.009657303,0.0011632,0.01825279,-0.001184464
0.003345864,0.825745,0.5773718,0.006387356,-0.007219157,-0.005234326,0.00191864,0.008064527,-0.006376028
0.009026632,0.828685,0.5730651,0.01201396,-0.004344159,-0.009473765,-0.001732995,0.01448773,-0.001615498
0.006664187,0.8377773,0.5726049,0.009594454,0.004682664,-0.009867083,-0.007522654,0.01438977,0.0002965762
0.001624513,0.8407836,0.5762087,0.004494715,0.007623398,-0.006196399,-0.01201578,0.007862991,0.006521932
0.001975338,0.8399155,0.5779103,0.004782466,0.006689498,-0.004427624,-0.01072543,0.01421337,0.003809494
0.0001487828,0.8356689,0.585131,0.002889962,0.002376733,0.002860358,-0.006296339,0.01511062,0.0005040487
0.001691776,0.8371098,0.5852925,0.004364312,0.003751087,0.003089364,-0.00998232,0.01747763,0.003699759
1.244944e-05,0.8384114,0.5826566,0.002613845,0.004985734,0.000520723,-0.01201582,0.01978631,0.002764815
-0.003066855,0.8310647,0.5864412,-0.0005388713,-0.002428232,0.004372065,-0.009746763,0.01454885,0.003619329
-0.0004440675,0.8290954,0.5843769,0.002008517,-0.00446512,0.002373782,-0.007680325,0.0146042,0.0003857527
-0.001592932,0.8287555,0.58163,0.0007825667,-0.004872354,-0.0003080776,-0.0009506083,0.00690724,-0.001131799
-0.001881379,0.8294677,0.5824499,0.0004156279,-0.004226864,0.0005756547,0.0008783923,0.001704506,0.005877887
-0.001701523,0.8328117,0.5813661,0.0005158633,-0.0009487843,-0.0004456089,0.002217758,0.005878703,0.01096071
-0.003658468,0.8333916,0.5782714,-0.001521545,-0.0004336062,-0.003479132,0.007766934,0.001234003,0.01420656
-0.001911669,0.8360781,0.5759656,0.0001442474,0.002189376,-0.005725058,0.005066366,-0.0007836111,0.01198563
-4.190621e-05,0.8361605,0.5807739,0.00193273,0.002209683,-0.0008580157,0.003636569,0.003531407,0.008709957
0.001963583,0.8353437,0.5853787,0.003856853,0.001332047,0.003804285,0.001991764,0.007165919,0.01379114
0.002011158,0.8341065,0.5848767,0.003823068,3.527076e-05,0.003358622,-0.01177819,0.008811869,0.01820966
0.0006630684,0.8302426,0.5905981,0.002393671,-0.003886794,0.009134753,-0.01949478,0.009248708,0.01949886
0.002790732,0.8322498,0.5968594,0.004440123,-0.001936252,0.01544898,-0.009319648,0.01258583,0.01445817
0.003091515,0.8325228,0.5866523,0.004659819,-0.00171831,0.0052923,0.001580308,0.01770859,0.001296597
0.002490497,0.831284,0.5733277,0.003977836,-0.003010338,-0.007984726,-0.001027991,0.02278827,0.002258953
0.002844729,0.8335402,0.5766195,0.004251213,-0.0008054205,-0.004648118,-0.00402203,0.01089282,0.007920066
0.001157012,0.8333959,0.5793841,0.002482758,-0.0009990606,-0.001841117,-0.002735078,-0.006353295,-0.001183217
-0.001464208,0.8343804,0.5759575,-0.0002190226,-6.173514e-05,-0.005227554,-0.009869869,0.002788936,-0.0003115947
-0.002615517,0.8350155,0.578724,-0.001450571,0.0005281371,-0.002422831,-0.01539416,0.01106311,0.001654689
0.002354513,0.8350855,0.5780471,0.003439733,0.0005550293,-0.003063314,-0.01682443,0.006443439,-0.009745187
0.00680154,0.8379842,0.57654,0.00780764,0.003412542,-0.004535511,-0.02106427,0.007950406,-0.01102392
-3.991036e-06,0.8412012,0.5780224,0.0009235524,0.006590239,-0.003019508,-0.02030651,0.005518218,-0.00815361
-0.007391685,0.841701,0.5758129,-0.006542108,0.007052243,-0.005196601,-0.02105149,0.006571069,-0.00315814
-0.005329411,0.835302,0.5784143,-0.004556952,0.0006166504,-0.002563676,-0.02406999,0.01244006,0.002865796
-0.001049697,0.828575,0.5825967,-0.0003531479,-0.006145865,0.001649351,-0.01928358,0.008703453,-0.002108513
0.003236991,0.8276173,0.5838472,0.003859071,-0.00713779,0.002929759,-0.01030306,0.008752653,-0.003892869
0.006464322,0.8287534,0.5872003,0.00701339,-0.006034445,0.006311828,-0.001190795,0.008558085,-0.00533809
0.001287847,0.8297878,0.5898589,0.001765234,-0.005030943,0.00899814,0.002730515,-0.002604654,-0.005805243
-0.003894857,0.8300815,0.5915874,-0.003487893,-0.004766031,0.01075283,0.003453623,-0.01071311,0.0004155539
-0.0009988863,0.8320193,0.5879056,-0.000660992,-0.002854807,0.007095262,0.006395802,-0.009287673,0.002191698
-0.0005492338,0.8342904,0.5819219,-0.0002788958,-0.0006079572,0.001133423,0.0008484641,-0.005049456,0.005240488
-0.002499833,0.8347639,0.5829876,-0.002295407,-0.0001563656,0.002218597,-0.0102406,-0.004722441,0.002962773
-0.001841372,0.8337796,0.5832549,-0.001701087,-0.001160294,0.002502828,-0.01001503,-0.001609836,-0.002624022
-0.002962358,0.8308887,0.5842629,-0.002884299,-0.004068613,0.003525292,-0.004344469,0.001073174,0.001307858
-0.003254256,0.8307394,0.588299,-0.003236352,-0.004233071,0.007573426,-0.003546792,-0.007248157,0.001311515
-0.001666154,0.8343098,0.5820794,-0.001706179,-0.0006755643,0.001363319,-0.005565035,-0.01179641,-0.001720649
-0.0002140934,0.8369936,0.5734302,-0.0003097087,0.001997498,-0.00727906,-0.01006463,-0.009781232,-0.004056666
0.00304147,0.8357033,0.575126,0.002892627,0.0006987508,-0.005578698,-0.01248422,-0.009604227,-0.006822218
0.003646111,0.8331615,0.5787928,0.003446317,-0.001849639,-0.001909232,-0.01155233,-0.009467604,-0.004563665
0.00196691,0.8336603,0.5826805,0.001718282,-0.001355572,0.001979576,-0.01287087,-0.009912734,-0.003854172
0.003044954,0.8332337,0.5901497,0.002749454,-0.001785146,0.009448327,-0.01298441,-0.00883944,-0.005413157
0.001937853,0.8329281,0.594689,0.001597309,-0.00209187,0.01398558,-0.009096135,-0.01027485,-0.009281227
-0.003024678,0.8343524,0.5909772,-0.00340852,-0.0006670736,0.01026962,-0.003928086,-0.0139984,-0.01427433
-0.006822184,0.8342756,0.5812817,-0.007247522,-0.0007416261,0.0005673933,-0.0004686956,-0.01607744,-0.009490998
-0.006339175,0.8352742,0.5759223,-0.006803985,0.0002607403,-0.004801128,0.002029827,-0.01725496,-0.004182931
-0.004219412,0.83498,0.5804001,-0.004721384,-2.812157e-05,-0.0003348841,0.002906365,-0.01516211,-0.00771469
-0.005050309,0.8349367,0.5857185,-0.005586893,-6.481789e-05,0.004970013,-0.004212775,-0.01634456,-0.008870224
-0.004376526,0.8369906,0.5851013,-0.004944989,0.001996875,0.004337307,-0.01013669,-0.01816618,-0.005786703
-0.003218479,0.8349086,0.5834275,-0.003815938,-7.619948e-05,0.002646088,-0.008172046,-0.01611621,-0.004040036
-0.005000616,0.8342884,0.5825817,-0.005624075,-0.0006865295,0.001780888,-0.01028539,-0.0145497,-0.0035164
-0.003063274,0.8363292,0.5798514,-0.003709648,0.001364863,-0.0009706811,-0.01384379,-0.01223449,-0.003167701
0.000711157,0.8368914,0.5807782,4.499802e-05,0.001938546,-6.682539e-05,-0.00881336,-0.01573116,-0.00155677
0.003616588,0.8368435,0.5828172,0.00293369,0.001902548,0.001947769,-0.001768038,-0.01877371,-0.0004363548
0.004806842,0.8307778,0.5779578,0.004110014,-0.004150758,-0.002937524,-0.001324526,-0.01536501,0.00153114
0.003157332,0.8237957,0.5731573,0.002449065,-0.01111998,-0.007764896,-0.002495046,-0.01643534,0.004951031
0.004447277,0.8250395,0.5723486,0.003729744,-0.009862573,-0.008601207,-0.0007813054,-0.01899256,0.002662998
0.003695848,0.8303372,0.5762525,0.002970923,-0.004550064,-0.004725248,0.0009132014,-0.02107264,-0.00137355
0.00155869,0.8331795,0.5814042,0.0008279808,-0.00169173,0.0003988656,0.002804015,-0.02137212,-0.002484798
0.003537368,0.8320358,0.5791729,0.002802265,-0.002817841,-0.001859743,0.00249275,-0.02008762,-0.002940873
0.002635535,0.8314232,0.5783948,0.001897239,-0.003411568,-0.002664621,0.001082161,-0.02197649,-0.0003888786
0.002420634,0.8322417,0.5819971,0.001680159,-0.002572779,0.0009116429,0.002027608,-0.01707531,0.001151607
0.003382197,0.8319705,0.582437,0.002640387,-0.00282221,0.001326113,0.001324116,-0.005376997,0.0008242169
0.001670047,0.8319654,0.5850063,0.000927584,-0.002804208,0.0038706,-0.0009264709,0.004906156,-0.001159002
0.0004269637,0.8329306,0.5915762,-0.0003155939,-0.001814515,0.01041629,-0.0079141,0.0129754,-0.005394181
-0.002387616,0.8336452,0.5954453,-0.00312976,-0.001074224,0.01426135,-0.01564173,0.01773622,-0.002764816
-0.002876781,0.8327881,0.5904306,-0.003617957,-0.001904333,0.009222206,-0.007319254,0.01921528,-9.704322e-05
-0.001308136,0.8305412,0.5837839,-0.002047686,-0.004123079,0.002550286,0.003984923,0.01792134,-0.002014027
1.642103e-05,0.8284464,0.5861264,-0.0007207628,-0.006188583,0.004866567,0.0008675549,0.02044887,0.001695735
0.003970744,0.828972,0.5870708,0.003236662,-0.005632404,0.005783557,0.001837335,0.02323819,0.005455496
0.002577699,0.8308895,0.5840769,0.001847345,-0.003683015,0.002761148,0.01027342,0.02058774,0.005698846
-0.0002590731,0.8313942,0.584982,-0.0009852162,-0.003145038,0.003636461,0.01091298,0.01861399,0.005449752
0.002362636,0.8325694,0.5847541,0.001641093,-0.001935173,0.003377465,0.01049034,0.008583248,0.003918224
0.002424133,0.8345215,0.5840351,0.001707501,5.296924e-05,0.002626111,0.010523,-0.007143406,0.004684038
0.002416137,0.8375013,0.5830562,0.001704624,0.003069887,0.001613769,0.003697444,-0.01030577,0.004996713
0.003517994,0.8402226,0.5786809,0.002811682,0.005829275,-0.002796265,-0.004965597,-0.002007429,0.002093442
0.001703593,0.838595,0.5758763,0.00100244,0.004240254,-0.005636441,-0.009037454,0.00376446,0.001680075
0.0001695163,0.8373703,0.5750466,-0.0005266137,0.003054328,-0.006502246,-0.003730006,-0.001353493,0.002209796
-0.0009987818,0.83772,0.5776204,-0.001690043,0.003442569,-0.003964767,0.001233685,-0.002921846,0.0002844688
0.002306703,0.8360022,0.5826173,0.001620178,0.001762812,0.0009960506,-0.005232212,0.005848595,-0.001981226
0.007524427,0.8350709,0.5833312,0.006842466,0.0008689703,0.001674337,-0.009140107,0.00994018,-0.005113639
0.003187783,0.8345596,0.5831322,0.002510042,0.0003944049,0.001440056,-0.004178823,0.006946176,-0.004765105
-0.002644943,0.8340862,0.5836793,-0.003318965,-4.309477e-05,0.001952303,0.0001380915,0.003305962,0.0008187339
-0.002954785,0.8333588,0.5828893,-0.003625566,-0.0007355465,0.001127735,0.002726053,0.004664397,0.003986049
-0.002968333,0.8311423,0.5825133,-0.003636184,-0.002917906,0.000717702,0.002006196,0.00753522,0.005318179
-0.001589866,0.8317006,0.5821231,-0.002254907,-0.002326357,0.0002937323,-0.003143845,0.008919358,0.005187086
-0.001162302,0.8327886,0.5838133,-0.001824504,-0.001205855,0.001950652,-0.004172139,0.01033777,0.004255313
-0.002630202,0.8330379,0.5874085,-0.00328942,-0.0009247477,0.005512936,0.001923687,0.00263097,0.008170268
-0.002793166,0.837313,0.5880871,-0.003449139,0.003381516,0.006158867,0.005292701,-0.004313693,0.01255239
-0.003002144,0.8393817,0.5867091,-0.003654474,0.005480478,0.004748326,-0.001189803,0.004262368,0.01531935
-0.002626622,0.833789,0.5847895,-0.003274769,-8.288852e-05,0.002795981,-0.007987708,0.01846452,0.01780977
-0.002144514,0.8274373,0.5826255,-0.002787814,-0.006406282,0.0005991252,-0.004386832,0.02607768,0.01680756
-0.0003907631,0.8269395,0.5829489,-0.001028467,-0.006876796,0.0008894057,0.001637387,0.0197873,0.01136239
0.002695807,0.8297535,0.5837746,0.002064461,-0.004036175,0.001681924,0.005951841,0.009969836,0.00550478
0.002438723,0.8311182,0.5823496,0.001814411,-0.002645262,0.0002235569,0.0120899,0.01035394,0.007810307
0.002380088,0.8321166,0.5827662,0.001763335,-0.001620985,0.0006067951,0.01347353,0.01427144,0.0118742
0.003403003,0.831454,0.5856388,0.002794178,-0.002257822,0.003446017,0.01306058,0.01814666,0.008870413
0.00243085,0.8302375,0.5866859,0.001830159,-0.003448733,0.00445962,0.01350303,0.02005701,0.006355547
0.002728687,0.8334287,0.5860887,0.002136185,-0.0002321384,0.003828855,0.00836486,0.01715097,0.002742259
0.003065011,0.8349471,0.5844593,0.002480617,0.001311742,0.002165757,0.005111629,0.01616506,-0.0009251191
0.002655963,0.8301385,0.5790977,0.002079464,-0.003471628,-0.003229792,0.005868375,0.0162613,0.0001714279
0.003833129,0.8269936,0.5732407,0.003264184,-0.006591379,-0.009120851,0.003212822,0.01452963,-0.00340125
0.00373646,0.8328255,0.5761023,0.00317459,-0.0007341441,-0.006292939,-0.0004365462,0.01440444,-0.007621317
0.0003939369,0.8416065,0.5822987,-0.0001614573,0.008072092,-0.0001296409,0.0001767681,0.01303582,-0.004374897
-0.003426131,0.8416587,0.5825865,-0.003975677,0.008149471,0.0001260969,0.00201624,0.01159031,0.002444395
-0.003305136,0.8348169,0.5850554,-0.003849347,0.001332361,0.002563788,0.0004792515,0.01154889,0.008903201
-0.0005556836,0.8300924,0.5875634,-0.001094891,-0.003368331,0.005041472,0.002203588,0.004804895,0.007669274
0.001291544,0.8314683,0.5829134,0.0007571358,-0.00196932,0.0003619854,0.004762174,-0.0007840178,0.005367343
0.003454386,0.8340647,0.5771107,0.002924587,0.0006495486,-0.005469469,0.001423524,0.006618764,0.010899
0.003358683,0.8323583,0.5710058,0.002833222,-0.001035173,-0.01160238,-0.001202404,0.01075758,0.01202232
0.002239207,0.8332536,0.5705867,0.001717692,-0.0001186722,-0.01204815,-0.004432377,0.002133624,0.00532782
0.005023923,0.8358391,0.5747339,0.004505846,0.002487201,-0.007925712,-0.006733137,-0.002976655,-0.002218281
0.006076271,0.8344298,0.5740839,0.005560974,0.001097705,-0.008598309,-0.004758086,-0.001347287,-0.007759749
0.00434972,0.8347455,0.576535,0.003836356,0.001432341,-0.006167211,-0.004003879,-0.002649243,-0.009175965
0.004010447,0.8360795,0.5769852,0.003497993,0.002784457,-0.005734115,-0.002240103,-0.006292163,-0.01005439
0.003279279,0.8371767,0.5733901,0.002766586,0.003898828,-0.009343386,-0.00265359,-0.006373874,-0.01116868
0.000820164,0.8390002,0.5774664,0.0003060193,0.005738317,-0.005277913,-0.008673783,-0.0009571923,-0.01090175
-0.002688461,0.8383788,0.5802749,-0.003205239,0.005131696,-0.002477041,-0.01245231,0.003714594,-0.01048078
-0.00291534,0.8362487,0.5840603,-0.003435779,0.00301472,0.001304213,-0.01084602,0.0005181443,-0.01032109
-0.001726121,0.8339172,0.5909034,-0.002251022,0.000694802,0.008146116,-0.007696027,-0.008721462,-0.01040328
-0.002650437,0.8342633,0.5855721,-0.003180383,0.00105075,0.002816407,-0.005832511,-0.0171566,-0.005240307
-0.001003254,0.835568,0.5787426,-0.00153863,0.002363684,-0.004009277,-0.002011914,-0.02016657,0.0002007591
-0.0007979246,0.8342131,0.5806863,-0.001338962,0.00101545,-0.00205964,-0.0003750375,-0.0202471,-0.001785004
-0.001927319,0.8348685,0.5800348,-0.002474124,0.001675811,-0.002703045,-0.003850269,-0.02609593,-0.001866392
0.0009934804,0.8367271,0.5746327,0.0004409082,0.003537872,-0.008095144,-0.005125238,-0.03263112,-0.003275411
0.00151918,0.8394956,0.5710152,0.0009608968,0.006308114,-0.01170043,-0.009390352,-0.02501492,-0.00865294
-0.0005608859,0.8429764,0.572738,-0.001124816,0.009788921,-0.009962878,-0.01599139,-0.01736616,-0.007812888
-0.001813705,0.840605,0.5766522,-0.002383192,0.007415469,-0.006031319,-0.01834511,-0.02381786,-0.004766485
-0.001465144,0.8360621,0.5794804,-0.002040013,0.002868266,-0.003182765,-0.01973819,-0.02660299,0.0008753464
0.001586881,0.8313068,0.5828588,0.001006892,-0.001893658,0.0002187606,-0.01363956,-0.02312794,0.004740364
0.004299368,0.82623,0.5824629,0.003714528,-0.006979349,-0.0001512587,-0.002934048,-0.0229991,-0.006142485
0.005522585,0.8297533,0.5779377,0.004933047,-0.003466672,-0.004648084,0.0009555808,-0.02163721,-0.01609872
0.001295212,0.8343898,0.578661,0.0007009522,0.001157657,-0.003894065,0.0008925809,-0.0234372,-0.01273552
-0.004731409,0.8319872,0.5842364,-0.005330499,-0.001258218,0.001714291,0.00153605,-0.03596822,-0.01115271
-0.004184564,0.8348176,0.5887137,-0.004788483,0.001557744,0.006226532,0.00684116,-0.04959233,-0.01360073
-0.005355659,0.8396608,0.5869187,-0.005964161,0.006385453,0.004468118,0.0107117,-0.04791103,-0.008741927
-0.008325189,0.8372303,0.5823962,-0.008937735,0.003938511,-1.659834e-05,0.00562033,-0.03030546,-0.002525066
-0.005595806,0.8363881,0.585212,-0.006211525,0.003078611,0.002837747,-0.001460264,-0.01806041,0.0009065213
-0.001178893,0.8359855,0.5861364,-0.001796624,0.002657119,0.003801383,-0.004427891,-0.02187091,0.006007682
0.002516916,0.8311098,0.5849846,0.001898452,-0.002238797,0.002689013,-0.00290053,-0.02410763,0.001688516
0.002313765,0.8292934,0.588377,0.001695788,-0.004076385,0.006120929,-0.004449228,-0.01676427,-0.005340797
0.0003074663,0.8298647,0.5839887,-0.0003089537,-0.003527135,0.001771647,-0.01101387,-0.01186975,0.00117912
0.002749646,0.8281265,0.5798162,0.002135721,-0.005287838,-0.00236233,-0.01252188,-0.005928632,0.0076673
0.003461373,0.8271722,0.5830359,0.002850739,-0.006264829,0.000895213,-0.006383043,0.005022346,0.008247118
0.002635847,0.8283374,0.5841891,0.002029128,-0.005122102,0.002085534,0.002821439,0.006630526,0.004749009
0.005853006,0.8297143,0.5867682,0.005250626,-0.003767144,0.004700896,0.006736503,0.002865927,-0.003752154
0.007550938,0.8313846,0.5889967,0.006953075,-0.00211811,0.006964514,0.007551889,0.004094551,-0.005973756
0.006115881,0.833785,0.5898493,0.005522402,0.0002620063,0.007850915,0.01154038,0.00322062,-0.005850699
0.005391192,0.8358419,0.5916963,0.004801658,0.002299557,0.009730058,0.01003025,0.003875273,-0.008976061
0.007230296,0.835896,0.5885315,0.006643997,0.002335139,0.006595107,0.005844751,0.01204425,-0.008238364
0.009338114,0.833808,0.5845817,0.008754072,0.0002295221,0.002672796,0.004038826,0.02060425,-0.007976471
0.006750882,0.8325931,0.5867833,0.006167816,-0.001002359,0.004899286,-0.001229073,0.02377963,-0.007960738
0.000808153,0.8318781,0.588097,0.0002245369,-0.001733698,0.006235021,-0.005892322,0.02472188,-0.004082951
-0.003945411,0.8300578,0.5832973,-0.004531142,-0.003569477,0.00145466,-0.006949725,0.03030261,-0.0005789137
-0.001092927,0.8285384,0.580832,-0.001682161,-0.005103371,-0.0009942295,-0.001554656,0.03210152,0.002793356
0.004847649,0.8254836,0.5830561,0.004253723,-0.008171694,0.001243509,0.006055451,0.02171334,0.005729962
0.002660056,0.8242911,0.5829259,0.002060314,-0.009376176,0.001124419,0.003965452,0.008817521,0.006997377
0.001725273,0.8279407,0.5788522,0.001118572,-0.005736922,-0.002940721,0.001513694,0.004468408,0.009010456
0.004190182,0.8312915,0.5749397,0.003575368,-0.002394402,-0.006846821,0.001137159,0.01389409,0.01254265
0.002945493,0.8344724,0.5774697,0.002321399,0.0007803383,-0.004312292,-0.003359651,0.02589699,0.01274767
0.004442596,0.8355852,0.5825567,0.003808019,0.001888946,0.000777563,-0.001473507,0.02642639,0.005501601
0.004812216,0.833995,0.5858239,0.0041659,0.0002964518,0.004046406,0.002677062,0.01863221,-0.0002804879
0.003246762,0.8339668,0.5897131,0.00258739,0.0002677037,0.007935858,0.001702116,0.01095983,0.002150401
0.004807215,0.8328372,0.5892838,0.004133417,-0.0008610394,0.007505263,0.0026603,0.01061568,0.004238969
0.004033768,0.8311913,0.5870777,0.003344137,-0.002504569,0.00529601,0.004561059,0.009160545,0.0004576618
0.003862624,0.8306443,0.5874665,0.003155716,-0.003047802,0.005679749,0.005757662,0.003446465,-0.001738869
0.004672296,0.8309577,0.5855231,0.003946641,-0.002729242,0.003729108,0.005044576,0.006493196,-0.0009527029
0.003535239,0.832839,0.5837345,0.002789347,-0.0008412151,0.001931104,0.002282925,0.007316986,-0.003505192
0.003504311,0.8328933,0.5837442,0.002736688,-0.0007788334,0.001929233,0.002947023,0.001739948,-0.00451885
0.002539523,0.8330998,0.5839707,0.001748699,-0.0005629765,0.002142129,0.00196008,0.0005302413,-0.003503506
0.00261635,0.8343085,0.5833785,0.00180091,0.0006563879,0.001534306,-0.00273759,-0.001039002,-0.00402008
0.004183614,0.8346657,0.5795481,0.003342205,0.001025462,-0.00231361,-0.005512374,0.002354264,-0.002304663
0.003196792,0.835628,0.5787156,0.002328103,0.002000482,-0.003165188,-0.007683622,0.009838978,-0.002137594
-0.0001246401,0.8312603,0.5814788,-0.001021864,-0.002353625,-0.0004225663,-0.008186188,0.01191012,-0.002231613
-0.00418857,0.8253258,0.5816702,-0.005115428,-0.008273686,-0.0002527918,-0.007235703,0.01158973,0.001966102
-0.003290536,0.8281603,0.5823356,-0.004247837,-0.005423876,0.0003899409,-0.004910926,0.005771726,0.003961017
-3.941378e-05,0.8320847,0.5816349,-0.001027627,-0.00148315,-0.0003342436,-0.0005356747,-0.002825391,0.0008440991
0.0009958214,0.8335602,0.5785371,-2.352161e-05,9.836932e-06,-0.003456253,0.0008561709,-0.006501751,-0.00236472
0.004660871,0.8359646,0.5776411,0.003610307,0.002432888,-0.00437694,0.003923996,-0.006016977,-0.001491164
0.006095772,0.8356155,0.5770758,0.005013892,0.002103275,-0.004967062,0.008813313,-0.007383976,-0.001355454
0.004727429,0.8362334,0.5780579,0.003614042,0.002741308,-0.004009693,0.00629051,-0.01351335,-0.00403651
0.005096693,0.8396083,0.5814519,0.003951491,0.006136807,-0.0006400347,0.0004527985,-0.01392889,-0.005158244
0.0001512861,0.8389705,0.5865642,-0.001026101,0.005519678,0.004448515,-0.002939649,-0.01165184,-0.006458766
-0.004864376,0.8323321,0.5887742,-0.006074244,-0.001098334,0.006635147,-0.002662447,-0.01078966,-0.007042228
-0.002804989,0.8242703,0.5820442,-0.004047387,-0.009139875,-0.0001180223,-0.0008631717,-0.004399643,-0.008460218
-0.001971469,0.8256278,0.5796149,-0.003246127,-0.007762397,-0.002570188,-0.002969773,-0.0020177,-0.01116878
-0.003298105,0.8332634,0.5857097,-0.004604476,-0.0001065834,0.003501974,-0.007121951,-0.003737834,-0.005154916
-0.002795535,0.8373183,0.5886034,-0.004132819,0.003968854,0.006373197,-0.010378,-0.002109943,0.003969532
-0.002295585,0.8419168,0.5860458,-0.003662744,0.008587953,0.003793147,-0.01037098,0.007836771,0.007624169
-0.00213625,0.8402869,0.5794686,-0.003532033,0.006978463,-0.002806587,-0.007224208,0.03009585,0.01172928
-0.001094883,0.8323256,0.5774907,-0.002517873,-0.0009630237,-0.004807086,-0.004805725,0.03914556,0.01293422
-0.001096519,0.8286132,0.5833631,-0.002545167,-0.004656354,0.001042943,0.002194633,0.01768924,0.01046477
-0.001488543,0.8245345,0.5892114,-0.002961204,-0.008716602,0.006869011,0.01465341,-0.01870361,0.009322474
0.001018003,0.8254236,0.5903393,-0.0004769539,-0.007809347,0.007974795,0.0229166,-0.04995257,0.002082168
0.004835566,0.8328886,0.5885735,0.003320029,-0.0003261501,0.006186699,0.02113849,-0.05608043,-0.006977525
0.01002213,0.8410754,0.5856374,0.008487571,0.00787892,0.003227928,0.006261463,-0.03185987,-0.007919088
0.01317361,0.8462037,0.573835,0.01162122,0.0130254,-0.008597747,-0.01845593,0.001951703,-0.009868605
0.00665406,0.8357961,0.5667296,0.005084556,0.002635377,-0.01572667,-0.03718382,0.01774899,-0.01365466
-0.001979936,0.8257905,0.5788052,-0.003566201,-0.007353448,-0.003674291,-0.03040452,0.01367806,-0.01435278
-0.003592756,0.8286999,0.5893086,-0.005195479,-0.004428177,0.006806619,-0.01219386,0.008574246,-0.016771
-0.005920028,0.8283142,0.5919605,-0.007538698,-0.00479852,0.009436735,-0.006724995,0.0001812037,-0.0147779
-0.01150969,0.8279518,0.5949793,-0.01314343,-0.005146,0.01243407,0.003970386,-0.02324954,-0.006742538
-0.009052429,0.8302995,0.5937777,-0.01069989,-0.002783302,0.01121088,0.02139363,-0.03678176,0.0008077788
-3.222884e-05,0.8308641,0.5883626,-0.001691603,-0.00220379,0.005773532,0.026315,-0.02096677,0.007795356
0.00363435,0.8330257,0.5849964,0.001965094,-2.698118e-05,0.002384172,0.02094015,-0.009877085,0.005732949
-3.16167e-05,0.8358304,0.5810267,-0.001708773,0.002792992,-0.001609768,0.01150372,-0.01201559,0.001117882
-0.004908225,0.8382373,0.572317,-0.006591375,0.005215204,-0.01034464,0.006004058,-0.004806899,0.005268749
-0.003116848,0.8374758,0.5706749,-0.004804028,0.004468765,-0.01201236,-0.005377196,0.0004790406,0.00457948
-0.00116841,0.8337585,0.5762588,-0.002857536,0.0007661275,-0.006453902,-0.01436312,0.003180145,0.003350563
-0.003047806,0.8310016,0.5768072,-0.004736721,-0.001976625,-0.005930252,-0.004998234,0.01026151,0.00798108
0.00287357,0.8302128,0.5753783,0.001187038,-0.002751927,-0.007382942,-0.004588269,0.009233458,0.007123328
0.007872599,0.8324325,0.5760764,0.006190503,-0.0005191641,-0.006707304,-0.01015659,0.00600295,0.003898267
0.005114244,0.8340182,0.5821829,0.003438343,0.001079147,-0.0006214959,-0.008611072,0.009321752,0.0007063848
0.005172749,0.8323254,0.5896013,0.00350444,-0.0006013908,0.006777792,-0.005067541,0.009278901,0.001573968
0.00553143,0.8317275,0.5879068,0.003871788,-0.001187391,0.005065801,0.00447171,-0.001140178,0.004765858
0.00369541,0.833929,0.5833944,0.002045232,0.001025621,0.000537188,0.007822776,-0.01813189,-0.0005630267
0.002569415,0.8348343,0.5795411,0.0009292682,0.001942047,-0.003331318,0.008405485,-0.02667464,-0.002798354
0.004275366,0.8320638,0.571918,0.002645651,-0.000817799,-0.01096837,0.005809268,-0.008561724,0.0002044078
0.005834541,0.8303503,0.5696049,0.004215491,-0.002521049,-0.01329407,-0.005666032,0.01168342,-0.0002397359
0.0008543489,0.834872,0.5772189,-0.0007539825,0.002010501,-0.00569078,-0.005635521,-0.0002989719,-0.0009060996
-0.003113115,0.8395231,0.5847944,-0.004710762,0.006670957,0.001876321,-0.002644066,-0.01139185,-0.002175226
-0.001081587,0.8372212,0.587557,-0.002668515,0.004377899,0.004632679,-0.005609256,-0.003741599,-0.0006036147
0.001280385,0.8336066,0.5870202,-0.0002956696,0.0007712931,0.004091589,-0.005025423,0.002268865,0.001283478
0.002434804,0.8296524,0.5887269,0.0008698161,-0.003175875,0.005795596,-0.005679399,0.01131448,-0.0005428081
0.003105709,0.8247187,0.5934479,0.001551934,-0.008103245,0.01051506,-0.002576913,0.004026935,0.000109184
0.003275246,0.8277724,0.5920855,0.001732732,-0.005043697,0.009151875,0.004399367,-0.01035274,0.00270038
0.004194626,0.8321724,0.5903128,0.0026633,-0.0006381596,0.007378681,0.005740379,0.005680745,0.006532151
0.006344727,0.8289061,0.5914802,0.004824366,-0.003898857,0.008545273,0.00495802,0.01488535,0.007851994
0.005826452,0.8249421,0.5851512,0.004316635,-0.007857102,0.002214817,0.006852447,0.002272923,0.001259061
0.004479281,0.8225109,0.5796154,0.002979373,-0.01028214,-0.003323141,0.01276645,-0.0122757,-0.009364359
0.004335493,0.8280692,0.5813516,0.00284469,-0.004716907,-0.001589915,0.01656891,-0.02661607,-0.01481074
0.002084131,0.8399104,0.5801588,0.000601517,0.007132287,-0.002786278,0.007292136,-0.008459699,-0.005561552
0.00233467,0.8402581,0.5764585,0.0008592811,0.007488815,-0.00649052,-0.008789213,0.0187455,0.004444564
0.00359948,0.8361378,0.5778376,0.002130344,0.00337783,-0.005115544,-0.01500598,0.00664428,-0.000607167
0.001673294,0.8362247,0.5819101,0.0002094261,0.003474159,-0.001046997,-0.01354789,-0.004661294,-0.005830134
1.896544e-05,0.8343157,0.583532,-0.001440601,0.001574645,0.0005712555,-0.01344146,-0.002445332,-0.004784675
-0.00283513,0.8361896,0.5840436,-0.004291267,0.003457694,0.001079488,-0.01244486,-0.006942419,-0.001310775
-0.00376567,0.8386549,0.583777,-0.005219051,0.00593186,0.0008098563,-0.01286601,9.864244e-05,0.005743521
-0.001948163,0.8359725,0.5860265,-0.003399206,0.003257643,0.003056479,-0.01549269,0.005315259,0.005676133
-0.00299906,0.8348055,0.5893918,-0.004447935,0.002098054,0.006419033,-0.01579395,0.004067131,0.003309305
-0.002535376,0.8344769,0.58689,-0.003982036,0.001775951,0.003914234,-0.01297641,0.01118299,0.006115479
0.0005671121,0.8335068,0.5874061,-0.0008771047,0.0008114363,0.004427127,-0.004520712,0.001312218,0.0008706056
0.002717258,0.8318583,0.5907837,0.001275804,-0.0008324468,0.007800794,0.00433382,-0.01071282,-0.00339743
0.003858435,0.8283517,0.5888828,0.002420036,-0.004335397,0.005895204,0.007314225,-0.002161959,-0.0003876633
0.003803858,0.8253436,0.5866037,0.002368695,-0.007340391,0.003610337,0.007418228,-0.0005172045,-0.002200314
0.004167022,0.8260522,0.5832777,0.002735134,-0.006629228,0.0002773129,0.00489965,-0.003398177,-0.002088166
0.002916426,0.8341139,0.5806053,0.001487718,0.001435014,-0.002403315,-0.001270108,0.001729852,0.003296432
0.001877175,0.8410062,0.5793024,0.0004514484,0.008329908,-0.003715412,-0.00787633,0.008586369,0.006468319
0.004486757,0.8345672,0.5780029,0.003063747,0.00189344,-0.005025063,-0.00710636,0.01201337,-0.001493214
0.004243474,0.8260506,0.5830824,0.002822829,-0.006621034,4.389868e-05,0.001613753,0.004557559,-0.01828515
0.001876672,0.8283476,0.5875479,0.0004579419,-0.004322116,0.004498374,0.008012253,-0.001568209,-0.02370937
-0.001414846,0.8332024,0.583798,-0.002832149,0.0005345254,0.0007371064,0.003912073,0.007739085,-0.01621195
-0.006004654,0.8336479,0.5818415,-0.007420912,0.0009820842,-0.001231181,-0.005661584,0.01837468,-0.003317688
-0.004443836,0.8275702,0.5910273,-0.005859173,-0.00509357,0.007942486,-0.004480941,0.01108385,0.00674417
-0.00297497,0.8208417,0.599202,-0.004389198,-0.01181966,0.01610442,0.007317521,-0.01715188,-0.0005335015
-0.004238697,0.8314934,0.5917284,-0.005651364,-0.001165046,0.008616936,0.01445408,-0.0396572,-0.007940707
0.0005832774,0.8448624,0.5792535,-0.0008271738,0.01220757,-0.003873185,0.00290305,-0.017788,0.004520259
0.004432765,0.8396585,0.5732923,0.003025263,0.00700775,-0.009851098,-0.01813699,0.01224242,0.01615043
0.003146637,0.8346015,0.5774284,0.001742739,0.001954811,-0.005732667,-0.01957528,-0.0006873444,0.01370991
0.003959665,0.8317557,0.5848222,0.002559866,-0.0008870369,0.001642956,-0.01431393,-0.002105542,0.009185978
0.006251163,0.8244966,0.5827238,0.004855775,-0.008142423,-0.0004740512,-0.01567127,0.01446825,0.003821849
0.004834861,0.8248639,0.5828943,0.003443986,-0.007771454,-0.0003224321,-0.009191631,0.002769483,0.0006726605
0.002222072,0.8244693,0.5885839,0.0008356089,-0.008162012,0.005348174,-0.0066965,0.003094845,0.005188304
0.003054712,0.8212829,0.5891387,0.00167243,-0.01134363,0.005883664,-0.006874452,0.01009625,0.007332655
0.004017383,0.8220655,0.5898134,0.002638969,-0.01055515,0.006538544,0.001331451,0.002008012,0.006272244
0.00498814,0.819233,0.5885612,0.003613181,-0.01338007,0.005265878,0.01370888,0.005862403,0.003608269
0.006300822,0.8214343,0.5855909,0.004928762,-0.01116908,0.002274345,0.02289191,0.003121419,-0.004552027
0.005230763,0.8303667,0.586771,0.00386087,-0.002224474,0.003432148,0.01672989,0.001177834,-0.01007849
0.00437791,0.8360571,0.5886442,0.003009289,0.003480742,0.005282133,0.01040782,0.009547123,-0.007104847
0.000537726,0.8422746,0.5904437,-0.0008306189,0.009715373,0.007057303,0.007655189,0.007889763,0.0001981459
-0.004060347,0.8415949,0.5870191,-0.005429371,0.009054618,0.003607117,-0.0008695144,0.005519522,0.003477358
0.0003800241,0.8369901,0.5803026,-0.000990454,0.004469982,-0.003136223,0.0006432317,-0.004767551,-0.001838076
0.005081524,0.8398959,0.5762161,0.003708982,0.00739672,-0.007250726,-9.558744e-05,-0.01174918,-0.006176689
0.002643719,0.838547,0.5708079,0.001268526,0.006068995,-0.01268755,-0.01398913,0.004829104,0.002268303
0.002795875,0.8342605,0.5732993,0.001417398,0.001803513,-0.01022491,-0.02727568,0.0206258,0.01081183
0.004462667,0.82993,0.5844318,0.00308023,-0.002506238,0.0008792249,-0.03086768,0.01914506,0.003585641
-0.0005292244,0.8217848,0.5906415,-0.001916321,-0.01063094,0.007061337,-0.01046245,0.00969502,-0.001447419
-0.004613211,0.8214123,0.5923538,-0.006005594,-0.01098307,0.008746596,0.01279364,0.004179693,0.003064522
-0.002666733,0.8245287,0.5909795,-0.004064811,-0.00784592,0.007345648,0.01099693,-0.002054552,0.00394858
-0.001440515,0.8259664,0.5881746,-0.002844426,-0.006386687,0.004513898,0.00612181,0.002015223,0.005645257
0.0003230342,0.8296041,0.5859477,-0.001086641,-0.00272638,0.002260004,0.008975131,0.01375105,0.006590624
0.003211975,0.8304424,0.584809,0.001796705,-0.001864349,0.001093845,0.007581427,0.005122224,0.002649202
-0.0001645614,0.8321132,0.5863285,-0.001585239,-0.000168751,0.002585519,0.005641327,0.002639618,0.002375656
-0.003838471,0.832949,0.5831009,-0.00526433,0.0006929212,-0.0006702338,0.004101035,0.0111542,0.009929519
0.002800034,0.8310916,0.5802562,0.001369328,-0.001137766,-0.003543444,-0.0002450334,0.005567255,0.01619202
0.00918165,0.8344833,0.5855331,0.007746458,0.002281342,0.001704935,-0.0002200737,-0.006690335,0.004835639
0.006822785,0.8401174,0.5889416,0.005383276,0.007943482,0.005084783,-0.0006174854,-0.01773905,-0.007648529
0.005981698,0.8428863,0.5907778,0.004537747,0.01074054,0.006892276,-0.01050371,0.002494361,9.584074e-05
0.006779681,0.835909,0.5920767,0.005330911,0.003791079,0.008162159,-0.01721507,0.02955589,0.004225396
0.0049823,0.8255941,0.5935613,0.003528123,-0.00649666,0.009617219,-0.0126582,0.01159953,-0.001856443
0.005192291,0.8284632,0.5973638,0.003731953,-0.003601171,0.01338908,-0.005890999,-0.003205147,-0.00126402
0.005115279,0.830466,0.5890793,0.003647899,-0.001572403,0.005072696,-0.002192875,0.002316359,-0.002528125
0.003569019,0.8257769,0.578813,0.00209362,-0.006235957,-0.005227015,0.001577314,-0.001199307,-0.005416658
0.003412681,0.8286285,0.5833642,0.001928231,-0.003359091,-0.0007106507,0.004721243,0.0001522657,-0.002527564
0.0009237211,0.8315082,0.5848447,-0.0005708089,-0.0004541618,0.0007339148,0.005106899,-0.002212354,-0.001601321
-0.002752729,0.832312,0.5825237,-0.004258279,0.0003748758,-0.00162389,0.008239549,-0.009947288,-0.0008374294
-0.001751448,0.8338138,0.5864175,-0.003268756,0.001901727,0.002232267,0.008860275,-0.00526676,0.000290872
-0.0004427731,0.8310151,0.5854651,-0.001972331,-0.0008720261,0.001241673,0.005756234,-0.001911205,-0.0001489459
-0.001619925,0.8310138,0.583073,-0.003162005,-0.0008487241,-0.001189036,0.006284801,0.002110735,0.002567725
0.0003634318,0.8308419,0.5863101,-0.001191262,-0.0009962822,0.002008939,0.002783383,0.00730899,0.003719416
0.002372072,0.828717,0.5874388,0.0008048084,-0.003097003,0.003098336,0.0005750347,-0.00341565,0.00448022
0.001660417,0.8328131,0.5889157,8.068446e-05,0.001022923,0.004535578,0.002587561,-0.01310197,0.006659433
0.003906347,0.8332823,0.5890481,0.002314249,0.001515714,0.00462789,-8.119967e-05,-0.007611337,0.003624398
0.006621244,0.8316997,0.58167,0.005016827,-4.35167e-05,-0.002790519,-0.001408923,0.002122365,0.0007218203
0.005352744,0.8361664,0.5763249,0.003735918,0.004446069,-0.008176285,-0.003229706,0.009391873,8.900517e-05
0.002672582,0.8366932,0.5777915,0.001043106,0.004995108,-0.006750314,-0.004102669,0.007204876,0.0004525329
-0.0001367923,0.8346062,0.5836608,-0.001779221,0.002929617,-0.0009210547,-0.0008631833,-0.00387688,0.003862025
-0.002327498,0.8338923,0.5870623,-0.003983107,0.00223622,0.00244112,0.0008628442,-0.01299326,0.00441528
-0.0007157262,0.8300321,0.585149,-0.002384571,-0.001604619,0.0004894032,0.004784539,-0.01527692,0.003242023
0.003951113,0.8278363,0.5863759,0.002269136,-0.003782097,0.001678688,0.004758382,-0.009395589,0.001322768
0.007344762,0.8335215,0.5856226,0.005649778,0.001920417,0.000888489,0.002026296,-0.003334927,-0.003897435
0.007197697,0.8402468,0.583477,0.005489683,0.008661989,-0.001293131,0.004293515,-0.009096439,-0.006460132
0.003706863,0.8376365,0.5857533,0.001985591,0.006066893,0.00094786,0.001500447,-0.01379393,-0.007014232
0.00200023,0.8338676,0.5855343,0.0002653424,0.002311793,0.00069448,-0.00268501,-0.00767627,-0.007054595
0.003921055,0.8355152,0.5875327,0.002172163,0.003971463,0.002659409,-0.002797584,-0.001727587,-0.0071804
0.004181894,0.8331333,0.5911677,0.002418602,0.001600084,0.006261596,-0.002468768,0.003444453,-0.009650984
0.002337618,0.8280762,0.5917295,0.0005595025,-0.003448327,0.00679127,0.001060226,0.003143824,-0.008947735
0.0007556691,0.8241214,0.5917962,-0.001037686,-0.007395838,0.006826025,0.004112238,-0.001078987,-0.005223918
0.001164683,0.8247121,0.5878627,-0.0006442589,-0.006799145,0.002860708,0.005936293,0.002045265,-0.001688104
0.00160626,0.8307695,0.5843683,-0.0002185163,-0.0007365963,-0.0006655415,0.008806967,0.002261451,-0.00188156
-0.0008105468,0.8321818,0.5839787,-0.002651305,0.0006802564,-0.001087175,0.009437308,0.0009028757,-0.004194614
-0.001356766,0.8350694,0.5823117,-0.003213518,0.003571935,-0.002786026,0.008497775,0.003332335,0.001651634
0.001341428,0.8409125,0.5759305,-0.000531166,0.009418374,-0.009198892,0.004791705,0.003520226,0.01089571
0.003637306,0.8405767,0.5704457,0.001749131,0.009084948,-0.01471466,-0.002080268,0.01058528,0.01485741
0.003186801,0.8371832,0.5801265,0.001283321,0.005692668,-0.005063686,-0.004717978,0.01796442,0.005813851
0.001967525,0.8312933,0.5908378,4.898015e-05,-0.000197699,0.005619517,-0.0009054066,0.01562911,-0.007014649
0.003226869,0.8319208,0.5890992,0.001293478,0.0004278002,0.003854386,0.003007927,0.01822405,0.0004043708
0.002908973,0.8348771,0.5887494,0.0009609402,0.003380653,0.003479573,0.004849671,0.02569024,0.005907993
0.002270071,0.8300167,0.5909874,0.0003075785,-0.0014848,0.005693612,0.004982661,0.02663701,-0.002496726
0.003311902,0.8315844,0.592034,0.001335118,7.649146e-05,0.006717214,0.005161407,0.02663413,-0.001707905
0.001952872,0.8314929,0.5920429,-3.804733e-05,-2.269608e-05,0.006703729,0.009709308,0.03025954,-0.0005023044
5.420058e-05,0.8269962,0.5910754,-0.001950685,-0.004528283,0.005714148,0.01306058,0.02931866,0.001714974
-0.001911609,0.8305742,0.5907601,-0.003930208,-0.0009599985,0.005376693,0.01397854,0.02635451,0.009076073
-0.001550261,0.83224,0.585104,-0.003582168,0.0006953438,-0.0003017078,0.01632802,0.02642923,0.007751476
0.002202561,0.8342745,0.5779267,0.0001579174,0.002718765,-0.0075015,0.01385107,0.02645401,0.008179516
0.00318918,0.8361679,0.5784334,0.001132449,0.004600458,-0.007017209,0.01085666,0.03398324,0.01254479
0.002880761,0.8335817,0.5810414,0.000812571,0.00200179,-0.004431289,0.01278482,0.03935527,0.01339887
0.002540654,0.8352552,0.5805864,0.0004615765,0.003661936,-0.004907616,0.01191961,0.0284243,0.01275901
0.001649807,0.8361248,0.5804681,-0.0004396272,0.004517441,-0.005046296,0.005582121,0.02011583,0.002588093
0.001149475,0.8366197,0.5817577,-0.0009497943,0.004997239,-0.003775791,0.0001462434,0.01549088,-0.00825274
-0.0007862937,0.8385005,0.5818645,-0.002894846,0.006861783,-0.003686667,0.002585785,-0.003129768,-0.005156988
-0.001360916,0.8366877,0.5809365,-0.003478113,0.005031411,-0.004630746,0.002805918,-0.01605485,-0.003386798
0.0003317468,0.8356353,0.5793991,-0.001793338,0.003959995,-0.006182531,-0.01131951,0.003442593,-0.008815313
0.001946974,0.8345449,0.5786237,-0.000185154,0.002849122,-0.006970389,-0.02385619,0.02408078,-0.008028546
0.001809736,0.833388,0.5802036,-0.0003285693,0.001670266,-0.005400825,-0.02051473,0.01286154,-0.008541288
0.0001445581,0.8314886,0.5828873,-0.001999071,-0.0002525757,-0.002725122,-0.01555239,0.002698712,-0.01396225
-0.0009193843,0.8259912,0.586532,-0.003067464,-0.005774746,0.000913885,-0.01357523,-0.0028904,-0.01088352
-0.003441708,0.8259743,0.5868877,-0.00559328,-0.005817484,0.001266152,-0.002037702,-0.02549234,-0.006737758
-0.003601456,0.8315159,0.5840929,-0.005755406,-0.000302232,-0.001529917,0.00463296,-0.03213234,-0.006527132
-0.001087743,0.8353376,0.5838711,-0.003242769,0.003492734,-0.001751134,-0.001435433,-0.02181167,-0.004820778
-0.0005228822,0.8371833,0.5835952,-0.002677547,0.005311365,-0.00202449,-0.0002657005,-0.01837675,-0.003927999
0.002940564,0.8354765,0.5846775,0.0007877387,0.00357705,-0.000937896,0.001947668,-0.01335107,-0.0003688093
0.004197462,0.8323185,0.5870397,0.002047887,0.0003910047,0.001430378,0.000121676,-0.01035879,0.0004138573
0.002453553,0.8290809,0.5851107,0.0003084877,-0.002875121,-0.0004909321,0.003305371,-0.00875875,-0.001946451
0.004240924,0.8267026,0.5839994,0.00210146,-0.0052823,-0.001593148,0.00246244,-0.005078375,0.0005154146
2.519099e-05,0.8299308,0.585111,-0.002107721,-0.00208296,-0.0004710092,-0.0002719047,-0.005572813,3.714247e-05
-0.007777374,0.8326724,0.5850146,-0.009902808,0.0006299348,-0.000555628,-5.973588e-05,-0.004275167,0.002007608
-0.008141049,0.8312696,0.5864224,-0.01025788,-0.0008012647,0.0008651857,0.0006623879,0.003519205,0.01025383
-0.001571657,0.8301048,0.5874363,-0.003678443,-0.001994069,0.001893085,0.0056704,0.01347397,0.01210605
0.006505827,0.8277801,0.5833584,0.004410706,-0.004346145,-0.002169907,0.008869501,0.01483784,0.006662855
0.006807751,0.8270876,0.5774313,0.004725784,-0.005065385,-0.008081286,0.008996598,0.01308893,0.001637585
0.004274085,0.8283559,0.577742,0.002206452,-0.003822825,-0.007753854,0.00976578,0.01579979,0.003505109
0.006273531,0.8277361,0.5825813,0.004221095,-0.004467167,-0.002896535,0.01099014,0.01204134,0.004085172
0.006604227,0.8285814,0.5848171,0.004567565,-0.003645053,-0.0006415119,0.01520799,0.01063468,0.0004580598
0.006730061,0.8302184,0.5869125,0.004709447,-0.002029652,0.001474387,0.01707413,0.01760064,0.002647457
0.006980063,0.832064,0.5873323,0.004975471,-0.0002040881,0.001915914,0.01595342,0.02000268,0.004401877
0.003281261,0.8357058,0.5825101,0.001292395,0.003419425,-0.002883748,0.01290621,0.01434381,0.004875558
-0.0009889554,0.8361542,0.5806017,-0.002962543,0.003850961,-0.004768637,0.005660232,0.006696246,0.00601539
-0.004269152,0.834014,0.581638,-0.006227879,0.001695127,-0.003708012,0.00325797,0.007960222,0.001490843
-0.005643529,0.8345048,0.5801952,-0.007587604,0.002171432,-0.005125512,0.004832249,0.009150433,-0.0004517766
-0.005102241,0.8348953,0.5811884,-0.007031567,0.002548231,-0.004105991,0.003863914,0.0039464,0.004996587
-0.003800087,0.8325991,0.5854509,-0.005714254,0.0002392978,0.0001840476,0.004317412,0.005486322,0.009932836
-0.001198769,0.8313844,0.5885584,-0.003097123,-0.0009875771,0.003320021,0.005599651,0.007113808,0.008945689
-0.0008589798,0.8323427,0.5881339,-0.002740723,-4.07204e-05,0.002924932,0.007036078,0.007556692,0.006561645
-0.002073248,0.8338583,0.5870566,-0.003937511,0.001464103,0.001877444,0.00796045,0.01027643,0.008008681
-0.002052814,0.8350442,0.5905555,-0.003898664,0.002639818,0.005406577,0.004683667,0.006105052,0.007714993
-0.003015739,0.833985,0.5926497,-0.004842162,0.001571004,0.007530878,-0.003198631,0.003763747,0.006540582
-0.003066649,0.8350312,0.5900654,-0.00487253,0.002607956,0.004976381,-0.0202115,0.002061935,0.006710982
-0.002365539,0.8450484,0.5881336,-0.004149661,0.01261606,0.003073605,-0.03368438,-0.007166065,0.00952672
-0.002485928,0.8531768,0.5870081,-0.004246989,0.02073519,0.001976103,-0.0158319,-0.004757495,0.01343209
-9.458779e-05,0.8425598,0.587377,-0.001831237,0.01010805,0.002371786,0.006332122,0.01174373,0.00331623
0.002364022,0.8295853,0.587906,0.0006531101,-0.002878089,0.002926393,-0.004210492,0.01674569,-0.003922217
0.001697769,0.8346659,0.5862641,1.380329e-05,0.002189264,0.001308758,-0.01099708,0.006485653,0.001505342
0.00214104,0.8371572,0.5831605,0.0004850637,0.004665744,-0.001772028,-0.004111017,0.003661266,-0.004843328
0.005119236,0.8314649,0.5796275,0.003492104,-0.001042901,-0.00528357,-0.01080436,0.01446203,-0.001726201
0.005917472,0.8338391,0.5817947,0.004319792,0.001313495,-0.003096047,-0.008376956,0.02201895,0.006694543
0.003519467,0.8341298,0.5861898,0.001951556,0.001585098,0.001318384,-1.584289e-06,0.01884069,-0.003643565
0.002143383,0.8330312,0.5854591,0.0006053061,0.000466194,0.0006061814,-0.001672844,0.01078692,-0.0001387472
0.002211228,0.8360928,0.5850089,0.0007028806,0.003506326,0.0001735506,0.003069615,0.003735642,0.002197665
0.0002003878,0.834489,0.5823822,-0.001278437,0.001879888,-0.002436464,0.004074997,0.000656679,-0.004884264
-0.00325227,0.8350502,0.5773483,-0.004701808,0.002417356,-0.007454475,0.002998345,0.00153752,0.004166707
-0.002732091,0.835902,0.5802437,-0.004152503,0.003244297,-0.004543778,0.005584794,0.0008815831,0.001908387
0.001508789,0.8320322,0.585154,0.000117454,-0.0006513203,0.0003815975,0.002630037,-0.002889095,-0.004935175
0.003605882,0.8315148,0.5868332,0.002243591,-0.001195492,0.002075702,0.002265236,-0.003765455,-0.007144734
0.002302672,0.8320103,0.5901179,0.0009692917,-0.0007276561,0.00537492,-0.0007528384,-0.005224629,-0.01407758
-0.001229831,0.8314676,0.5909446,-0.002534552,-0.001298526,0.006215781,-0.002783612,-0.00714487,-0.00861218
-0.003801656,0.8293519,0.5896403,-0.005077978,-0.003442938,0.004924791,-9.347397e-05,-0.005885893,-0.008210533
-0.003086521,0.8279343,0.5896022,-0.004334597,-0.004889396,0.004898986,-0.003190727,-0.008294225,-0.01006989
-0.003210668,0.8340349,0.5876815,-0.004430488,0.001182424,0.002989281,-0.003483374,-0.01068939,-0.003249585
-0.004491743,0.8394732,0.5842308,-0.005683137,0.00659218,-0.0004517175,-0.004411337,-0.009948218,-0.003790817
-0.003443876,0.836143,0.5809553,-0.004606511,0.003233537,-0.003718798,-0.007298329,-0.007188414,-0.0002086432
-0.002125453,0.8324455,0.5814759,-0.00325885,-0.0004924385,-0.003191063,-0.005839834,-0.003311828,0.001147124
-0.002869072,0.8334919,0.5848753,-0.003972651,0.000525364,0.0002146065,-0.005919817,-0.009883553,-0.005050673
-0.003069822,0.8320551,0.5844602,-0.004142932,-0.0009398739,-0.0001951384,-0.00411614,-0.01671292,-0.007610086
-0.002429219,0.8306917,0.5827949,-0.003471137,-0.002331555,-0.001855858,-0.001058371,-0.01072539,-0.009361528
-0.002245536,0.8330632,0.5817161,-0.003255486,1.180049e-05,-0.002930748,0.000746842,-0.009248556,-0.0002085169
0.0007516748,0.8318497,0.5818597,-0.0002255146,-0.001229359,-0.002783745,0.0002682514,-0.01851012,0.009748402
0.004067494,0.8324729,0.5853241,0.00312378,-0.0006333571,0.0006836292,-0.002840169,-0.02398541,0.002920242
0.002798283,0.8352174,0.5868865,0.001888567,0.002084413,0.002248774,-0.001859793,-0.01810266,-0.002663193
0.001201724,0.8334755,0.5870042,0.0003263016,0.000316376,0.002368861,-0.001567153,-0.01228484,-0.00144925
0.001506997,0.8325058,0.5882699,0.0006659811,-0.0006788353,0.003636539,-0.002427504,-0.01540946,-0.00672786
0.001705715,0.8297851,0.5895611,0.0008990774,-0.003424574,0.004929063,-0.0003663124,-0.01539086,-0.01090713
0.003076055,0.8264996,0.5895446,0.002303629,-0.006734347,0.004913205,-7.387789e-05,-0.01297372,-0.008028194
0.004158977,0.8284457,0.5851371,0.003420427,-0.004811579,0.0005053323,-0.0003317739,-0.01845535,-0.01092963
0.0007079803,0.8324941,0.5833735,2.783469e-06,-0.0007851684,-0.00125957,-0.002343338,-0.0212458,-0.01413497
-0.003098462,0.837806,0.586694,-0.003770937,0.004505948,0.002058727,-0.006886392,-0.01511949,-0.008168291
-0.002384321,0.8397728,0.587966,-0.003024679,0.006453166,0.003327562,-0.009586279,-0.009628186,-0.003346678
-0.002272954,0.835612,0.590988,-0.002881694,0.00227375,0.006345508,-0.009880091,-0.009937378,-0.002429168
-0.002737103,0.831671,0.5943683,-0.003314615,-0.001685125,0.009720578,-0.008097941,-0.01169989,-0.002255779
0.001062477,0.8314901,0.5913213,0.0005158838,-0.001883237,0.006666861,-0.005527735,-0.01061636,-0.002860798
0.004063235,0.8321307,0.5862345,0.003547237,-0.001259078,0.001571751,-0.001223287,-0.01067699,-0.00526804
0.002810114,0.830905,0.5834096,0.002324256,-0.002500333,-0.001263203,0.0020217,-0.0118582,-0.008340262
0.001715317,0.8307992,0.5825456,0.00125897,-0.002620904,-0.002138977,0.0001510204,-0.01213686,-0.006927102
8.631002e-05,0.8332441,0.5815477,-0.0003412818,-0.0001896244,-0.003149981,-0.002379087,-0.01382451,-0.003854317
-0.003984465,0.8352358,0.5788022,-0.004384085,0.001789338,-0.005909691,-0.004178404,-0.01312489,-0.0004055598
-0.005248367,0.8333012,0.5771277,-0.005620697,-0.0001569759,-0.007599159,-0.005286604,-0.01194876,0.002307071
-0.003549721,0.8306375,0.5785783,-0.00389525,-0.002831484,-0.006163845,-0.005278492,-0.01359924,-0.003115363
-0.004127874,0.8321722,0.583028,-0.004446886,-0.001306608,-0.001729371,-0.003774381,-0.01368704,-0.007936848
-0.004567989,0.8324433,0.5890525,-0.004860591,-0.001044447,0.004280135,-0.001596956,-0.01342082,-0.002505727
-0.003759819,0.8311341,0.591934,-0.004025952,-0.002361493,0.007146867,-0.005492595,-0.01084099,0.002297777
-0.004359329,0.831432,0.5910661,-0.004598779,-0.002070385,0.006264256,-0.009940428,-0.001762549,0.002620333
-0.004227592,0.8298957,0.5890737,-0.004440008,-0.003612443,0.004256812,-0.007512523,0.008657548,0.005301637
-0.003943606,0.8280839,0.5866944,-0.004128508,-0.005428702,0.001861938,-0.003030887,0.01223851,0.003957709
-0.00369933,0.8259539,0.587045,-0.003856129,-0.007561919,0.002196504,0.001209009,0.01000144,-0.002051231
-0.0004373502,0.8242644,0.588117,-0.0005653883,-0.009252878,0.003251747,0.004296711,0.009625742,-0.00266234
0.002462403,0.827569,0.5861886,0.002363753,-0.00594799,0.001306066,0.009112278,0.008213308,-0.003840019
0.001715644,0.8313864,0.5857195,0.001646862,-0.002128118,0.0008189251,0.01357012,0.00729943,-0.006846739
0.0007120682,0.8324463,0.5850088,0.0006734409,-0.001063512,8.960042e-05,0.009989917,0.01163637,-0.004092715
0.00130414,0.832185,0.5787496,0.001295781,-0.001318082,-0.006188776,0.004263294,0.01267822,-9.924703e-05
-0.0001634443,0.8314872,0.5741604,-0.0001415598,-0.002007102,-0.01079743,0.00241643,0.01320406,0.003139318
-0.002563092,0.8319722,0.5813229,-0.00251108,-0.001511419,-0.00365412,0.002881749,0.01646976,0.003339587
-0.002167316,0.8311984,0.5919176,-0.002085312,-0.002272688,0.006921909,0.003429234,0.01567331,0.001138849
-0.002845049,0.8299442,0.5895546,-0.002733151,-0.003512503,0.004540591,0.002374033,0.01318524,0.003992804
-0.004218216,0.831642,0.5836332,-0.004076462,-0.001798647,-0.001398657,0.001899983,0.01072898,0.006677461
-0.003970777,0.8351171,0.5863389,-0.003799114,0.001694309,0.001289311,0.002369902,0.009877841,0.006441961
-0.004236627,0.8384866,0.5862633,-0.004034892,0.005083055,0.001196166,0.00212462,0.008270083,0.005407505
-0.003223273,0.8369679,0.5816791,-0.002991199,0.003584803,-0.003405239,0.001643319,0.002847614,0.004705881
-0.002315448,0.8327175,0.5803917,-0.002052698,-0.0006442049,-0.004709541,0.0009685621,0.002653752,0.008101682
-0.002968209,0.8323364,0.5828502,-0.002674413,-0.001003185,-0.002267429,0.0005442481,0.003581386,0.01051421
-0.002749198,0.8319034,0.5857674,-0.00242397,-0.001413623,0.0006339782,0.001573731,-0.002660124,0.01329083
-0.002748869,0.8314961,0.5830925,-0.002391812,-0.001797741,-0.002055908,0.003374333,-0.007654195,0.01356279
-0.0022949,0.8325036,0.5804709,-0.00190561,-0.000766465,-0.004691592,0.004499674,-0.006309266,0.004733466
-2.392338e-05,0.8314547,0.5825269,0.0003979839,-0.001791247,-0.002648841,0.004603869,-0.0006908878,0.001323961
0.002119136,0.8309915,0.5823004,0.002573955,-0.002229789,-0.002887504,0.004414822,0.006187039,0.00287885
0.001789246,0.8307908,0.5827153,0.002277098,-0.002405401,-0.002483676,0.004938866,0.01008006,0.001091484
0.0001854705,0.8309511,0.5865224,0.0007062797,-0.002219531,0.001313692,0.005158243,0.008231859,-0.000758241
-0.0009915616,0.8334013,0.5912181,-0.0004380297,0.0002566649,0.006000786,0.004800458,0.005001458,-0.00189367
-0.003416602,0.8354811,0.5980904,-0.002830655,0.002362944,0.01286544,0.005023603,0.005212531,0.0007508486
-0.003527763,0.8381824,0.6001292,-0.002909699,0.005090948,0.01489694,0.004474554,0.005062734,-0.0002252473
-0.002129517,0.8382283,0.5907602,-0.001479574,0.005163413,0.0055205,0.002309621,0.004648994,-0.001551909
-0.005017189,0.8354736,0.5819222,-0.004335546,0.002435058,-0.003325684,0.0006402072,0.002881582,0.00486926
-0.006336664,0.8361166,0.5855982,-0.005623406,0.00310373,0.0003414207,0.002367283,-0.001947964,0.007700575
-0.004264478,0.8350724,0.5918487,-0.003519545,0.002084482,0.006582399,0.004625609,-0.001978047,0.009268241
-0.001068115,0.8321679,0.5917268,-0.0002913307,-0.0007959798,0.006450215,0.002199031,-0.0001527776,0.01021306
0.003697215,0.8314509,0.5910612,0.004506007,-0.001489882,0.005773446,-0.0007675397,-0.001070445,0.005415042
0.00361877,0.8293285,0.5882561,0.004459539,-0.003590034,0.002955946,-0.001820796,4.787058e-05,-0.001263581
0.001715736,0.8262168,0.5845348,0.002588179,-0.006680237,-0.0007790041,-0.00314714,0.002633568,-0.00927474
0.002386519,0.8250858,0.5860159,0.00329008,-0.007790146,0.0006872889,-0.0018802,0.005281571,-0.0127803
-0.001574682,0.8302903,0.5858254,-0.0006407402,-0.00256478,0.0004809614,-0.0007038113,0.005274923,-0.01149519
-0.005953419,0.8366977,0.583873,-0.0049899,0.003863519,-0.001488339,-0.002882727,0.004245608,-0.008691975
-0.004126157,0.8340975,0.5848848,-0.00313378,0.001284117,-0.0004942138,-0.003243263,0.005119746,-0.002982016
-0.002413412,0.8292123,0.5845767,-0.001392752,-0.003580414,-0.0008207266,-0.0001494627,0.002250979,0.002184781
-0.00306983,0.8272046,0.5826971,-0.002021363,-0.005567532,-0.002719301,0.00252299,-0.001000177,0.002507852
-0.00286724,0.8270239,0.5815085,-0.001791389,-0.005727703,-0.003927193,0.001441016,-0.001581244,-0.0003777098
-0.003495753,0.8296797,0.5819164,-0.002392885,-0.003051052,-0.0035387,0.0003377064,-0.002958562,-0.001395347
-0.004732312,0.8329753,0.5832106,-0.003602724,0.0002656327,-0.002263732,0.003105644,-0.003472565,-0.006914013
-0.00335029,0.8372749,0.5827013,-0.00219419,0.004586723,-0.002791978,0.004017036,-0.005269956,-0.009083624
-0.0003993989,0.8376063,0.5798162,0.0007830714,0.004939731,-0.005695553,0.00127329,-0.004444324,0.001055237
0.002214056,0.8352982,0.5771942,0.003422721,0.002653067,-0.008335274,-0.002027383,0.001201052,0.00322264
0.00200946,0.8379049,0.5803192,0.003243997,0.005280889,-0.005226803,-0.003435296,0.00179365,0.0003126002
0.0006679427,0.8354659,0.5858578,0.001927835,0.002862332,0.0002964401,0.000594543,-0.0009345861,0.0002092872
0.002645676,0.8313608,0.5868716,0.003930227,-0.001223153,0.001296482,0.004851132,-0.002824438,-0.001942895
0.002615389,0.8349641,0.5874903,0.003923726,0.002399009,0.001902604,0.00350115,-0.003310679,4.463295e-05
-0.001278489,0.8349727,0.5877649,5.259507e-05,0.002425365,0.002165945,0.001193447,-0.00104821,0.0003421881
-0.00357726,0.8322932,0.5847739,-0.002224543,-0.0002372414,-0.0008353112,0.0001415893,0.001524032,0.0004248389
-0.003274243,0.8318699,0.5821866,-0.001900955,-0.0006446739,-0.003431807,-0.001932681,0.004634644,0.001673177
-0.002074234,0.8316349,0.5796654,-0.0006813363,-0.0008648535,-0.00596118,-0.002434663,0.001748005,0.0003153453
-0.002941592,0.8335151,0.5792716,-0.001529951,0.001029311,-0.00636187,-0.0008395723,-0.003407924,0.004423337
-0.003195985,0.834207,0.5841635,-0.001766392,0.001734304,-0.001475461,-0.001400003,-0.000280832,0.006679778
-0.001259261,0.8340873,0.5883846,0.0001875691,0.001626642,0.002741623,-0.0007403761,-0.0003461245,0.004974773
0.001260718,0.8338143,0.5877639,0.002724099,0.00136474,0.002118365,0.001570753,-0.00322475,0.003943151
0.004665552,0.8314986,0.5841018,0.006144715,-0.0009408477,-0.00154496,0.0003309044,-0.002214977,0.00200811
0.0005617176,0.8293026,0.579848,0.002055722,-0.003127669,-0.005798919,0.0003702681,-0.002616219,0.003504665
-0.005654607,0.8273939,0.5764186,-0.004146824,-0.005028015,-0.009227149,0.002456813,-0.0007551248,0.005399689
-0.002418376,0.8286751,0.5760426,-0.0008978313,-0.003739048,-0.009600505,0.003373845,0.00121403,0.006882745
-0.001489778,0.8329465,0.5763903,4.26346e-05,0.0005397377,-0.009248168,0.004564514,0.001599465,0.006917668
-0.002749661,0.8373321,0.5754821,-0.001206191,0.004932431,-0.01014963,0.004452169,0.004370784,0.004797304
0.001275596,0.8383153,0.5821356,0.002829352,0.005922236,-0.003486765,0.003489996,0.004455342,0.006189735
0.001589287,0.8329663,0.5898953,0.003152533,0.0005792775,0.004284793,-0.0006372188,0.001526758,0.00511632
-0.001760086,0.8307316,0.5865015,-0.0001882202,-0.001650076,0.0009053838,-0.005096248,-0.002227039,-0.0008839983
-0.00322796,0.8323591,0.582878,-0.001648371,-1.810809e-05,-0.002701642,-0.001414471,-0.005479265,-0.005322846
-0.002249549,0.8320303,0.5834971,-0.00066307,-0.0003429392,-0.002064162,0.001117489,-0.005801981,-0.004510254
-0.0001551553,0.8327671,0.5829999,0.00143746,0.0003970873,-0.002541094,-0.001397188,-0.005423957,-0.002866294
0.0002552986,0.832066,0.5824909,0.001853317,-0.0003012717,-0.003027928,-0.001126697,-0.00349096,-0.006177668
0.001161566,0.8290751,0.5820933,0.002764215,-0.003289944,-0.003401728,-0.0008715088,-0.001623101,-0.009178289
0.0003571291,0.8272219,0.5835161,0.00196357,-0.005141328,-0.001953352,0.0002046318,-0.0070461,-0.01195514
-0.002861881,0.8295688,0.5859134,-0.001252532,-0.002792751,0.0004712176,0.001675045,-0.01330134,-0.01302842
-0.002815609,0.8337597,0.5865916,-0.001204205,0.001399813,0.001178113,-0.00321795,-0.01073263,-0.008401441
-0.004994566,0.8327781,0.5879373,-0.003381845,0.0004199782,0.002553756,-0.007911675,-0.008882295,-0.002045186
-0.007912766,0.8295634,0.5901926,-0.00629928,-0.002792961,0.00484001,-0.005885543,-0.01169004,0.005836317
-0.003119529,0.8273062,0.5918169,-0.001505586,-0.00504832,0.006495943,-0.003736235,-0.01048123,0.004060267
0.001022658,0.829693,0.5916641,0.002636924,-0.002659446,0.006375,-0.003218275,-0.008886942,-0.006785028
0.001901935,0.8367052,0.5875485,0.003516399,0.004355326,0.002291085,-0.0007316609,-0.00714224,-0.008421011
0.004815347,0.8381648,0.5832888,0.006429741,0.005817638,-0.001937386,-0.0004012107,-0.004153316,-0.006372876
0.00500074,0.835595,0.5823008,0.006614561,0.00325071,-0.002894661,-0.001044537,-0.009455827,-0.005772281
0.002902807,0.8340531,0.5816646,0.004515288,0.001711572,-0.003500698,0.001498895,-0.01677348,-0.006982022
0.002613531,0.8343878,0.5827839,0.004223678,0.002048721,-0.002351461,0.0001667604,-0.01710597,-0.01148929
0.001757473,0.8354902,0.5833632,0.00336414,0.003153129,-0.001742635,-0.003274984,-0.01569063,-0.01045908
0.003300193,0.8341982,0.5793483,0.004902116,0.001862619,-0.005728161,-0.005390855,-0.01334345,-0.007662354
0.006056665,0.8336342,0.5770945,0.007652451,0.001299601,-0.007952538,-0.00834901,-0.00876168,-0.005727521
0.0003416584,0.8298214,0.5793369,0.001929753,-0.002512938,-0.005680695,-0.002894052,-0.006697523,-0.004666143
-0.005428687,0.8241613,0.5816231,-0.003849896,-0.008173142,-0.003364502,0.002840699,-0.01176077,-0.007927589
-0.001971542,0.8272353,0.580826,-0.0004035327,-0.005099573,-0.004131128,-0.006015748,-0.01670412,-0.008987457
0.0008306603,0.8329153,0.5810551,0.002386601,0.0005800518,-0.00387089,-0.01275811,-0.01463709,-0.00914848
0.001324918,0.8349742,0.5846839,0.002867596,0.00263879,-0.0002103675,-0.00741084,-0.014974,-0.008243099
0.002384914,0.8326595,0.5851777,0.003913135,0.0003240148,0.0003158928,-0.002830581,-0.0178952,-0.006923254
0.002720556,0.8277356,0.5844318,0.004233078,-0.004599832,-0.0003969781,-0.0006939935,-0.01529757,-0.01050693
0.004671918,0.8278911,0.58495,0.006167416,-0.004444176,0.0001545498,0.002632269,-0.01344325,-0.01184213
0.004764465,0.8284921,0.5844869,0.00624149,-0.003842594,-0.0002748598,0.001856798,-0.01439942,-0.01087106
0.003337726,0.8270739,0.5850811,0.004794687,-0.005259594,0.0003532848,0.0005063289,-0.01295495,-0.009277752
0.004580917,0.8290918,0.5857632,0.0060161,-0.003239846,0.001069316,0.003354338,-0.01161514,-0.007575866
0.003586417,0.8298011,0.5869507,0.004998012,-0.002527826,0.002290647,0.003564332,-0.0125742,-0.009580148
0.0001382711,0.8299826,0.5870727,0.001524409,-0.002342589,0.002446316,0.002738913,-0.01510136,-0.009337359
-0.002027206,0.8332968,0.5831525,-0.0006683494,0.0009763901,-0.001440716,0.003063634,-0.01660221,-0.005519523
-0.002218058,0.8356147,0.5772436,-0.000888143,0.003299952,-0.007316819,0.001086309,-0.01408642,-0.001492273
-0.001511739,0.8364444,0.5722201,-0.0002122041,0.004136129,-0.01230781,-0.00236233,-0.01254132,-0.001106702
-0.00320293,0.8349629,0.5762027,-0.001934989,0.002661514,-0.008292669,-0.009685111,-0.01424934,-0.003156685
-0.003348496,0.8322257,0.5849738,-0.002113124,-6.841746e-05,0.0005114776,-0.01471448,-0.01427041,-0.001745214
-0.001902409,0.8316812,0.5862424,-0.0007003411,-0.0006054118,0.001813655,-0.01144626,-0.01304529,-0.002122737
-0.002791716,0.8318045,0.5852975,-0.001623463,-0.0004744536,0.0009026743,-0.008315275,-0.01205266,-0.003491527
-0.0001138787,0.832132,0.5851002,0.001020231,-0.0001392076,0.0007396211,-0.006633637,-0.01135685,-0.004650122
0.002661135,0.8319663,0.5831654,0.00376088,-0.0002969806,-0.0011609,-0.005199924,-0.01161523,-0.008650534
0.001127218,0.8317158,0.5814082,0.002192393,-0.0005394993,-0.002883825,-0.00616845,-0.01126085,-0.008238334
0.001359053,0.8320458,0.579483,0.002389423,-0.0002013483,-0.004774743,-0.007146625,-0.01008331,-0.007137245
0.002494262,0.8310596,0.5790767,0.003489571,-0.001179316,-0.005146581,-0.006539651,-0.008253804,-0.009647898
0.002965495,0.8313408,0.5798725,0.003925448,-0.0008897441,-0.004316169,-0.002516634,-0.006995599,-0.007806305
0.002374709,0.8331714,0.5819813,0.003298947,0.0009493071,-0.002172345,0.001582818,-0.007499269,-0.002541528
-0.0001644856,0.833695,0.5835263,0.0007236375,0.001481394,-0.0005919916,-0.001354037,-0.006232688,-0.0002213137
-0.002178294,0.8331313,0.5798737,-0.001326654,0.0009262414,-0.004208798,-0.005255266,-0.002713586,-0.002016613
-0.002673048,0.8322261,0.5801057,-0.001858129,2.944974e-05,-0.003940582,-0.00311077,0.0003452878,-0.003251244
-0.00230928,0.8311635,0.5854724,-0.001531136,-0.001024793,0.001462704,-0.0008842797,0.003837443,-0.002177897
-0.002159055,0.8282222,0.5866227,-0.001417552,-0.003957861,0.002649897,0.001847859,0.007186179,0.0006681134
-0.0006498168,0.8253766,0.5861181,5.533836e-05,-0.006795135,0.002182363,0.008179534,0.007787653,0.006896225
0.001757675,0.8255321,0.5841438,0.002426874,-0.006631077,0.0002450563,0.01015296,0.01001136,0.009414853
0.002995438,0.8243274,0.5797943,0.003629082,-0.007826728,-0.004067624,0.008933713,0.01467045,0.007306772
0.003395337,0.8215278,0.5774641,0.00399375,-0.01061629,-0.00636117,0.01054786,0.01104909,0.007315284
0.002276919,0.8243745,0.5806323,0.002840318,-0.007758381,-0.003156445,0.01011229,0.005830782,0.005092584
0.002687077,0.8311753,0.5853022,0.003215581,-0.0009448024,0.001550067,0.006133114,0.01116683,0.002682311
0.003327677,0.8338834,0.5824999,0.003821324,0.001777726,-0.001215552,0.001161411,0.01426775,0.004466376
0.002177248,0.83232,0.5809245,0.002636,0.0002301774,-0.002754425,-0.003655367,0.01150704,0.004280519
0.003260236,0.826928,0.5864643,0.003683982,-0.005144618,0.002821924,-0.004045969,0.007052728,0.001726398
0.003778521,0.8227619,0.5902201,0.00416708,-0.00929214,0.006613937,0.001347045,-0.004979169,-0.004180417
0.004033472,0.8296397,0.5909011,0.004386574,-0.002394342,0.007330714,0.006399248,-0.01080611,-0.01154836
0.00474693,0.8375505,0.5832108,0.005064202,0.005538099,-0.0003246999,0.005593528,-0.0002199346,-0.009298924
0.002387785,0.8358691,0.5753712,0.002668751,0.003879559,-0.008130452,-4.678653e-05,0.006640387,-0.004808467
-0.001928179,0.8350223,0.5846587,-0.001684029,0.003056693,0.00119003,-0.006843156,-0.001173774,-0.007370442
-0.007051203,0.8372006,0.5930438,-0.006844246,0.005259571,0.009607202,-0.01230958,-0.007058043,-0.007212425
-0.005856586,0.8352773,0.5877159,-0.005686889,0.003361213,0.004310209,-0.01518331,-0.003204668,-0.005392269
-0.002018498,0.8329715,0.584805,-0.001885752,0.001080338,0.001428935,-0.01288285,-0.003188435,-0.002876935
-0.004995185,0.8322181,0.5853684,-0.004898782,0.0003518376,0.002020302,-0.007145885,-0.005734933,0.005215163
-0.003808449,0.8328912,0.5847694,-0.003747533,0.00104953,0.001447802,-0.005009183,-0.004204883,0.007863792
0.001448506,0.8359555,0.5894084,0.001474996,0.004137942,0.006111488,-0.003160869,-0.004786212,0.006592527
0.003164371,0.8349691,0.5933446,0.003157569,0.003175236,0.01007056,0.0008667153,-0.003939944,0.008811497
0.003684239,0.833139,0.5905498,0.003645197,0.001368148,0.007296509,0.0013806,0.0001440458,0.007906768
0.001987293,0.8326501,0.589481,0.001916924,0.0009013298,0.006245953,0.004241763,0.003492992,0.006040009
0.002683983,0.8272255,0.5901264,0.002583073,-0.004502064,0.006906917,0.01168712,0.005430241,0.001731633
0.003777759,0.8248513,0.5874263,0.003646987,-0.006855792,0.004219507,0.01530437,0.004571815,-0.005822371
0.002728679,0.8258656,0.5842852,0.002568606,-0.005821524,0.001088084,0.01498779,0.005312895,-0.008257628
0.004069681,0.8265694,0.5841591,0.003880747,-0.005098005,0.0009686787,0.01177328,0.004092274,-0.009572328
-9.409166e-05,0.8314622,0.5854924,-0.0003115477,-0.0001855738,0.002305904,0.00637606,-0.0004755925,-0.007016659
-0.005100426,0.8330436,0.5854211,-0.005346061,0.001415687,0.002235778,0.003953722,0.0009028937,0.0009998358
-0.003218982,0.8313825,0.5860049,-0.003492295,-0.0002256216,0.002818208,0.004131396,0.003622584,0.0009551795
-0.003148079,0.8320925,0.5848172,-0.003448334,0.0005040388,0.001626491,0.002159878,0.005114666,-2.388944e-05
-0.00436993,0.8319394,0.5794383,-0.004696171,0.0003705739,-0.003758804,-0.001941482,0.004010275,0.003465562
-0.005762927,0.8315699,0.5770901,-0.006113977,2.053236e-05,-0.006115604,-0.005908497,-0.0005642309,0.002081428
-0.007289749,0.8302008,0.5805976,-0.007664168,-0.001329354,-0.002618545,-0.008542334,0.002213919,0.003418756
-0.004118942,0.8283469,0.5853394,-0.004515004,-0.003164334,0.002111304,-0.008121229,0.003511741,0.00482466
-0.0006239079,0.8282017,0.5866274,-0.001039671,-0.003290658,0.003386114,-0.007118737,-0.001874557,0.0009130823
-0.001130333,0.8277783,0.5874642,-0.001563775,-0.003695257,0.00420847,-0.005668324,-0.003071298,0.0009995166
-0.0013352,0.8280886,0.5899247,-0.001784308,-0.003366119,0.006653164,-0.001689348,-0.004079269,0.0001439191
0.001748013,0.8305855,0.5883566,0.001285215,-0.0008501024,0.005067784,-0.002065883,-0.003279906,0.0006247159
0.00450902,0.832449,0.5852676,0.004034392,0.001032697,0.001959825,-0.004351764,0.0005981633,0.004108576
0.004364387,0.8301874,0.5830884,0.003879573,-0.00120935,-0.0002398025,-0.001533092,0.001766128,0.001682211
0.002296707,0.8271637,0.5821775,0.001803085,-0.004213386,-0.00117272,0.001789864,0.001316368,0.001114359
-0.001132511,0.8276414,0.5844176,-0.001633764,-0.003715849,0.001044062,0.005063715,0.0002799352,0.0003452126
-0.00372947,0.828632,0.5857132,-0.004237244,-0.002704979,0.002315193,0.00502258,0.003525039,-0.00522753
-0.003201584,0.8302256,0.5910205,-0.003714704,-0.001090785,0.007596913,0.001951545,0.007894168,-0.007637022
-0.002018567,0.8328336,0.5971724,-0.002535748,0.001538234,0.01372207,0.003575748,0.008121031,-0.00403293
-0.00308545,0.8323191,0.5923822,-0.003605318,0.001045075,0.008903398,0.00389558,0.009209981,0.003736203
-0.003047387,0.8312185,0.5891796,-0.003568495,-3.403553e-05,0.005670527,0.003970754,0.009109914,0.003692248
-0.002234305,0.8321553,0.5902703,-0.002755134,0.000924357,0.006728808,0.006375373,0.003681263,0.0001966025
-0.003035624,0.831682,0.5858738,-0.003554599,0.0004726536,0.002297771,0.003935003,-0.002670225,0.005405243
-0.001778676,0.8325915,0.5842556,-0.002294179,0.001403678,0.0006428128,0.003338674,-0.00247806,0.007424687
-0.000891663,0.8357877,0.5846838,-0.001402065,0.004621182,0.001032306,0.004224381,0.0007634249,0.006487298
-0.002210057,0.8347491,0.5840277,-0.002713748,0.003603502,0.0003357315,0.00054873,0.003614643,0.007451548
-0.003923276,0.8319361,0.5864354,-0.00441866,0.0008107357,0.00270135,-0.002717862,0.01009929,0.005850918
-0.006435501,0.8310114,0.5863043,-0.006920927,-9.439458e-05,0.002526759,-0.004066282,0.0122255,0.009176292
