accx,accy,accz,body_accx,body_accy,body_accz,body_gyrox,body_gyroy,body_gyroz
0.3020555,0.6726735,0.6694937,0.01979282,0.02894636,-0.06016925,-0.01961901,-0.2391879,0.1621208
0.3044005,0.6586718,0.6813712,0.02352904,0.01531065,-0.05058178,-0.01837017,-0.1824494,0.1488203
0.3048749,0.6672073,0.7012089,0.02532362,0.02417405,-0.03289248,-0.02793349,-0.1245992,0.1281209
0.3026941,0.6663667,0.7026765,0.02439226,0.0236239,-0.03343401,-0.03255657,-0.1243963,0.1197889
0.2985381,0.6617069,0.695367,0.02141549,0.01921796,-0.04261596,-0.03274697,-0.1447784,0.1220472
0.2987575,0.6623013,0.696375,0.0227446,0.02003043,-0.04334669,-0.03159366,-0.1329568,0.1180721
0.2987473,0.6573815,0.691438,0.02377545,0.01529389,-0.04989128,-0.02761023,-0.1534279,0.1122924
0.2945262,0.6584094,0.6873554,0.02052766,0.01647146,-0.05545319,-0.02283412,-0.1845005,0.1131924
0.2971517,0.6637771,0.6845436,0.02405979,0.02195626,-0.05961843,-0.03590049,-0.169821,0.1162803
0.3006027,0.6688063,0.6775259,0.02835185,0.02707095,-0.06786629,-0.0639711,-0.1503821,0.1095622
0.2977965,0.6725991,0.6769172,0.02632245,0.03091864,-0.06958407,-0.07912563,-0.1342422,0.1007445
0.2994622,0.6694596,0.685966,0.02870172,0.02780395,-0.0615257,-0.07863987,-0.1253628,0.09076759
0.2994721,0.6657844,0.698865,0.02936322,0.02412414,-0.04950099,-0.07891718,-0.1247861,0.08580173
0.290978,0.6627443,0.7038462,0.02146002,0.02105079,-0.04528107,-0.0828635,-0.1093636,0.09211858
0.2807623,0.657068,0.7101794,0.01177596,0.01531374,-0.03959988,-0.07882669,-0.1084593,0.08937448
0.2765132,0.6539537,0.7207844,0.008001374,0.01211222,-0.02954152,-0.0661433,-0.1286202,0.08630018
0.280871,0.648415,0.7169759,0.01277867,0.006461378,-0.0337956,-0.0542541,-0.139044,0.08768821
0.2816826,0.6384061,0.7123407,0.01395712,-0.00368278,-0.03877983,-0.03492888,-0.1376332,0.0845779
0.2791776,0.6387688,0.7150071,0.0117684,-0.003476746,-0.03636997,-0.00958701,-0.1357895,0.08771787
0.2801378,0.6453649,0.7124927,0.01299658,0.002943543,-0.03905261,0.00393104,-0.151027,0.08878238
0.2781602,0.6482436,0.7110968,0.01124063,0.005629002,-0.04053242,0.008352069,-0.1667449,0.08843094
0.2780591,0.6538204,0.7097,0.01131714,0.01099679,-0.04193264,0.01367972,-0.1598887,0.09417817
0.2809751,0.6552832,0.7054944,0.01436882,0.01223609,-0.04606486,0.01623559,-0.1560872,0.09664076
0.2807988,0.6525707,0.7093375,0.01428806,0.009286788,-0.04207507,0.01517079,-0.1574682,0.09546439
0.2813731,0.655081,0.7185984,0.01491997,0.01154788,-0.03259784,0.02104275,-0.145775,0.09165887
0.2826267,0.654367,0.7242232,0.01619484,0.01057346,-0.0266906,0.02624526,-0.1379677,0.08998477
0.283752,0.6528507,0.7226021,0.01730704,0.008786405,-0.02796735,0.0232551,-0.148703,0.09016317
0.2844807,0.6528868,0.7169329,0.01798985,0.008542441,-0.03323413,0.02681318,-0.1616694,0.08771096
0.2813206,0.6475821,0.7161864,0.01475269,0.002949443,-0.03352388,0.0314118,-0.1623248,0.08517236
0.277977,0.6461238,0.7149486,0.01130257,0.001195545,-0.03425415,0.03315106,-0.1634323,0.08006364
0.2797067,0.648767,0.7064566,0.01289791,0.00353728,-0.04219101,0.03521932,-0.1598782,0.07655783
0.2815994,0.6517579,0.7005057,0.01463021,0.006221649,-0.04754226,0.0252346,-0.1318327,0.07347462
0.2786726,0.6576287,0.7082606,0.01151864,0.01178203,-0.03914584,0.008913463,-0.09827411,0.06736695
0.2755367,0.6588761,0.721271,0.008175268,0.01271577,-0.02545461,-0.006472118,-0.09006118,0.06334319
0.2729341,0.6577028,0.7219312,0.005344077,0.01122596,-0.02407746,-0.01122469,-0.1141121,0.05660465
0.2712221,0.6585624,0.7213943,0.003384218,0.01176671,-0.02386441,0.004291693,-0.1379114,0.05550939
0.2735821,0.6570111,0.7210265,0.005479031,0.009894708,-0.02345246,0.01496604,-0.135299,0.06556805
0.274148,0.6547335,0.709107,0.005763942,0.007294926,-0.0345655,0.01061509,-0.1330325,0.06790014
0.2725851,0.6537135,0.7080868,0.003906083,0.005951988,-0.034755,0.004151542,-0.1339531,0.06372625
0.2712523,0.6534978,0.7149797,0.002265867,0.005412998,-0.02700973,-0.0003061633,-0.1224606,0.06418536
0.2684964,0.6514725,0.7150688,-0.000808354,0.003064831,-0.02604886,0.004855668,-0.1138275,0.06307557
0.2685377,0.6471831,0.7192346,-0.001094581,-0.001546447,-0.02099417,0.01355001,-0.1113537,0.05964364
0.2675737,0.6465234,0.7228976,-0.002393741,-0.002526312,-0.01642775,0.01507341,-0.1225161,0.0576642
0.2639139,0.6486761,0.7272866,-0.00639466,-0.0006911382,-0.01112334,0.0194576,-0.146983,0.05328981
0.2657467,0.6486562,0.7282898,-0.004907588,-0.00102528,-0.009195442,0.02821737,-0.1505094,0.0502207
0.2697308,0.6475737,0.7230447,-0.001272156,-0.002417907,-0.01350913,0.0332844,-0.1319667,0.05396567
0.2712764,0.647205,0.7257563,-7.677667e-05,-0.00309217,-0.009861798,0.03738222,-0.1190602,0.05550909
0.2711949,0.647959,0.7255429,-0.0005089909,-0.002638383,-0.009137622,0.03842322,-0.1177446,0.05192177
0.2690392,0.6485794,0.7238094,-0.003014891,-0.002312258,-0.009933778,0.03373151,-0.1122638,0.05049294
0.2672256,0.6459536,0.7273042,-0.005177075,-0.005226032,-0.005503857,0.0300338,-0.1036223,0.04627591
0.2655368,0.6438551,0.7258533,-0.007211928,-0.007605459,-0.006024021,0.03231238,-0.1213793,0.03952101
0.2643371,0.6472732,0.7264623,-0.008753914,-0.004460857,-0.004490506,0.04138617,-0.145893,0.04037081
0.2643004,0.650831,0.7267042,-0.009128185,-0.001168551,-0.003332194,0.04873769,-0.1439051,0.04310153
0.2609855,0.650754,0.7246433,-0.01277479,-0.001502723,-0.004486397,0.05007243,-0.1507852,0.04578444
0.2587711,0.6522074,0.725009,-0.01531412,-0.0002981013,-0.003225315,0.05039357,-0.1698489,0.05114235
0.2628999,0.6550862,0.7215952,-0.01150213,0.002340627,-0.005756534,0.04599775,-0.1648919,0.05023404
0.2686695,0.6532542,0.7192599,-0.006040579,0.0002770095,-0.007223199,0.03885928,-0.1484272,0.04529409
0.2723301,0.6495303,0.7188692,-0.002678517,-0.00366992,-0.006760331,0.03544681,-0.1366793,0.03986343
0.2709124,0.6472055,0.7180348,-0.004384817,-0.006209083,-0.006757176,0.0341947,-0.1347872,0.0352292
0.2675918,0.6422024,0.7196952,-0.007983685,-0.01141773,-0.004275872,0.03664109,-0.1406159,0.03831292
0.2663938,0.638648,0.723027,-0.009449465,-0.01516835,-0.0001406518,0.04483678,-0.1410663,0.04160979
0.2645752,0.6403423,0.7269164,-0.01152491,-0.01366059,0.004533824,0.05353529,-0.1486781,0.04171815
0.2651358,0.6414263,0.7270439,-0.01120968,-0.01275279,0.005427122,0.05547713,-0.1560952,0.04338918
0.2669482,0.6424942,0.7280682,-0.009630898,-0.01185046,0.007197118,0.05605666,-0.1477297,0.04272059
0.2656321,0.6454917,0.7293737,-0.01116844,-0.009007514,0.009227096,0.06027944,-0.1425393,0.04008938
0.2633147,0.6460609,0.7252802,-0.01369489,-0.008581748,0.005836173,0.06070007,-0.1401215,0.03298948
0.2604735,0.6468408,0.7248149,-0.01673233,-0.00793403,0.006050854,0.0580786,-0.1403495,0.02273092
0.2621006,0.651765,0.7230389,-0.01528839,-0.00313088,0.004931623,0.05197486,-0.1456967,0.0224984
0.2656866,0.6548522,0.7173851,-0.01187206,-0.0001537978,-8.897995e-05,0.04325879,-0.1426009,0.02829006
0.2632644,0.6537162,0.7191993,-0.01445029,-0.001389261,0.002334758,0.04292677,-0.1378317,0.02958718
0.262397,0.6513585,0.7219886,-0.01545993,-0.003836304,0.005709746,0.04385898,-0.1305699,0.02830802
0.2631347,0.6487918,0.7220497,-0.01485046,-0.006482623,0.006332736,0.04108457,-0.1223547,0.02602253
0.2626395,0.64763,0.7237471,-0.01545982,-0.007714427,0.008568052,0.04350592,-0.1264271,0.02483796
0.2673332,0.6446108,0.7214448,-0.01086618,-0.01079417,0.0067796,0.04572201,-0.1288534,0.02495429
0.2709631,0.638793,0.7177681,-0.007322349,-0.0166631,0.003592718,0.04756576,-0.1232619,0.02464335
0.2693129,0.6367597,0.7197896,-0.00904491,-0.01873793,0.006080031,0.05391082,-0.1204814,0.02709028
0.2680246,0.6396929,0.7217734,-0.01039207,-0.01583634,0.008505839,0.05887018,-0.1189561,0.02864625
0.2676399,0.6439921,0.7238837,-0.01082259,-0.01155882,0.01103447,0.0640884,-0.1140974,0.02317318
0.2658297,0.6458369,0.7276347,-0.01266577,-0.009725443,0.01518025,0.06793674,-0.1098993,0.01819658
0.2619216,0.6471536,0.7243486,-0.01659432,-0.00841027,0.01226535,0.06435526,-0.109358,0.01983617
0.2605099,0.651183,0.7198297,-0.01801396,-0.00437259,0.008094081,0.0600364,-0.1077781,0.0224414
0.2630529,0.6529255,0.7224983,-0.01546645,-0.002612589,0.01108688,0.05425731,-0.1027497,0.02361906
0.2646715,0.6537175,0.7269671,-0.013831,-0.001794213,0.01585682,0.04187921,-0.09026421,0.0226576
0.2641065,0.657246,0.7285084,-0.01436688,0.001768763,0.01767635,0.03422255,-0.07374265,0.01973794
0.2645116,0.6560176,0.7241885,-0.01392066,0.0005823673,0.01361176,0.03237801,-0.06879928,0.02052437
0.2667966,0.6467332,0.7184304,-0.01158282,-0.008653106,0.008086385,0.02667326,-0.06080114,0.02393538
0.2670209,0.6378173,0.7164803,-0.01129438,-0.01751364,0.00634684,0.02871782,-0.03698734,0.02406681
0.2648855,0.636397,0.7171093,-0.01335461,-0.01887204,0.007164707,0.03955383,-0.03223583,0.01382941
0.2597539,0.6357698,0.7221733,-0.0184003,-0.0194306,0.01239667,0.04403502,-0.04526653,-0.001546404
0.2532807,0.630442,0.7286158,-0.0247772,-0.02468266,0.01898669,0.04904725,-0.04856245,-0.00202832
0.2539475,0.6338912,0.7309732,-0.02400355,-0.02115024,0.02147151,0.055243,-0.06743014,0.003774888
0.2537837,0.6506329,0.7316214,-0.02404975,-0.004317705,0.0222271,0.05511944,-0.1017987,0.004573318
0.2479135,0.6644825,0.7336193,-0.02979139,0.009630348,0.02431246,0.05694346,-0.1136187,0.01503719
0.2493898,0.6637559,0.7335223,-0.02817556,0.009008928,0.02428292,0.05989284,-0.1046377,0.02324037
0.2516927,0.6529272,0.7289411,-0.02572161,-0.001709119,0.01974921,0.0561083,-0.09176515,0.01548892
0.2487492,0.6482872,0.7267621,-0.02850257,-0.006233701,0.01759807,0.04924624,-0.08471698,0.007851071
0.2505626,0.6501442,0.7282723,-0.02651496,-0.004257127,0.01911668,0.04787796,-0.09689736,0.005498466
0.2526008,0.6476916,0.7296687,-0.02429083,-0.006586346,0.02050251,0.05156281,-0.114499,0.006283864
0.2533082,0.6449941,0.7311381,-0.02338572,-0.009156895,0.02194286,0.05700374,-0.1084557,0.009756915
0.2553095,0.6437723,0.7306252,-0.02117521,-0.01024859,0.02138257,0.06506687,-0.106327,0.01035155
0.253887,0.6446213,0.7305601,-0.02237724,-0.009266189,0.0212523,0.06884857,-0.1271548,0.008989436
0.2547409,0.6470096,0.7330282,-0.02129194,-0.006741524,0.02363763,0.06820855,-0.137781,0.008596015
0.256914,0.6468081,0.7354798,-0.01887663,-0.00680372,0.02598931,0.07248762,-0.1451222,0.007551299
0.2567666,0.6466993,0.7369097,-0.01877168,-0.006770554,0.02730226,0.07908159,-0.1434199,0.004124174
0.2588216,0.6444822,0.7359761,-0.01645446,-0.008843251,0.0262351,0.07994277,-0.1299093,-7.425473e-05
0.2578533,0.6440061,0.7357728,-0.01715123,-0.009172645,0.02588156,0.07847303,-0.142258,-0.0008725342
0.2562558,0.6472804,0.7363633,-0.01846836,-0.005749496,0.02630564,0.08098295,-0.1477126,2.79326e-05
0.2591901,0.6480789,0.7347698,-0.01524551,-0.004800194,0.02452968,0.08071627,-0.135079,-0.001091258
0.2595973,0.6497622,0.7335941,-0.01454212,-0.002964532,0.02315587,0.07874014,-0.1347501,-0.001975762
0.2561002,0.6512806,0.73309,-0.01773576,-0.001292314,0.02243848,0.079994,-0.1354489,-0.003470993
0.2536339,0.6530429,0.7328751,-0.01989198,0.0006247093,0.02199567,0.07811077,-0.1513113,-0.005924298
0.2577136,0.6536633,0.7316455,-0.01549599,0.001400261,0.02052399,0.07836352,-0.1696517,-0.004302139
0.2639257,0.6505349,0.7285311,-0.008961716,-0.00157295,0.01715397,0.08269151,-0.1628077,-0.002099065
0.2648132,0.6506676,0.726602,-0.00774696,-0.001285587,0.01495651,0.08526037,-0.1614799,-0.004108121
0.2660875,0.6505441,0.7239219,-0.006141013,-0.001255173,0.01199606,0.08642084,-0.1675449,-0.007234458
0.2674197,0.6519388,0.720006,-0.004473838,0.0002924638,0.007788725,0.0839123,-0.1547558,-0.008810918
0.2649495,0.6558868,0.7196907,-0.006606299,0.004391884,0.007172038,0.08269185,-0.1370713,-0.007711462
0.2631526,0.6539434,0.7239133,-0.008063818,0.002598011,0.01108444,0.07896131,-0.1312625,-0.006837907
0.2621972,0.6538865,0.7279895,-0.008678631,0.002688511,0.0148427,0.05681256,-0.1196067,-0.007396068
0.2626759,0.6576081,0.7262776,-0.007858973,0.006554746,0.01280572,0.0297338,-0.1120068,-0.003325817
0.2658589,0.6614666,0.7218623,-0.004334993,0.01055479,0.008059058,0.0270588,-0.1285236,0.006452516
0.2683242,0.6641766,0.7185277,-0.001529335,0.01340257,0.004387589,0.03961978,-0.1380911,0.01561287
0.269427,0.6543059,0.7153266,-8.769157e-05,0.003665268,0.0008452026,0.04647122,-0.1293673,0.01774643
0.2695117,0.6361228,0.7173621,0.0003337039,-0.01438911,0.002536028,0.06147712,-0.1124417,0.01139867
0.2700668,0.6281838,0.7237009,0.001222462,-0.02220394,0.008527855,0.07523651,-0.09377344,-1.685831e-05
0.2731752,0.6343181,0.7284626,0.004660933,-0.01594913,0.01294103,0.07205001,-0.09360701,-0.01063537
0.2759362,0.6411899,0.730743,0.007747476,-0.008959651,0.01487187,0.07477421,-0.1024628,-0.01285493
0.2751261,0.6428507,0.7283798,0.007257492,-0.007183482,0.01215857,0.0774225,-0.1092682,-0.0104506
0.2724619,0.6480752,0.7257731,0.004907316,-0.001845675,0.009201468,0.08078173,-0.1204286,-0.01136323
0.271914,0.6521122,0.722095,0.004666414,0.002302631,0.00517302,0.09473841,-0.1201381,-0.008596025
0.2721699,0.6507596,0.7148419,0.005221782,0.001059206,-0.002429536,0.09285895,-0.1097111,-0.00400909
0.2711848,0.6536533,0.7128095,0.004528201,0.004059802,-0.004809921,0.08008649,-0.107876,-0.006785212
0.2709232,0.6579696,0.7099838,0.004549457,0.00848034,-0.007981047,0.06785452,-0.1032449,-0.00876066
0.2715131,0.6586675,0.7053836,0.005413398,0.009279517,-0.01292289,0.05688872,-0.08940923,-0.007253934
0.2729958,0.6572203,0.7080764,0.007160808,0.007930026,-0.01056701,0.05067263,-0.06953957,-0.006925227
0.2742315,0.6544865,0.7113813,0.008651562,0.005289991,-0.007592913,0.04134791,-0.0435697,-0.006287124
0.2750322,0.6535799,0.7161505,0.009697208,0.004472981,-0.003147753,0.04420096,-0.04021361,-0.005127023
0.2756146,0.6529614,0.7212213,0.01051416,0.003939489,0.001606636,0.05062926,-0.05208943,-0.00107305
0.2745009,0.6507737,0.7196916,0.009624021,0.001832302,-0.0002314718,0.0477072,-0.04614894,0.001583048
0.2749882,0.6493945,0.7156363,0.01032379,0.000528986,-0.004587082,0.05141821,-0.04411653,-0.001196466
0.2754421,0.6501997,0.7109185,0.01097863,0.001405495,-0.009596453,0.05100277,-0.04518931,-0.001744996
0.2742721,0.65225,0.7114885,0.009997812,0.003522627,-0.009308905,0.05009913,-0.0360891,-0.001528031
0.2744577,0.6530273,0.7144297,0.01036064,0.004362245,-0.006640576,0.04871434,-0.03563295,-0.003999172
0.2733246,0.6525916,0.7124056,0.009392588,0.003984357,-0.008927322,0.0391162,-0.03629521,-0.004893088
0.2732294,0.6506855,0.714172,0.009450285,0.00213151,-0.007413095,0.03994069,-0.03222494,-0.003478651
0.274215,0.6479011,0.7168665,0.01057668,-0.0006040904,-0.004959866,0.03833926,-0.02286605,-0.001741243
0.2728222,0.6457236,0.7197264,0.009312298,-0.00273718,-0.002330313,0.03263665,-0.007285062,-0.002351474
0.2715654,0.6444231,0.7260021,0.008171785,-0.003997258,0.003726169,0.03618691,-0.004304061,-0.002055122
0.2686937,0.6477329,0.7227021,0.00540437,-0.000650847,0.0002177826,0.03425974,-0.002930796,0.001421813
0.2675023,0.6515172,0.7147181,0.004305349,0.003166549,-0.007963965,0.03143795,0.005337073,0.002564564
0.2712387,0.6491569,0.7116983,0.008122709,0.0008359475,-0.01117105,0.03087492,0.007234903,0.001545661
0.2730896,0.6475168,0.7118064,0.0100433,-0.0007776135,-0.01123937,0.0277294,0.01825332,-0.0009518388
0.2711788,0.6493195,0.7163696,0.008191075,0.001048402,-0.00684168,0.02716691,0.04231255,-0.003941063
0.2665219,0.6496128,0.7180123,0.003582014,0.00136216,-0.00535334,0.02532266,0.05653815,-0.002134713
0.2624045,0.6498672,0.7186725,-0.0004980053,0.001634032,-0.00483638,0.01915489,0.04915907,0.0003607017
0.2628549,0.6504565,0.7234657,-2.020065e-05,0.00223804,-0.0001756499,0.004969891,0.03921264,0.0005494135
0.2621767,0.650395,0.7277615,-0.0006803332,0.002188533,0.003998353,-0.005572874,0.05038178,0.002431374
0.2585018,0.6535523,0.7354209,-0.004345646,0.005355127,0.0115459,0.004089617,0.05604221,0.002646005
0.2585893,0.6554983,0.7384384,-0.004256542,0.007307684,0.01446082,0.01642404,0.04284804,0.0007654592
0.2582197,0.648332,0.7330407,-0.004631598,0.0001451731,0.008968695,0.02184251,0.03317672,1.713764e-05
0.2535053,0.6407275,0.7310933,-0.009357819,-0.007458307,0.006934247,0.02922252,0.01661691,-0.003094421
0.2528043,0.6427088,0.7296315,-0.01007612,-0.005478448,0.005391998,0.03179723,0.000875169,-0.00546204
0.2536308,0.6463896,0.7297536,-0.009271375,-0.001801055,0.005439541,0.02806831,0.004391253,-0.0039283
0.2540841,0.6442826,0.7318955,-0.008843667,-0.003913088,0.007512472,0.02546982,0.006095729,-0.003767211
0.2588529,0.6395943,0.7298425,-0.004103195,-0.008607647,0.005395417,0.02474894,-0.0006464454,-0.003615095
0.2603078,0.6351297,0.7301689,-0.002679028,-0.01307944,0.005662151,0.02830751,-0.005793801,-0.002025123
0.2582857,0.6376416,0.730428,-0.004733677,-0.01057488,0.005865513,0.03546267,-0.00490472,-0.00101239
0.256115,0.6436862,0.7279454,-0.006938205,-0.004537279,0.003330873,0.0398711,0.0007067607,-0.0008793295
0.2525479,0.6406085,0.7283731,-0.01054005,-0.007621254,0.003709587,0.04024359,0.003490861,-0.002129777
0.251515,0.6388794,0.7269136,-0.01160807,-0.009355466,0.002204096,0.03922115,-7.0064e-05,-0.003168869
0.250259,0.6415665,0.7260214,-0.01289862,-0.006672151,0.001268617,0.03850781,-0.007883347,-0.006297489
0.2494877,0.6403094,0.7299736,-0.0137035,-0.007931317,0.005179932,0.03670612,-0.008804416,-0.009980194
0.2502678,0.6438345,0.7330535,-0.01295519,-0.004406238,0.008221291,0.03335168,-0.001222434,-0.009254964
0.2487864,0.6472798,0.7340158,-0.01446585,-0.0009587931,0.009146808,0.03158275,0.004322325,-0.008397981
0.2490116,0.6446408,0.7335678,-0.01426696,-0.003593521,0.008663436,0.03056492,0.002334529,-0.008891138
0.2512676,0.6437575,0.7347604,-0.01203365,-0.004470404,0.009821608,0.02820301,-0.005479062,-0.009862475
0.2533525,0.6434172,0.7371241,-0.009967287,-0.004802115,0.01215128,0.02660863,-0.01016343,-0.01220719
0.2524578,0.6421437,0.7362252,-0.01087613,-0.006064874,0.01121832,0.02680214,-0.009714313,-0.01341392
0.2501529,0.6411061,0.736755,-0.0131905,-0.00708938,0.01171348,0.02840829,-0.007256188,-0.01063928
0.2518367,0.641671,0.7389252,-0.01151115,-0.006509009,0.01384809,0.03193753,-0.006671924,-0.007597947
0.2515108,0.6424637,0.738334,-0.01183622,-0.00569827,0.01321982,0.03639086,-0.006231593,-0.01067976
0.2498536,0.6425705,0.7381937,-0.01348714,-0.005570726,0.01304047,0.03709711,-0.003210215,-0.01291849
0.2503075,0.643867,0.7399714,-0.0130212,-0.004250933,0.01477663,0.03207769,-0.007731699,-0.01065081
0.2494301,0.6431556,0.740863,-0.01388056,-0.004936299,0.01562398,0.02895298,-0.01252535,-0.009224181
0.2490873,0.6440486,0.7399182,-0.01419913,-0.004014594,0.01463154,0.03217958,-0.0111933,-0.006905505
0.2476213,0.6455167,0.7391925,-0.0156345,-0.002515132,0.01385456,0.03500503,-0.01332493,-0.007381457
0.2464557,0.6426786,0.7389241,-0.01676284,-0.005319496,0.01353083,0.03364679,-0.01682266,-0.01152001
0.2475277,0.6424475,0.7385761,-0.01564678,-0.005514282,0.01312315,0.03306172,-0.02245624,-0.01385537
0.2462267,0.6417722,0.7391159,-0.01689657,-0.006150924,0.01359883,0.03636915,-0.02546128,-0.01475066
0.2457484,0.6388342,0.7385628,-0.01731641,-0.009047741,0.01297693,0.03988169,-0.02814648,-0.01360574
0.2479721,0.6386548,0.7368722,-0.01502681,-0.009183444,0.01121273,0.04163334,-0.034193,-0.01316029
0.250002,0.6378132,0.7370786,-0.01292343,-0.009978544,0.01134064,0.04213103,-0.02169564,-0.01351751
0.250533,0.6395804,0.7419973,-0.01231148,-0.008162025,0.01617575,0.04071151,-0.008090618,-0.01309974
0.2494531,0.6431505,0.7483225,-0.01330295,-0.004539587,0.02241235,0.03970645,-0.01944549,-0.0175119
0.2491316,0.6415164,0.7475978,-0.01352875,-0.006118381,0.02159353,0.03970823,-0.02889145,-0.02065582
0.2485623,0.6400423,0.746652,-0.01399507,-0.007534369,0.02054771,0.03890325,-0.03012099,-0.01521972
0.2482126,0.6406217,0.749025,-0.01423467,-0.006893871,0.02281441,0.0392879,-0.03754993,-0.01059803
0.2492057,0.6405387,0.7424653,-0.01312454,-0.006912946,0.01614185,0.04325837,-0.03928409,-0.01159092
0.2495254,0.64296,0.7341681,-0.01268089,-0.004424906,0.007724889,0.0460762,-0.0360463,-0.01263788
0.251039,0.6454895,0.7349303,-0.01103661,-0.001825944,0.008360691,0.04196574,-0.03763896,-0.01314183
0.2520461,0.6444934,0.7394179,-0.009892343,-0.002750096,0.01271564,0.03644809,-0.03280128,-0.01503626
0.2510279,0.6439717,0.7433811,-0.01076729,-0.003197594,0.0165402,0.03194195,-0.02516056,-0.01565247
0.2512335,0.6442448,0.7429448,-0.01041249,-0.002848161,0.01595922,0.0295986,-0.02573499,-0.01593507
0.2506684,0.6417283,0.7421864,-0.01082271,-0.005286592,0.01505026,0.0350215,-0.02711271,-0.01652578
0.2495122,0.6393007,0.7439808,-0.01181887,-0.007634309,0.0166882,0.03878139,-0.02768704,-0.01427716
0.2495141,0.6403163,0.7427358,-0.01165177,-0.006537162,0.01528085,0.03881436,-0.02459292,-0.01372602
0.2474694,0.6417076,0.7427304,-0.0135264,-0.005062565,0.01510738,0.04166914,-0.02219336,-0.01550073
0.2450621,0.6414272,0.7436838,-0.01575891,-0.005258125,0.01588691,0.04558568,-0.03448731,-0.015816
0.2466225,0.6408503,0.7419833,-0.01401921,-0.005748493,0.01400693,0.05109463,-0.04835185,-0.01629217
0.2488634,0.6400515,0.7404082,-0.01159438,-0.006459249,0.01224691,0.04893177,-0.04833914,-0.01555027
0.2475714,0.6405477,0.7373128,-0.01269811,-0.005873661,0.008961307,0.04329798,-0.04386269,-0.01447457
0.245844,0.6433269,0.7367401,-0.01423301,-0.003003528,0.008193605,0.04483908,-0.04517504,-0.01415998
0.2462517,0.6452723,0.7392731,-0.0136287,-0.000965932,0.01052703,0.04304542,-0.04649603,-0.0135933
0.2487749,0.6450286,0.7383011,-0.01090506,-0.001116454,0.009351451,0.04290897,-0.0450008,-0.01414803
0.2527629,0.6428686,0.7361147,-0.006712933,-0.003182426,0.006957708,0.04509316,-0.0472283,-0.01461638
0.2537744,0.6401375,0.7343281,-0.005493942,-0.005818896,0.00496045,0.04277562,-0.05121226,-0.0149786
0.253333,0.6398818,0.7351572,-0.00572504,-0.005979349,0.005576125,0.04359867,-0.05523608,-0.01393896
0.2554132,0.6414938,0.7381514,-0.00343217,-0.004271689,0.008354495,0.04267997,-0.05109612,-0.01280029
0.2561018,0.6418536,0.7374888,-0.002529018,-0.00381571,0.007474206,0.04084537,-0.03660625,-0.01650121
0.2552448,0.640608,0.7371791,-0.003170255,-0.004964804,0.006945287,0.04026329,-0.0303858,-0.02018596
0.2555873,0.6401603,0.7375945,-0.002611204,-0.005315516,0.007140266,0.03646187,-0.03277372,-0.01964059
0.25566,0.6411859,0.7353337,-0.002321676,-0.004192779,0.004658089,0.03772586,-0.0360243,-0.01868293
0.2552709,0.6420109,0.733629,-0.002494278,-0.003270317,0.002731492,0.04022955,-0.03731339,-0.01889693
0.2545289,0.6417633,0.7310129,-0.003020321,-0.003420215,-0.0001065223,0.03855316,-0.03324093,-0.01807187
0.2530153,0.641399,0.7282473,-0.004319099,-0.003686898,-0.003093505,0.03765312,-0.03105402,-0.01754774
0.2523571,0.6418323,0.7291707,-0.004763912,-0.003155912,-0.002390363,0.03654014,-0.03237761,-0.01964231
0.2525547,0.6422366,0.7315092,-0.004354493,-0.002654036,-0.0002704024,0.03503483,-0.03631341,-0.02170575
0.2510907,0.6441687,0.7323568,-0.005608633,-0.0006246034,0.0003609654,0.03416648,-0.04323438,-0.02242964
0.2496484,0.6468495,0.7320653,-0.006843058,0.002153033,-0.000144028,0.03817845,-0.0524968,-0.01827414
0.2529257,0.6460418,0.7334902,-0.003360136,0.001441584,0.001070522,0.0452817,-0.05819182,-0.01202774
0.2599858,0.6450156,0.7365144,0.003903266,0.0005106313,0.003887772,0.04668922,-0.04642703,-0.01502625
0.2638177,0.6453645,0.7355795,0.007935786,0.0009535618,0.002749498,0.04297222,-0.03255824,-0.02050858
0.2598007,0.6441426,0.7280658,0.004115977,-0.0001757287,-0.004963654,0.03856338,-0.03438671,-0.02112765
0.2546425,0.6441082,0.7237721,-0.0008489603,-0.000119084,-0.009452736,0.0365146,-0.03599529,-0.02100422
0.2553077,0.6450951,0.7272155,5.266925e-06,0.0009571844,-0.006199974,0.03071518,-0.03213184,-0.01727538
0.2559339,0.6461622,0.72652,0.00081594,0.002111728,-0.007080865,0.02388866,-0.03155111,-0.01417809
0.2541877,0.6514104,0.7226013,-0.0007503814,0.007445321,-0.01117921,0.02973525,-0.03242039,-0.01431474
0.2544669,0.6559663,0.7223369,-0.000296131,0.01208418,-0.01161689,0.03571658,-0.03203482,-0.01041849
0.2562649,0.6524011,0.7226688,0.00167192,0.008599045,-0.01145141,0.03400917,-0.03169045,-0.007762811
0.2592406,0.6461093,0.724318,0.004812619,0.002383835,-0.009961208,0.03265162,-0.03082771,-0.0116167
0.2608384,0.6434017,0.7246743,0.006570036,-0.000250848,-0.00975602,0.02922277,-0.02902784,-0.01507858
0.2601824,0.6438158,0.7237896,0.006068061,0.0002325906,-0.01078355,0.02803443,-0.02543044,-0.01339675
0.2606099,0.6442672,0.7267385,0.006643484,0.0007496463,-0.007968965,0.02830369,-0.02282524,-0.01128212
0.2579378,0.6429553,0.7337372,0.004113012,-0.0005002257,-0.001095896,0.02751514,-0.03101285,-0.01188708
0.2552074,0.6443725,0.7403143,0.001517828,0.0009756327,0.005364295,0.03290497,-0.04275882,-0.01238453
0.2616642,0.6472885,0.7326981,0.008103215,0.003946772,-0.002360493,0.03794075,-0.04132532,-0.01412068
0.2676682,0.6465267,0.7210343,0.01422911,0.003236781,-0.01412486,0.03735092,-0.03207328,-0.01499814
0.2636382,0.6469927,0.7243861,0.01031381,0.003750932,-0.01086546,0.03518832,-0.02517534,-0.01476502
0.2603832,0.6479637,0.7264524,0.007166095,0.004766601,-0.008883327,0.03128912,-0.01893748,-0.01613434
0.262241,0.6466196,0.7260946,0.009123445,0.003463559,-0.009316788,0.02572725,-0.01101535,-0.01398497
0.2602831,0.6471923,0.7304941,0.007257289,0.004073616,-0.004984312,0.02252378,-0.004378856,-0.01351173
0.2592296,0.6469468,0.7247754,0.006287525,0.00386161,-0.01076166,0.02393876,-0.005061737,-0.01538652
0.2642531,0.6465551,0.7176955,0.01138674,0.003499784,-0.01789169,0.02316446,-0.01139079,-0.01160813
0.2671542,0.647983,0.7209844,0.0143555,0.004953723,-0.01464409,0.02001741,-0.01389225,-0.01007678
0.2669908,0.6473517,0.7263947,0.01425141,0.004344696,-0.009266213,0.01959165,-0.007046966,-0.01119778
0.2662959,0.6483353,0.7280403,0.01360723,0.005346795,-0.007644034,0.01809616,0.004564751,-0.009629932
0.2655653,0.6496422,0.7254127,0.01291858,0.006668264,-0.01028608,0.01629515,0.008538352,-0.009695263
0.2652387,0.6479286,0.7246867,0.01262486,0.004965422,-0.01101768,0.01588114,0.006157332,-0.01224378
0.2639704,0.6485746,0.7202653,0.01138037,0.005618187,-0.01543603,0.01607963,0.007326812,-0.01540024
0.2636662,0.6491261,0.7131765,0.0110909,0.006172571,-0.022513,0.01716005,0.007737688,-0.01440489
0.2630374,0.6475199,0.720564,0.01046769,0.004565235,-0.01510458,0.01571544,0.007595234,-0.01098605
0.2620259,0.6462121,0.7289414,0.009452831,0.003252371,-0.006697075,0.01301027,0.01133479,-0.01000152
0.262706,0.643698,0.7260906,0.01012078,0.0007293512,-0.00950864,0.01219648,0.01547397,-0.007152615
0.2624587,0.6438174,0.7257304,0.009852627,0.0008362078,-0.00982085,0.01346746,0.01648551,-0.004587006
0.262085,0.6459464,0.7276214,0.009449562,0.002949239,-0.007873425,0.01559913,0.01012165,-0.00441086
0.2608516,0.6469616,0.7287284,0.008178559,0.003945278,-0.00670176,0.01556196,0.004396084,-0.003280207
0.2589873,0.6511039,0.7318901,0.00626854,0.008065201,-0.003467738,0.01323013,0.008366502,-0.00257655
0.2605821,0.6518696,0.7326847,0.007809982,0.008805449,-0.002593507,0.0107117,0.01268567,-0.003284736
0.2644982,0.6459745,0.7293657,0.01166525,0.002881606,-0.00582612,0.01177869,0.01477577,-0.007044674
0.2672821,0.6430937,0.725459,0.01438117,-3.112359e-05,-0.009640217,0.01367222,0.02436478,-0.009995556
0.2641982,0.6435436,0.7252863,0.01122207,0.0003839369,-0.009714403,0.01011092,0.03857028,-0.006027406
0.258913,0.6443703,0.7274966,0.005854778,0.001173077,-0.00739994,0.005800352,0.04243595,-0.002144859
0.2591475,0.6455776,0.7262933,0.006000337,0.002340356,-0.008493663,0.003120293,0.03853604,-0.004285058
0.2594245,0.6471333,0.7258355,0.006182061,0.003853762,-0.008836668,0.000761329,0.04113253,-0.007292551
0.2576545,0.6488518,0.7281436,0.004310923,0.005527788,-0.006408941,-9.206577e-05,0.04256548,-0.008937533
0.2583471,0.6494627,0.7278112,0.004896825,0.006092089,-0.00661704,-0.0008678667,0.03321357,-0.009359571
0.2582923,0.6503524,0.728588,0.004730267,0.006933177,-0.005711796,0.0008550705,0.0246512,-0.003618432
0.2560538,0.6498171,0.7285762,0.00237543,0.006347105,-0.005591096,0.004148133,0.02423764,0.001372095
0.2542678,0.6473991,0.7224907,0.0004689322,0.003876034,-0.01154057,0.004986884,0.0252411,-0.005079262
0.2540592,0.6451199,0.7189783,0.0001363441,0.001541737,-0.01491344,0.003339292,0.02734768,-0.01053695
0.2564957,0.6426375,0.7251481,0.002445682,-0.0009977948,-0.008600666,0.0009152259,0.03397973,-0.00665643
0.2597736,0.6428588,0.7335708,0.005593999,-0.0008352607,-3.179086e-05,0.0003210865,0.03569822,-0.004210054
0.2616393,0.6434607,0.7326181,0.007327861,-0.0002935519,-0.0008352651,-0.001699512,0.03101644,-0.005118728
0.260548,0.6424805,0.7304853,0.006102684,-0.001334996,-0.002816583,-0.000124222,0.03073231,-0.004803615
0.2555647,0.642589,0.7335344,0.0009836711,-0.001288566,0.0003859627,0.005514959,0.03139463,-0.005005986
0.2529819,0.6424289,0.7329161,-0.00173616,-0.00151122,-7.742834e-05,0.00449332,0.02991484,-0.005404832
0.2561722,0.6441401,0.7327544,0.001315998,0.0001372247,-8.350401e-05,0.00525336,0.02986571,-0.005050349
0.2580223,0.6463591,0.730163,0.003027406,0.002293417,-0.002518795,0.004845497,0.03113073,-0.006632674
0.2564536,0.6465507,0.7245903,0.001319778,0.002422271,-0.007935345,-0.002263713,0.03626324,-0.006669936
0.2557975,0.6472429,0.725661,0.000524849,0.003051951,-0.00670868,-0.004842402,0.04074127,-0.0009187589
0.2556588,0.6452319,0.726267,0.0002476424,0.0009786067,-0.005946867,-0.009470904,0.04140036,0.004158003
0.254704,0.6417157,0.7299884,-0.0008449825,-0.002599771,-0.002070023,-0.01210803,0.0440482,0.001190003
0.2530605,0.6412443,0.7371596,-0.002625171,-0.00313276,0.005256092,-0.008551481,0.04860298,-0.002695662
0.250641,0.6419171,0.7344963,-0.005179866,-0.002520917,0.002746649,-0.009962985,0.05144299,0.0006842704
0.2511901,0.642702,0.7291804,-0.004764149,-0.001796023,-0.002416762,-0.008960365,0.05183271,0.001584729
0.2542102,0.642325,0.7297848,-0.001874977,-0.002231912,-0.001661717,-0.008322479,0.0544065,-0.001196142
0.2551937,0.6386682,0.7361331,-0.001019749,-0.005946172,0.004835176,-0.01249175,0.05705957,-0.0002919498
0.2555082,0.6343182,0.7436621,-0.0008305138,-0.01035193,0.01251028,-0.01220367,0.05351576,-0.0008076654
0.25361,0.6342755,0.7441716,-0.00285085,-0.01044827,0.01316282,-0.01088982,0.04800031,-0.001929449
0.2499625,0.6366382,0.740679,-0.006617127,-0.008136652,0.009809501,-0.008037896,0.0428944,-0.004968777
0.2496392,0.6374811,0.7387565,-0.007055421,-0.007341869,0.008021741,-0.002579458,0.03986497,-0.01037635
0.2501105,0.6391225,0.737105,-0.006695146,-0.005745247,0.006499914,0.000888951,0.03894972,-0.008813121
0.2498185,0.6426865,0.7368303,-0.007093636,-0.002222451,0.006349572,0.002334109,0.03383962,-0.006206713
0.2486485,0.6472372,0.7385999,-0.008365481,0.002290701,0.008237826,0.001310745,0.02633187,-0.005424136
0.2453096,0.6476539,0.7394722,-0.011801,0.002673114,0.009222708,0.0009683807,0.02069949,-0.003292556
0.2427951,0.644034,0.7421911,-0.01440667,-0.0009776788,0.0120479,-0.0008375122,0.01616906,-0.005328722
0.2429607,0.6446035,0.7444624,-0.01432614,-0.0004361657,0.01441875,-0.003662801,0.01431445,-0.006529045
0.2457185,0.6441308,0.74238,-0.01164681,-0.0009339632,0.01242883,-0.002561598,0.01550114,-0.00728145
0.2490927,0.6410596,0.7423884,-0.008344279,-0.004027506,0.01252202,-0.00290098,0.01933729,-0.01048296
0.2507312,0.6402983,0.7409569,-0.006770191,-0.004808252,0.01116747,-0.001203412,0.02951012,-0.007998328
0.2496998,0.6387417,0.7370892,-0.007858811,-0.006381509,0.007368683,0.001654726,0.03760769,-0.008232073
0.2467289,0.6372464,0.737528,-0.0108797,-0.007890379,0.007868124,-0.001030059,0.03503079,-0.0136809
0.2453574,0.6342586,0.7382781,-0.01229382,-0.01088869,0.008670628,-0.002018759,0.03210303,-0.018228
0.2450782,0.6353824,0.7404756,-0.01260808,-0.009771899,0.01091237,-0.004975306,0.02947986,-0.02520223
0.2433811,0.6410486,0.7432551,-0.01433255,-0.004108961,0.01372788,-0.00908748,0.0240932,-0.02004251
0.240959,0.6402804,0.7418141,-0.01677406,-0.004876603,0.0123146,-0.003310915,0.02071899,-0.00962272
0.2408205,0.641404,0.7402351,-0.01692384,-0.0037487,0.01075479,0.003846677,0.01662723,-0.01244747
0.2418811,0.6420803,0.7359958,-0.01586597,-0.003064408,0.006526213,0.004952425,0.0117868,-0.01087671
0.2403514,0.6385996,0.7318655,-0.01738961,-0.006533459,0.002398346,0.004345743,0.006971955,-0.006796034
0.2407893,0.6407015,0.737105,-0.01693677,-0.004416328,0.007632263,0.004705822,0.00273929,-0.008418617
0.241726,0.6397595,0.7425078,-0.01597597,-0.005339488,0.01302166,0.005773126,-0.0002383101,-0.009147561
0.2401986,0.6379344,0.74266,-0.01747005,-0.00714229,0.01315296,0.006583801,-0.002732276,-0.01183338
0.2416853,0.6405178,0.7443191,-0.01594064,-0.004533122,0.01478338,0.008066457,-0.006137645,-0.007983875
0.2431181,0.6397253,0.7426073,-0.01445577,-0.005296401,0.01303522,0.01073815,-0.01362471,-0.001246466
0.2448213,0.6376561,0.7390429,-0.01269113,-0.007332892,0.009426703,0.01374933,-0.01198778,-0.001689112
0.2465861,0.6351672,0.7430134,-0.01085562,-0.00978572,0.01334527,0.01429938,-0.006389289,-0.003460711
0.2436047,0.6346495,0.7455917,-0.01375736,-0.01026387,0.01586411,0.01293693,-0.01398205,-0.006382219
0.2422222,0.6357965,0.7412444,-0.01505144,-0.009073647,0.01144966,0.01214966,-0.01517565,-0.007617521
0.2423372,0.6361261,0.7391743,-0.01483937,-0.008697116,0.009304918,0.009875266,-0.008871561,-0.009630788
0.2413701,0.640066,0.7409671,-0.01570101,-0.004706464,0.01101572,0.008105318,-0.007059306,-0.01369518
0.2418697,0.6413538,0.7439991,-0.01508748,-0.003364218,0.01395851,0.008047684,-0.006207337,-0.01093856
0.2425355,0.6394914,0.7485688,-0.01429951,-0.005168639,0.01843199,0.008775656,-0.01383478,-0.007373095
0.2434088,0.640396,0.7505213,-0.01329598,-0.004202759,0.02028111,0.0143071,-0.02287811,-0.008089034
0.2431169,0.6394571,0.7455261,-0.01344988,-0.005077174,0.01517531,0.01807798,-0.0257353,-0.01051704
0.2431282,0.6381803,0.7409613,-0.01329293,-0.006286441,0.01049249,0.01089972,-0.02651605,-0.01353122
0.2447845,0.6381739,0.7431442,-0.01148372,-0.006222449,0.01255033,0.005183169,-0.02678539,-0.01227398
0.2447559,0.6372257,0.7437939,-0.01135243,-0.007097426,0.01306805,0.01181989,-0.0302281,-0.01020097
0.2447381,0.6373784,0.7409791,-0.0112036,-0.006868745,0.01011459,0.01750284,-0.03012175,-0.01066809
0.2467184,0.6378757,0.7396878,-0.009050379,-0.006292796,0.008678103,0.01535665,-0.02803437,-0.007473103
0.2485355,0.6384757,0.7377658,-0.007054537,-0.005611432,0.006605031,0.01525127,-0.02767575,-0.004318116
0.2483858,0.6405809,0.7376726,-0.007020165,-0.003422504,0.006355056,0.0169539,-0.02651963,-0.006670576
0.2483147,0.6428459,0.7397197,-0.006902254,-0.001071321,0.008240376,0.01679552,-0.02813876,-0.009055588
0.2473879,0.6424637,0.7393771,-0.007635692,-0.001365405,0.007731249,0.01730713,-0.02619749,-0.01044822
0.2452581,0.639652,0.7411835,-0.009568208,-0.004087145,0.009366857,0.01850879,-0.02387694,-0.01125865
0.2461839,0.6395171,0.7442899,-0.008441708,-0.004130707,0.01229849,0.01977251,-0.02502626,-0.01070864
0.2456083,0.6414656,0.7431524,-0.00881337,-0.002089364,0.01098254,0.01808194,-0.0243495,-0.01296245
0.2434507,0.6422152,0.7424278,-0.01076423,-0.001245908,0.01007585,0.01468869,-0.02877158,-0.01387864
0.243217,0.6450226,0.7429797,-0.0107886,0.001656261,0.01044227,0.01682355,-0.03907066,-0.01023932
0.2438407,0.6473036,0.7399552,-0.00995332,0.004032618,0.007229305,0.02277871,-0.04851291,-0.009044443
0.2505817,0.6453019,0.7360695,-0.002998564,0.00212638,0.003152229,0.02629994,-0.04422043,-0.009640504
0.2562135,0.6424435,0.7355094,0.002848704,-0.0006368696,0.002398458,0.02426305,-0.02956287,-0.008754516
0.2525836,0.6378076,0.7370891,-0.0005648518,-0.005178115,0.003782609,0.01955618,-0.0268307,-0.008283887
0.2496741,0.6358802,0.7397738,-0.003257651,-0.007011466,0.006270397,0.01577718,-0.03323059,-0.009291766
0.2507529,0.6400769,0.7425606,-0.001962292,-0.002721344,0.008859298,0.008987884,-0.04003746,-0.01139261
0.2505532,0.6429534,0.7416761,-0.001946112,0.0002480857,0.007776186,0.004991559,-0.03971437,-0.01215434
0.2502685,0.6485183,0.7379899,-0.002016025,0.005905125,0.003890845,0.01217406,-0.0355465,-0.01116918
0.252958,0.6537071,0.7361025,0.0008866887,0.01118507,0.001804063,0.0216873,-0.04153525,-0.00884908
0.2534129,0.6486598,0.7357813,0.001552895,0.006227204,0.001283672,0.02511548,-0.04626018,-0.007118941
0.2525522,0.6442764,0.7355845,0.000901032,0.001931105,0.0008882588,0.0232212,-0.05015814,-0.01021964
0.2559745,0.6435901,0.7326461,0.004529146,0.001329617,-0.00224767,0.0192911,-0.05197821,-0.0135723
0.257653,0.6419447,0.7245777,0.006410131,-0.0002336402,-0.01051201,0.01505161,-0.04459593,-0.01276667
0.2569942,0.6415888,0.7172764,0.00594984,-0.000510017,-0.01800683,0.01350944,-0.04626289,-0.009484299
0.2568021,0.640422,0.717578,0.005951553,-0.001600025,-0.01789529,0.01855867,-0.05094129,-0.005524224
0.2569625,0.6425282,0.727517,0.006300838,0.0005803542,-0.008141967,0.0230431,-0.05306713,-0.005999743
0.2582316,0.6471251,0.7369681,0.007753191,0.005248672,0.001128819,0.02332293,-0.05439839,-0.008827623
0.2582634,0.6469182,0.733049,0.007962311,0.005110342,-0.002964875,0.0249219,-0.04650349,-0.009691698
0.2585053,0.647063,0.7278377,0.00837512,0.005320713,-0.008344884,0.02464642,-0.04215144,-0.01006447
0.2587305,0.6487093,0.7290049,0.008764266,0.007029368,-0.007340198,0.02193769,-0.03972787,-0.007920359
0.2597983,0.6484992,0.7255781,0.009988744,0.006877917,-0.01092293,0.02091791,-0.03726372,-0.004939095
0.2620886,0.6489143,0.7241839,0.01242809,0.007348005,-0.01246612,0.016997,-0.03488878,-0.001935786
0.2610198,0.6495392,0.7261957,0.01150018,0.008023809,-0.0105957,0.01046749,-0.02372691,0.0004670613
0.2609044,0.6500767,0.723189,0.01151728,0.008607895,-0.01373595,0.008174523,-0.02117171,-0.001504319
0.2628037,0.6499814,0.7232748,0.01354016,0.008554705,-0.01377535,0.007421323,-0.02087192,-0.001150977
0.2642657,0.6478696,0.7250443,0.01511661,0.006480347,-0.0121222,0.004993239,-0.01144369,0.001263169
0.2660395,0.6467645,0.7263981,0.01699522,0.005407694,-0.01087571,0.003242603,-0.006143983,0.001113753
0.2649588,0.6471827,0.7305997,0.01600942,0.005853417,-0.006772032,0.0001987499,0.001090309,0.0008932424
0.2630643,0.6473535,0.7286414,0.01419938,0.006046812,-0.008818905,-0.003482507,0.00944288,-0.004534977
0.2623426,0.6472413,0.7263027,0.01355155,0.00595234,-0.01123677,-0.003422978,0.01463524,-0.009194353
0.2619437,0.647076,0.7288422,0.01321585,0.005799649,-0.008767044,-0.003235871,0.0181183,-0.004319313
0.261448,0.6473574,0.72906,0.01277236,0.006088847,-0.008609596,-0.005455821,0.01625689,-0.0009014613
0.2580879,0.6472043,0.731801,0.009453762,0.005938591,-0.005919501,-0.005318281,0.01498333,-0.003687703
0.2563449,0.6471119,0.7334617,0.007741427,0.005844202,-0.004300621,-0.00388448,0.0150528,-0.005927856
0.2599892,0.6466804,0.7268339,0.01140583,0.00540592,-0.0109613,-0.002808287,0.01222621,-0.004299541
0.2631368,0.643507,0.7213535,0.01456318,0.002220951,-0.01646568,-0.000483873,0.007394158,-0.001067538
0.2627811,0.6415154,0.7232127,0.01420698,0.000213313,-0.0146216,-0.001737523,0.006812395,0.0004979582
0.2622629,0.6464771,0.7249632,0.01367803,0.005154778,-0.01287711,-0.005808292,0.009792452,0.000407102
0.2635699,0.6542545,0.7227967,0.01496407,0.01290778,-0.01504051,-0.007130038,0.008689985,0.0007806909
0.2644341,0.6542681,0.7232863,0.01579717,0.01289273,-0.01453857,-0.004620019,0.009310955,0.001470187
0.2646663,0.647046,0.7234688,0.01598821,0.005637777,-0.01433448,0.002159149,0.01349871,-0.0009070048
0.2655321,0.6426968,0.7211828,0.01680271,0.001251151,-0.01658956,0.004956696,0.0219708,-0.003012956
0.2650679,0.6446683,0.7226568,0.01627709,0.003181129,-0.01507541,-0.001922378,0.0316108,-0.003426307
0.2628982,0.6491091,0.723642,0.01403608,0.007576383,-0.01404075,-0.009918882,0.02882283,-0.005341012
0.2604746,0.6506493,0.7241994,0.0115313,0.009067272,-0.01342448,-0.01238305,0.02502613,-0.00493089
0.2596847,0.6500261,0.7258671,0.01065066,0.0083909,-0.01168888,-0.01227731,0.02723613,-0.003537685
0.2604354,0.6499439,0.7248539,0.01130136,0.008251695,-0.01262524,-0.01213558,0.02482128,-0.00159326
0.2589528,0.6494683,0.7255474,0.009709922,0.007715252,-0.01184613,-0.008475811,0.02214579,0.003408781
0.2575983,0.6481094,0.7261689,0.008238169,0.006291749,-0.01113056,-0.007229724,0.01913726,0.004588981
0.2597534,0.6446224,0.7240906,0.01026802,0.002736457,-0.01310662,-0.01059472,0.01706493,0.002511025
0.2609143,0.642621,0.7231226,0.01129606,0.0006632955,-0.01396435,-0.008773763,0.01994848,0.002077838
0.2603506,0.643683,0.7219647,0.01059237,0.001650504,-0.01500417,-0.007934791,0.01924001,-0.001482211
0.2607546,0.645157,0.7219909,0.01084956,0.003046882,-0.01485231,-0.007933842,0.01839733,-0.005140785
0.2619694,0.6491262,0.7242928,0.01191108,0.006935871,-0.01241722,-0.003673133,0.01978838,0.001167934
0.2631056,0.6511677,0.7272848,0.01288773,0.008894897,-0.009284868,-0.004868938,0.01718985,0.007679632
0.2624529,0.6492713,0.7302502,0.01206961,0.006913653,-0.006172105,-0.003840469,0.01491431,0.003450194
0.2621326,0.6480833,0.7297919,0.01157812,0.005638572,-0.006476631,0.002577162,0.01301914,0.00107127
0.2629231,0.6468864,0.7291578,0.01219207,0.00435226,-0.006951144,0.003745181,0.01415718,0.003514028
0.2619292,0.6461974,0.7302514,0.0110164,0.003571838,-0.005692474,0.003340298,0.01889105,0.002603802
0.2606475,0.6440613,0.7254202,0.009548123,0.001342301,-0.01035389,0.0006198433,0.01847002,0.002395455
0.2594333,0.6403909,0.7199047,0.008142682,-0.002423045,-0.01569502,-0.002892628,0.01838058,0.002313956
0.2592182,0.6415364,0.722495,0.007732344,-0.001373665,-0.012926,-0.001616075,0.01762778,0.0005425063
0.260326,0.64445,0.7251106,0.008641031,0.001442913,-0.01012744,-0.001799688,0.01387701,0.001787694
0.2594949,0.6444497,0.724694,0.007607524,0.001345112,-0.01035711,-0.004194598,0.01790507,0.003177311
0.2595162,0.6445272,0.7253759,0.007423476,0.001324915,-0.009484583,-0.005015853,0.02171298,0.003288685
0.2601491,0.6447184,0.725468,0.007848506,0.001418303,-0.009198346,-0.00615645,0.02022878,0.004809799
0.259342,0.6450619,0.7274125,0.006831223,0.001664289,-0.007056519,-0.009798463,0.02342014,0.004611798
0.2598829,0.6461942,0.7303629,0.007160198,0.002699421,-0.003905987,-0.01119569,0.0291897,0.002245138
0.2598094,0.6447856,0.7294164,0.006873165,0.001194064,-0.004650055,-0.007067793,0.0321761,0.0005524795
0.2594749,0.6427521,0.7301614,0.006324013,-0.0009355414,-0.003700724,-0.006862237,0.03000959,2.39521e-05
0.259994,0.6421546,0.7348935,0.006627711,-0.001628291,0.001236963,-0.01016503,0.02635583,0.001209224
0.2595424,0.6416421,0.7362884,0.005960037,-0.002235,0.002838201,-0.007795,0.02836365,0.002900143
0.2595766,0.6434507,0.7311697,0.005778064,-0.0005191424,-0.002074031,-0.005612105,0.03195693,0.003400333
0.2589291,0.6452146,0.7250031,0.004914421,0.001153533,-0.008034629,-0.005768187,0.03136897,0.0035415
0.257712,0.6445895,0.7256999,0.003481559,0.000438905,-0.007132642,-0.007046277,0.02529269,0.004854015
0.2573171,0.6452544,0.7302099,0.002871765,0.001016057,-0.002418335,-0.01421859,0.01877039,0.006862878
0.2558922,0.647349,0.7331734,0.001232981,0.003024738,0.0007481742,-0.01690964,0.02132253,0.007016256
0.2554325,0.6485183,0.7367063,0.0005609866,0.004110016,0.004482465,-0.01062025,0.02577809,0.006511812
0.2576556,0.6484764,0.735569,0.002573691,0.003985837,0.003544444,-0.006873028,0.02463182,0.00657839
0.2598822,0.6472851,0.7313322,0.004592215,0.002713968,-0.0004959,-0.006925211,0.02667088,0.002271639
0.259708,0.6440271,0.7334065,0.00421237,-0.0006230503,0.001771779,-0.00723992,0.03314391,-0.002885354
0.2573217,0.6409914,0.7334089,0.001623077,-0.003736109,0.001963981,-0.004692116,0.03735435,-0.000856296
0.2544811,0.6405426,0.7305076,-0.001417551,-0.004260326,-0.0007513238,-0.005072373,0.0310395,0.001259358
0.2526044,0.6408162,0.7322984,-0.003491092,-0.004060101,0.001221396,-0.01519519,0.02078322,0.0007426243
0.2525872,0.6427538,0.7313351,-0.003701449,-0.002193431,0.0004356647,-0.01934304,0.02367847,0.003625558
0.2533178,0.6457847,0.7296117,-0.00315993,0.000768934,-0.001114792,-0.01284664,0.02466293,0.005296218
0.25429,0.6465204,0.7310799,-0.002372273,0.001438846,0.0005217928,-0.01071792,0.01679006,0.004363936
0.2552243,0.6465438,0.7304345,-0.001617762,0.001398825,3.992527e-05,-0.008373491,0.01420488,0.004109538
0.253966,0.6451444,0.7307769,-0.003050841,-6.142409e-05,0.0005408769,-0.002457923,0.01062546,0.003581736
0.2526881,0.6415465,0.7327753,-0.004498214,-0.003717781,0.002692972,-0.00462584,0.01357379,0.002893086
0.2533369,0.6407957,0.7352185,-0.004013247,-0.0045245,0.005284633,-0.008374958,0.02270656,0.001920685
0.254396,0.6407832,0.7389843,-0.003112212,-0.004590255,0.009193529,-0.00877306,0.02053781,0.002539713
0.256046,0.6395632,0.7407904,-0.001614301,-0.005860657,0.01113683,-0.008705485,0.01641156,0.00394167
0.2554719,0.6413927,0.7390666,-0.002334371,-0.004078481,0.009544145,-0.003760946,0.0128571,0.003641266
0.2523862,0.6413592,0.7341585,-0.005559749,-0.004156074,0.004760462,-0.002324581,0.01247269,0.003059999
0.2514328,0.6394101,0.7304101,-0.006646587,-0.006145958,0.001129662,-0.002943324,0.01867002,0.001303887
0.251256,0.6411136,0.73018,-0.006950258,-0.004479797,0.001010369,-4.837055e-05,0.01769791,0.0008821938
0.2506785,0.6430536,0.7309246,-0.007647864,-0.002573591,0.001858957,-0.0006897338,0.01494797,0.002366415
0.2514973,0.6451532,0.7329576,-0.006942204,-0.0005041824,0.003989301,-0.001240721,0.01494301,0.001340328
0.2526063,0.6459897,0.7356381,-0.005939205,0.0003055891,0.006760666,-0.005977232,0.01834395,0.0009395572
0.2529522,0.6446773,0.7377295,-0.005692012,-0.001030222,0.008936331,-0.01332853,0.02755148,0.001714318
0.2527268,0.6437059,0.7372853,-0.006008852,-0.002021866,0.008569573,-0.0144141,0.03008586,0.002357317
0.2527745,0.640961,0.7344052,-0.006045311,-0.004783873,0.00575999,-0.01610276,0.03004712,0.004920936
0.252816,0.641843,0.7331572,-0.006080616,-0.003915924,0.004575613,-0.01467332,0.03136019,0.005270998
0.2525218,0.6445155,0.7347384,-0.006444288,-0.001254343,0.006213587,-0.01115686,0.0296775,0.003980418
0.2521618,0.642438,0.7365959,-0.006866391,-0.003339744,0.008120938,-0.0139503,0.03192443,0.00414997
0.2524668,0.6422927,0.7319991,-0.006616279,-0.003490016,0.003567097,-0.01569183,0.03506641,0.002256314
0.2556401,0.64102,0.7222854,-0.003490653,-0.004764648,-0.006110287,-0.01453673,0.03661063,-0.0004023858
0.2572429,0.6374568,0.7198714,-0.001928411,-0.008326934,-0.008494204,-0.01613012,0.03676798,-0.001180399
0.2523806,0.6387047,0.7313933,-0.006824396,-0.007074896,0.003052086,-0.01784006,0.03448139,1.744799e-06
0.2481848,0.6386547,0.7440056,-0.01104712,-0.007117664,0.01568366,-0.01450642,0.03356866,0.0007982905
0.2495028,0.6370009,0.7398582,-0.009749275,-0.008760825,0.01155009,-0.009265304,0.02624302,-0.001571502
0.2491647,0.6397548,0.7354695,-0.01010074,-0.005992836,0.007169722,-0.005724761,0.01192453,-0.001441423
0.2460084,0.6429121,0.7413102,-0.01326352,-0.002817889,0.01301302,-0.00213242,0.002389909,0.002510264
0.2468406,0.6434931,0.7383422,-0.01243079,-0.00221581,0.01004183,0.000329726,0.0002684863,0.004251892
0.2472009,0.643171,0.7356253,-0.01206279,-0.0025135,0.007315752,-0.001929226,0.005556572,0.001165629
0.244826,0.6437866,0.7374436,-0.01442283,-0.001870315,0.009118929,-0.006760157,0.01174054,-0.003032296
0.2461177,0.6448667,0.7346799,-0.01310881,-0.0007598134,0.006334244,-0.007098682,0.01088766,-0.0001069989
0.2475635,0.6443418,0.7375452,-0.01163323,-0.001251536,0.009172596,-0.006562467,0.007914761,0.004304734
0.2486883,0.6432764,0.7411505,-0.01047126,-0.002281354,0.01274522,-0.008660916,0.007704921,0.004360698
0.2515678,0.6422643,0.742482,-0.007547131,-0.003255528,0.01403823,-0.0073277,0.01162045,0.005526072
0.2526267,0.6393586,0.7408315,-0.006436368,-0.006121014,0.01234334,-0.006113769,0.02070982,0.002189862
0.2539392,0.6365031,0.7329942,-0.005065183,-0.00893429,0.004455558,-0.006925378,0.02628152,-0.00361502
0.2520002,0.6371105,0.7341068,-0.006938945,-0.008282305,0.005511871,-0.008270895,0.02209083,-0.002826905
0.2464763,0.6385653,0.7367847,-0.01239131,-0.006780579,0.008127727,-0.01514765,0.0174951,-0.003174997
0.2466579,0.6389872,0.7364986,-0.01213209,-0.006309242,0.007774209,-0.02100608,0.01421292,-0.00603078
0.247956,0.6402722,0.743175,-0.01075038,-0.004972361,0.01437795,-0.01493976,0.009067938,-0.003653891
0.246737,0.6391119,0.7441953,-0.01187981,-0.006078261,0.01532034,-0.004623039,0.01315598,-0.0002595396
0.2473757,0.6362328,0.7417999,-0.0111456,-0.008900504,0.0128417,-0.003550144,0.01991146,0.001679059
0.2473285,0.636646,0.7412422,-0.01109157,-0.008427901,0.01219522,-0.006938625,0.01395934,0.008026798
0.2469872,0.6337158,0.7367918,-0.011326,-0.01129616,0.007650529,-0.007935659,0.01110893,0.01069394
0.2474568,0.6288375,0.7355357,-0.010744,-0.01610965,0.006294871,-0.009054397,0.0173746,0.004878298
0.2474334,0.6321398,0.7385775,-0.01064968,-0.01273951,0.009232086,-0.009728451,0.01729764,0.002694266
0.2490337,0.6355608,0.7423427,-0.008926306,-0.009247321,0.01288782,-0.01045848,0.01137288,0.003816844
0.2506216,0.6355189,0.7439803,-0.007210452,-0.009214557,0.01441125,-0.007130313,0.00652564,0.003479265
0.2500885,0.6389907,0.7422514,-0.007610833,-0.005664534,0.01256337,-0.001029703,0.009502618,0.002407636
0.2497005,0.6400247,0.7402859,-0.007861805,-0.004548807,0.01047404,-0.001421525,0.01566007,0.0007096381
0.2501389,0.6379596,0.7381934,-0.007282214,-0.006528948,0.008253099,-0.003268235,0.01444461,0.0002119244
0.2495488,0.6390984,0.7388703,-0.007727335,-0.00530221,0.008797155,-0.003957088,0.01383424,8.843904e-07
0.2467817,0.6394305,0.7411525,-0.01034584,-0.004879197,0.01094212,-0.005596586,0.01204781,0.001365686
0.2433582,0.6392465,0.740943,-0.01361749,-0.004969488,0.01059136,-0.007738756,0.006867068,0.002016225
0.242365,0.640916,0.7398533,-0.01445543,-0.003203948,0.00935648,-0.01062825,0.007770275,0.0007943796
0.2444295,0.6405121,0.7381982,-0.01223244,-0.003509429,0.007552456,-0.007460447,0.005792037,0.0009628579
0.2458665,0.6407507,0.7373039,-0.01063356,-0.003170421,0.006505743,-0.002321638,-0.002002319,-0.0001749895
0.2457759,0.6423575,0.7382868,-0.01055902,-0.001461351,0.00733292,-0.002250694,-0.007102418,0.0004771583
0.2465572,0.6415631,0.7393103,-0.009609478,-0.002152154,0.008197816,-7.446754e-05,-0.007169197,0.001816282
0.2483948,0.6412518,0.7392039,-0.007600764,-0.002358595,0.007930177,0.003080727,-0.002714868,-4.789323e-05
0.2507521,0.641062,0.7395925,-0.005069553,-0.00244255,0.008155021,0.003686287,-0.001653963,-0.001448614
0.2505308,0.6396434,0.7422242,-0.005114701,-0.00375473,0.01062074,0.005983884,-0.003813873,-0.002959776
0.2491473,0.6393243,0.7447466,-0.006319953,-0.003966844,0.01297501,0.007254385,-0.007279389,-0.002242181
0.2502588,0.6390529,0.7463269,-0.005028638,-0.004130823,0.01438506,0.005926869,-0.0142253,-0.001755022
0.249249,0.6394839,0.7461399,-0.005857348,-0.003592208,0.01402565,0.005124376,-0.01612586,-0.004226904
0.2474937,0.6407987,0.7442857,-0.007430475,-0.002169602,0.0119968,0.003334804,-0.01406484,-0.004810566
0.2472069,0.6399926,0.7442394,-0.007534253,-0.002867889,0.0117734,0.003204168,-0.01441117,-0.007023025
0.245249,0.6385085,0.7431436,-0.009308558,-0.004244327,0.01049839,0.00479763,-0.01444147,-0.008014824
0.245993,0.6391894,0.739844,-0.00838048,-0.003456053,0.00701736,0.003230762,-0.01460306,-0.006620425
0.2491635,0.6416251,0.7382558,-0.005025462,-0.0009133834,0.005245684,0.003292493,-0.01553111,-0.007672879
0.2504004,0.6433398,0.7385974,-0.003603938,0.0009077747,0.005402269,0.005553709,-0.01764307,-0.004327773
0.2507277,0.6429975,0.7397506,-0.003092033,0.0006712627,0.006369109,0.006090789,-0.02157588,-0.001309035
0.2513666,0.642945,0.7401585,-0.002268964,0.0007234646,0.006589539,0.007311662,-0.0269448,-0.002025082
0.2533604,0.6432904,0.7401607,-9.168917e-05,0.001172212,0.006403543,0.008182461,-0.03252173,-5.639825e-05
0.2533077,0.6428341,0.7390108,3.790414e-05,0.0008178744,0.005065005,0.007322342,-0.03227115,-0.002139593
0.2519554,0.6429583,0.7384448,-0.001133648,0.001042181,0.00431011,0.006368869,-0.02978966,-0.004203077
0.2535879,0.6422549,0.742265,0.0006777182,0.0004370123,0.007941381,0.007495156,-0.03281047,-0.002608575
0.2546581,0.6410139,0.7435897,0.001924581,-0.0007077994,0.009077376,0.01080242,-0.0336981,-0.005962462
0.255472,0.6410443,0.7409415,0.002912438,-0.0005834096,0.006240752,0.01329528,-0.02891696,-0.008195067
0.2548321,0.6411815,0.7396682,0.002443467,-0.0003545263,0.004779373,0.01625643,-0.02126989,-0.006859865
0.2503343,0.6427731,0.7388802,-0.001886772,0.001326448,0.003804039,0.01672693,-0.01385394,-0.006405518
0.2483787,0.6449846,0.7378566,-0.003678423,0.003624825,0.002593886,0.008799141,-0.01926456,-0.00669286
0.2485444,0.6458925,0.7351913,-0.00335237,0.004616972,-0.0002568939,0.002259244,-0.02743946,-0.00676242
0.2491896,0.6461455,0.7339764,-0.002550545,0.004951328,-0.001655612,0.00268008,-0.02287572,-0.002458144
0.2526774,0.6443376,0.735136,0.001090083,0.003221705,-0.0006779653,0.003165711,-0.02310151,0.0009717819
0.2558768,0.6416343,0.7345625,0.004438532,0.0005933299,-0.001431069,0.007305688,-0.02900827,-0.001549721
0.2563193,0.6391225,0.735262,0.005026037,-0.001846783,-0.0009084518,0.01079228,-0.03017485,-0.0052613
0.2550003,0.6385036,0.7375234,0.003847554,-0.002397394,0.001179093,0.007550561,-0.0333061,-0.007349933
0.255458,0.6429874,0.739128,0.004441126,0.002151494,0.002613106,0.007837387,-0.0330942,-0.005816773
0.2562788,0.6458486,0.7376828,0.005392766,0.005074697,0.001000795,0.008867915,-0.03007265,-0.004400917
0.2560668,0.6437989,0.7342006,0.005306426,0.003083817,-0.002644838,0.008307153,-0.03276671,-0.005797997
0.2583604,0.6422203,0.7327079,0.007720307,0.00156059,-0.004297293,0.01075004,-0.03822906,-0.005402052
0.258857,0.6405102,0.7272778,0.008331329,-9.735635e-05,-0.009882845,0.01340708,-0.04221678,-0.003837564
0.2574692,0.6396568,0.7236399,0.00705204,-0.0009020499,-0.01367156,0.01641749,-0.03700696,-0.003605288
0.2568805,0.6409742,0.7310762,0.006565524,0.0004609743,-0.006380817,0.01447731,-0.03071753,-0.005495957
0.2548812,0.6420586,0.7365561,0.004662021,0.001587807,-0.001040744,0.01106563,-0.03812728,-0.008155156
0.2552814,0.6434384,0.7349231,0.005151382,0.00300711,-0.002807581,0.01217453,-0.04334945,-0.007562627
0.2561679,0.6434404,0.7349695,0.006120555,0.003045544,-0.002889028,0.01246595,-0.03643969,-0.006365955
0.2551022,0.6427175,0.7360741,0.005130928,0.002355951,-0.001906123,0.01370363,-0.03245492,-0.006531501
0.2555046,0.6441774,0.7327001,0.0056027,0.003846175,-0.005395754,0.01284624,-0.03405365,-0.004478067
0.2553253,0.644823,0.7291139,0.005486249,0.004518926,-0.009091365,0.01146072,-0.03435527,-0.002636734
0.2565253,0.6444609,0.7314202,0.006742477,0.004180869,-0.006888061,0.01282924,-0.03293389,-0.00107566
0.260309,0.6453634,0.7330017,0.01057569,0.00510421,-0.005403056,0.0110533,-0.03223137,0.001303859
0.2613248,0.6457658,0.7310345,0.01163438,0.005524156,-0.007459996,0.01038572,-0.03223486,-0.001616005
0.2609342,0.6441302,0.7299591,0.01127981,0.003902719,-0.008618281,0.01048408,-0.02843279,-0.005240464
0.262418,0.6423309,0.7282131,0.01279251,0.002114243,-0.01044017,0.009913974,-0.02451168,-0.003681188
0.2637167,0.6430869,0.7278808,0.01411292,0.002877722,-0.01084123,0.01042919,-0.02450873,-0.003549829
0.264023,0.6444412,0.7300746,0.01443328,0.004236268,-0.008708951,0.009797614,-0.02205097,-0.004258358
0.2638515,0.6443748,0.7301913,0.01426823,0.004170794,-0.008646151,0.01013343,-0.01863944,-0.002859056
0.2624419,0.6451048,0.7303161,0.01285714,0.004898684,-0.008567704,0.007724789,-0.01720526,-0.001848635
0.260497,0.6471375,0.7309058,0.01090274,0.006925916,-0.008016879,0.004137146,-0.01273529,9.28232e-06
0.2595445,0.6492565,0.7293324,0.00993275,0.009036303,-0.009621539,0.004007176,-0.005049075,0.0007347301
0.2613023,0.6489707,0.7288505,0.01166511,0.008738351,-0.01012711,0.002973971,0.001400746,-0.0006864558
0.26352,0.6462489,0.7286472,0.01384944,0.006000952,-0.01034654,0.0006212526,0.006526477,-0.0003402739
0.2624265,0.6436677,0.725469,0.01271473,0.003400524,-0.01353318,-0.00458176,0.01079496,-0.0004835561
0.2620327,0.6410864,0.7226025,0.01227187,0.0007964741,-0.01640045,-0.007661038,0.008725438,-0.000538648
0.2629919,0.6427069,0.7233418,0.01317424,0.002390783,-0.01565401,-0.003557742,0.005812214,0.0023494
0.2624406,0.6461602,0.7252785,0.01255839,0.005814728,-0.0137021,-0.0009102387,0.008514809,0.003176428
0.2635263,0.6440659,0.7249793,0.0135718,0.00368811,-0.01397776,1.641622e-05,0.007234262,0.001708037
0.2652688,0.643987,0.7255306,0.01523444,0.003573808,-0.01339463,0.0002161673,0.003113746,0.001939024
0.2650657,0.6464304,0.7294456,0.014944,0.005979106,-0.009439609,-0.003435393,0.002490818,0.004137187
0.2631833,0.6469069,0.73348,0.01296659,0.006414533,-0.005356862,-0.006672639,0.006526557,0.00743603
0.2600347,0.6504071,0.7330456,0.009715667,0.009870937,-0.005735256,-0.008750024,0.0129631,0.008065569
0.2595682,0.6515098,0.7265014,0.009139699,0.01092694,-0.01221584,-0.007580516,0.01077341,0.004325201
0.2626504,0.6466575,0.7210411,0.01210542,0.006024842,-0.01760535,-0.002238221,0.00912784,0.0002865719
0.2647935,0.6430187,0.719889,0.01412541,0.002333246,-0.01867938,0.0002834558,0.01723035,-0.0004462036
0.2638736,0.6442974,0.7228592,0.01307592,0.003556045,-0.01562365,-0.001411301,0.02053766,0.0007168604
0.2620911,0.6473352,0.7283633,0.01115757,0.006535183,-0.01002666,-0.006394482,0.01906943,0.0007609597
0.2611264,0.6471971,0.7251312,0.01005082,0.006335674,-0.01315841,-0.01239298,0.01943614,0.001028708
0.2605594,0.6471874,0.7220994,0.009336025,0.006261964,-0.01608272,-0.0149089,0.02159825,0.002352746
0.2611274,0.6475391,0.7293753,0.009750625,0.006547054,-0.008692198,-0.01189458,0.02207102,0.003211229
0.2609092,0.6461902,0.7314161,0.009373769,0.005128942,-0.006529908,-0.00567495,0.01284556,0.004085041
0.2603562,0.6449334,0.7272139,0.008657393,0.003800512,-0.01060409,-0.004132401,0.005484049,0.005222507
0.2616458,0.6421687,0.7240905,0.009778913,0.0009617652,-0.01359331,-0.005830517,0.01435578,0.006724234
0.2602007,0.6424625,0.7243778,0.008161583,0.001179565,-0.0131659,-0.007895116,0.02742699,0.008301188
0.2592171,0.6441352,0.7277068,0.007001916,0.002774353,-0.009691028,-0.01188954,0.0284839,0.007523321
0.2621205,0.6423349,0.726595,0.009725611,0.000894608,-0.01065143,-0.01195387,0.02157046,0.002995284
0.2626648,0.6433063,0.7267162,0.01008701,0.001785272,-0.01037353,-0.01067481,0.01838399,-0.001514235
0.2616529,0.6443743,0.7297297,0.008889166,0.002771493,-0.007198398,-0.01114194,0.0202392,-0.0009263442
0.2606315,0.644485,0.7289101,0.007679149,0.002799512,-0.007851706,-0.008089424,0.02391634,-0.0002050472
0.2593673,0.6467896,0.7276947,0.006223839,0.005020575,-0.008896453,-0.004770588,0.02492004,-0.002397964
0.2573315,0.6474004,0.7254881,0.003994812,0.005547313,-0.01092859,-0.006090804,0.02425951,0.001106105
0.2542509,0.6470553,0.725337,0.0007192862,0.005117416,-0.01090148,-0.00988607,0.02500602,0.006257923
0.2554395,0.6457122,0.7303265,0.001711881,0.003688929,-0.005730413,-0.01139373,0.02459026,0.006251244
0.2564076,0.6454643,0.7342029,0.002483301,0.003354974,-0.001669344,-0.01148236,0.02478584,0.007086435
0.2545786,0.6479414,0.7378831,0.0004574547,0.00574558,0.002198102,-0.01231285,0.02341202,0.005846779
0.2551806,0.6471881,0.7409903,0.000862967,0.004905334,0.005494415,-0.01158387,0.02014854,0.003484009
0.2549234,0.644877,0.7394762,0.0004100724,0.002506795,0.004170425,-0.01025121,0.0197409,0.004397712
0.2553131,0.6442111,0.7373888,0.0006053722,0.00175311,0.002273397,-0.01047592,0.02062363,0.002148336
0.2563008,0.6442221,0.735664,0.001400288,0.001676059,0.0007383697,-0.01259277,0.02411882,0.00277858
0.2555086,0.6447204,0.7321299,0.0004173648,0.002086387,-0.00260683,-0.0140752,0.02727743,0.006015776
0.2583443,0.6441873,0.7313773,0.003064759,0.001465303,-0.0031721,-0.01294039,0.02640018,0.003435123
0.2608368,0.6430746,0.7310094,0.005371365,0.0002648368,-0.003354318,-0.0116549,0.02601932,0.003640878
0.2595969,0.6411903,0.7279297,0.003948406,-0.00170672,-0.006250255,-0.01118452,0.02719631,0.004717497
0.2589104,0.6405488,0.7300759,0.003081541,-0.002434795,-0.003922264,-0.01208295,0.02717935,0.003372578
0.2572311,0.6456756,0.7354343,0.001224814,0.002606326,0.001615614,-0.01276497,0.02525806,0.004614122
0.2545782,0.6488265,0.7377526,-0.001602419,0.005672619,0.004110956,-0.009993515,0.02517621,0.003621807
0.2542222,0.6399798,0.7358076,-0.002129389,-0.003257609,0.00234019,-0.006807417,0.02622994,0.003104192
0.2545946,0.6312216,0.731451,-0.001924351,-0.01209815,-0.001845514,-0.007472136,0.02685241,0.004136596
0.2536076,0.6366746,0.7326097,-0.003074787,-0.006725697,-0.0005193969,-0.009543674,0.02814939,0.002903521
0.2528816,0.6428862,0.7320112,-0.003959958,-0.0005924406,-0.0009541169,-0.008609353,0.02466849,0.004225425
0.2510945,0.6412884,0.7276022,-0.005901702,-0.002266248,-0.005203182,-0.007071695,0.01895821,0.007721579
0.2489302,0.642803,0.7323693,-0.008215706,-0.0008249628,-0.0002799688,-0.006917043,0.01871491,0.01009763
0.2503708,0.6447095,0.7369245,-0.006919528,0.001010942,0.004427391,-0.006255525,0.02033106,0.007320145
0.2513104,0.6440663,0.735841,-0.006118646,0.0002997911,0.003492011,-0.007194145,0.02051286,0.001635241
0.2511031,0.6449446,0.7360227,-0.00645876,0.001112781,0.003817324,-0.008488751,0.02368949,0.001280854
0.2520501,0.6441769,0.734142,-0.005638172,0.0002823775,0.00207573,-0.007818019,0.02746605,0.001093836
0.2519939,0.6442976,0.7332832,-0.005814471,0.0003428957,0.00135113,-0.009241525,0.02373995,0.0007491624
0.2529875,0.644907,0.7360622,-0.004934254,0.0008946714,0.004259444,-0.01292801,0.01913957,0.004315111
0.2532067,0.6433921,0.738372,-0.004821711,-0.000675432,0.006693309,-0.01451064,0.01850752,0.005845389
0.2525508,0.6420855,0.7380969,-0.005577539,-0.002034827,0.006537057,-0.01157614,0.01911567,0.005325894
0.2549145,0.6387414,0.7375572,-0.003306927,-0.005429211,0.006110472,-0.00805596,0.0270487,0.002270395
0.2557487,0.6364674,0.7390964,-0.00255909,-0.007750848,0.007756948,-0.009657073,0.0344995,0.0007284513
0.2537181,0.636442,0.7364481,-0.004669186,-0.007820956,0.005209941,-0.01219163,0.03233001,0.005517273
0.2517996,0.6369626,0.7331634,-0.006660651,-0.007341899,0.002020222,-0.01213264,0.03086607,0.005368267
0.250017,0.6385888,0.7352528,-0.008509506,-0.005753803,0.004198444,-0.01290095,0.03344951,0.002824818
0.2464597,0.63761,0.7363174,-0.01212635,-0.00676707,0.005345622,-0.01563917,0.03928038,0.003578605
0.2433225,0.6396957,0.7377163,-0.01531605,-0.004711906,0.006820869,-0.01846516,0.0450415,0.003117811
0.247054,0.6435898,0.7407139,-0.01162979,-0.0008445874,0.009888482,-0.01598847,0.03915969,0.007674399
0.2502286,0.6419506,0.7425679,-0.008492892,-0.002506716,0.01180604,-0.01019393,0.0297256,0.01203903
0.2471484,0.6416618,0.7432714,-0.01160323,-0.002814687,0.01256634,-0.008901986,0.02997571,0.010495
0.2469891,0.6394722,0.7400411,-0.01178484,-0.005019765,0.009385831,-0.009187086,0.02637797,0.009406248
0.2496484,0.6335858,0.7387114,-0.009140209,-0.01091801,0.00809879,-0.00966152,0.01823538,0.006629824
0.251236,0.6336005,0.7420748,-0.007559359,-0.0109113,0.01149766,-0.01133642,0.02200986,0.004316928
0.2515501,0.6367544,0.7423535,-0.007244386,-0.007761349,0.01180439,-0.009998818,0.02528998,0.005167859
0.2493316,0.6371224,0.7421141,-0.009454586,-0.007392888,0.0115855,-0.006753279,0.02119345,0.005718921
0.2481878,0.6360527,0.7421741,-0.01058252,-0.00845785,0.01165852,-0.004851846,0.02213943,0.004542693
0.249527,0.6370493,0.7407195,-0.00922021,-0.007452078,0.01020926,-0.006746423,0.02291248,0.001609255
0.2500919,0.6374659,0.7437877,-0.008625039,-0.00702177,0.01327506,-0.009342665,0.02195839,-0.003915809
0.2477133,0.637105,0.7496027,-0.01096622,-0.007364403,0.01907992,-0.007695972,0.02202216,-0.009713261
0.2437053,0.6400535,0.7540558,-0.01492979,-0.00439315,0.02351481,-0.006899695,0.01897254,-0.004146834
0.2422646,0.6406992,0.752076,-0.016319,-0.003720292,0.02150829,-0.00573686,0.01825138,0.003943133
0.2429342,0.6399485,0.7467412,-0.0155907,-0.004439614,0.01613791,-0.002596936,0.01840342,0.0005103556
0.2422579,0.640487,0.7497697,-0.01620109,-0.003865682,0.01912176,-0.005018851,0.01452139,0.002025086
0.2403255,0.6389923,0.750249,-0.01806009,-0.005320938,0.01954707,-0.008358603,0.01197347,0.00752611
0.2403767,0.6388246,0.7468411,-0.01792797,-0.005445554,0.01607581,-0.007660898,0.01007296,0.003936979
0.2432517,0.6387016,0.7476825,-0.01496434,-0.005521823,0.01684439,-0.008186822,0.009351206,0.0005660621
0.2451993,0.6376624,0.7423759,-0.01292031,-0.006510781,0.01145545,-0.009992624,0.01148738,-7.877764e-05
0.2446634,0.6368632,0.7379995,-0.01335222,-0.007256234,0.006987508,-0.01037107,0.01085133,0.002203168
0.2439873,0.6364218,0.7388949,-0.01391684,-0.007640634,0.00778247,-0.007908455,0.01175558,0.006023498
0.244427,0.6389774,0.7387883,-0.0133582,-0.005024563,0.00756722,-0.004973999,0.01483879,-6.710606e-05
0.2437493,0.6392588,0.7452183,-0.01390985,-0.004679443,0.01388071,-0.005090744,0.01098182,-0.006475434
0.2422663,0.6374568,0.7527169,-0.01525973,-0.006414555,0.02125527,-0.002639909,0.005076052,-0.002986713
0.2421077,0.6375758,0.7507738,-0.01527832,-0.006225743,0.01918056,0.001674086,0.002413409,-0.002507091
0.2405288,0.6368962,0.746797,-0.01671039,-0.006832547,0.01506456,-0.001943267,0.003429847,-0.005393435
0.2388839,0.6358841,0.7470858,-0.01820163,-0.007768959,0.01520663,-0.006307592,0.007159959,-0.004897923
0.2396598,0.6342369,0.7439679,-0.01726545,-0.009337736,0.01193456,-0.003422162,0.006116167,-0.004673219
0.2395683,0.6346036,0.7415356,-0.01718983,-0.008889719,0.009341043,-0.001561755,0.004577389,-0.002853008
0.2387419,0.6368895,0.7460636,-0.01784259,-0.006519675,0.01370113,-0.0009497503,0.00419355,5.993787e-06
0.2386743,0.6360011,0.7462246,-0.01772987,-0.007321092,0.01368767,0.001171328,-0.001785259,-0.0005058124
0.2393831,0.634902,0.7458979,-0.01683422,-0.008330469,0.0131804,0.001245482,-0.004799607,-3.079187e-05
0.240951,0.6346677,0.7491172,-0.01507296,-0.008472356,0.01621325,0.0008374766,-0.003536419,0.003736333
0.2428738,0.6348912,0.7499922,-0.01295066,-0.008153673,0.01689607,-0.000845208,-0.004841444,0.006281286
0.2437311,0.6365653,0.7498775,-0.01188783,-0.006381853,0.01658351,-0.00244346,-0.005271798,0.006209359
0.2423581,0.6380829,0.7469464,-0.01304967,-0.004763929,0.01344905,0.0011239,-0.006235437,0.005043677
0.2409582,0.6407087,0.7448801,-0.01423305,-0.002035369,0.01117414,0.004550465,-0.009462575,0.0007006366
0.2390538,0.6424259,0.7439659,-0.01591592,-0.0002134614,0.01004623,0.004022944,-0.01142339,-0.003685679
0.2371372,0.6398057,0.7469597,-0.0176061,-0.002727056,0.01282168,0.003256028,-0.01274864,-2.292187e-05
0.2384142,0.6372231,0.7537369,-0.01609794,-0.005201743,0.0193761,0.003962763,-0.01649508,0.003090167
0.2410504,0.6368919,0.7480825,-0.01322599,-0.005423691,0.01349486,0.005011148,-0.01897071,-0.004168711
0.2439264,0.6354736,0.7427946,-0.01010994,-0.006731741,0.007975966,0.004744181,-0.01063596,-0.008974871
0.2436651,0.635231,0.7472059,-0.01012715,-0.006862996,0.01215263,0.003169486,-0.001230094,-0.003549713
0.2406614,0.637494,0.7452097,-0.01288319,-0.004487683,0.009918383,0.001350657,-0.006376594,-9.142625e-05
0.2401353,0.6400885,0.7415268,-0.01315835,-0.001779952,0.005994446,0.0002608816,-0.01134349,-0.003106338
0.2385083,0.6429434,0.7399219,-0.01453133,0.001188797,0.004145916,-0.001627654,-0.008093135,-0.00375485
0.2378066,0.6420534,0.7392289,-0.01497631,0.0004130315,0.00320743,-0.0006603727,-0.01085472,-0.001195432
0.2380978,0.6415241,0.7403384,-0.0144257,-2.167757e-06,0.004070022,0.005338837,-0.01402612,-0.0001900658
0.2350059,0.6440969,0.7386621,-0.01725563,0.002684497,0.00214613,0.007997943,-0.01327468,0.0009738625
0.2365186,0.6410454,0.7402103,-0.01547862,-0.0002539023,0.003446497,0.01004923,-0.01598639,0.002547757
0.2406521,0.6364008,0.7430749,-0.01107842,-0.004786431,0.0060637,0.01029622,-0.01561011,0.001266891
0.2419056,0.6343883,0.741238,-0.009556178,-0.006687834,0.003980041,0.005754056,-0.01336469,-0.003620205
0.2424406,0.6355672,0.7412258,-0.008750587,-0.005398909,0.003722301,0.007941944,-0.01221879,-0.007345805
0.2409985,0.6392222,0.7412484,-0.009920698,-0.001634927,0.003500904,0.008797433,-0.009221352,-0.004794334
0.2418009,0.637301,0.7399926,-0.008845365,-0.003448222,0.002002878,0.005961916,-0.009580867,-0.002487696
0.2435555,0.6362568,0.7421077,-0.006817008,-0.004385497,0.003878174,0.007037859,-0.01069184,-0.00393607
0.2443548,0.6366438,0.744207,-0.005743772,-0.003892791,0.005740165,0.004617325,-0.01090473,-0.003109936
0.2462245,0.6322307,0.7448112,-0.003600295,-0.008201165,0.006109859,0.006143672,-0.01189503,-0.002338275
0.2422935,0.6311282,0.7450039,-0.007258171,-0.009200013,0.006071022,0.009631276,-0.01308046,-0.002836971
0.2388192,0.6314577,0.740905,-0.01046031,-0.008767557,0.001743789,0.007287169,-0.01568397,-0.002290508
0.2427816,0.6333064,0.7359957,-0.006227071,-0.00681649,-0.003390613,0.008988711,-0.01503837,-0.004022155
0.2457717,0.637933,0.7402856,-0.002967575,-0.002087926,0.0006778156,0.01004289,-0.01506709,-0.007200374
0.245296,0.6366717,0.7475727,-0.003175877,-0.003247666,0.007747542,0.006985472,-0.01996229,-0.008436048
0.2413192,0.6369729,0.7471668,-0.006887587,-0.002845411,0.007128376,0.005605184,-0.02774286,-0.007365446
0.2377039,0.6412436,0.7442588,-0.01024039,0.001525761,0.004011184,0.007325997,-0.03472832,-0.005511195
0.2407222,0.6404801,0.7424701,-0.006962174,0.0008618559,0.002017443,0.01157887,-0.02982808,-0.004107046
0.2447044,0.6398925,0.7422639,-0.002723042,0.0003728457,0.001610302,0.0117976,-0.02536729,-0.00218065
0.2442045,0.6412789,0.7434033,-0.002968906,0.001856582,0.00255314,0.01024558,-0.03294513,-0.001901741
0.243851,0.6399589,0.742076,-0.003071797,0.00063229,0.001033776,0.01284083,-0.03735183,-0.004207191
0.2451028,0.6382199,0.7410399,-0.001573133,-0.001012605,-0.0001899737,0.01387894,-0.03740831,-0.004661319
0.244624,0.6377532,0.7386931,-0.001808822,-0.001387105,-0.00271952,0.01124364,-0.0365791,-0.003247611
0.2455614,0.6375653,0.7362507,-0.0006327361,-0.001484615,-0.005339775,0.01116375,-0.03475615,-0.003395322
0.246839,0.6375076,0.7376206,0.000879151,-0.001453928,-0.004142497,0.012777,-0.03657643,-0.006284849
0.2451747,0.6384048,0.7365266,-0.0005556628,-0.0004703179,-0.005403392,0.01237896,-0.03801414,-0.008998801
0.2455984,0.6394956,0.7397827,9.231365e-05,0.0007048011,-0.002308417,0.0132981,-0.03895622,-0.005330596
0.2454787,0.6397098,0.7451531,0.0001916434,0.001001255,0.002907033,0.01308989,-0.04149918,-0.0006853809
0.243762,0.6409485,0.7389359,-0.001311722,0.002320068,-0.003459047,0.01156422,-0.04136407,-0.002985509
0.2455471,0.6430636,0.7328753,0.0006810989,0.004512776,-0.009662442,0.01275718,-0.03998074,-0.004692501
0.2463597,0.6442155,0.7339503,0.001695552,0.005739702,-0.008723749,0.01323589,-0.04034349,-0.004606335
0.2460727,0.6439665,0.7352171,0.001604322,0.005562955,-0.007586652,0.01479444,-0.04316304,-0.007409563
0.2486248,0.6433334,0.7335045,0.004346008,0.00499892,-0.009421922,0.01650189,-0.0472858,-0.008761891
0.2509655,0.6444785,0.7311922,0.006869754,0.006209646,-0.01184945,0.01504944,-0.04895322,-0.008826375
0.2513881,0.6463837,0.7315441,0.007468603,0.008176887,-0.01160527,0.01342879,-0.05113725,-0.008382733
0.251969,0.6477031,0.7295946,0.008218712,0.009554417,-0.01365444,0.01148832,-0.05579332,-0.005721706
0.2537482,0.6465122,0.7303582,0.0101596,0.008417494,-0.01298227,0.01176901,-0.05502114,-0.004275372
0.2546796,0.6401922,0.7332313,0.01124477,0.002146999,-0.01019196,0.01347752,-0.04683746,-0.005083654
0.2555659,0.6321834,0.7325954,0.01227667,-0.00581682,-0.01090177,0.01386553,-0.03413678,-0.006034969
0.2559029,0.6295142,0.7359017,0.01275056,-0.008445304,-0.007660423,0.0149674,-0.02595309,-0.006081181
0.2531874,0.6367897,0.7350964,0.01016285,-0.001132823,-0.008521824,0.01275207,-0.03867078,-0.006712269
0.2522565,0.6451691,0.7323098,0.009350487,0.007280162,-0.0113556,0.009060292,-0.05055314,-0.009008405
0.253371,0.6451074,0.7345021,0.01057409,0.007248558,-0.00920153,0.01179913,-0.03273627,-0.008644882
0.2544031,0.6441663,0.7325543,0.0117056,0.006334148,-0.01117875,0.01575461,-0.02041388,-0.005301136
0.2562706,0.6453203,0.7340038,0.01366277,0.007511135,-0.009749861,0.01503355,-0.0363769,-0.003846933
0.2558446,0.6451225,0.7376943,0.01331643,0.007332401,-0.006071219,0.01454028,-0.04745177,-0.003188982
0.2561611,0.6444113,0.7378278,0.01370252,0.006636342,-0.005941015,0.01342802,-0.04488213,-0.0009551141
0.2586977,0.6439914,0.734816,0.01629838,0.006227389,-0.008947693,0.0107974,-0.04411633,-0.00116048
0.2594213,0.6448086,0.7281375,0.01707079,0.007051376,-0.01561306,0.01151552,-0.0447647,-0.005983022
0.259692,0.6444637,0.7318213,0.01737946,0.006709085,-0.01190802,0.01124283,-0.04384964,-0.007351706
0.2589714,0.6440988,0.7359703,0.01668606,0.006342423,-0.007729787,0.01239367,-0.04473488,-0.003825023
0.2578296,0.6448763,0.7315485,0.0155603,0.00711382,-0.01211424,0.02054451,-0.04961377,-0.004010561
0.258562,0.6441602,0.7326926,0.01629754,0.006387406,-0.01092513,0.02689762,-0.05174549,-0.004138293
0.2593967,0.6442904,0.7323172,0.01712599,0.006502892,-0.01124775,0.02492659,-0.04211958,-0.004683525
0.2598448,0.6437569,0.7307306,0.01755653,0.005950368,-0.01277398,0.01744928,-0.03072547,-0.009059147
0.2600437,0.6424718,0.7311121,0.01772665,0.004641964,-0.01232458,0.0141549,-0.03131216,-0.005941422
0.2604591,0.6432193,0.7253733,0.01810209,0.005362006,-0.01798812,0.01351907,-0.02655948,-0.001951072
0.2615966,0.6440275,0.7223927,0.01918824,0.006138716,-0.02088595,0.006918236,-0.009753909,-0.003003731
0.2621817,0.6473792,0.7258694,0.01971083,0.009454954,-0.01731878,0.001032086,-0.005677886,0.0004241827
0.2621165,0.6511307,0.7293374,0.01957169,0.01316693,-0.01375263,-0.0005521334,-0.009029821,0.001533502
0.2609665,0.6486591,0.7306113,0.01833663,0.01065162,-0.01237266,-6.667324e-05,-0.006756106,0.003584108
0.2593889,0.6455167,0.7302563,0.01666275,0.007461148,-0.01261412,-0.0005721069,-0.00740498,0.008898991
0.2612184,0.6465972,0.7293853,0.01838487,0.008489348,-0.01336402,-0.002930972,-0.004302917,0.002732609
0.2636663,0.64636,0.726052,0.02071466,0.008195415,-0.01656904,-0.00307785,0.004451211,-0.004305765
0.2623323,0.6458677,0.7243557,0.0192517,0.007642115,-0.01812992,-0.006168772,0.009194332,-0.0001362455
0.2620473,0.6480728,0.7273033,0.01882717,0.009781993,-0.01503982,-0.009534431,0.007979467,0.004933491
0.2630295,0.647352,0.7306733,0.01965935,0.0089917,-0.01152024,-0.007288906,0.004135257,0.006086194
0.261858,0.6463568,0.7325985,0.01832765,0.00792296,-0.009438703,-0.00625628,0.006253902,0.004147438
0.2606952,0.646833,0.7318708,0.0169945,0.008321466,-0.01000372,-0.005167326,0.008981235,0.001848448
0.2595701,0.6443425,0.7300998,0.01568934,0.005749213,-0.01160585,-0.001126029,0.007613021,0.003724377
0.2601455,0.6439641,0.7305376,0.01607516,0.00528532,-0.01099353,0.0007784457,0.009188824,0.00457059
0.261619,0.6451058,0.7327431,0.01735008,0.006337811,-0.008608101,-0.001131241,0.01018128,0.0001269556
0.2591826,0.6450083,0.7333291,0.0147064,0.006147691,-0.007837282,-0.003156279,0.01077201,-0.001964889
0.2576029,0.6460783,0.7305637,0.01291109,0.007121779,-0.01041323,-0.003722658,0.01013895,0.002174037
0.25948,0.6450607,0.7282731,0.01456469,0.006005281,-0.01251009,-0.005028784,0.007898024,0.007053791
0.2606568,0.6440043,0.7285491,0.01551061,0.004846941,-0.01203648,-0.008178593,0.01516934,0.007559036
0.2623312,0.6455317,0.7279715,0.01694717,0.006269799,-0.01241273,-0.01160028,0.02627565,0.00681076
0.2644071,0.6461691,0.7266575,0.01877856,0.006800011,-0.01352184,-0.01087075,0.02987735,0.007661652
0.2634179,0.6454796,0.7313255,0.01753836,0.006001007,-0.00864551,-0.009393301,0.02661065,0.005575704
0.2616186,0.643884,0.7372133,0.01548182,0.004293627,-0.002546321,-0.009456318,0.02541939,0.00369247
0.2613433,0.6426202,0.7346303,0.01494347,0.002916043,-0.004915303,-0.006505389,0.03550858,0.003283733
0.2566988,0.6428686,0.7325682,0.0100304,0.003048954,-0.006761321,-0.008002537,0.04228524,0.001654109
0.2508922,0.6433417,0.733762,0.003950146,0.003404995,-0.005349798,-0.01469252,0.03378361,0.004350794
0.2551263,0.6435329,0.7311315,0.007906331,0.003477933,-0.007761333,-0.01902614,0.02801327,0.005961008
0.26004,0.6455651,0.730079,0.01253857,0.005390865,-0.008593916,-0.02053098,0.03809924,0.00415899
0.2568165,0.6477346,0.7316797,0.009030553,0.007440383,-0.006772821,-0.0180576,0.04785525,0.00579985
0.2553073,0.6447381,0.7323456,0.007234238,0.004322988,-0.005886092,-0.01700973,0.04398095,0.005642151
0.2558996,0.6412145,0.7333525,0.007537409,0.0006780107,-0.004658291,-0.01686706,0.03950166,0.00450303
0.2549748,0.641242,0.7356561,0.006322039,0.0005835921,-0.00213412,-0.01515361,0.03823042,0.005079423
0.2548784,0.6393986,0.7395638,0.005934093,-0.001381755,0.001993456,-0.0164284,0.03662185,0.005426484
0.2541374,0.6378654,0.740671,0.004901205,-0.003036513,0.003319234,-0.01519437,0.03803808,0.007315554
0.2546926,0.6397318,0.7370089,0.005164621,-0.001291114,-0.0001261935,-0.01340139,0.03406608,0.008127587
0.2563241,0.6408301,0.7333553,0.006505028,-0.0003126635,-0.003565333,-0.01038392,0.02679219,0.01034137
0.2553878,0.6417508,0.7326356,0.005278769,0.0004894779,-0.004073399,-0.003016051,0.02470281,0.01158629
0.2553063,0.6419219,0.73387,0.004908848,0.0005436983,-0.002630255,-0.004082509,0.02504577,0.005760143
0.2552003,0.6393308,0.7344868,0.004516473,-0.002162511,-0.001807804,-0.006611972,0.02796836,0.000936071
0.2517278,0.6393066,0.7354063,0.0007598793,-0.002299856,-0.0006859401,-0.004687022,0.02873297,0.001050331
0.2489841,0.643496,0.7360631,-0.002264978,0.00177868,0.0001695878,-0.008318017,0.02503507,0.005042609
0.2494694,0.6464173,0.7351099,-0.002057446,0.004591517,-0.0005887975,-0.009795994,0.02341007,0.007715229
0.2497907,0.6429116,0.7361254,-0.002009933,0.000979833,0.0006175526,-0.008053207,0.02871163,0.003346251
0.2480705,0.6380367,0.7367329,-0.003999185,-0.003998806,0.001411548,-0.009237218,0.03515529,0.0003970548
0.248255,0.6400097,0.7358953,-0.00407859,-0.002126793,0.0007558381,-0.0100843,0.03018471,0.002833304
0.2492945,0.6396612,0.738076,-0.003297327,-0.00257356,0.003113629,-0.01120291,0.02283465,0.0045916
0.2483273,0.6364687,0.7396247,-0.004516492,-0.005861342,0.004834468,-0.01152049,0.02310572,0.003345085
0.2498809,0.6413881,0.7391142,-0.003208308,-0.001034005,0.004490647,-0.01109973,0.02617159,0.001999971
0.2520369,0.6446031,0.7407213,-0.001290638,0.002092314,0.006258862,-0.01157548,0.03199323,0.002297428
0.2511982,0.641734,0.7432062,-0.002360431,-0.000862025,0.008898874,-0.01051194,0.03408315,0.00308585
0.249783,0.6411472,0.7435499,-0.003999256,-0.001530599,0.009391287,-0.01033652,0.03369337,0.002917301
0.2493944,0.6412837,0.7426894,-0.00460367,-0.00147258,0.008672885,-0.01111059,0.03456667,0.001713685
0.249973,0.6396894,0.7430802,-0.004232944,-0.003141833,0.009198591,-0.009090188,0.02851444,0.004792847
0.2473602,0.6391661,0.7429184,-0.007045434,-0.0037366,0.009164215,-0.007603656,0.02326847,0.007400702
0.2445358,0.6421839,0.7415351,-0.01006098,-0.000786548,0.007900726,-0.007810708,0.02396183,0.003413628
0.2460633,0.6426122,0.7427547,-0.008715943,-0.0004224478,0.009232212,-0.006658056,0.02748896,0.0003462899
0.2461569,0.6395749,0.7459403,-0.008795583,-0.003520227,0.01252148,-0.006148443,0.03147916,-0.001177425
0.2452812,0.6403976,0.7467165,-0.009835144,-0.002754487,0.01339308,-0.006694041,0.02534376,0.001224508
0.2451602,0.6405886,0.7442138,-0.01011045,-0.002616616,0.01097707,-0.00763504,0.01885417,0.006685273
0.2440999,0.6397217,0.7410653,-0.01131507,-0.003533089,0.007906439,-0.008476611,0.02174515,0.006689555
0.2445099,0.6402582,0.7399511,-0.01103935,-0.003042393,0.006861054,-0.005384988,0.02226381,0.006133192
0.2457558,0.6373528,0.7430251,-0.009917354,-0.005989824,0.009995064,-0.00567098,0.02072968,0.004710703
0.2468563,0.6357375,0.7447248,-0.008930365,-0.007643215,0.01174589,-0.01289315,0.01886866,0.0007615753
0.2476126,0.6387977,0.740885,-0.008277094,-0.004617255,0.007948313,-0.01490972,0.01398406,0.001002806
0.247174,0.6406261,0.7417277,-0.008808316,-0.002818967,0.008824467,-0.01120181,0.01164861,0.005745263
0.2472552,0.6368033,0.745453,-0.008809315,-0.006667791,0.01257434,-0.004308394,0.01538446,0.01060151
0.248252,0.631931,0.7456014,-0.007884398,-0.01156193,0.0127386,0.001450525,0.02545945,0.009393791
0.2488508,0.6326191,0.7466263,-0.007347287,-0.01089122,0.0137705,-0.003959524,0.03353007,0.00762095
0.2479495,0.6314383,0.7458145,-0.008300314,-0.01208489,0.01295691,-0.008795797,0.02934292,0.008797732
0.2449061,0.6283782,0.7468275,-0.01138556,-0.01515276,0.01395918,-0.006608645,0.02214709,0.003318041
0.2422069,0.6327081,0.7488526,-0.0141168,-0.01082548,0.01596463,-0.01084995,0.02077195,-0.0008178909
0.2435414,0.6365266,0.747663,-0.01280455,-0.007004,0.01474635,-0.01619412,0.02075075,0.005672571
0.2449626,0.63401,0.7526837,-0.01139587,-0.009511929,0.01972928,-0.01153579,0.02575633,0.01028265
0.2413144,0.6314018,0.756513,-0.01504673,-0.01210581,0.02351159,-0.006599096,0.03118286,0.004984759
0.237844,0.6310058,0.7557537,-0.01851006,-0.0124817,0.02269586,-0.007441247,0.0224444,0.0002231717
0.237042,0.6337129,0.7577732,-0.019295,-0.009748697,0.02464896,-0.005325709,0.009418158,0.00234081
0.2362851,0.6370155,0.7556607,-0.02002479,-0.006414212,0.02246005,-0.003707812,0.005822764,0.001938815
0.2386649,0.6339179,0.7502012,-0.01760762,-0.009474022,0.01691367,-0.006120942,0.007698655,-0.0006361492
0.2422349,0.6301313,0.7459131,-0.01398985,-0.01321697,0.01252829,-0.003681576,0.008436045,-0.0001245719
0.2413461,0.63343,0.7467679,-0.01482052,-0.009868861,0.01327555,-0.001242064,0.00562061,-0.001252604
0.2403196,0.6351935,0.7514979,-0.01577868,-0.008050157,0.01788827,-0.0008046179,0.002647667,-0.0008682932
0.2421208,0.6341674,0.7484267,-0.01389909,-0.009015416,0.0146901,0.002440421,0.00147822,0.003484147
0.2422195,0.6350261,0.742602,-0.01371223,-0.008090155,0.008729171,0.001469233,0.006186173,0.005950001
0.2420049,0.633668,0.7421792,-0.01382895,-0.009376279,0.008161249,-0.001225309,0.01533845,0.002737148
0.2436214,0.6330403,0.7434314,-0.01210534,-0.009926661,0.00925986,-0.002723782,0.01561932,-0.001629493
0.2432232,0.6345241,0.7434082,-0.01238724,-0.008360447,0.009075434,-0.0074931,0.01244732,0.002098882
0.2420387,0.6353468,0.7424792,-0.01344677,-0.007450145,0.007977977,-0.00936749,0.01276856,0.00492896
0.2405822,0.6376196,0.7437037,-0.01476983,-0.005085032,0.009027258,-0.008724874,0.0103172,-0.0001287386
0.2370721,0.6392996,0.7450148,-0.0181384,-0.003308096,0.01015701,-0.009336834,0.01075601,-0.003119381
0.2367608,0.6379776,0.7466033,-0.01830005,-0.004528898,0.01155844,-0.005430965,0.01074762,-0.004525718
0.2384527,0.6350229,0.7495941,-0.01645047,-0.007378528,0.01435677,-0.0007739327,0.002166446,-0.004317028
0.2378949,0.6340777,0.7491095,-0.01684283,-0.008215138,0.01367467,-0.00203172,-0.004447684,-0.00145054
0.2383148,0.6350724,0.7469791,-0.01624983,-0.007108399,0.01134176,-0.003040371,-0.002354903,0.0005388008
0.2385797,0.6346221,0.7468264,-0.01580425,-0.007443483,0.01098207,4.208331e-05,0.002023358,0.003430281
0.2385205,0.6346746,0.7494058,-0.01567546,-0.007272587,0.01335007,0.001398955,0.003479215,0.00279459
0.2394614,0.635041,0.7509178,-0.01453947,-0.00678495,0.01464658,0.001322266,0.003514876,-9.67699e-05
0.2386566,0.6354251,0.7494532,-0.01514239,-0.006276857,0.01296265,0.00400143,-0.002646138,-0.0009765506
0.2386728,0.6371018,0.7501519,-0.01491786,-0.004473689,0.0134383,0.005348402,-0.01158864,-0.004628207
0.2393333,0.6387855,0.749813,-0.01404276,-0.002661274,0.01287287,0.004136519,-0.00882156,-0.00707374
0.2385107,0.6408913,0.7478292,-0.0146448,-0.0004247685,0.01065914,0.003468264,-0.007223814,-0.00625253
0.239017,0.64009,0.7472989,-0.01391221,-0.001093915,0.009895943,0.003406954,-0.01266292,-0.006264165
0.2390256,0.6359577,0.7475675,-0.013672,-0.005092866,0.009928931,0.004966629,-0.01194546,-0.007341608
0.2386014,0.6339821,0.749227,-0.01385952,-0.006934315,0.01135037,0.006677483,-0.01471379,-0.007970482
0.2395267,0.6340663,0.747765,-0.01269281,-0.006715188,0.00964823,0.006425667,-0.01987944,-0.004544868
0.2403444,0.6333913,0.7463416,-0.0116292,-0.007254695,0.007982847,0.006913677,-0.01843957,-0.001764566
0.2414786,0.6313349,0.7479792,-0.01024508,-0.009175087,0.009376887,0.009001068,-0.01968006,-0.003230621
0.2414447,0.632129,0.7479135,-0.01002544,-0.00824433,0.009066513,0.009810148,-0.02355498,-0.004016739
0.2421038,0.6363379,0.748797,-0.00910964,-0.003898148,0.009704372,0.008794276,-0.026652,-0.005044194
0.2440166,0.638162,0.7491525,-0.0069373,-0.001936378,0.009813628,0.006530881,-0.02859663,-0.006721922
0.2428631,0.6374363,0.7495248,-0.00782903,-0.002524105,0.009939268,0.004975456,-0.03062879,-0.007020428
0.2426385,0.6353669,0.7533104,-0.007790098,-0.00445559,0.01347793,0.008577388,-0.03702577,-0.007033303
0.2439919,0.6340868,0.7539292,-0.006171804,-0.005597981,0.01384963,0.01333413,-0.03849333,-0.005172145
0.2444595,0.6349342,0.7487917,-0.005438468,-0.004613226,0.008464803,0.01475343,-0.0304172,3.29646e-05
0.2460729,0.6343714,0.7442645,-0.003558899,-0.005039116,0.003690433,0.01657263,-0.02464354,0.0001688683
0.2439427,0.6332103,0.7471038,-0.00542318,-0.00606374,0.006282834,0.01613226,-0.0268434,-0.007325946
0.2390934,0.6340283,0.7501954,-0.01000704,-0.005109904,0.009128233,0.01151659,-0.03013525,-0.009419407
0.2384991,0.6386378,0.7456114,-0.01033684,-0.000365174,0.004298923,0.008503595,-0.02984124,-0.00577853
0.2402155,0.6432373,0.7421533,-0.008356992,0.004368689,0.0005967374,0.007885163,-0.03170953,-0.003821869
0.2426388,0.6423576,0.7422235,-0.005671555,0.003622163,0.0004246072,0.00863177,-0.03340847,-0.003790551
0.2445837,0.6409346,0.7446572,-0.003465915,0.002330671,0.002618087,0.01406719,-0.03353015,-0.005589421
0.2447566,0.6376638,0.7496494,-0.003034222,-0.0008106959,0.007372591,0.02130572,-0.04154339,-0.005133584
0.2453277,0.6323463,0.7507065,-0.002206597,-0.006001057,0.008194727,0.02208717,-0.05070197,-0.004909554
0.2463843,0.6332531,0.7509163,-0.0008961109,-0.004969347,0.008172423,0.01783328,-0.0512835,-0.006578125
0.24795,0.6358093,0.7492397,0.0009204077,-0.002290568,0.006266576,0.01369403,-0.04639561,-0.007334519
0.2498912,0.6384459,0.740629,0.003108895,0.0004663876,-0.002570415,0.0127364,-0.04285409,-0.009288992
0.2504698,0.6420599,0.7357372,0.003930664,0.00419842,-0.0076852,0.0161621,-0.0441235,-0.007967582
0.2498531,0.6394144,0.7379558,0.003552417,0.001668357,-0.005685802,0.01891092,-0.0447078,-0.006281694
0.2498193,0.6357508,0.7400135,0.003752086,-0.001882702,-0.003842784,0.01916244,-0.04562421,-0.006602163
0.250265,0.6350574,0.7392633,0.004425657,-0.002466473,-0.004802628,0.01854327,-0.04662296,-0.006004966
0.2498617,0.6355511,0.7402106,0.004244148,-0.001866037,-0.004059543,0.01783147,-0.04489183,-0.01184742
0.2495867,0.6387353,0.7446156,0.004184583,0.001421911,0.0001469789,0.01750012,-0.04710811,-0.01463185
0.2489379,0.6382301,0.7441019,0.003744506,0.00101742,-0.0005591279,0.01636522,-0.04702006,-0.0081732
0.2489759,0.6382641,0.7410812,0.003984137,0.001149143,-0.003765983,0.01493968,-0.04149201,-0.005206044
0.2515687,0.6427587,0.7381189,0.006771325,0.005738121,-0.00690814,0.01229111,-0.0411798,-0.004761719
0.2522716,0.641639,0.7331316,0.007660948,0.004709511,-0.01206855,0.01015611,-0.04405181,-0.007326421
0.2522587,0.6400842,0.7349455,0.007826993,0.003242115,-0.01042076,0.01221929,-0.04639834,-0.01171956
0.2537709,0.6407568,0.7377932,0.009509831,0.003998253,-0.007731427,0.01471092,-0.04750067,-0.009325628
0.2533759,0.6396512,0.7353335,0.00927701,0.002972187,-0.01034159,0.01472083,-0.04635688,-0.007249046
0.2542774,0.6406482,0.7357831,0.01033185,0.004044609,-0.01003416,0.01557729,-0.04615779,-0.007692822
0.2559623,0.6403448,0.7357808,0.01216093,0.00381254,-0.01016997,0.02039469,-0.04319812,-0.006928479
0.2560435,0.6402238,0.7339591,0.01237682,0.003758522,-0.01211639,0.02514865,-0.0399646,-0.01021804
0.2577023,0.6425774,0.734626,0.01416065,0.006174821,-0.01156499,0.02510148,-0.04525564,-0.01239456
0.2580271,0.6423318,0.7335938,0.01460038,0.005987354,-0.01270342,0.02390078,-0.04923846,-0.009677515
0.2579787,0.6389127,0.7300572,0.0146564,0.002621895,-0.0163365,0.02308004,-0.0430506,-0.008073033
0.2588499,0.6355551,0.7282122,0.0156215,-0.0006867483,-0.01826805,0.02025328,-0.03520945,-0.00572329
0.2569866,0.6408316,0.7282067,0.01384111,0.004634268,-0.01834965,0.01775891,-0.03229342,-0.003225831
0.2573437,0.647167,0.7280505,0.01426995,0.01100978,-0.01857134,0.01450891,-0.03088117,-0.00294386
0.2608389,0.6423482,0.7283681,0.01782569,0.006226454,-0.01830809,0.008544856,-0.02764083,-0.003634635
0.2632725,0.6402608,0.7295661,0.02030838,0.004169735,-0.01715301,0.007222637,-0.02496722,-0.006610161
0.2631821,0.6444894,0.7290367,0.02025533,0.008424225,-0.01771378,0.008365876,-0.02302342,-0.005918721
0.2615689,0.6448634,0.7269515,0.0186674,0.008819272,-0.01981852,0.004813027,-0.02136757,-0.0007228968
0.2628134,0.6442787,0.7268067,0.0199251,0.008250573,-0.019971,0.002181706,-0.0193488,0.0006930316
0.2629092,0.6444773,0.729799,0.02002166,0.008460133,-0.01697434,0.001406572,-0.01494233,0.0001855129
0.261754,0.6443846,0.7331965,0.01885476,0.008373189,-0.01356031,0.004099458,-0.01087503,-0.000943442
0.2631094,0.6440212,0.7320899,0.02018591,0.00801031,-0.01463835,0.009373088,-0.003389018,-0.003964977
0.2614214,0.6416598,0.7290858,0.0184611,0.005644087,-0.01760209,0.0063682,0.006487962,-0.00469432
0.2577816,0.6394969,0.7292444,0.01477188,0.003471047,-0.0173915,-0.0004903056,0.006485173,-5.922395e-05
0.2546928,0.6405366,0.7290705,0.01162141,0.004495641,-0.01750173,-0.008546416,0.002756511,0.004882185
0.2547081,0.6436656,0.728984,0.01156297,0.007604577,-0.01751316,-0.01587972,0.005460909,0.0009449219
0.2577679,0.6461213,0.7295983,0.01453755,0.01003538,-0.01681257,-0.01092673,0.01493868,-0.00324224
0.2567162,0.6471447,0.7291024,0.01338958,0.01102901,-0.01721085,-0.003593491,0.02596059,0.0001998177
0.2564183,0.6473195,0.7313015,0.0129845,0.01116907,-0.01490329,-0.001215057,0.02174374,0.0002917882
0.2569513,0.6469973,0.7335356,0.01340006,0.01080715,-0.01255008,-0.0005221523,0.01038182,-0.001031858
0.2561833,0.6462011,0.7334517,0.01250458,0.009966097,-0.01250458,-0.004132872,0.01061747,0.0008949241
0.26104,0.6440942,0.7332348,0.01722421,0.007809105,-0.0125822,-0.004069293,0.01528547,0.0006948711
0.2636565,0.6413671,0.7322015,0.01969429,0.005026846,-0.01346683,-0.003122425,0.02229302,0.0008582737
0.2603786,0.6396425,0.7318585,0.01626084,0.003242132,-0.01365219,-0.006850437,0.02420936,0.002275654
0.2593087,0.6408451,0.7318467,0.01502645,0.004380065,-0.01349776,-0.007862439,0.01706161,0.002995189
0.2614664,0.6453076,0.7319475,0.01701092,0.008773437,-0.01322251,-0.008281395,0.01643932,0.002807478
0.2631601,0.6481588,0.7321321,0.01852304,0.01155143,-0.01285565,-0.005602431,0.01781612,0.001325336
0.2603912,0.6466998,0.7313125,0.01556428,0.01001497,-0.01348545,-0.001334042,0.01850726,0.0006443316
0.2578503,0.6450747,0.730354,0.01282561,0.008308259,-0.01424724,-0.003338518,0.02118814,-0.0002495374
0.257675,0.6468047,0.728967,0.01244494,0.009952447,-0.01543074,-0.005440001,0.02076453,0.0001711699
0.2547201,0.6480259,0.7311038,0.009277562,0.01108375,-0.01308393,-0.006904069,0.02287869,0.004219176
0.2517568,0.6467563,0.7358473,0.006095191,0.00972015,-0.008124383,-0.008237614,0.02299041,0.006662599
0.2523214,0.646883,0.7367085,0.006434844,0.009748804,-0.007041551,-0.006697417,0.01921592,0.005844658
0.2537239,0.6453691,0.7358614,0.007607216,0.008132836,-0.007661965,-0.005399121,0.01539134,0.004935505
0.2537647,0.6417294,0.7350747,0.007413278,0.004387219,-0.008217589,-0.005121632,0.01016284,0.00514104
0.2557142,0.6415519,0.7344786,0.009124121,0.004100179,-0.008578701,-0.003931698,0.01135883,0.00371499
0.2572878,0.6435651,0.7349473,0.01045559,0.006000412,-0.007871679,-0.001572117,0.01257677,0.001115109
0.2548551,0.6447367,0.7356012,0.007777686,0.007056129,-0.006976488,-0.004456875,0.01075474,0.002319873
0.2555574,0.6422785,0.7364272,0.008232107,0.004479204,-0.005906843,-0.008113663,0.01404077,0.003181243
0.2582538,0.6379325,0.7361841,0.01067856,1.196302e-05,-0.005904328,-0.003674329,0.01505756,0.001949574
0.2591993,0.6375746,0.7362334,0.01137218,-0.0004693612,-0.005608036,-0.001348277,0.01276314,0.002723779
0.2598743,0.6410867,0.7380949,0.01179384,0.002917576,-0.003498692,-0.002478041,0.00666691,0.002319472
0.2563275,0.6447392,0.7400653,0.007992371,0.006443653,-0.001279989,0.0007017307,-0.001931604,0.0007051377
0.2517549,0.6451706,0.7423002,0.003164012,0.006747461,0.001202933,0.003868566,-0.001811409,-0.0003121298
0.2507347,0.6454127,0.7434053,0.001887574,0.006861036,0.002555288,0.002536679,-0.0006066631,-0.001104175
0.251492,0.646707,0.7416748,0.00238861,0.008025773,0.001070433,0.0009610402,-0.003473334,-0.0007165846
0.2527253,0.6446722,0.7404024,0.003366314,0.005860658,4.157918e-05,0.004115962,-0.003337922,-0.0005298688
0.2529158,0.6420387,0.7402719,0.003302336,0.003096003,0.0001518036,0.007373961,-0.004675616,-0.0006433745
0.2537486,0.6397987,0.7374312,0.003882108,0.0007243193,-0.00245133,0.007162756,-0.005750695,-0.001766206
0.2545294,0.6392758,0.7355257,0.004411941,6.937262e-05,-0.004122733,0.002001108,-0.003766343,-0.001678382
0.2552659,0.6418893,0.7366881,0.004899794,0.002550895,-0.002730017,-0.004639658,-0.00523539,0.005342933
0.2604846,0.6421529,0.735661,0.009872364,0.002682744,-0.00353083,-0.0009361092,-0.003516533,0.01042185
0.2654079,0.6425681,0.7355414,0.01455206,0.002966785,-0.003428272,0.00365651,0.006574125,0.001109216
0.2621194,0.6428022,0.7378464,0.0110226,0.003070395,-0.00090532,0.0003371725,0.0160411,-0.008742196
0.2556237,0.6409704,0.7399531,0.004288306,0.001109051,0.001414849,0.0002256744,0.01719125,-0.002575919
0.2548308,0.640877,0.7392109,0.003259248,0.0008870874,0.000881363,-0.001633291,0.01100797,0.001553839
0.2559646,0.6394675,0.7290233,0.004159619,-0.0006497018,-0.009102376,-0.007895014,0.009775155,-0.005910804
0.2552998,0.6407053,0.7209384,0.003264301,0.000462375,-0.01698838,-0.009087194,0.01675691,-0.006549537
0.2557576,0.6439521,0.7275567,0.003494805,0.003585159,-0.01017558,-0.007951148,0.02151643,-0.002618946
0.2554787,0.6441145,0.7337083,0.002991947,0.003625301,-0.003833611,-0.005935107,0.01955096,-0.0010093
0.2554314,0.6448239,0.7308711,0.002724311,0.00421442,-0.00648425,-0.003951228,0.01551813,0.0008267651
0.2558488,0.641363,0.7336671,0.00292512,0.0006351168,-0.003505584,-0.005142948,0.01409602,-0.0006889852
0.2552249,0.6389424,0.7430838,0.002088639,-0.001901951,0.006089847,-0.00512775,0.009521722,-0.0008276061
0.2557724,0.6412126,0.7443616,0.002427723,0.000253884,0.007542349,-0.005147727,0.006396985,-5.743852e-05
0.2558991,0.6408155,0.7422465,0.002350189,-0.0002551484,0.005597223,-0.00522445,0.008386038,0.0003472443
0.2571614,0.6420174,0.7434188,0.003412724,0.0008372496,0.006934591,0.0004448022,0.0004294223,0.005434333
0.2591613,0.6417955,0.7419927,0.005217312,0.0005083927,0.005667915,0.005663577,-0.005599656,0.005391303
0.2575747,0.6401189,0.7386326,0.003439823,-0.001272449,0.002461606,0.005341883,0.004658384,-0.001317415
0.2544784,0.6406577,0.7345142,0.0001571424,-0.0008351577,-0.001509169,0.003700215,0.01257771,-0.002416499
0.2520983,0.639587,0.7334974,-0.002404708,-0.002004397,-0.002384262,0.001706859,0.01031186,-0.0008021362
0.2531653,0.6398277,0.7333074,-0.001514748,-0.001859303,-0.002438439,1.326984e-06,0.009484841,-0.004653859
0.2550772,0.6403751,0.7278347,0.0002251184,-0.001404306,-0.007781037,-0.0001982314,0.01252711,-0.005167348
0.2529902,0.6435475,0.7262463,-0.002028864,0.001678963,-0.009244664,-0.001450293,0.01123063,-4.474285e-06
0.252152,0.648138,0.7313375,-0.003028672,0.006183553,-0.00403352,-0.003361013,0.008985351,-0.001171888
0.2528337,0.6471837,0.7375523,-0.002503055,0.005146418,0.002296483,9.598387e-05,0.007953976,-0.001524875
0.2512247,0.6475714,0.7388867,-0.004262591,0.005454022,0.003741584,0.003895385,0.003165545,0.002991208
0.2511682,0.6475781,0.7354168,-0.004463805,0.005383233,0.0003778634,0.001535372,0.0005222178,0.003385436
0.2536162,0.6439581,0.7364411,-0.002154445,0.001687919,0.001503597,0.001498647,-0.00124613,0.002991082
0.2550606,0.6416683,0.738309,-0.0008426818,-0.0006749418,0.003468286,0.002018784,-0.002718714,0.002675049
0.2559038,0.6390516,0.7388264,-0.0001259259,-0.003362514,0.004077788,-0.002193372,6.981028e-05,0.002273272
0.2573301,0.6380927,0.739671,0.001179879,-0.004389936,0.005009706,-0.004793294,0.002951894,0.001488993
0.256751,0.6383772,0.7386957,0.0004862609,-0.004171512,0.004116708,-0.004603122,0.004853269,-0.0008665779
0.254177,0.6393563,0.7412008,-0.002196485,-0.003255687,0.006699066,-0.003095057,0.002362078,0.0004162878
0.2533807,0.6425923,0.7416036,-0.003095841,-8.015044e-05,0.007173999,-0.001187541,0.0001294718,0.001740135
0.2535816,0.6403752,0.7371785,-0.002992291,-0.002354786,0.002815685,0.001686408,0.004693904,0.0003678839
0.25259,0.6376776,0.735837,-0.00407557,-0.005106897,0.001535647,0.002662517,0.01155674,0.001021313
0.2524301,0.6424084,0.734074,-0.004321426,-0.0004276012,-0.0001712319,-0.001958097,0.02118576,0.00496002
0.2531488,0.6450488,0.7310232,-0.003682995,0.002164452,-0.003170922,-0.006744897,0.02680881,0.007390356
0.2526815,0.6443647,0.727977,-0.00422471,0.001434967,-0.006170736,-0.01351377,0.02593491,0.003727347
0.2526048,0.644519,0.7246611,-0.00437006,0.001546678,-0.009444621,-0.02014836,0.03132314,0.0030112
0.2530467,0.6442713,0.7260179,-0.003991102,0.001258983,-0.008049435,-0.01942046,0.03846615,0.007604972
0.2534835,0.643895,0.7307954,-0.003611605,0.0008452772,-0.003236747,-0.01914116,0.03441166,0.009388332
0.2572612,0.6401239,0.7333836,0.0001144916,-0.002960915,-0.0006159633,-0.01912511,0.03079497,0.008249394
0.2610391,0.6340957,0.7339054,0.003846149,-0.009021745,-6.419683e-05,-0.01448432,0.04102462,0.003068163
0.2584604,0.6336465,0.7358896,0.001226393,-0.009500951,0.001947634,-0.009958907,0.04988968,-0.001108878
0.2532378,0.641565,0.7374621,-0.004032586,-0.001609656,0.003545442,-0.008194449,0.04786048,0.001211545
0.2502608,0.6482822,0.7359979,-0.007041284,0.005083386,0.002104127,-0.01200705,0.04172256,0.004790071
0.2493784,0.6435755,0.736272,-0.007950825,0.000355335,0.002398802,-0.0156355,0.03298295,0.00655888
0.2500634,0.6391275,0.7401207,-0.007288273,-0.004111381,0.006265614,-0.01308013,0.02809469,0.002658684
0.2501652,0.642335,0.7428964,-0.007204041,-0.0009201316,0.009056955,-0.01181876,0.0263113,-0.001782229
0.2484059,0.6413488,0.7425788,-0.008976054,-0.00192003,0.008752247,-0.01013001,0.01915195,0.002873598
0.2466414,0.6388149,0.742031,-0.01074826,-0.00446521,0.008214253,-0.008123553,0.01241043,0.007508534
0.2455344,0.6399615,0.742528,-0.0118578,-0.00332734,0.00871775,-0.01084098,0.01284936,0.00603335
0.2464305,0.6387339,0.7423821,-0.01095892,-0.00456123,0.008574968,-0.01056724,0.01555844,0.005062353
0.2483931,0.6383147,0.7420624,-0.008987885,-0.004984238,0.008254637,-0.01034826,0.01514172,0.003078688
0.2489915,0.6393822,0.7414099,-0.008375477,-0.00391782,0.007597563,-0.01006127,0.01567968,-0.0002870007
0.2511457,0.6376478,0.7399229,-0.006201598,-0.00565075,0.006102075,-0.004853482,0.0198095,0.002168142
0.252324,0.6368087,0.7397338,-0.004998168,-0.006485581,0.005900501,-0.004862602,0.02569165,0.005317398
0.2503901,0.6362868,0.7397878,-0.006901433,-0.007000449,0.005938056,-0.004770962,0.03160928,0.002946591
0.2495167,0.6354524,0.7385195,-0.007739026,-0.007824833,0.004649276,-0.003224244,0.03365132,0.001372643
0.2469446,0.6368814,0.7391457,-0.01027022,-0.006382833,0.005251139,-0.006428066,0.03352533,0.0002978054
0.243625,0.6383201,0.7420162,-0.01354375,-0.004927919,0.0080935,-0.007236052,0.03135546,-0.0003832997
0.2428703,0.6404963,0.7438122,-0.01424715,-0.00273226,0.009857491,-0.009643203,0.02712484,0.002854515
0.2422727,0.6413716,0.7443876,-0.01478799,-0.001834491,0.01039695,-0.01084993,0.02593233,0.002908826
0.2419701,0.6393903,0.7452315,-0.01502822,-0.00379041,0.01120093,-0.008076973,0.02174979,-0.001160417
0.2416126,0.6401236,0.7459143,-0.01531758,-0.003028816,0.01183952,-0.008842543,0.0135965,-0.001961178
0.2429585,0.6400047,0.7441913,-0.01389757,-0.003116718,0.01006798,-0.008505918,0.0133111,0.002215383
0.2439632,0.6373719,0.7420963,-0.01281273,-0.005716014,0.007920048,-0.01079205,0.01761519,0.007685795
0.2413133,0.6364659,0.7436732,-0.01537628,-0.006585897,0.009439519,-0.01294547,0.01710763,0.008120719
0.2417931,0.6342148,0.745617,-0.01480399,-0.008798348,0.01132144,-0.006713965,0.01632131,0.007314471
0.2441388,0.6333448,0.7443737,-0.01235967,-0.009626989,0.01001174,-0.004571062,0.01444411,0.008776742
0.2456661,0.6330922,0.7401139,-0.01072744,-0.009835372,0.005681058,-0.007522405,0.009312276,0.006497253
0.2485106,0.6292605,0.7376755,-0.007772015,-0.01361986,0.003167408,-0.00766597,0.01229445,0.005128318
0.248947,0.6301935,0.7420047,-0.007218795,-0.0126364,0.007417321,-0.004453386,0.02008942,0.00629829
0.2489388,0.63322,0.7445276,-0.007104833,-0.00955584,0.009856948,-0.0007896924,0.02359253,0.004397634
0.2470632,0.634172,0.7424413,-0.008853081,-0.008546035,0.007683517,-0.003836922,0.02387551,0.003155883
0.2409948,0.6381059,0.7426583,-0.01478937,-0.004550705,0.007809669,-0.006680761,0.01738071,0.003039118
0.2377836,0.6382998,0.741916,-0.01786363,-0.004291692,0.006973017,-0.003617799,0.0125211,0.003258609
0.2369647,0.636455,0.7412299,-0.0185408,-0.00606784,0.006189034,-0.001873803,0.01542852,0.004411741
0.2362524,0.6383133,0.7435825,-0.0191063,-0.004137698,0.00844035,-0.0024611,0.01568744,0.004644967
0.2375857,0.6386867,0.743594,-0.01762106,-0.003689329,0.0083475,-0.007058102,0.01308289,0.005558603
0.2396486,0.6406003,0.7424398,-0.0154008,-0.001697898,0.007085803,-0.01292835,0.01177674,0.007800884
0.2392378,0.6427993,0.7432361,-0.01564895,0.0005815209,0.007771727,-0.01466941,0.01291832,0.009579769
0.2381267,0.6407678,0.7438101,-0.01659193,-0.001367306,0.008232427,-0.01508321,0.01625969,0.004836053
0.2395563,0.63845,0.7461163,-0.0149889,-0.003600649,0.01042267,-0.01414002,0.01779911,-0.002376098
0.2398275,0.6352392,0.7518048,-0.01453901,-0.006725254,0.01599247,-0.01405892,0.0143642,-0.0003631082
0.2402775,0.6332294,0.7542322,-0.01390513,-0.008647313,0.01829825,-0.01242698,0.009566148,0.00201054
0.241827,0.6334658,0.7516578,-0.01216665,-0.008321643,0.01559906,-0.00533066,0.0114827,0.001872571
0.2413673,0.6313356,0.7483791,-0.01243255,-0.01036087,0.01219206,-0.002245709,0.01205603,0.006696368
0.2419208,0.6304339,0.743851,-0.01168076,-0.01116987,0.007532186,-0.001516571,0.004305656,0.006779053
0.2419185,0.6310551,0.7423197,-0.01148034,-0.01045403,0.0058656,0.0007000992,-0.0004841827,0.0009345939
0.2421692,0.6309896,0.7474844,-0.01102292,-0.01042271,0.01089181,-0.002452908,-0.0006092425,-0.002004319
0.2438095,0.635445,0.7518171,-0.009172165,-0.00586843,0.01508283,-0.005596569,-0.00180467,-0.002054148
0.2424847,0.6409481,0.7517921,-0.01028303,-0.0002642122,0.01491313,-0.00263712,-0.006640253,-0.001484571
0.2409113,0.6407707,0.7498891,-0.01163934,-0.0003386208,0.01286218,0.001968571,-0.01423506,-0.002419135
0.2390004,0.6386495,0.7442121,-0.01333023,-0.002355259,0.007033986,0.004470262,-0.01902728,-0.002485969
0.2370074,0.6378003,0.73544,-0.01510051,-0.003098755,-0.001892508,0.006435693,-0.02050021,-0.002138174
0.2368492,0.6373395,0.7330408,-0.01503343,-0.003452907,-0.004448548,0.009258978,-0.02282732,-0.004489222
0.2362145,0.6371959,0.7386794,-0.01544015,-0.003488965,0.001031191,0.01068331,-0.02889099,-0.006588042
0.2386295,0.6367778,0.7420756,-0.0127947,-0.003798994,0.004267219,0.01105482,-0.03261649,-0.008846675
0.2422644,0.6357968,0.7425311,-0.008926885,-0.004671513,0.00456178,0.01159193,-0.03099967,-0.008896814
0.2437692,0.6360834,0.7435779,-0.007187041,-0.004276043,0.005447072,0.01276294,-0.03135781,-0.004632051
0.2461093,0.6371827,0.7425719,-0.004610048,-0.003067615,0.004279225,0.01304967,-0.03431233,-0.001606995
0.2448603,0.636502,0.7410646,-0.005620732,-0.003639153,0.002609954,0.01277521,-0.03928788,-0.0010092
0.2417594,0.6350052,0.7398874,-0.008482437,-0.005026724,0.001270917,0.01449943,-0.04201156,-0.002057145
0.244028,0.6341654,0.7388937,-0.005974212,-0.005757406,0.0001160124,0.01405514,-0.03718075,-0.002062317
0.2456378,0.6339841,0.7391485,-0.004124567,-0.005829651,0.0002103728,0.01221577,-0.03307304,-0.002212228
0.2452296,0.63423,0.7395247,-0.004293095,-0.005474832,0.0004273436,0.01181284,-0.03359488,-0.006054438
0.2488731,0.6353509,0.7433124,-0.000410613,-0.004245094,0.004057408,0.01151058,-0.03332411,-0.00647129
0.2510425,0.6386706,0.7478761,0.001996624,-0.0008168327,0.008465129,0.01476664,-0.03467892,-0.004945391
0.2488141,0.6411922,0.7477737,4.298861e-06,0.001813149,0.008208411,0.01847659,-0.04523089,-0.008467658
0.247931,0.6405427,0.7476233,-0.0006450296,0.001271368,0.007905376,0.01763395,-0.05528503,-0.009986472
0.2478823,0.6397904,0.745796,-0.0004626196,0.0006258388,0.005927029,0.01674522,-0.05140695,-0.006942521
0.2472217,0.6402226,0.7415214,-0.0008953542,0.001163607,0.00150277,0.01881808,-0.04523547,-0.006529231
0.2478865,0.6392666,0.7430843,-6.227002e-06,0.0003117846,0.002917546,0.02009782,-0.04533146,-0.006320953
0.249105,0.6365133,0.7471194,0.001432797,-0.002339042,0.006806216,0.01910532,-0.04599826,-0.004209208
0.2487148,0.6357771,0.7480017,0.001258917,-0.002974383,0.007543937,0.01967898,-0.05048817,-0.004686265
0.2487626,0.637109,0.748088,0.001518421,-0.001543559,0.007487124,0.02030601,-0.05872817,-0.001659497
0.2515945,0.6378187,0.7459378,0.004557156,-0.0007367179,0.005195519,0.02007509,-0.06062813,0.001802841
0.2538998,0.6372661,0.7433094,0.007063889,-0.00119399,0.002427163,0.02199263,-0.05310191,-0.002617829
0.2547151,0.6355925,0.740906,0.008075041,-0.002774337,-0.0001145864,0.02334846,-0.0432617,-0.004954975
0.2557348,0.6352471,0.7357741,0.009284238,-0.00302834,-0.005383003,0.02169231,-0.04070021,-0.003279293
0.2558736,0.6364091,0.7350275,0.009605789,-0.001776924,-0.006263964,0.01719174,-0.04413858,-0.003248665
0.2549717,0.6378283,0.7378482,0.008879443,-0.0002701771,-0.003574923,0.01188841,-0.0425986,-0.005811098
0.2537014,0.6406566,0.7395812,0.007776948,0.002643655,-0.001970617,0.008745821,-0.03424874,-0.007303355
0.2526391,0.6442451,0.7444621,0.006874474,0.006315515,0.002785011,0.008192484,-0.02711361,-0.003435889
0.253286,0.6453659,0.7449167,0.007672998,0.00751728,0.003117662,0.009475274,-0.02913831,-0.002504294
0.2548481,0.6439636,0.7380252,0.009378288,0.006193091,-0.003892375,0.01177159,-0.03564116,-0.0019299
0.2544138,0.6438092,0.7325066,0.009078505,0.006113622,-0.009525932,0.01416591,-0.03791155,0.001584419
0.2550888,0.6427193,0.731612,0.009879177,0.005095185,-0.01053158,0.01358427,-0.0381858,-0.001925272
0.258989,0.6415405,0.7360992,0.01389589,0.00398419,-0.006151053,0.01235791,-0.03352463,-0.004354509
0.2604741,0.6444393,0.738643,0.01548816,0.006946992,-0.00370919,0.01273701,-0.03012461,-0.00372557
0.2598502,0.6448497,0.7385552,0.01496177,0.007417249,-0.003893866,0.01106633,-0.03383758,-0.006629794
0.2606235,0.6443327,0.7414503,0.01582251,0.006955912,-0.001090623,0.01135581,-0.03049591,-0.005418563
0.2621091,0.6463628,0.7410611,0.01738515,0.009037106,-0.001566588,0.01276169,-0.02608345,-0.004662667
0.2621693,0.6430249,0.7385847,0.01751168,0.005745623,-0.004124641,0.01214379,-0.02369853,-0.00625271
0.2601698,0.6392246,0.7345836,0.0155676,0.001986931,-0.008202339,0.01279883,-0.01725957,-0.004544903
0.2591858,0.6404317,0.7264818,0.0146278,0.0032308,-0.01637543,0.008398678,-0.01480514,-0.004396523
0.2582544,0.6404532,0.7247535,0.01372941,0.00328431,-0.01816932,0.0004870516,-0.007396474,-0.002552238
0.2580617,0.6407619,0.7273301,0.01355839,0.003620428,-0.01565196,-0.002195179,0.004642966,-0.001202774
0.2607165,0.6440395,0.7264764,0.01622372,0.006920885,-0.01655802,-0.005289778,0.01186639,-0.00177064
0.2609748,0.6466223,0.7268121,0.01648126,0.00952186,-0.0162674,-0.0113372,0.01322679,0.00411705
0.2583601,0.645422,0.7274258,0.01385453,0.008335162,-0.01569092,-0.01236637,0.008596811,0.006950534
0.2561706,0.6433519,0.7261321,0.01164194,0.006273761,-0.01701372,-0.008012956,0.0125917,0.004431392
0.2566399,0.6446813,0.7262057,0.01207719,0.007606947,-0.0169607,-0.005954458,0.01521418,0.004167039
0.2584913,0.6449109,0.7278459,0.01388382,0.007835411,-0.01533228,-0.005414284,0.01068484,0.003256121
0.2574687,0.644147,0.7286835,0.01280608,0.007065429,-0.01449748,-0.00521225,0.01472218,0.003105393
0.2573179,0.6466495,0.728624,0.01258981,0.009556796,-0.01455055,-0.007756078,0.01691092,0.0025357
0.2575792,0.6470317,0.7289565,0.01277574,0.009923,-0.0142025,-0.008328189,0.01962117,-0.0001035357
0.254768,0.6433919,0.7311689,0.009879537,0.006261992,-0.01196525,-0.007849828,0.02056948,-0.001289853
0.2536872,0.6396687,0.7347421,0.008704405,0.002512668,-0.008358089,-0.008455437,0.01396664,-0.001671245
0.2550775,0.639828,0.7356157,0.009991395,0.00264096,-0.007441567,-0.009062289,0.01486029,-0.0008146625
0.2560821,0.6429776,0.7361227,0.0108843,0.005754903,-0.006883113,-0.01082057,0.0150868,0.001774668
0.2555409,0.6434496,0.738245,0.01022342,0.006186869,-0.004701128,-0.01002335,0.01584567,0.002618552
0.254858,0.643689,0.7374678,0.009413051,0.006382083,-0.005410925,-0.009185835,0.02079599,0.001277276
0.2545015,0.6436494,0.736151,0.008921855,0.006294056,-0.00665303,-0.009371744,0.02033825,0.002193627
0.2540135,0.640785,0.7349242,0.008292317,0.003377254,-0.007798218,-0.006107324,0.01968531,0.003080783
0.2567125,0.6402462,0.7303673,0.01084328,0.002782334,-0.01226704,-0.004217969,0.01651301,0.000625459
0.2577346,0.6433123,0.7281968,0.01171138,0.005788617,-0.01434317,-0.005275013,0.01526863,-0.0001156588
0.2543612,0.6470788,0.7324682,0.008178113,0.009491965,-0.009971129,-0.007874789,0.01696459,0.0007182226
0.2542654,0.6471428,0.7353263,0.007917201,0.009489423,-0.007006307,-0.009661607,0.01338285,0.001535789
0.2570085,0.6442539,0.7359391,0.01049002,0.006530552,-0.006280912,-0.007848249,0.01506313,0.003369271
0.2585346,0.6421482,0.7413703,0.01184124,0.004351533,-0.000731672,-0.006864479,0.02655003,0.004513946
0.2557532,0.6386344,0.7435588,0.008880569,0.0007612574,0.001579795,-0.005612044,0.03825722,0.004676322
0.2507788,0.6383553,0.7412907,0.003722852,0.0004028569,-0.0005611771,-0.00648221,0.03531657,0.004209974
0.2514527,0.6425118,0.7410753,0.004209871,0.004477473,-0.0006459592,-0.01607427,0.02855425,0.005369307
0.2546423,0.6432638,0.7361838,0.007209335,0.005145289,-0.005403777,-0.02351365,0.03368394,0.007403532
0.2559883,0.6412669,0.7356772,0.008362644,0.003062164,-0.005774155,-0.01959467,0.03008519,0.008330909
0.2560325,0.6396259,0.7439179,0.008211796,0.001333083,0.002605054,-0.01148533,0.02492668,0.008722011
0.2546069,0.6396346,0.7466696,0.00658916,0.001251997,0.005496909,-0.006818061,0.02794511,0.007139263
0.2539258,0.639128,0.7437316,0.005709284,0.0006543845,0.002700135,-0.007236427,0.02169478,0.007175346
0.2525459,0.6365505,0.7366116,0.00412931,-0.002015225,-0.004278092,-0.008639745,0.01969771,0.007542369
0.2520571,0.6372507,0.7308159,0.003439411,-0.001407786,-0.009931976,-0.007900041,0.02564309,0.003973257
0.2532234,0.6380907,0.7313175,0.004404041,-0.0006608647,-0.009288537,-0.008631759,0.02805182,0.002780453
0.2506938,0.6361676,0.7353362,0.001672639,-0.002677094,-0.005127928,-0.01037514,0.02799333,0.005349113
0.2491805,0.636903,0.7412309,-4.230783e-05,-0.002034351,0.0009087438,-0.01303323,0.02280777,0.007151414
0.2505332,0.637891,0.7392235,0.001109573,-0.001138295,-0.0009569766,-0.01594122,0.02106356,0.005868377
0.2507984,0.6374171,0.7361865,0.001175119,-0.001703064,-0.00385278,-0.008140588,0.02437392,0.003006085
0.2514992,0.6378861,0.738911,0.001677888,-0.001323845,-0.0009879088,-0.001033125,0.03014488,0.001235609
0.2506323,0.6397378,0.738162,0.0006148915,0.0004396681,-0.00159747,-0.008255313,0.03860819,0.0003840913
0.2488846,0.6435956,0.7406942,-0.001326541,0.004210836,0.001072766,-0.01174446,0.03484284,0.001792122
0.2474801,0.6451025,0.7424209,-0.002922144,0.005632701,0.002936045,-0.01057502,0.02958147,0.003514517
0.2450875,0.6419383,0.7372076,-0.005502772,0.002385024,-0.002142465,-0.01264684,0.0372889,0.004710532
0.2454118,0.6381782,0.7356284,-0.005362792,-0.001457077,-0.003589108,-0.01207569,0.04089318,0.005477668
0.2465081,0.6367102,0.7376442,-0.004446678,-0.00300555,-0.001442875,-0.01151281,0.03926434,0.004089657
0.2455106,0.6370239,0.7398872,-0.005619828,-0.002770583,0.0009283015,-0.01111387,0.03892145,0.004538702
0.2457298,0.6351235,0.7394597,-0.005571294,-0.004747811,0.0006264717,-0.01106377,0.03600607,0.004257857
0.2461379,0.6322549,0.7399565,-0.005328448,-0.007690904,0.001246358,-0.01316618,0.03520688,0.002698673
0.2452269,0.6332567,0.7442836,-0.006398972,-0.006760924,0.005693609,-0.01392769,0.03598563,0.003061048
0.244465,0.6349334,0.7459216,-0.007314312,-0.005153163,0.007448604,-0.01272388,0.03464417,0.0007923491
0.2444109,0.6345686,0.7502777,-0.007515495,-0.005583686,0.0119181,-0.01045964,0.03338841,0.001869345
0.2459767,0.6347771,0.7547484,-0.006090052,-0.005437371,0.01649809,-0.009405385,0.03023821,0.004687065
0.2464346,0.6350398,0.7509066,-0.005765604,-0.005233233,0.01276068,-0.009970808,0.02692312,0.001462207
0.2440971,0.635367,0.7468343,-0.008229487,-0.004960699,0.008787221,-0.01007216,0.02761371,0.001986218
0.2433345,0.6360434,0.7455118,-0.009110993,-0.004335047,0.007557764,-0.008386407,0.0288475,0.002285072
0.2431198,0.6335066,0.7462354,-0.009437193,-0.006918419,0.008368113,-0.007728026,0.02763137,-0.00349296
0.2425946,0.6307863,0.7488373,-0.01006598,-0.009681189,0.01105039,-0.01023665,0.02691973,-0.005336928
0.2435032,0.6315779,0.7506871,-0.009253071,-0.008927558,0.01297381,-0.01139535,0.02756946,-0.003431197
0.2423896,0.6301142,0.7520178,-0.01045412,-0.0104245,0.01437121,-0.01058321,0.02720145,0.0001499434
0.2401547,0.62558,0.7465441,-0.01276805,-0.01498696,0.008956814,-0.008236063,0.02595236,0.002263245
0.2386541,0.6250789,0.7391252,-0.0143392,-0.01551103,0.001589756,-0.005383681,0.02044347,0.0002695741
0.2390977,0.6306265,0.744734,-0.01395728,-0.009980648,0.007242798,-0.004694573,0.01240809,-6.154832e-05
0.2413367,0.6351992,0.7503863,-0.01177086,-0.00541907,0.01293215,-0.004466161,0.01107379,-0.0009749277
0.2401565,0.6336651,0.7462909,-0.01299453,-0.006958394,0.008866278,-0.00484511,0.01161955,-0.002594228
0.239697,0.6322428,0.7483857,-0.01348807,-0.008379916,0.01098322,-0.004928215,0.0100272,-0.001296987
0.2410183,0.6341511,0.7540455,-0.01219143,-0.0064649,0.01665765,-0.00461647,0.01203926,-0.0002504012
0.2396273,0.6347032,0.7534028,-0.01359773,-0.005900248,0.01602177,-0.004889262,0.01222557,0.000694029
0.2390707,0.6362186,0.7511847,-0.01415997,-0.00436659,0.01380251,-0.004320918,0.007807479,0.0006124641
0.2371342,0.6385092,0.7502429,-0.01609271,-0.002052308,0.01285135,-0.004362107,0.006283655,-0.001803849
0.2350165,0.6362326,0.7511088,-0.01819692,-0.004299979,0.01369968,-0.003507283,0.004006971,-0.002250333
0.2368262,0.6339244,0.750383,-0.01636408,-0.006574249,0.01294799,-1.27324e-05,-0.002642042,-0.0007096144
0.2380592,0.6322923,0.7508142,-0.01509803,-0.008167708,0.01334496,0.003308716,-0.001650636,-0.001875059
0.239109,0.6294368,0.7539626,-0.01400526,-0.0109799,0.0164508,0.003419074,0.007546992,-0.003362716
0.2393723,0.6305702,0.7508401,-0.01368934,-0.009798422,0.01327744,0.003157897,0.007907135,-0.0009391767
0.2381519,0.6319781,0.7486705,-0.01484735,-0.008337704,0.01104864,0.00538557,-0.002548914,0.002224431
0.23823,0.6312866,0.7509517,-0.0146974,-0.008971581,0.01326234,0.002336392,-0.01208152,0.003479777
0.2373516,0.6334268,0.7506485,-0.01549453,-0.006769124,0.01288369,-0.002076213,-0.01585095,0.003066178
0.2370866,0.6362651,0.7514132,-0.0156689,-0.003864001,0.01356492,0.00142862,-0.01530163,0.003219802
0.2381691,0.6358504,0.7508329,-0.01448677,-0.004207622,0.01289331,0.006252673,-0.01511094,0.002306721
0.2383358,0.6312899,0.7492227,-0.01421137,-0.008692884,0.01118407,0.009529042,-0.0175511,-0.002608577
0.2399802,0.6276538,0.7499251,-0.01244949,-0.01224984,0.01177999,0.00893416,-0.02339866,-0.005633159
0.2412703,0.6295749,0.7482584,-0.01103351,-0.01024563,0.009999642,0.005107195,-0.03052709,-0.004376156
0.2417033,0.6325513,0.7465287,-0.01046639,-0.007182201,0.008149235,0.005410822,-0.02938792,-0.000837457
0.2439907,0.633715,0.7471421,-0.008037267,-0.005927564,0.008635379,0.005059675,-0.02604124,0.001310963
0.2452177,0.6336269,0.7470072,-0.006661171,-0.005921039,0.008367016,0.004314204,-0.02927737,-7.798538e-05
0.2455786,0.6333468,0.744053,-0.006144468,-0.006103028,0.00527356,0.007033926,-0.0299255,-0.001093809
0.2455072,0.6351756,0.7403097,-0.006053981,-0.004172919,0.001385678,0.009064009,-0.03106393,-0.003686708
0.2439652,0.6363098,0.7403945,-0.007428451,-0.002934271,0.001321106,0.01342474,-0.03385342,-0.00630254
0.245167,0.6334144,0.7440567,-0.006054146,-0.005722601,0.004829915,0.01963664,-0.03265655,-0.005652145
0.245974,0.6311791,0.7467033,-0.005070053,-0.007848207,0.007319466,0.02119369,-0.03610034,-0.005937599
0.2415139,0.6340172,0.7442926,-0.00934897,-0.004898234,0.004748578,0.01666716,-0.03841378,-0.007473517
0.2373449,0.6376202,0.7420689,-0.01333318,-0.001181179,0.002361932,0.01124457,-0.03643505,-0.00803147
0.237522,0.6378594,0.7451669,-0.01296785,-0.0008261319,0.005294699,0.01077332,-0.03786614,-0.005553677
0.2413945,0.6373121,0.746769,-0.008903818,-0.001256117,0.006729531,0.01112001,-0.03662001,-0.00335711
0.2446929,0.6371836,0.7458687,-0.005410763,-0.001266238,0.00566042,0.01112584,-0.0379555,-0.004561983
0.2448709,0.6357152,0.7475192,-0.005035323,-0.002615455,0.007140773,0.01293166,-0.0419928,-0.004891094
0.2461892,0.6341743,0.7493487,-0.003517336,-0.004036668,0.008798887,0.01416158,-0.04169145,-0.004032441
0.2482234,0.6345172,0.748544,-0.00128172,-0.003573786,0.007821916,0.01511287,-0.0453198,-0.004159841
0.2488732,0.6354687,0.7462222,-0.0004292881,-0.002502277,0.005326896,0.01525177,-0.04655198,-0.005840194
0.249756,0.6363441,0.7418565,0.0006567637,-0.001506878,0.0007874619,0.01602016,-0.04370764,-0.006755866
0.2499387,0.6379264,0.7373569,0.001042759,0.0001951371,-0.003886258,0.0171611,-0.04428143,-0.00405275
0.2491193,0.6379618,0.7391197,0.0004260499,0.0003496443,-0.00229713,0.01699176,-0.04150015,-0.001492753
0.2483644,0.6368923,0.74194,-0.000127276,-0.0006015792,0.0003501979,0.01847028,-0.04102552,-0.003692731
0.2485904,0.6382744,0.7394272,0.0002987036,0.0008977957,-0.002334135,0.0197804,-0.04724884,-0.00815959
0.2498023,0.640377,0.7390102,0.001708559,0.00311615,-0.002920944,0.02107387,-0.05127062,-0.00944136
0.2501484,0.6420712,0.7399938,0.002250089,0.004924457,-0.002104869,0.02344728,-0.05049111,-0.006761642
0.2500085,0.6428781,0.7407581,0.002302773,0.005843407,-0.001505488,0.0242062,-0.04901896,-0.002781729
0.2500059,0.6441316,0.7443195,0.002489305,0.007206409,0.001894056,0.02451559,-0.05325607,-0.003336246
0.2502733,0.6489833,0.7427913,0.002942004,0.0121646,0.000207188,0.02450732,-0.05676602,-0.007753495
0.2522504,0.6488489,0.7383313,0.005100349,0.01213315,-0.004408143,0.02276247,-0.05463188,-0.006451344
0.2550589,0.644096,0.7358744,0.008085436,0.007479016,-0.007016616,0.01815207,-0.05269697,-0.001734455
0.2564533,0.6449405,0.7307624,0.009651436,0.00841767,-0.01227596,0.01444508,-0.0486321,0.0001247155
0.2563539,0.6432202,0.7300655,0.00971802,0.006786592,-0.01311553,0.01584643,-0.04164419,-0.0004941903
0.2568892,0.6385853,0.7356657,0.01041314,0.002235644,-0.007652654,0.01639505,-0.03550983,-0.002823021
0.257231,0.6411708,0.7365599,0.01090803,0.00489975,-0.006889855,0.01330617,-0.03435261,-0.003221532
0.2556958,0.6438474,0.7335019,0.009518829,0.007649643,-0.01007295,0.009808271,-0.03230783,-0.002268234
0.2552907,0.6426799,0.7329562,0.009252286,0.006549778,-0.01073723,0.007469666,-0.02061991,-0.000646639
0.2566113,0.6427116,0.7315042,0.01070352,0.006643626,-0.01230084,0.007085964,-0.01206546,0.002838427
0.2598934,0.6415199,0.7305186,0.01410801,0.005508263,-0.0133907,0.007719835,-0.008528903,0.001778047
0.263616,0.6394187,0.7333682,0.01794447,0.003457625,-0.01063766,0.006780014,0.006291492,-0.003905001
0.2603112,0.6404331,0.7319621,0.01474444,0.004516908,-0.01213215,4.774235e-05,0.0307537,-0.005616023
0.2532583,0.6423105,0.731796,0.00778683,0.006433511,-0.0123784,-0.01072957,0.04189747,-0.002145102
0.250063,0.6451398,0.7350151,0.004677138,0.009296246,-0.00923083,-0.01776499,0.03127017,-0.0002182804
0.2499183,0.6485528,0.7325228,0.004608625,0.01273698,-0.01178604,-0.01939874,0.02910041,-0.00175874
0.2530117,0.6471674,0.7334972,0.007768825,0.01137333,-0.01086567,-0.01754742,0.04292209,-0.001388052
