accx,accy,accz,body_accx,body_accy,body_accz,body_gyrox,body_gyroy,body_gyroz
0.279494,0.4445977,0.8536392,0.01224553,-0.04256965,0.02577511,-0.08981526,-0.2125428,0.1333043
0.2770254,0.4443456,0.8604129,0.008832586,-0.04290344,0.03305824,-0.08502381,-0.2199122,0.1343258
0.2746455,0.443204,0.8620132,0.005524025,-0.04406362,0.03511771,-0.0784627,-0.2178973,0.1333156
0.2762586,0.4429631,0.8558263,0.006225136,-0.0442623,0.02934038,-0.0742771,-0.2143958,0.1359757
0.2778041,0.4430886,0.8526828,0.00687627,-0.04403602,0.02655782,-0.06971159,-0.2183202,0.1350976
0.2801085,0.4427562,0.8541017,0.008304863,-0.04421137,0.02829002,-0.06539489,-0.2175096,0.1299192
0.2820711,0.4421808,0.8548478,0.009410764,-0.0445757,0.02930305,-0.06267101,-0.217445,0.1275084
0.2818606,0.4403375,0.8542769,0.008363257,-0.04615598,0.02895368,-0.05784872,-0.216317,0.1287989
0.2811586,0.4399373,0.8567605,0.006844255,-0.04624348,0.03161465,-0.05692327,-0.2138683,0.1309309
0.2807732,0.4402965,0.8591978,0.005662366,-0.04552397,0.03418634,-0.05962227,-0.2160655,0.1274774
0.2841609,0.4391411,0.8559346,0.00827438,-0.04627345,0.03101563,-0.05768861,-0.2114692,0.1231654
0.2874649,0.4377374,0.8515201,0.01082374,-0.04722781,0.02665287,-0.05778189,-0.204055,0.1201425
0.2855037,0.4372945,0.848083,0.008129013,-0.04717977,0.0232282,-0.05793291,-0.1961162,0.1130747
0.281751,0.439201,0.8435526,0.003663945,-0.04474282,0.01867224,-0.05837492,-0.1882059,0.109754
0.278913,0.4428707,0.8413309,0.000134868,-0.04050503,0.01638885,-0.06595222,-0.1921592,0.1117855
0.2790948,0.4452679,0.8457644,-0.0003529379,-0.03750419,0.02072636,-0.06706953,-0.1930606,0.1124762
0.2822616,0.4439041,0.8509981,0.002166033,-0.03823108,0.02583154,-0.05533504,-0.1785013,0.1124588
0.2834773,0.4422032,0.8496112,0.002755721,-0.0392639,0.02428504,-0.04800018,-0.1627281,0.113066
0.2797971,0.4444135,0.8497663,-0.001528571,-0.03635654,0.02425101,-0.06654719,-0.1602029,0.1147964
0.2768308,0.4464991,0.8554163,-0.005077021,-0.03354693,0.02968358,-0.08833995,-0.1743264,0.1170113
0.2803114,0.4483416,0.8590452,-0.002156423,-0.03095563,0.03306819,-0.07552628,-0.1852518,0.1180273
0.2832032,0.4507378,0.8587461,0.0001974893,-0.02778793,0.03249875,-0.06196817,-0.1760322,0.1148706
0.2795806,0.4483748,0.8542265,-0.003940759,-0.02935916,0.02768397,-0.06638681,-0.1641417,0.1095405
0.2762068,0.4459817,0.8514013,-0.007808227,-0.03094213,0.02453965,-0.06242295,-0.1634966,0.1091024
0.2770156,0.4477378,0.8525883,-0.007470971,-0.02835964,0.02538496,-0.06334854,-0.164635,0.1110653
0.279895,0.4482081,0.8524775,-0.005040994,-0.02704873,0.02491097,-0.06641886,-0.1652582,0.1119575
0.2834358,0.4472409,0.8556044,-0.001927554,-0.02716277,0.02765465,-0.06334519,-0.1640145,0.1113956
0.2844436,0.4451416,0.8567163,-0.001325323,-0.02839844,0.02836431,-0.07099782,-0.1599117,0.1085416
0.285116,0.4417838,0.8532774,-0.001036929,-0.03088366,0.02450525,-0.07555169,-0.1598206,0.1065244
0.2868414,0.4419937,0.8529433,0.0003253802,-0.02979372,0.02373422,-0.0728843,-0.1541154,0.1033481
0.2841164,0.4464068,0.8462474,-0.002742185,-0.02449474,0.0165857,-0.07415088,-0.1446223,0.1011845
0.2824121,0.4497769,0.8398623,-0.004769051,-0.02023416,0.009733787,-0.07580724,-0.1429167,0.102941
0.2847872,0.4481803,0.8477544,-0.002696859,-0.02093737,0.01714631,-0.07573681,-0.1378344,0.1021291
0.2848989,0.4459752,0.8545503,-0.002868833,-0.02224779,0.02345142,-0.07348773,-0.1321267,0.102217
0.2836024,0.4475925,0.8515834,-0.004430215,-0.01973596,0.0199837,-0.07625877,-0.1301511,0.1024426
0.2794079,0.4481853,0.8507218,-0.008871233,-0.01824994,0.01861215,-0.08066339,-0.1271354,0.09918324
0.2746022,0.449215,0.8542622,-0.01390545,-0.01633004,0.02163463,-0.0799887,-0.1299451,0.09868854
0.2759722,0.4521394,0.8528263,-0.01274608,-0.01251944,0.01967372,-0.07568758,-0.1317052,0.09853893
0.2772703,0.4484473,0.8509911,-0.01164081,-0.01533105,0.01730739,-0.06887318,-0.1265086,0.1020489
0.2749371,0.4427983,0.8503909,-0.01414903,-0.02010617,0.01617089,-0.07206552,-0.1229833,0.1075551
0.275292,0.4424754,0.8455068,-0.01395157,-0.01956312,0.01074627,-0.0758443,-0.1244009,0.1039352
0.279142,0.4417216,0.8466534,-0.01024159,-0.01945946,0.01134928,-0.0708761,-0.1277051,0.1013044
0.2823434,0.4387877,0.8487529,-0.007163046,-0.02154522,0.01290311,-0.07185086,-0.12704,0.1021616
0.2826193,0.4371108,0.8459691,-0.006993275,-0.02238377,0.009572691,-0.07268063,-0.1216848,0.09857705
0.2814056,0.4399252,0.8481923,-0.008296931,-0.01874142,0.01124923,-0.0721195,-0.1161898,0.09560074
0.2819133,0.4430316,0.8505768,-0.007863529,-0.01481803,0.01308802,-0.0742183,-0.1151398,0.09333827
0.2823765,0.4405994,0.8532945,-0.00745953,-0.01644448,0.01526184,-0.07238039,-0.1134284,0.08985498
0.2814919,0.4395686,0.8553568,-0.008388751,-0.01668154,0.01678253,-0.07168829,-0.107241,0.08842559
0.2821319,0.4417258,0.8515713,-0.007779234,-0.01374295,0.0124583,-0.0714476,-0.1059775,0.0882107
0.2813749,0.44183,0.8516647,-0.008553251,-0.01287026,0.01201637,-0.06931541,-0.1066628,0.08613868
0.2780179,0.4414352,0.8563939,-0.01191422,-0.01250996,0.01621424,-0.06882126,-0.1049758,0.08470352
0.2758371,0.4407907,0.8601932,-0.0140863,-0.01241315,0.01948655,-0.06666552,-0.1040122,0.08536974
0.276832,0.4395894,0.8593004,-0.01307038,-0.01288722,0.01807138,-0.05989465,-0.09979845,0.08457084
0.2797515,0.4384813,0.8539256,-0.01011774,-0.01328258,0.01217892,-0.05330269,-0.09455363,0.08530687
0.2793446,0.4370764,0.8518162,-0.01047983,-0.0139894,0.009556994,-0.0553692,-0.09087507,0.08769377
0.2786204,0.4379282,0.8511269,-0.01114791,-0.01245448,0.008360727,-0.06088457,-0.09165681,0.08636858
0.2801119,0.4418405,0.8525652,-0.009589452,-0.007873899,0.009298024,-0.06063045,-0.09587385,0.08468574
0.2805938,0.4457653,0.8601134,-0.009030157,-0.00329613,0.01635177,-0.05505252,-0.09431395,0.08272824
0.2821388,0.4459927,0.8659021,-0.00739782,-0.002431418,0.02165256,-0.04900656,-0.09321333,0.07641598
0.2803128,0.4418531,0.8643059,-0.00912716,-0.005949561,0.01957506,-0.05373299,-0.091171,0.07186486
0.2759892,0.4388441,0.8597065,-0.01334508,-0.008353487,0.01450084,-0.0604249,-0.08412051,0.07218853
0.2765526,0.4395301,0.859343,-0.01266747,-0.007078845,0.01366885,-0.05547519,-0.08539298,0.07241463
0.2783047,0.4398735,0.8594141,-0.01079293,-0.00616333,0.01327783,-0.05439796,-0.08747585,0.07491057
0.2794313,0.4391786,0.8552747,-0.009535967,-0.006302619,0.008682988,-0.05687709,-0.08565161,0.07927266
0.2786542,0.4387606,0.852101,-0.01017528,-0.006181453,0.005060492,-0.054155,-0.0892913,0.07733879
0.2770513,0.4377974,0.8520673,-0.01163314,-0.006621985,0.004585273,-0.05559864,-0.08980261,0.07241673
0.2789479,0.4372691,0.8550541,-0.009584806,-0.006643939,0.007137951,-0.05640615,-0.08728201,0.06943234
0.2796673,0.4375427,0.8547558,-0.008707224,-0.005880144,0.006413529,-0.05441277,-0.08339128,0.06603544
0.2788649,0.4371495,0.8517634,-0.009345547,-0.005799332,0.003003122,-0.05488978,-0.07485899,0.06478315
0.2792894,0.4360773,0.8526723,-0.008751341,-0.006413324,0.00350248,-0.0540335,-0.07117056,0.06424744
0.2789538,0.4354239,0.8518717,-0.008912092,-0.006624294,0.002301081,-0.05422616,-0.06776902,0.06208238
0.2782663,0.4354813,0.8526736,-0.009420003,-0.006139792,0.002711379,-0.05336802,-0.06410191,0.06225999
0.277366,0.4349921,0.8556675,-0.01013627,-0.006217058,0.005322978,-0.04901675,-0.0701186,0.06157293
0.2768873,0.4361822,0.8580532,-0.01042692,-0.004629827,0.007335845,-0.04597435,-0.07447039,0.05993411
0.2771225,0.4397944,0.8640443,-0.009999773,-0.0006350633,0.01296368,-0.04190861,-0.07239433,0.06083909
0.2768748,0.4406887,0.8641278,-0.01005209,0.0006272092,0.0126932,-0.03924024,-0.06969393,0.06037549
0.2764289,0.4393098,0.8611749,-0.01029934,-0.0003979612,0.009395208,-0.04182788,-0.06716052,0.0592225
0.2762718,0.4359497,0.8605595,-0.0102548,-0.003418704,0.008443518,-0.04303332,-0.06860924,0.05770673
0.2775839,0.4318731,0.8560621,-0.008738231,-0.007169964,0.003618324,-0.04204652,-0.06960031,0.05553692
0.2792737,0.433917,0.8576674,-0.006841533,-0.00481444,0.004904339,-0.04430211,-0.06726105,0.05579469
0.2803394,0.436216,0.8652394,-0.00556685,-0.002217048,0.01216549,-0.045652,-0.06533715,0.05615751
0.2818283,0.4349645,0.8683152,-0.003867271,-0.003183202,0.01493867,-0.04087661,-0.06178683,0.05538824
0.2821918,0.4363243,0.8638318,-0.003291772,-0.001550593,0.01016049,-0.03529376,-0.05820202,0.05296504
0.2811321,0.4366208,0.8564587,-0.004138748,-0.0009936085,0.002500177,-0.03317169,-0.05702808,0.05002499
0.2784035,0.4353353,0.8581828,-0.006654204,-0.002030757,0.003944335,-0.03289702,-0.05628312,0.04847867
0.2752553,0.4355144,0.8577769,-0.009589201,-0.001615038,0.003265942,-0.03402181,-0.05569618,0.0460218
0.2760128,0.4352153,0.850403,-0.008618608,-0.001689062,-0.004372926,-0.03496697,-0.05719562,0.0458398
0.2775566,0.4379434,0.8511687,-0.006862074,0.001252845,-0.003864527,-0.03156378,-0.05872252,0.04721503
0.2771961,0.4420003,0.8521411,-0.007010251,0.005512621,-0.003141461,-0.02719153,-0.05556449,0.04661995
0.2773037,0.4413755,0.8518657,-0.006690982,0.005079752,-0.003657893,-0.02773691,-0.05217046,0.04716166
0.2758465,0.4405042,0.8559478,-0.007937255,0.004389538,0.0001916302,-0.02869602,-0.05306989,0.04715089
0.2743704,0.4392048,0.8575374,-0.009203291,0.003260271,0.001557345,-0.03019244,-0.05663201,0.04521698
0.2766052,0.4337241,0.8590645,-0.006759522,-0.002060912,0.00286902,-0.03227326,-0.05903723,0.04065832
0.2814596,0.4319459,0.8593531,-0.001697245,-0.00368992,0.002950639,-0.02350453,-0.04959288,0.03558096
0.2851409,0.4341218,0.8579814,0.002190512,-0.001374809,0.001380158,-0.01552955,-0.031931,0.03741948
0.2822886,0.43326,0.8570671,-0.0004571731,-0.002106765,0.0002751585,-0.02865572,-0.02838766,0.03919137
0.2794806,0.433013,0.8547633,-0.003062898,-0.002233037,-0.00221137,-0.04192791,-0.04340306,0.03484948
0.2812448,0.4342565,0.8572872,-0.001098962,-0.0008773541,0.0001377337,-0.03480817,-0.0568239,0.03293519
0.2793664,0.4361098,0.8591335,-0.002780517,0.001079875,0.001817155,-0.02524763,-0.05181218,0.03406587
0.2779615,0.4401777,0.8550205,-0.00399152,0.005243795,-0.00245503,-0.02239976,-0.03817862,0.0343818
0.2771875,0.4408688,0.8535804,-0.004574919,0.006023148,-0.004046697,-0.02152801,-0.03378329,0.0351622
0.2739869,0.4379217,0.8549549,-0.007588247,0.003156567,-0.002816075,-0.0241655,-0.0380812,0.03624829
0.2768942,0.4373589,0.8561807,-0.004496811,0.002666686,-0.001726528,-0.02280201,-0.04531784,0.03788994
0.2803173,0.4393042,0.8555862,-0.0008928683,0.00467757,-0.002449691,-0.0197232,-0.04651309,0.03943243
0.2807188,0.4409911,0.8548867,-0.0003139105,0.006422758,-0.003270353,-0.0206673,-0.04148087,0.03628278
0.2825732,0.440411,0.8551908,0.00171438,0.005893794,-0.003079991,-0.01841518,-0.04225819,0.03152098
0.2821018,0.4397934,0.8536319,0.001413195,0.005320204,-0.004745288,-0.01870347,-0.04347256,0.031396
0.2813692,0.4404435,0.8545099,0.000846678,0.006007401,-0.003966251,-0.02102269,-0.04316078,0.03043991
0.2813133,0.4390038,0.8573818,0.0009525667,0.00459786,-0.001186186,-0.02061772,-0.04347079,0.02767488
0.2802236,0.4360789,0.859025,2.018099e-05,0.001696457,0.000372433,-0.01933523,-0.0411452,0.02628606
0.2804037,0.4328704,0.8606654,0.0003530901,-0.001494979,0.001934985,-0.007112607,-0.04414529,0.0212138
0.2808008,0.4300568,0.8610835,0.0008982603,-0.00429758,0.002281894,0.004244206,-0.04568168,0.01689924
0.2804704,0.4302853,0.861406,0.0007111253,-0.004063476,0.00253929,-0.001810752,-0.0390607,0.01755558
0.2804628,0.4309472,0.8610843,0.0008419303,-0.003400971,0.002158173,-0.007992559,-0.03088409,0.01961545
0.2799951,0.4312127,0.8607731,0.0005077214,-0.003139189,0.001793034,-0.003419057,-0.0252089,0.02477488
0.2768939,0.4354174,0.8619255,-0.002465004,0.00105796,0.002896501,0.003037871,-0.03119222,0.02696449
0.2745901,0.4419866,0.8626148,-0.004645131,0.007615968,0.003541496,0.006873781,-0.03760101,0.02469628
0.2782738,0.4474899,0.8644003,-0.0008425131,0.01310453,0.005287044,0.006506617,-0.03325723,0.02489387
0.2825068,0.4508155,0.8629756,0.003504826,0.0164117,0.00382616,0.003306457,-0.03300225,0.02329123
0.2815659,0.4484915,0.8552208,0.002673557,0.01406522,-0.00396125,0.007482833,-0.03684041,0.02117485
0.2813891,0.4432872,0.8475232,0.002601749,0.008833841,-0.01168807,0.01083852,-0.03502479,0.02192767
0.2839226,0.4437219,0.8452717,0.005235336,0.009236804,-0.01396519,0.001271021,-0.02910782,0.02132409
0.2843458,0.4455594,0.8491695,0.00575372,0.01103783,-0.01008899,-0.009679299,-0.02268499,0.01991305
0.2856594,0.4438281,0.8530589,0.007157375,0.009265211,-0.006216883,-0.01776278,-0.01891301,0.01880372
0.2867612,0.4440203,0.8555768,0.008343779,0.009411079,-0.003711866,-0.01800831,-0.01925925,0.01870683
0.2841362,0.4435111,0.8543853,0.005797995,0.008850717,-0.004911686,-0.01141176,-0.01968883,0.01883897
0.2818803,0.4420034,0.8494473,0.003615429,0.007287033,-0.009853508,-0.01059748,-0.01846006,0.01739204
0.2800519,0.4422385,0.8532673,0.001854672,0.007461318,-0.006032773,-0.01028954,-0.01980366,0.01624559
0.2809252,0.4360364,0.8571608,0.002789983,0.001193831,-0.002134123,-0.01163746,-0.02042859,0.01599412
0.282406,0.4298947,0.8544222,0.004327172,-0.00501761,-0.00486315,-0.01117877,-0.01758463,0.01696481
0.2779217,0.4352502,0.8560261,-0.0001061816,0.0002644523,-0.003245279,-0.0009858979,-0.01700231,0.01743487
0.2750676,0.4399699,0.8557908,-0.002914711,0.00490741,-0.003462636,0.003235326,-0.01823179,0.01621677
0.2766819,0.4373836,0.8548409,-0.001259794,0.002241571,-0.004390464,-0.002257802,-0.01869553,0.01706375
0.2790419,0.438801,0.8563697,0.001136237,0.003576864,-0.00283587,-0.005214606,-0.01867256,0.01873217
0.2850441,0.4435925,0.8549916,0.007169882,0.00828376,-0.004184564,-0.0009363179,-0.0160898,0.0175779
0.2910311,0.4433918,0.8555074,0.01318396,0.007996237,-0.003635839,0.006594748,-0.008505204,0.01368943
0.28908,0.4422771,0.8536948,0.0112552,0.006792413,-0.005412173,0.01100105,0.003262131,0.009498459
0.283609,0.441618,0.8471262,0.005801486,0.006041943,-0.01194116,0.003899288,0.005987324,0.008426675
0.2832143,0.4395025,0.8434752,0.005419084,0.003833061,-0.01554918,-0.01004773,-0.01090788,0.007818662
0.2844216,0.440135,0.8482292,0.006633614,0.004370084,-0.01074849,-0.007785949,-0.02482815,0.006544678
0.2856332,0.440788,0.8606496,0.007847337,0.004925758,0.001722443,0.003850474,-0.01568847,0.008390503
0.2861318,0.4403989,0.8655862,0.008342958,0.004437702,0.006713213,0.007238701,-0.005177114,0.009276261
0.2801762,0.443108,0.85804,0.002379337,0.007046338,-0.0007756519,0.004053883,-0.007830646,0.008117297
0.2733325,0.4455102,0.8502857,-0.004477276,0.009346725,-0.008469919,-0.003787349,-0.01186577,0.01008409
0.2715129,0.4456717,0.8503115,-0.006314316,0.009404822,-0.008381508,-0.004243873,-0.01564431,0.01313036
0.276188,0.4465287,0.8528922,-0.001660526,0.01015686,-0.005735645,-0.003627032,-0.01531578,0.01459612
0.2827612,0.4478228,0.8514582,0.00488799,0.01134437,-0.007101946,-0.007559805,-0.009431815,0.01429348
0.2833782,0.4470813,0.8523097,0.005477106,0.01049456,-0.006180214,-0.00242212,-0.01012826,0.01278847
0.2841648,0.4457292,0.8541161,0.006232736,0.009032175,-0.004301179,-0.002646394,-0.01103877,0.01045255
0.2855661,0.4448889,0.8553629,0.007599903,0.008079587,-0.002979238,-0.005170895,-0.00855853,0.006933774
0.2850129,0.4426802,0.8576255,0.007009562,0.005756591,-0.0006394515,0.0003765951,-0.00601864,0.006524825
0.2855221,0.4413037,0.8521934,0.007478466,0.004264015,-0.005992392,-0.002212419,0.002035475,0.009984896
0.2834441,0.4414629,0.8478789,0.005356922,0.004305446,-0.01022588,-0.007922806,0.006042874,0.01317285
0.2815634,0.4413844,0.8508981,0.003429596,0.004107737,-0.007123954,-0.01654313,0.008919447,0.01205672
0.281032,0.4404709,0.8520488,0.002848454,0.003073716,-0.005888606,-0.02344817,0.01296338,0.005736344
0.2789761,0.4398129,0.8539037,0.0007400717,0.002294148,-0.003947229,-0.01168809,0.004000939,0.002852967
0.2782487,0.4430188,0.8575779,-4.242521e-05,0.005377794,-0.0001848581,-0.002724248,-0.002875708,0.005751859
0.2786473,0.4465649,0.86083,0.0002988885,0.008801048,0.003156911,-0.007466053,0.0007102463,0.008811412
0.280224,0.4475773,0.8608847,0.001816209,0.009690027,0.003302264,-0.00931729,0.00208855,0.0103514
0.2813565,0.4471812,0.8581189,0.002887716,0.009169852,0.0006277023,-0.008754404,0.001808008,0.009674719
0.2811495,0.444114,0.8588577,0.002618102,0.005977814,0.001457937,-0.01110431,0.003205412,0.01001275
0.2821897,0.4432747,0.8588195,0.003594365,0.005013071,0.001511042,-0.01377719,0.005061652,0.01048243
0.2822259,0.4447773,0.8550895,0.003565225,0.006389499,-0.00212819,-0.01292349,0.005270001,0.009609329
0.2815726,0.4443855,0.8517952,0.002845556,0.005871079,-0.005332282,-0.01178572,0.008154961,0.0107527
0.2821275,0.4435143,0.8496654,0.003332903,0.004872699,-0.007372495,-0.01219933,0.01135986,0.01022095
0.2819866,0.4426375,0.8479684,0.003123417,0.003868467,-0.008980353,-0.00940416,0.009745651,0.00883218
0.2814279,0.4431007,0.8471583,0.002495309,0.00420394,-0.009701756,-0.006625123,0.008780641,0.008027276
0.280305,0.4432814,0.8499098,0.001302268,0.004256963,-0.006861596,-0.007553597,0.007475373,0.004488723
0.2789209,0.442735,0.8525066,-0.0001526176,0.003582946,-0.004176013,-0.01052373,0.007754325,0.003465712
0.2807,0.4433229,0.8517474,0.001555295,0.004043354,-0.004846314,-0.01273699,0.008880037,0.005728439
0.2828202,0.4431108,0.852925,0.003604005,0.00370425,-0.003579666,-0.009490036,0.006664351,0.007997669
0.2809726,0.4442604,0.8558711,0.001684719,0.004727283,-0.0005444282,-0.00168556,0.007250613,0.01092232
0.2796462,0.4466798,0.8555507,0.0002867009,0.007020631,-0.0007756949,0.005295004,0.007758896,0.01111038
0.2798316,0.4471123,0.8523635,0.0004004497,0.007327648,-0.003874096,0.008147709,0.005686817,0.009346823
0.2780296,0.4443818,0.8510779,-0.001472941,0.004472201,-0.005071212,0.006967442,0.0008610125,0.009619426
0.2782678,0.4400467,0.8530476,-0.001305595,1.271027e-05,-0.003013249,0.007305873,-0.004187721,0.008513355
0.2834319,0.4396278,0.8537464,0.003788209,-0.0005298177,-0.002226724,0.0115938,0.007029751,0.005372737
0.2881124,0.4407788,0.8473857,0.008399196,0.0004984841,-0.008499947,0.01189309,0.02720604,0.004158441
0.2880366,0.4400944,0.8390432,0.008254357,-0.0003073515,-0.01675531,0.0004707448,0.03124488,0.003143919
0.2865351,0.4413252,0.8416052,0.006684225,0.0008035196,-0.01410608,-0.01725935,0.02089336,0.002333828
0.2858031,0.4459124,0.8492482,0.005883615,0.005272451,-0.006375191,-0.02175906,0.01406545,0.005128194
0.2830257,0.4510483,0.8499661,0.003037608,0.0102918,-0.00556867,-0.008867169,0.01692653,0.01033679
0.2811137,0.4502671,0.8489311,0.00105689,0.009395571,-0.006514199,-0.00236849,0.01972553,0.01457128
0.2820525,0.4448844,0.8492032,0.001926962,0.003899103,-0.006151714,-0.008473069,0.01780226,0.01266737
0.2820789,0.4418232,0.8482549,0.001884819,0.0007252099,-0.007008755,-0.0112039,0.01590704,0.00583216
0.2818583,0.4403152,0.8495378,0.001595727,-0.0008941054,-0.005633642,-0.009145127,0.01200705,0.002617071
0.2819684,0.4406797,0.8517705,0.00163771,-0.0006395434,-0.003307755,-0.008779002,0.00953541,0.003141399
0.2822583,0.4414609,0.8507072,0.001859826,3.346921e-05,-0.004277127,-0.009398218,0.01196915,0.003532356
0.2840094,0.4398153,0.8494128,0.003543464,-0.001718508,-0.005476924,-0.009691614,0.01097743,0.004961558
0.2862178,0.440377,0.8496829,0.005684881,-0.001261124,-0.005111476,-0.009936444,0.01051287,0.007449112
0.2873888,0.4425495,0.8519066,0.006789231,0.0008092731,-0.002791849,-0.006440071,0.01477224,0.005870729
0.2860513,0.4432466,0.8556174,0.005385339,0.001406787,0.001015315,-0.004217987,0.01802099,0.0007483612
0.2831559,0.4437317,0.8565699,0.002423475,0.001794612,0.002064496,-0.009304868,0.02014957,0.0003299314
0.2811448,0.4445235,0.8530959,0.0003460323,0.002491658,-0.001312961,-0.01217162,0.01977486,0.003566361
0.281617,0.4460371,0.8484263,0.0007519891,0.003912868,-0.005886284,-0.01463463,0.02122516,0.005344992
0.282649,0.4445221,0.8512821,0.001718119,0.002307862,-0.002934745,-0.01907075,0.02357343,0.002664935
0.2813689,0.4415779,0.8566933,0.0003723475,-0.0007241695,0.002571823,-0.01846402,0.01696168,-0.00227139
0.2811152,0.44255,0.8569558,5.352964e-05,0.0001625185,0.002928887,-0.01371601,0.01139215,-0.0001057756
0.2816248,0.4425979,0.8593753,0.0004985921,0.0001273237,0.005442034,-0.002231115,0.01537032,0.002106199
0.2816391,0.4419008,0.8547239,0.0004491659,-0.000650403,0.0008829158,0.003482051,0.01884078,0.0002342934
0.2828679,0.4427869,0.8464677,0.001614966,0.0001574379,-0.007282749,-0.003644752,0.01670549,0.003018773
0.283467,0.4414468,0.8519385,0.00215191,-0.001258353,-0.001722945,-0.00622322,0.01438839,0.005263482
0.2850586,0.4388948,0.8567107,0.003682251,-0.003883448,0.003136559,-0.007046079,0.01420802,0.004583205
0.2852538,0.4366889,0.8562573,0.003816962,-0.00615962,0.002768677,-0.008899153,0.01381805,0.00194106
0.2827616,0.437381,0.8557562,0.001265149,-0.005534867,0.002351168,-0.006643454,0.01496383,-0.000387459
0.2825902,0.4403607,0.850645,0.001034789,-0.002619282,-0.002678722,-0.003566884,0.01660765,0.00107295
0.2817441,0.4411945,0.8478962,0.000130551,-0.001846302,-0.005348307,-4.593076e-05,0.01676819,-0.001000794
0.2814969,0.4409844,0.8475354,-0.0001739065,-0.00211371,-0.005631984,-0.0008457625,0.01784022,-0.005112412
0.2827963,0.4365167,0.8484166,0.001069074,-0.006635247,-0.004675574,-0.0006940172,0.01918384,-0.007884292
0.2821949,0.4313,0.8525343,0.000412335,-0.01190221,-0.0004843781,0.003324291,0.01799509,-0.008129372
0.2827708,0.4340984,0.853484,0.0009339861,-0.009150191,0.0005371582,0.002816419,0.01414264,-0.004835105
0.2820728,0.4360759,0.8540335,0.000182694,-0.007214676,0.001156743,0.003997219,0.01253079,-0.003652965
0.2811849,0.4347171,0.8547876,-0.0007572975,-0.008610991,0.001979107,0.006567328,0.01306923,-0.001285324
0.28263,0.4382668,0.852052,0.0006369781,-0.005094188,-0.0006901496,0.006185403,0.01236052,-0.0006893973
0.2817201,0.4419331,0.8499673,-0.0003226017,-0.001455955,-0.002710476,0.008402443,0.01279388,-0.003426847
0.2815337,0.4412512,0.8482238,-0.0005573218,-0.002161223,-0.004391547,0.01225736,0.01360053,-0.003390131
0.2815089,0.4412256,0.8491931,-0.0006291288,-0.002205637,-0.003361647,0.01489097,0.01335192,-0.006081917
0.2800436,0.4424566,0.853013,-0.002139985,-0.0009890991,0.0005170735,0.01481537,0.01171415,-0.007386215
0.2826173,0.4428703,0.8524157,0.0003896812,-0.0005857859,-2.291041e-05,0.01295683,0.009908968,-0.006444704
0.2878304,0.445785,0.8490364,0.005560213,0.002322539,-0.003346655,0.01192678,0.01415666,-0.008100796
0.2911623,0.4469646,0.843592,0.008850911,0.003499275,-0.008736957,0.01206258,0.02631122,-0.007080533
0.2880836,0.4389617,0.8423065,0.005732048,-0.004503159,-0.009969708,0.01121898,0.03530763,-0.007228943
0.2829846,0.4329,0.8554505,0.0005937564,-0.0105613,0.003226086,0.003935739,0.0250677,-0.007531163
0.2836861,0.4396258,0.8668702,0.001256534,-0.003828861,0.01469662,-0.001192436,0.008851325,-0.006051404
0.2829102,0.446118,0.8604783,0.0004425105,0.002673254,0.008354194,0.009793312,0.01058521,-0.007215513
0.2804033,0.4418831,0.8511168,-0.002101863,-0.001548676,-0.0009597137,0.02237263,0.01782168,-0.006190658
0.2803411,0.4395702,0.8507068,-0.002200803,-0.003845824,-0.001324159,0.01819616,0.01939531,-0.004998859
0.2769611,0.4412575,0.8501178,-0.005616607,-0.002140098,-0.001869704,0.01106406,0.0192108,-0.005864374
0.2751483,0.4379963,0.8494333,-0.007464049,-0.005380319,-0.002512718,0.01141584,0.01398453,-0.005257873
0.2774406,0.4381529,0.8523637,-0.005204976,-0.005200089,0.0004574097,0.01050668,0.008979696,-0.005381774
0.2784625,0.4405297,0.8515448,-0.004214515,-0.002797256,-0.0003235917,0.01116555,0.006766558,-0.005931575
0.281754,0.4397667,0.850762,-0.0009524924,-0.003531657,-0.00107021,0.01244743,0.007205356,-0.006148281
0.2857332,0.4420288,0.8514584,0.002999206,-0.001238665,-0.0003391533,0.01321278,0.01146775,-0.005498424
0.2864792,0.4405314,0.8483383,0.003719712,-0.002702777,-0.003426275,0.02134859,0.01191751,-0.003819709
0.2863111,0.4372411,0.8465062,0.003527653,-0.005957731,-0.00522678,0.02530717,0.01193067,-0.005480895
0.285818,0.4396303,0.8473756,0.003012181,-0.003531162,-0.004327076,0.02072652,0.01333665,-0.01210936
0.2861512,0.4400387,0.8493813,0.003324204,-0.003083219,-0.002292019,0.01773193,0.01448565,-0.01721542
0.2856212,0.4399999,0.8508831,0.002773983,-0.003080479,-0.0007617201,0.01594797,0.01851362,-0.01435492
0.2815183,0.4412102,0.8516446,-0.001348129,-0.001826801,2.750462e-05,0.0132982,0.0173901,-0.01196825
0.2760913,0.4416239,0.8533662,-0.006793548,-0.001368037,0.001776127,0.009023972,0.01438119,-0.01582371
0.2740082,0.4444214,0.8529226,-0.008894053,0.001476172,0.001358651,0.008028892,0.01521277,-0.01736759
0.278288,0.4470222,0.8532911,-0.00463018,0.004124942,0.001752388,0.01107262,0.01486608,-0.01554204
0.2824099,0.4489876,0.8575285,-0.0005226509,0.006139281,0.006013983,0.01456846,0.0156868,-0.01061054
0.2820642,0.4494975,0.8602528,-0.0008809491,0.006698663,0.00876125,0.01813447,0.0166076,-0.005800983
0.2824298,0.4475657,0.8563399,-0.0005263711,0.004816324,0.004869853,0.01773787,0.0166294,-0.009171786
0.284629,0.4478674,0.8502745,0.00166354,0.005167031,-0.001175881,0.01595457,0.01510429,-0.01119797
0.2868556,0.4474413,0.8508915,0.003882226,0.004789192,-0.0005410515,0.0124237,0.01203871,-0.008641865
0.2865922,0.446437,0.8519062,0.003612165,0.003832032,0.0004897627,0.007867938,0.01331211,-0.009577573
0.2853107,0.4475147,0.8493165,0.002325059,0.004955457,-0.002085539,0.007253487,0.01589943,-0.01038425
0.286701,0.4453089,0.850071,0.003710559,0.002793849,-0.001318065,0.005709411,0.01828142,-0.01240234
0.2869649,0.4433621,0.8518638,0.003970254,0.0008893103,0.0004862881,0.006218655,0.02123451,-0.01481593
0.2864113,0.4442488,0.8516924,0.003412816,0.001816339,0.0003252288,0.007999588,0.02090176,-0.01418666
0.2858804,0.4447276,0.8516257,0.002878187,0.002333551,0.0002675683,0.006876446,0.02079714,-0.01666865
0.2828756,0.4470951,0.8539986,-0.000130289,0.00473742,0.00264834,0.005914134,0.02143965,-0.01801797
0.2813871,0.4481854,0.8565321,-0.001622461,0.005861852,0.005188452,0.003610783,0.01775052,-0.01642039
0.2818169,0.4475865,0.8546621,-0.001196376,0.005294829,0.00332378,0.008261614,0.01366685,-0.01639468
0.2821051,0.4491614,0.8530081,-0.0009118617,0.006898834,0.001673645,0.01509394,0.01537964,-0.01400611
0.2820741,0.4497793,0.8531003,-0.0009463431,0.007543226,0.001768199,0.01226463,0.01985478,-0.01174855
0.2816251,0.4498434,0.8522989,-0.001398724,0.007630699,0.0009677119,0.01232956,0.02062886,-0.01170242
0.2820188,0.4499959,0.8525417,-0.001008082,0.007803218,0.001209973,0.01445799,0.01613711,-0.01044364
0.2812159,0.447832,0.8516103,-0.001813751,0.005656049,0.0002765833,0.01310889,0.01113826,-0.008612351
0.2821997,0.4457342,0.8496129,-0.0008323687,0.003571308,-0.001724026,0.01470796,0.01208933,-0.008720667
0.2886942,0.4457226,0.8474483,0.005659983,0.003569125,-0.003893086,0.01527611,0.02061989,-0.01141441
0.2932668,0.44685,0.8432165,0.01023067,0.00470237,-0.00813022,0.01535978,0.03354369,-0.01287823
0.2895167,0.4472128,0.8439179,0.006478526,0.005067462,-0.007434699,0.01477105,0.03834829,-0.01410384
0.2825833,0.4454113,0.8490146,-0.0004574986,0.00326471,-0.002343981,0.004737296,0.02540442,-0.01486446
0.2810156,0.4442948,0.8505225,-0.002028409,0.002143459,-0.00084187,-0.004939257,0.01410732,-0.0123534
0.2819592,0.4481093,0.8515301,-0.001088648,0.005949858,0.0001600881,0.0005820642,0.02008566,-0.01127221
0.2808739,0.4551641,0.8501247,-0.002178171,0.01299311,-0.001250656,0.007378542,0.02532345,-0.009680964
0.279535,0.457768,0.8472931,-0.003521543,0.01558192,-0.004087216,0.004060765,0.02272115,-0.006843647
0.2789173,0.4523035,0.8501274,-0.004143846,0.01009838,-0.001257491,0.005088733,0.01913569,-0.006520411
0.2811535,0.4469759,0.8517372,-0.00191218,0.004747508,0.0003482515,0.007437638,0.01224546,-0.006116587
0.282914,0.448183,0.8517617,-0.0001560643,0.005927062,0.0003693062,0.00433124,0.01122214,-0.006950638
0.2825871,0.448633,0.8523247,-0.0004869505,0.006345359,0.0009292906,0.006395655,0.01439886,-0.00762179
0.2835999,0.4462908,0.8490296,0.0005220413,0.003967268,-0.002368448,0.006492191,0.01120827,-0.007131317
0.2838304,0.4472044,0.8480162,0.0007491215,0.004841066,-0.003383909,0.002205855,0.01341227,-0.008306001
0.2848876,0.4477709,0.8498353,0.001803111,0.005363937,-0.001566262,0.0004412823,0.01737097,-0.007400844
0.2871826,0.4466644,0.8503997,0.004095095,0.004210118,-0.001002747,-0.002329486,0.01649027,-0.00679393
0.2876601,0.4473059,0.8508425,0.004569519,0.00480078,-0.000560166,0.0002537117,0.0189723,-0.009104955
0.287107,0.4465843,0.8506635,0.004013276,0.004024962,-0.0007387371,0.004125812,0.02072688,-0.01036686
0.2841701,0.4461687,0.8509117,0.001072728,0.003551911,-0.000489316,0.0003150037,0.02372103,-0.01107668
0.2794306,0.447697,0.8513772,-0.003670801,0.005019774,-2.208767e-05,-0.005108962,0.02400006,-0.01205055
0.2769249,0.4473477,0.8515976,-0.006180847,0.004607195,0.0002006558,-0.009454283,0.01753649,-0.01405385
0.2783344,0.4469267,0.8513853,-0.00477581,0.004120245,-8.677245e-06,-0.005554209,0.0175516,-0.01487791
0.2801004,0.4475909,0.8513143,-0.003014103,0.004715851,-7.636451e-05,0.00215647,0.01956303,-0.01010564
0.2789994,0.4480818,0.8522432,-0.004118907,0.005135758,0.0008563952,0.0006470879,0.0191889,-0.003593536
0.2791324,0.4482955,0.8509156,-0.003989235,0.005276193,-0.0004669443,-0.0005709371,0.01935405,-0.0005554035
0.2823142,0.446095,0.8485993,-0.0008099076,0.003000229,-0.002778657,0.0005734733,0.01688199,0.0016896
0.2867353,0.4433999,0.8481696,0.003609372,0.0002276355,-0.003203316,-0.00342292,0.01512724,0.003547145
0.2903803,0.4445649,0.8487251,0.007253283,0.001313437,-0.002642359,-0.006536118,0.01553394,-0.002192902
0.2890939,0.4469251,0.8486803,0.005966151,0.003592834,-0.002681044,-0.007218226,0.02039254,-0.009723439
0.2869002,0.4473309,0.8473837,0.003771797,0.003916668,-0.003970913,-0.008718754,0.02528823,-0.008876046
0.2879453,0.4468672,0.8471143,0.004816012,0.003369817,-0.004232797,-0.008788753,0.02313342,-0.007145128
0.2874141,0.4444698,0.8472088,0.004283382,0.0008882149,-0.004129876,-0.007942667,0.02119435,-0.007996515
0.2864541,0.4424262,0.8478683,0.003321441,-0.001240353,-0.003460848,-0.008545769,0.02094863,-0.00743751
0.2844502,0.4451536,0.8509941,0.001314751,0.001401567,-0.000324494,-0.009054865,0.02051219,-0.00646475
0.2804479,0.4486047,0.8536437,-0.002691129,0.00476691,0.002336808,-0.009667628,0.02199452,-0.00599646
0.2816114,0.4490504,0.8533229,-0.001531899,0.005126619,0.002028668,-0.01092338,0.02501663,-0.005912949
0.282995,0.4484703,0.8525349,-0.0001531261,0.004460402,0.001253987,-0.00884471,0.02562967,-0.003720935
0.2806161,0.4483245,0.8556747,-0.002537348,0.00422823,0.004407688,-0.00399085,0.02173386,-0.0002949581
0.279451,0.4473459,0.8576268,-0.003708109,0.00316321,0.006374007,-0.00179357,0.02144023,0.001394828
0.2772523,0.4441787,0.8537721,-0.005912494,-9.044678e-05,0.002533557,-0.004679002,0.02045066,0.001295226
0.2773519,0.4426521,0.8510696,-0.00581854,-0.001703489,-0.0001549476,-0.008100479,0.010531,-0.003301798
0.2812637,0.4457089,0.8517699,-0.001911963,0.001267281,0.0005591015,-0.005009667,0.006095851,-0.008984327
0.2842346,0.4482802,0.8508786,0.001054327,0.003753126,-0.0003189832,0.0005246666,0.02111783,-0.007371182
0.2868509,0.4456628,0.8432044,0.003666523,0.001050784,-0.007980173,0.0007781717,0.03876485,-0.003425465
0.2847099,0.4413306,0.8365256,0.00152187,-0.003365517,-0.01464608,-0.00881935,0.03114953,-0.00481021
0.2805754,0.4399666,0.8435891,-0.002615874,-0.004812703,-0.00756938,-0.02277054,0.01975035,-0.007210902
0.281108,0.4419295,0.8543148,-0.002086152,-0.002931601,0.003170358,-0.02263095,0.02579449,-0.008493804
0.2797259,0.444778,0.856476,-0.003470832,-0.0001633852,0.005346342,-0.0177238,0.02950871,-0.007818943
0.2780511,0.4439697,0.853011,-0.00514759,-0.001050168,0.001896758,-0.02303775,0.03523641,-0.004454839
0.2788554,0.4421533,0.8499104,-0.00434448,-0.002943071,-0.001188107,-0.02326347,0.03370706,-0.00391622
0.2773861,0.4433608,0.8513539,-0.005814074,-0.001809923,0.0002713938,-0.0204278,0.01849027,-0.002169288
0.2776415,0.4430406,0.8513605,-0.00555783,-0.002202281,0.000294173,-0.01949475,0.01513575,-0.0007121432
0.2792179,0.4416276,0.8461523,-0.003979312,-0.003684931,-0.004897803,-0.01454143,0.01107122,-0.006179213
0.2792132,0.440828,0.8432918,-0.003980381,-0.004551701,-0.007741745,-0.01502641,0.008927531,-0.006724138
0.2806478,0.4397186,0.844399,-0.002540632,-0.005725378,-0.006617526,-0.01426738,0.01432383,-0.003783342
0.2825202,0.4403859,0.8469259,-0.0006614803,-0.005119363,-0.004072985,-0.008679012,0.01015833,-0.005702143
0.2838627,0.4405077,0.8518991,0.0006893494,-0.005055587,0.0009187402,-0.01098054,0.01441383,-0.004832601
0.2834157,0.439953,0.858265,0.0002519808,-0.005664836,0.007304053,-0.01322063,0.02007367,-0.004206835
0.2818856,0.4394447,0.8594634,-0.00126712,-0.006224122,0.008522299,-0.0119756,0.0185319,-0.006577178
0.2814999,0.4348404,0.8539237,-0.001640672,-0.01087558,0.003002545,-0.01216582,0.02456373,-0.006513769
0.2791586,0.4309569,0.8496772,-0.003968713,-0.01480204,-0.001224243,-0.01142576,0.02734126,-0.006850431
0.2770732,0.4351948,0.8486922,-0.006039648,-0.01060262,-0.002189918,-0.01428413,0.02843355,-0.008477722
0.2787659,0.4405909,0.8517411,-0.004331187,-0.005239952,0.0008780023,-0.01702854,0.02605255,-0.009275439
0.2806876,0.4387098,0.8572649,-0.002392402,-0.007149433,0.006420372,-0.01034627,0.01970769,-0.00721509
0.2806033,0.4359274,0.8569072,-0.002458154,-0.009955084,0.006080782,-0.003139226,0.02287553,-0.003357541
0.2792848,0.4351788,0.8570899,-0.003756681,-0.01072145,0.006280641,-0.003948981,0.02397706,-0.003728176
0.2780732,0.4321722,0.8596334,-0.004946857,-0.01374042,0.00884018,-0.004384344,0.0220642,-0.00452216
0.2778105,0.431778,0.8578106,-0.005186729,-0.01414126,0.00703182,-0.001823622,0.02219697,-0.003310042
0.2795297,0.4340795,0.8575941,-0.003443051,-0.01184026,0.006827972,-0.003790584,0.01835337,-0.00452662
0.2813518,0.4349998,0.8562183,-0.001594948,-0.0109142,0.005462793,-0.007550034,0.01711175,-0.004467418
0.2805367,0.4351471,0.8527874,-0.002382396,-0.01075464,0.002040137,-0.00921118,0.01814055,-0.003620082
0.2802136,0.4349394,0.8538205,-0.002676467,-0.01094372,0.003079217,-0.01023307,0.01737749,-0.003769524
0.2808566,0.4383963,0.8529636,-0.002003067,-0.007461584,0.002225914,-0.008310809,0.01910558,-0.003580999
0.2806272,0.4413476,0.8508855,-0.002200662,-0.004478798,0.0001490905,-0.005805947,0.02241639,-0.007087907
0.2813963,0.4383964,0.854016,-0.001398448,-0.007392139,0.003278639,-0.005467087,0.02238002,-0.01000378
0.2823276,0.4365276,0.8568822,-0.0004328929,-0.009217239,0.006141781,-0.005461353,0.01999509,-0.009527084
0.2819656,0.4375914,0.8569353,-0.0007596881,-0.00810378,0.006189558,-0.005570508,0.01934357,-0.009781652
0.2815873,0.4378806,0.8622729,-0.001101761,-0.007759275,0.01151941,-0.003672388,0.01758533,-0.007228943
0.2811698,0.4372023,0.8702845,-0.001482227,-0.008376703,0.01952067,7.623512e-06,0.01426653,-0.004122741
0.2801135,0.436931,0.8683251,-0.002500828,-0.008581636,0.01754763,0.004102697,0.0116891,-0.003421763
0.2794612,0.4345809,0.8627061,-0.003114826,-0.01086012,0.01191119,0.006068442,0.006475178,-0.001528951
0.2792029,0.4294979,0.862387,-0.003334096,-0.01586636,0.01157028,0.001930977,0.0006952959,-0.002483773
0.2801557,0.4285633,0.861675,-0.002341689,-0.01671877,0.01083203,0.0008338576,0.001022517,-0.004996668
0.2855719,0.4313145,0.8593311,0.003114721,-0.01387983,0.008457162,0.01025026,0.01362075,-0.00362316
0.2905145,0.4325656,0.8552177,0.008097972,-0.01253546,0.004307951,0.01605422,0.02980936,-0.004415996
0.2867492,0.4318432,0.8523062,0.004373407,-0.01315886,0.001356115,0.003797727,0.02499025,-0.00993149
0.2798327,0.4310015,0.8541016,-0.002502728,-0.01389582,0.003106731,-0.0100545,0.008157922,-0.01357512
0.2782416,0.4323741,0.8537444,-0.004054027,-0.01241288,0.002700735,-0.003120687,0.003899633,-0.01068064
0.2792618,0.4339314,0.8544493,-0.002994357,-0.01073962,0.003353087,0.009746413,0.008097489,-0.005951158
0.2791673,0.4344313,0.8596202,-0.003049791,-0.01011834,0.008467809,0.01437734,0.01550912,-0.006648787
0.2780613,0.4345905,0.8618803,-0.004116885,-0.009832331,0.01066836,0.01434995,0.01594827,-0.007391736
0.2763007,0.433886,0.8603332,-0.0058388,-0.010405,0.009058126,0.009121731,0.005015179,-0.004797349
0.2752495,0.4331059,0.8545308,-0.006851319,-0.01104832,0.003189159,0.009161417,-0.003999934,-0.003267426
0.2750029,0.4334475,0.8500745,-0.00705897,-0.01056532,-0.001337134,0.0115933,-0.008747027,-0.001459447
0.2761148,0.4356078,0.8516686,-0.005907685,-0.008259077,0.0001838975,0.009180659,-0.002073032,-0.001632014
0.2794109,0.4374732,0.8502619,-0.002571572,-0.00624344,-0.001298441,0.01219585,0.005520422,-0.004776566
0.2832379,0.4377967,0.8476415,0.001296113,-0.005765761,-0.003996642,0.01395096,0.0008162326,-0.007621966
0.2857975,0.4373198,0.850789,0.003896934,-0.006084892,-0.0009286368,0.01499402,0.004877483,-0.01008312
0.2848169,0.4363654,0.8543581,0.002957862,-0.006878436,0.002559745,0.01901392,0.009853987,-0.009849917
0.2828666,0.4360782,0.8543929,0.001049125,-0.007001885,0.002512785,0.01865394,0.003394825,-0.01152362
0.2823276,0.4354099,0.8540315,0.0005514283,-0.007503861,0.002068967,0.02084449,0.001558734,-0.01515058
0.2792456,0.4338485,0.8542812,-0.002489555,-0.008896747,0.00223561,0.02157431,0.006249688,-0.01412582
0.2762087,0.4328898,0.8558087,-0.005485832,-0.009684826,0.003679559,0.02008981,0.01023347,-0.01430531
0.2771909,0.4339598,0.8632114,-0.004463305,-0.008442258,0.01099832,0.02239421,0.006355706,-0.0134466
0.2798448,0.4351889,0.8707794,-0.001769253,-0.007038783,0.01848171,0.02472261,0.001142669,-0.009032706
0.2808929,0.4351885,0.8690033,-0.000681,-0.006863329,0.01662021,0.029857,0.00105796,-0.009154309
0.279653,0.4375402,0.8649171,-0.001880916,-0.004334384,0.01244693,0.02978168,-0.0003814993,-0.009827199
0.2787899,0.4376995,0.8621215,-0.002704058,-0.003996818,0.009562468,0.0271037,-4.130832e-05,-0.01010307
0.2768541,0.4340201,0.8542315,-0.004600081,-0.007497271,0.001581472,0.03059324,0.0008897567,-0.0153119
0.2767272,0.434417,0.8516618,-0.004687221,-0.00692092,-0.001081178,0.03032851,-0.0007031761,-0.01887781
0.2815099,0.4401508,0.8570799,0.0001353045,-0.001007403,0.004242245,0.03015602,-0.003040828,-0.01323723
0.2826051,0.4466973,0.8555567,0.001270439,0.005718638,0.002623134,0.03063993,-0.004545386,-0.006678338
0.2805133,0.444633,0.8545726,-0.0007814675,0.00383336,0.001541889,0.02794024,-0.0008258313,-0.009619175
0.2795295,0.440193,0.855763,-0.001725471,-0.0004290097,0.002634227,0.02548293,0.004088016,-0.01166572
0.2786383,0.4425169,0.8489125,-0.002577173,0.002070814,-0.004314904,0.02026726,0.007569527,-0.01003082
0.2794173,0.4400731,0.844019,-0.00175875,-0.0001992304,-0.009307405,0.01650262,0.0105719,-0.01447755
0.2792333,0.4391739,0.8442529,-0.001903597,-0.0009271648,-0.009172076,0.01254642,0.009889302,-0.01630636
0.2788885,0.4437386,0.8473326,-0.0022093,0.003805894,-0.006190048,0.009893185,0.008313946,-0.01423662
0.2791496,0.4427356,0.8510853,-0.001909348,0.002968183,-0.0025333,0.01482,0.008451881,-0.01526366
0.277117,0.4425588,0.8534144,-0.003903216,0.002953097,-0.0002982949,0.01717447,0.005513494,-0.01401686
0.2759439,0.4408224,0.8581645,-0.005037582,0.001374575,0.00435985,0.02072362,-0.001034842,-0.0106737
0.2762506,0.4374685,0.8561595,-0.004692131,-0.001825576,0.002265127,0.02349842,-0.006306295,-0.008549596
0.277676,0.440546,0.8519092,-0.003227869,0.001401339,-0.002072813,0.01422212,-0.01134328,-0.01129957
0.2823133,0.4426231,0.855004,0.001448616,0.003623591,0.0009364962,0.01214413,-0.0116424,-0.01638287
0.2887762,0.4432431,0.8538168,0.007950715,0.004384213,-0.0003338686,0.02796517,-0.001381019,-0.0152929
0.2892246,0.4434555,0.8492432,0.008438215,0.004732376,-0.004988284,0.04136623,0.01086189,-0.01333598
0.2806563,0.4428389,0.8455086,-9.168966e-05,0.004246428,-0.008801147,0.03142037,0.0151669,-0.009959914
0.2757059,0.4453968,0.8439937,-0.005004597,0.006929728,-0.01039136,0.01398368,0.003120446,-0.004677984
0.2785946,0.4470475,0.8502399,-0.002079183,0.008700301,-0.004217131,0.01464544,-0.01027108,-0.009541995
0.2802656,0.4465953,0.8547006,-0.0003722684,0.008362047,0.0001753115,0.01806894,-0.003725185,-0.0164534
0.2783677,0.4455841,0.8516293,-0.00223491,0.007458661,-0.00296056,0.02193181,0.002984318,-0.01603954
0.2760087,0.4456091,0.8487373,-0.004559316,0.007585009,-0.005913399,0.02964843,0.001047043,-0.0164334
0.2753259,0.4476322,0.8465939,-0.005208027,0.009702824,-0.008113734,0.02586891,-0.001776718,-0.01578692
0.277104,0.448994,0.8432808,-0.003396244,0.01115244,-0.01147968,0.02375771,-0.0110129,-0.0112717
0.280392,0.4502117,0.8435869,-7.485856e-05,0.01245082,-0.01122192,0.02512672,-0.01372817,-0.009128658
0.2802167,0.4485527,0.8474086,-0.0002168989,0.01086504,-0.007443875,0.02099315,-0.01061743,-0.008110144
0.280617,0.44599,0.8491165,0.0002164372,0.008367848,-0.005774519,0.01787241,-0.01191107,-0.007538467
0.2852102,0.4474928,0.8502342,0.004842242,0.009928377,-0.004690187,0.01363966,-0.008082825,-0.01073062
0.2844721,0.4475757,0.8545822,0.004136255,0.0100611,-0.0003705155,0.01736737,-0.01137198,-0.01396918
0.2837759,0.4467367,0.8600282,0.00347138,0.009263906,0.005052134,0.02998508,-0.02837012,-0.02219508
0.2861419,0.4495048,0.8574454,0.005867623,0.01206581,0.002450532,0.04232627,-0.03668854,-0.03824203
0.2849093,0.4578618,0.8452252,0.004664061,0.02044851,-0.009784263,0.05664705,-0.01487443,-0.04067252
0.2863132,0.4698675,0.8364705,0.00609542,0.0324714,-0.01854951,0.05947924,0.02747541,-0.0232918
0.2868314,0.4710856,0.8374192,0.006639291,0.03369744,-0.01760673,0.04282618,0.03655325,-0.008083476
0.2851652,0.4614633,0.8455633,0.00499668,0.02407287,-0.009463484,0.02476035,0.004074446,-0.005659104
0.2867231,0.4560725,0.85125,0.006575957,0.01866887,-0.003772387,0.0199254,-0.01560828,-0.006801822
0.2851403,0.4547821,0.8483276,0.005012159,0.01735414,-0.006684943,0.01701998,-0.00522404,-0.003449853
0.2812975,0.4552561,0.847791,0.001185657,0.01779249,-0.007206525,0.009317748,0.0030295,-0.002129606
0.2783191,0.4569201,0.8488743,-0.001778926,0.01940951,-0.006102979,0.008682313,-0.006922481,-0.003697347
0.2783771,0.4576495,0.8455429,-0.001709684,0.02008057,-0.009409045,0.004488696,-0.007585838,-0.001502582
0.2814781,0.459995,0.8443939,0.001400368,0.0223564,-0.01052763,-0.0004256872,-0.001616833,-0.001706437
0.2814454,0.4575018,0.8486799,0.001374602,0.01978216,-0.00620616,0.006085601,-0.006528614,-0.003684664
0.2827755,0.4516975,0.8560666,0.002709586,0.01388539,0.001220995,0.005350532,-0.003454269,-0.004463733
0.2845507,0.4526417,0.8572913,0.004487605,0.01472591,0.002490849,0.003772716,-0.001093949,-0.005572276
0.28332,0.453262,0.8501489,0.003257745,0.01523159,-0.004602304,0.005548153,-0.0002318841,-0.002587415
0.2842929,0.452254,0.844984,0.004229333,0.01409843,-0.00971393,0.001860785,0.007029084,-0.002040299
0.2834351,0.4530161,0.8454794,0.003368134,0.01472521,-0.009161655,0.00361788,0.004790779,-0.003883607
0.2823415,0.4518419,0.8454922,0.002268954,0.01340583,-0.009088072,0.0008400166,0.004418152,-0.004372692
0.2825132,0.4520056,0.8446808,0.002433008,0.01341497,-0.009834934,-0.003380936,0.004465346,-0.00817198
0.2775883,0.4531314,0.8523838,-0.002501679,0.01437706,-0.002063587,6.099666e-05,0.001897286,-0.006956799
0.2741397,0.4533515,0.8586652,-0.005961901,0.01442493,0.004289712,-0.001583684,0.003972113,-0.00219993
0.2756592,0.4559357,0.8537347,-0.004455539,0.0168285,-0.000565639,-0.0013625,-0.001402785,-0.0005600241
0.2787459,0.4598256,0.8523377,-0.001383063,0.02052971,-0.001884909,0.0001382839,-0.004566753,-0.000265535
0.2820294,0.460083,0.8538681,0.001885203,0.02059059,-0.0002743434,0.001833334,-0.001640519,-0.002825881
0.2825975,0.4571585,0.8504823,0.0024374,0.0174618,-0.003578138,0.01295118,0.003180363,-0.002807547
0.2830109,0.4576159,0.8455679,0.002834153,0.01770727,-0.008408723,0.01826053,0.01165923,-0.0007241226
0.2830712,0.4569507,0.8413236,0.002877011,0.01682267,-0.01256749,0.002602238,0.0121522,0.003761266
0.281439,0.4544408,0.842048,0.001226542,0.01408616,-0.01175573,-0.01811782,0.008253758,0.01145246
0.2826949,0.458737,0.8451927,0.002463321,0.01814894,-0.008521531,-0.01720992,0.006459401,0.01036364
0.2837724,0.461148,0.8490206,0.003520804,0.0203199,-0.004602004,-0.01051419,0.007195283,0.007219797
0.2808773,0.4577644,0.8545937,0.0006048959,0.01668994,0.001064813,-0.01552964,0.008224828,0.008474182
0.2781111,0.4536208,0.8535569,-0.002182899,0.01229373,0.0001235479,-0.01383943,0.00365434,0.004799209
0.2771272,0.4485646,0.8504267,-0.003188967,0.006979222,-0.002909754,-0.0127553,-0.0005168825,0.002574036
0.2771974,0.4508125,0.8526567,-0.003141464,0.00896354,-0.0005817318,-0.01602302,-0.002148196,0.005718709
0.2782126,0.4550393,0.8510462,-0.002149162,0.01292232,-0.002093318,-0.01454109,-0.0005151046,0.005037583
0.2795467,0.4520397,0.8436499,-0.0008379401,0.009650612,-0.009390084,-0.01882784,0.001020035,0.0007961641
0.281209,0.4524011,0.836511,0.0008017346,0.009736445,-0.01642875,-0.02175734,-0.004398922,-0.0005640704
0.2840531,0.4546649,0.8351454,0.00362332,0.01172161,-0.01769322,-0.0184441,-0.006492568,0.002094433
0.2872509,0.4538862,0.8414585,0.006798726,0.01066153,-0.01127747,-0.01487628,0.0006630222,0.004841553
0.2863227,0.4553531,0.8449319,0.00584804,0.01184498,-0.007699741,-0.01121761,0.0102865,0.003670705
0.2830618,0.4553611,0.8433941,0.002564467,0.01156756,-0.009131356,-0.01354985,0.01386896,0.002826241
0.2817753,0.4524356,0.8442828,0.001254709,0.008355035,-0.008134596,-0.01713928,0.01181957,0.006584266
0.2780491,0.4499072,0.8467042,-0.002495018,0.005538592,-0.005603199,-0.01787233,0.01069529,0.008300321
0.2749684,0.4495837,0.8498695,-0.005599627,0.004926375,-0.002326209,-0.01783675,0.006484193,0.006306451
0.2766159,0.4523676,0.8520028,-0.003976011,0.007421391,-7.956817e-05,-0.01489948,0.002288356,0.005424041
0.2765344,0.4531294,0.8524923,-0.004081187,0.007894725,0.0005244686,-0.01372591,0.003726956,0.006084102
0.2751779,0.45168,0.852228,-0.005460705,0.006157626,0.0003754389,-0.01499402,0.004463139,0.007251073
0.274871,0.45104,0.8492855,-0.005789894,0.005231063,-0.002451304,-0.01539004,0.003094915,0.007055624
0.2750382,0.4502639,0.8491928,-0.005643915,0.004169942,-0.002428088,-0.01369728,0.001394239,0.006547179
0.2766577,0.4500375,0.8508727,-0.004044195,0.003660402,-0.0006322886,-0.01184798,-0.0001952689,0.006474918
0.2793724,0.4490846,0.8482647,-0.001347751,0.002426915,-0.003124791,-0.01468903,-0.0004126834,0.006729965
0.2823762,0.446451,0.8467307,0.001639406,-0.0004845732,-0.004543759,-0.01648348,0.0001339587,0.008506242
0.2824482,0.4439431,0.8471341,0.001696233,-0.003266877,-0.004025886,-0.01327676,-0.0009219485,0.009047179
0.2813601,0.445465,0.8461631,0.0005944518,-0.002015568,-0.004883158,-0.01154375,-0.001943763,0.009298985
0.2822327,0.4488371,0.8428187,0.001454708,0.00109053,-0.008114376,-0.01374519,0.0009425483,0.009428713
0.2819786,0.4470126,0.8398192,0.001189383,-0.0009950452,-0.01100124,-0.01517313,0.004494105,0.006626558
0.2813721,0.4464428,0.8421346,0.0005726685,-0.001820633,-0.008573649,-0.01212894,0.005880138,0.003888833
0.2803915,0.4483673,0.8428603,-0.0004170915,-0.0001461875,-0.007735846,-0.01035645,0.004558688,0.002549297
0.2782982,0.4473581,0.8426072,-0.002518615,-0.001399496,-0.007876903,-0.0136972,0.00281973,0.002871687
0.2780837,0.4483594,0.8475107,-0.002740474,-0.0006359655,-0.002861406,-0.01707809,0.004245363,0.004854616
0.2779899,0.4490807,0.8480289,-0.002840453,-0.000146038,-0.002231104,-0.01764735,0.003127576,0.006402709
0.2775375,0.4489569,0.8463787,-0.003298087,-0.0004943947,-0.003769317,-0.0167637,-0.002191543,0.00587834
0.279959,0.4500109,0.8470967,-0.0008805235,0.0003419143,-0.002939666,-0.01509348,-0.005243816,0.003415896
0.2848848,0.4488152,0.8441007,0.004042488,-0.001064491,-0.005824326,-0.009511075,0.001506928,0.002727939
0.2886327,0.4494725,0.8442736,0.007788699,-0.0006109182,-0.005540578,-0.005034876,0.01639858,0.002972147
0.2860213,0.4508094,0.8490688,0.005176238,0.0005293572,-0.0006349875,-0.01345035,0.0213,0.002831992
0.2811561,0.4511155,0.8502902,0.000310339,0.0006460406,0.0006962507,-0.02490109,0.01319221,0.003709222
0.2817725,0.4514474,0.8496006,0.0009262004,0.0007956047,0.0001156748,-0.02447027,0.007926913,0.003396281
0.2824365,0.4475374,0.8488158,0.00158982,-0.003289551,-0.0005611036,-0.02173262,0.0106792,0.002956456
0.2812276,0.4449452,0.8445991,0.0003804903,-0.006049858,-0.004670956,-0.02182266,0.01442847,0.003392781
0.2814216,0.4451306,0.8423724,0.0005741925,-0.006025229,-0.006792241,-0.01920376,0.01380827,0.004625465
0.2802073,0.4431267,0.8467475,-0.0006405324,-0.00818237,-0.00231285,-0.01936672,0.009191424,0.007208162
0.2802411,0.4431906,0.8490672,-0.0006071937,-0.008263903,0.0001097996,-0.0201717,0.001946672,0.007576425
0.2811227,0.4459648,0.8514967,0.0002740312,-0.005627223,0.00264099,-0.01749623,-0.0002939807,0.007469962
0.280119,0.4470923,0.8533005,-0.000730123,-0.004629153,0.004544887,-0.0183027,0.001471346,0.01092244
0.2812206,0.4428914,0.8498039,0.0003711199,-0.008951162,0.001146399,-0.01950638,-0.0006981205,0.01308781
0.2833919,0.4373909,0.8526155,0.002542006,-0.01456452,0.004053926,-0.01879089,0.0008796304,0.01129542
0.2855896,0.438598,0.8540946,0.004739257,-0.01346163,0.005626569,-0.01926697,0.004882526,0.01037736
0.2871307,0.4413434,0.8511225,0.006279716,-0.01081142,0.002745198,-0.01928041,0.009005703,0.009660885
0.287242,0.4425825,0.8528879,0.006389748,-0.009658487,0.00459826,-0.02218051,0.01659263,0.006980953
0.2873235,0.4453982,0.8507165,0.006469345,-0.006919543,0.002511408,-0.02656585,0.01840386,0.005858456
0.2833972,0.4442252,0.8495183,0.002540085,-0.008160122,0.001394308,-0.02721698,0.01820601,0.006970999
0.278739,0.4398999,0.84907,-0.002122329,-0.01254374,0.001023596,-0.02731952,0.01832285,0.008698976
0.2787508,0.4384102,0.8455705,-0.002115673,-0.01408257,-0.002401849,-0.02678641,0.01176921,0.008228952
0.2793552,0.4386499,0.8482325,-0.00151743,-0.0138826,0.0003309017,-0.02123964,0.004156954,0.006139265
0.2794455,0.440168,0.8499749,-0.001433987,-0.01239482,0.002140655,-0.01506259,0.002358395,0.00561908
0.280102,0.4406704,0.8501645,-0.0007849033,-0.01191314,0.002394283,-0.01543769,0.006668739,0.006003959
0.2815277,0.4391803,0.8519646,0.0006328193,-0.01341441,0.004254956,-0.01657712,0.007380303,0.01015851
0.2821464,0.4369724,0.8532325,0.001243189,-0.01562385,0.00558005,-0.01457308,0.004290735,0.01387041
0.2824496,0.4342815,0.8555528,0.00153758,-0.01830669,0.007953763,-0.01515989,0.002323112,0.01135282
0.2845876,0.4377082,0.8537748,0.003666385,-0.01486218,0.006225456,-0.01371507,-0.001233393,0.009658215
0.28338,0.4421461,0.8533094,0.00244916,-0.01039666,0.005805639,-0.008248451,0.001763491,0.009115502
0.280489,0.437851,0.8543827,-0.0004520717,-0.01465439,0.006920295,-0.006533079,0.005202882,0.006900182
0.2813997,0.4343395,0.8516581,0.0004478188,-0.01811892,0.004232676,-0.008831607,0.0004640601,0.004199132
0.2839363,0.4350384,0.8530658,0.002973075,-0.01736347,0.005672922,-0.0127657,-0.001099296,0.00214208
0.2867782,0.4355688,0.8546207,0.005803065,-0.01676694,0.007255968,-0.01489293,-9.816002e-06,0.004256226
0.2847302,0.4374143,0.8556114,0.0037425,-0.01484555,0.008270259,-0.01363594,-0.0005168153,0.006085064
0.2796074,0.4379333,0.8594423,-0.001393694,-0.01424118,0.01212002,-0.01178,-0.00111001,0.005107195
0.2793444,0.4372073,0.8601894,-0.001670854,-0.01487254,0.01288104,-0.008846029,-0.001078505,0.00540553
0.278594,0.4376007,0.8600393,-0.002435928,-0.01437518,0.01273971,-0.007314061,0.0001906475,0.004998543
0.2774412,0.4377018,0.8554921,-0.003603972,-0.01416111,0.008195684,-0.007822971,0.000599787,0.005894151
0.2785173,0.4381411,0.8494372,-0.002543184,-0.01360022,0.002138323,-0.0081084,-0.0005289884,0.00936415
0.278019,0.438521,0.8546053,-0.003056969,-0.01309007,0.007298492,-0.009521046,-0.005761284,0.009667059
0.2812008,0.4380003,0.8595616,0.0001097128,-0.0134724,0.01224145,-0.006437177,-0.00876883,0.007449352
0.2853699,0.4370776,0.8555803,0.004263827,-0.01424872,0.008241261,0.004083124,0.003378391,0.003808207
0.2842225,0.4331886,0.8524753,0.003101591,-0.01798374,0.005112012,0.008666052,0.02003638,-0.001235755
0.2821996,0.428791,0.8503692,0.001063993,-0.02221966,0.002976258,-0.00670259,0.01886937,-0.00172512
0.2780402,0.4307334,0.8498636,-0.003110104,-0.02010805,0.00243594,-0.02531932,0.0007243952,0.00083784
0.2747471,0.4347771,0.855997,-0.006417816,-0.01588755,0.008529688,-0.01839992,-0.01672121,0.001821929
0.2775709,0.4361624,0.8598586,-0.003608173,-0.01431788,0.01234707,-0.002823022,-0.01896193,0.00443081
0.2813487,0.436423,0.8562751,0.0001559177,-0.01386568,0.008714561,-0.0005784088,-0.001442398,0.004432467
0.2837808,0.4334143,0.8535338,0.002574975,-0.01667582,0.00591947,-0.004078155,0.01483811,0.001351401
0.282176,0.4320901,0.8554816,0.0009577552,-0.0177948,0.0078089,-0.0109324,0.01159438,0.002289722
0.2781036,0.4343584,0.861824,-0.003126409,-0.01531466,0.01408838,-0.007192171,0.003811256,0.0004269988
0.2790122,0.4330774,0.8679717,-0.002229128,-0.01637756,0.02016843,0.006328763,-0.004016116,-0.002561401
0.2802165,0.433265,0.8666725,-0.001035387,-0.01596578,0.01879664,0.009839031,-0.01377534,-0.0009794653
0.2802886,0.4358282,0.8620759,-0.0009731198,-0.01317254,0.01412217,0.009979874,-0.0130508,-0.002598727
0.2833366,0.4360742,0.8602874,0.002065746,-0.01269102,0.01225016,0.008341937,-0.009814026,-0.004073919
0.2849322,0.436187,0.8577391,0.003653005,-0.01233741,0.00961263,0.01034215,-0.009011382,-0.005187389
0.2856254,0.4338934,0.8564445,0.004338366,-0.01438548,0.008223295,0.0155825,-0.002236514,-0.008271503
0.2841689,0.4317004,0.8585968,0.002874306,-0.0163284,0.01027552,0.01209291,-0.002152388,-0.006127424
0.2792657,0.4319644,0.856967,-0.002036224,-0.01581004,0.008540423,0.01602602,-0.005623527,-0.006111165
0.2789907,0.4317482,0.8545506,-0.002318486,-0.01576795,0.006013687,0.0202638,0.0007844709,-0.008843749
0.2790111,0.432015,0.8543948,-0.002305062,-0.01523882,0.00574291,0.01616098,0.002067528,-0.005899228
0.2768069,0.430962,0.8554323,-0.00451583,-0.01602586,0.006660963,0.01695485,-0.0003917192,-0.005324236
0.2791799,0.4304853,0.8618138,-0.002148885,-0.01623315,0.01291901,0.01546803,-0.0009822062,-0.006454675
0.2806842,0.4325562,0.8648727,-0.0006500474,-0.01388954,0.01585042,0.01446649,-0.00561733,-0.00386822
0.2805,0.4334047,0.859857,-0.0008389169,-0.01276514,0.01070324,0.01529977,-0.0006593244,-0.003796035
0.281851,0.431841,0.8550775,0.0005080731,-0.01405012,0.00578821,0.01527024,0.004462991,-0.004791202
0.2824441,0.4301112,0.8544721,0.001097919,-0.01549865,0.005043564,0.01828561,-0.004847444,-0.005816751
0.2847751,0.4338599,0.8555668,0.003426129,-0.01146631,0.005995623,0.0201125,-0.01244304,-0.009601983
0.2869279,0.4397803,0.8535954,0.005576662,-0.005260299,0.003878365,0.0230653,-0.01268705,-0.01128056
0.286038,0.440702,0.8547866,0.004684596,-0.004051333,0.004921056,0.02304982,-0.007120557,-0.01049326
0.2845457,0.4383782,0.8609592,0.003190093,-0.006087021,0.01094277,0.01902319,-0.001042268,-0.01005101
0.2827418,0.4356666,0.8660647,0.001383787,-0.008510024,0.01589514,0.01556529,-0.0009847191,-0.009764434
0.2809223,0.4354444,0.8666275,-0.0004384308,-0.008443744,0.01630253,0.01138411,-0.0004733878,-0.009424037
0.2790515,0.4348212,0.8570063,-0.002312334,-0.008778864,0.006523409,0.008681466,0.0004366346,-0.009847895
0.2776999,0.4332967,0.8495425,-0.003667323,-0.01001608,-0.001100666,0.004139793,-0.002532657,-0.01127872
0.2791104,0.4377328,0.8526194,-0.002260267,-0.005293656,0.001813977,0.006203338,-0.005830888,-0.009835549
0.2815402,0.4423193,0.8530388,0.0001662096,-0.0004222497,0.002069627,0.01711765,-0.006024893,-0.007859486
0.2806139,0.441099,0.8509606,-0.0007632283,-0.00135948,-0.0001733981,0.02360617,-0.008575896,-0.008700771
0.2786901,0.4401683,0.8538362,-0.002690096,-0.002009521,0.002537038,0.02938007,-0.01331652,-0.0084629
0.2787781,0.4406883,0.8556661,-0.002604756,-0.001211848,0.004201458,0.03115765,-0.01129524,-0.007397298
0.2785851,0.4403653,0.8482699,-0.002800176,-0.00126052,-0.003359805,0.02807253,-0.01005456,-0.00702671
0.2814687,0.4421149,0.8424327,8.152783e-05,0.0007595131,-0.009361471,0.02908436,-0.01434295,-0.007669887
0.2859327,0.4446963,0.848871,0.004544156,0.003607002,-0.003086311,0.02992522,-0.01302618,-0.007966751
0.2863874,0.4444177,0.8530878,0.004997838,0.003589701,0.0009692964,0.03337007,-0.00277659,-0.006780321
0.2859305,0.4454147,0.84659,0.004540018,0.004842519,-0.005687261,0.03494512,0.006740975,-0.00548871
0.2841645,0.4469176,0.8420969,0.002772929,0.00659539,-0.01033644,0.01991344,0.0006448685,-0.003599159
0.2826303,0.4458641,0.8454028,0.001237356,0.005785475,-0.007183133,0.0005374289,-0.01045515,-0.005164719
0.2831722,0.4475226,0.8479229,0.001777584,0.007680509,-0.004811587,-0.001223843,-0.006791081,-0.008692122
0.2813778,0.4482159,0.8488322,-1.900311e-05,0.00860291,-0.004046568,0.006999801,0.001013223,-0.009236097
0.2789137,0.4434057,0.852285,-0.00248565,0.004013835,-0.0007331919,0.007450799,0.005386074,-0.01084258
0.2779985,0.4394403,0.8569124,-0.003403764,0.0002613112,0.003759543,0.008129931,0.001441594,-0.01000647
0.2787931,0.4376561,0.8621774,-0.002612268,-0.001318432,0.00889469,0.01198668,-0.0129811,-0.006972461
0.2805683,0.44092,0.8598953,-0.0008400944,0.002141662,0.006487173,0.01151008,-0.01671823,-0.007115718
0.281676,0.4470679,0.850689,0.0002646035,0.008477379,-0.002840241,0.01289686,-0.01188236,-0.004287943
0.282318,0.4446087,0.8475581,0.0009037904,0.006197552,-0.006088173,0.01152816,-0.009659512,-0.001623611
0.2821742,0.4429733,0.8502537,0.0007572613,0.004732813,-0.003505247,0.006398919,-0.005975605,-0.003401603
0.2838145,0.4470583,0.8544772,0.002394845,0.008979559,0.0006100434,0.007064948,-0.00484366,-0.00433106
0.2863694,0.4465912,0.8549571,0.004946976,0.008665233,0.000986376,0.01154935,-0.001018944,-0.008997836
0.2863825,0.4480935,0.8537479,0.004957117,0.01031101,-0.0003219096,0.01594023,0.004078494,-0.01707674
0.2857669,0.449716,0.8569528,0.004338152,0.01206769,0.002788408,0.01235867,0.003421577,-0.01776305
0.2848257,0.4477094,0.8563602,0.003392866,0.01018551,0.002105481,0.006966402,0.004434742,-0.01232475
0.2827724,0.4488482,0.853111,0.001334858,0.01143883,-0.001229936,0.0104309,0.003848301,-0.009941537
0.2812439,0.4476235,0.8527826,-0.0001992032,0.01031862,-0.001640483,0.01172134,-0.004246829,-0.01222061
0.2820525,0.4456241,0.8512512,0.0006030111,0.00841348,-0.00324988,0.01242984,-0.01211736,-0.01352476
0.2831143,0.4465374,0.847363,0.001657671,0.009411036,-0.007212075,0.01626069,-0.008103085,-0.01069162
0.2825056,0.4481729,0.8435566,0.001041151,0.01112054,-0.01108811,0.01617001,-0.001717614,-0.008036824
0.2825958,0.4511159,0.8441408,0.001122946,0.01412737,-0.01056892,0.01630651,-0.005334581,-0.008086522
0.2825566,0.450084,0.8456171,0.001074506,0.01314919,-0.009152654,0.0161,-0.004086562,-0.006403481
0.2816367,0.4482712,0.8466198,0.0001447543,0.01137975,-0.008204649,0.0151211,0.0003479688,-0.002937183
0.2809089,0.4490105,0.8503722,-0.0005935048,0.0121521,-0.00450148,0.01701499,-0.001590741,-0.003502251
0.280336,0.4482823,0.8525251,-0.001177403,0.01144667,-0.002392163,0.01852446,-0.000792069,-0.007634474
0.280559,0.4486587,0.854095,-0.0009658343,0.01183569,-0.0008605261,0.01861407,0.0007947856,-0.008435718
0.280613,0.448836,0.8533625,-0.0009235256,0.01201547,-0.001625941,0.0145647,0.0002291064,-0.006187688
0.2805061,0.4486325,0.8490144,-0.001042349,0.01180444,-0.006001872,0.008052947,-0.0004296367,-0.005989685
0.2804268,0.4506667,0.8469166,-0.001133637,0.01382127,-0.008122497,0.005733916,-0.003439763,-0.004617987
0.2795968,0.4518323,0.8439346,-0.001975658,0.01495982,-0.01112222,0.006682286,-0.00647325,-0.003360664
0.2787858,0.4515366,0.8434189,-0.002798598,0.0146273,-0.01165046,0.007475727,-0.0049266,-0.005157219
0.2777648,0.4513165,0.8488817,-0.003831253,0.01436069,-0.00619485,0.005269568,-0.002413003,-0.004219243
0.2759203,0.4523133,0.85367,-0.005686925,0.01530142,-0.001408199,0.004526699,-0.005705903,-0.004065088
0.274661,0.4532446,0.8577025,-0.006956764,0.01616718,0.00262784,0.008084436,-0.00778329,-0.005153571
0.2766509,0.4531671,0.8547162,-0.004976346,0.0160146,-0.0003499511,0.009442716,-0.0065773,-0.002743958
0.2788351,0.4553962,0.8483192,-0.002800515,0.01815926,-0.00673393,0.007258675,-0.01033013,-0.0006869985
0.2777791,0.4578923,0.85135,-0.003863443,0.02056157,-0.003685712,0.004976338,-0.01155322,0.001900961
0.2795603,0.4571448,0.8498359,-0.002087677,0.0197109,-0.00517836,0.007548933,-0.002178135,0.002291314
0.2861228,0.4564021,0.8438373,0.0044709,0.01885549,-0.01115131,0.01014838,0.007070997,0.001416156
0.2903065,0.4572155,0.846269,0.008651859,0.01954671,-0.008689859,0.005040483,0.003311982,0.003822781
0.2874782,0.4567048,0.8457483,0.005821907,0.01890435,-0.009176488,-0.002241878,-0.001483592,0.0003905262
0.2830908,0.4552062,0.8422116,0.001433337,0.01726477,-0.01267485,-0.006293534,0.003896912,-0.0032566
0.2830451,0.4553,0.8406441,0.001386764,0.01720829,-0.01419956,-0.0004097585,0.005789334,0.0009486119
0.2814626,0.4557968,0.8392761,-0.0001964343,0.01754582,-0.01552004,0.007673938,0.005865436,0.002730924
0.2781221,0.4555399,0.8408694,-0.003537425,0.01712067,-0.01387419,0.003271134,0.004728086,0.0008522177
0.2769547,0.4550923,0.8405556,-0.004704942,0.01649629,-0.0141302,0.0007201268,-0.003008833,-0.0009291055
0.2759176,0.4541931,0.8406018,-0.005741846,0.01541179,-0.01402077,0.001905309,-0.001252512,-0.002143472
0.2782836,0.4538815,0.8429457,-0.003374981,0.01490682,-0.01160816,-0.0058353,0.002865688,-0.0007543401
0.2803033,0.4554167,0.8431449,-0.001353516,0.01624087,-0.01133448,-0.01345754,-0.0005334367,0.003516549
0.2789471,0.4569474,0.8444797,-0.002707125,0.01756296,-0.009919632,-0.01743916,-0.0002954825,0.007836335
0.281395,0.4567917,0.8430459,-0.0002555942,0.01719137,-0.0112679,-0.01762738,-0.0008771259,0.007801784
0.2844844,0.4559555,0.8394635,0.002838181,0.01613226,-0.01475912,-0.01365168,0.0001715004,0.00553226
0.2851435,0.4542026,0.8409397,0.003502577,0.01414977,-0.01318633,-0.01367642,0.006918598,0.002972399
0.2845044,0.4527475,0.8441683,0.002869231,0.01245871,-0.009855666,-0.01420789,0.01035966,-0.0009423352
0.2821245,0.45283,0.8464549,0.0004954983,0.01229918,-0.007461503,-0.01372559,0.009353546,-0.001425811
0.2799814,0.4522563,0.8455331,-0.001641219,0.01147796,-0.008270556,-0.0148412,0.006971351,-0.0007615451
0.2783448,0.4510644,0.843652,-0.003271195,0.01003355,-0.01003394,-0.01323435,0.006902494,-0.00147438
0.278956,0.4495733,0.8465032,-0.002653041,0.008285321,-0.007060305,-0.009984308,0.005934739,0.003486702
0.2788589,0.4498918,0.847664,-0.002742865,0.008342696,-0.005772573,-0.004922139,0.001932203,0.006094507
0.276893,0.4524469,0.8439577,-0.004700879,0.01063328,-0.009347862,-0.001529238,-0.0006824039,0.003455317
0.2781435,0.4522881,0.8413276,-0.003441895,0.01020694,-0.01184295,-0.002961573,-0.001183923,0.007191562
0.278974,0.4492825,0.841601,-0.002602115,0.006931286,-0.0114308,-0.002754057,0.000579757,0.00597621
0.2791624,0.4464862,0.8438046,-0.002403689,0.003863037,-0.009084689,-0.002980459,-0.00113531,0.0001512637
0.2810628,0.4483624,0.8449981,-0.0004923025,0.005465771,-0.007745188,-0.005363874,-0.00453414,0.004381824
0.2831433,0.4516932,0.8449198,0.001599982,0.008522214,-0.007674036,-0.007205358,-0.004520784,0.005259641
0.2855294,0.4494154,0.8470165,0.003998629,0.005969748,-0.005424862,-0.008719757,-0.003012602,0.002158195
0.2841525,0.4483338,0.848941,0.002634699,0.004613432,-0.003345083,-0.009842859,0.003634212,0.004651852
0.2818611,0.4483311,0.8462852,0.0003566178,0.00433666,-0.005843238,-0.01306038,0.006917142,0.004590986
0.2820512,0.446575,0.8431454,0.0005602392,0.00230736,-0.008823239,-0.0151198,0.003987057,0.003831541
0.2797635,0.4492536,0.8452989,-0.001713924,0.004714283,-0.006508165,-0.01502291,0.003397509,0.005101006
0.2781452,0.45074,0.8469408,-0.003318588,0.005930962,-0.00470315,-0.01570069,0.0003086727,0.005306129
0.2782247,0.4487223,0.8450064,-0.003225342,0.003645887,-0.006472938,-0.01216636,-0.002498781,0.006744151
0.2780429,0.4484022,0.8449703,-0.003393023,0.003060861,-0.006343336,-0.007427133,-0.001797356,0.007443649
0.2797653,0.4485208,0.8448938,-0.00165623,0.002917564,-0.006253198,-0.008183923,-0.002374335,0.006704881
0.2789205,0.4482642,0.8462037,-0.002486193,0.002402373,-0.004776045,-0.00985395,-0.004768088,0.007303195
0.275796,0.4458739,0.85133,-0.005595325,-0.0002428674,0.0005180088,-0.009972369,-0.00707494,0.007656076
0.2761594,0.444201,0.8547356,-0.00521601,-0.002166633,0.004091412,-0.009814039,-0.008342537,0.007939918
0.2820415,0.4479487,0.8580235,0.0006827972,0.001334591,0.007546573,-0.002831486,-0.008089917,0.008475947
0.290465,0.4509541,0.8593533,0.009123698,0.004098328,0.009042345,0.00549901,0.004197082,0.007256047
0.2898628,0.4468225,0.8517519,0.008539408,-0.0002698988,0.001604995,-0.003759466,0.01858447,0.006689057
0.2840929,0.4405464,0.8445625,0.002787303,-0.006777398,-0.005422801,-0.02247737,0.01296961,0.007169601
0.2837456,0.4407021,0.8484132,0.002457358,-0.00684734,-0.00141321,-0.02929832,0.004031151,0.007748047
0.2821445,0.446784,0.8527863,0.0008731876,-0.0009850304,0.003115894,-0.02136151,0.004406012,0.008475331
0.2812193,0.4510384,0.8506686,-3.581175e-05,0.003056244,0.001151166,-0.01231552,0.004539494,0.005673672
0.2826928,0.4463067,0.8527487,0.001453229,-0.001881872,0.003380847,-0.01618555,0.005477566,0.004049478
0.2812674,0.4401168,0.8566377,4.262349e-05,-0.008271532,0.007415718,-0.01864138,0.002707385,0.00734684
0.2811548,0.4433377,0.8564369,-5.591387e-05,-0.005243326,0.00735678,-0.01353752,-0.003859178,0.009123435
0.2807351,0.4445879,0.8556915,-0.0004621784,-0.004178556,0.006748599,-0.01635184,-0.003023854,0.009555518
0.2808551,0.442286,0.8510851,-0.0003295644,-0.00665833,0.002274555,-0.01780481,-0.0009272966,0.009436255
0.2828973,0.4447246,0.8457083,0.001724653,-0.004389805,-0.002974947,-0.01690158,-0.002201577,0.009089955
0.282572,0.4439611,0.841924,0.001410687,-0.00531545,-0.006637134,-0.02044632,-0.003458666,0.01115603
0.2861499,0.4436723,0.8402516,0.004999202,-0.005758294,-0.008192141,-0.01744241,-0.005700262,0.01127831
0.2903609,0.4454778,0.843875,0.009219815,-0.004098602,-0.004455908,-0.01170648,-0.0009269256,0.008424472
0.2865132,0.4426142,0.8459627,0.005380485,-0.00709978,-0.002259518,-0.009741845,0.007315743,0.006230953
0.2809928,0.4418817,0.8529183,-0.0001329108,-0.007961415,0.004800853,-0.01366275,0.009439415,0.004964443
0.278863,0.4418608,0.8615387,-0.002257347,-0.008103144,0.01352189,-0.02000789,0.01181465,0.005959711
0.2789383,0.4410456,0.8554597,-0.002177977,-0.009030382,0.007539074,-0.02025548,0.01114567,0.007679087
0.279324,0.4420996,0.8499768,-0.001789453,-0.008079871,0.002147501,-0.02199777,0.004143692,0.005669752
0.2795524,0.4401538,0.8527904,-0.001559231,-0.01012027,0.005047445,-0.02166536,0.001237518,0.003635615
0.2808621,0.4384195,0.8531137,-0.0002485715,-0.01194019,0.005451825,-0.01471715,0.005709283,0.005425832
0.2821562,0.4394143,0.8527874,0.00104572,-0.0110221,0.005201458,-0.01206393,0.01003145,0.009355587
0.2804506,0.4421511,0.8536868,-0.0006604486,-0.008352756,0.006171345,-0.0140854,0.009280238,0.01479565
0.278792,0.4444145,0.8539472,-0.002320324,-0.006147523,0.006496839,-0.01799203,0.008030396,0.01584806
0.2830004,0.4418606,0.8515623,0.001886302,-0.008750642,0.004171402,-0.01910456,0.006185009,0.01262413
0.2873835,0.4389392,0.8494924,0.006267125,-0.01171222,0.002155512,-0.01909388,0.002278296,0.01110603
0.2873558,0.4364061,0.8527087,0.00623643,-0.01427658,0.005420314,-0.02073019,0.002339913,0.008170732
0.2881957,0.4357152,0.8564447,0.007072351,-0.01498962,0.00919929,-0.01779413,0.004439544,0.007185971
0.2891634,0.4387217,0.8556404,0.008034868,-0.0119962,0.008432374,-0.01699917,0.006689732,0.006462368
0.2861468,0.437371,0.8537138,0.005011641,-0.01335065,0.006537591,-0.01962304,0.01215109,0.001274657
0.2806418,0.4357719,0.8525128,-0.0005016014,-0.01494421,0.00536264,-0.0231794,0.01392812,0.002659591
0.2771527,0.4369186,0.8510416,-0.00400056,-0.01378267,0.003911791,-0.02877711,0.01009253,0.005538844
0.2785514,0.4364086,0.8538357,-0.002613018,-0.01426859,0.006720727,-0.02662204,0.009081285,0.003303636
0.2820202,0.4375802,0.8603504,0.0008433163,-0.01306358,0.01324465,-0.02154561,0.009873678,0.0052963
0.2833053,0.4361375,0.8648735,0.00211512,-0.01446361,0.01777129,-0.01865139,0.008712042,0.007194701
0.2831934,0.4334062,0.8657957,0.001988912,-0.01714299,0.01869091,-0.01392935,0.00751065,0.007366595
0.2820816,0.4349277,0.8622972,0.0008619628,-0.01556053,0.01518334,-0.01301351,0.006371364,0.008472587
0.2787773,0.4340724,0.8600885,-0.002458355,-0.01634558,0.01295873,-0.01186687,0.00414779,0.006647996
0.2769226,0.4326298,0.8622625,-0.004329759,-0.01770886,0.01510973,-0.01045973,1.605833e-05,0.005186894
0.279208,0.4335733,0.862483,-0.002061449,-0.01667687,0.01529999,-0.01450414,-0.004824547,0.004267352
0.2866555,0.4331911,0.8587618,0.005368575,-0.01696139,0.01154122,-0.01181843,-0.005927256,0.003768467
0.2980622,0.4323521,0.852955,0.01675752,-0.01769375,0.005689361,0.004724041,0.005644387,0.003313727
0.3006365,0.4313579,0.8503548,0.01931312,-0.01857229,0.003036993,0.01732956,0.02425255,-0.000458569
0.2873993,0.430044,0.8543353,0.00605588,-0.0197615,0.00695847,0.001013874,0.02207979,-0.001795655
0.2756592,0.4288437,0.8578921,-0.005706242,-0.02082809,0.01044971,-0.02176429,0.001810484,-0.00146183
0.2781621,0.4291595,0.857037,-0.003227067,-0.02036965,0.009522987,-0.01199491,-0.007825412,-0.002428282
0.2797889,0.4314004,0.8561351,-0.001625497,-0.01797711,0.008543313,0.003300036,-0.002079499,-0.001792334
0.2736136,0.4323359,0.8555121,-0.007827123,-0.01688106,0.007836681,0.005734945,0.007345739,-0.001965934
0.2727749,0.4325361,0.8535413,-0.008692772,-0.01651152,0.005776599,0.009426166,0.005880599,-0.001024915
0.2752602,0.4344991,0.8536191,-0.006234652,-0.0143707,0.005759767,0.007798253,-0.00350742,0.001050029
0.2757873,0.4369018,0.8539372,-0.005734495,-0.01178209,0.005978247,0.01280311,-0.01237417,0.001336531
0.2796608,0.4365873,0.8522822,-0.0018873,-0.01190282,0.004219005,0.01770394,-0.01911253,0.002564521
0.2832179,0.4355138,0.8535444,0.001644369,-0.0127753,0.005372615,0.009851264,-0.01191742,0.00218298
0.2823444,0.4373561,0.8549537,0.0007462314,-0.01072516,0.00666939,0.007408664,-0.00681953,-0.002858658
0.2817373,0.4383339,0.8539913,0.0001154507,-0.009533124,0.005590689,0.0002786738,-0.01668378,-0.007850374
0.2850169,0.4385393,0.8564618,0.003372072,-0.009107543,0.007941664,-0.0020551,-0.02892882,-0.007073718
0.2885382,0.4392694,0.8631754,0.00687115,-0.00815212,0.01453235,0.009804528,-0.04740802,-0.005343843
0.2895262,0.4365748,0.8650008,0.007837318,-0.01061653,0.01623168,0.02456385,-0.04598061,-0.007935257
0.2915061,0.4340849,0.8486844,0.009795547,-0.01287197,-0.0002140842,0.04467208,-0.003225165,-0.009156819
0.2907272,0.4338838,0.8310687,0.00899469,-0.01283459,-0.01796212,0.02870435,0.02820397,-0.01053696
0.2831697,0.4356988,0.841786,0.001414631,-0.01077761,-0.007379252,-0.002371341,0.002018955,-0.01242751
0.2771964,0.4405678,0.856735,-0.00458211,-0.005663217,0.007434069,0.01046603,-0.03129106,-0.01126587
0.2806172,0.4412464,0.8535364,-0.001185223,-0.004736496,0.004099255,0.02483127,-0.0160251,-0.01182845
0.2868732,0.4391964,0.8538561,0.005046266,-0.006536194,0.00428236,0.02901908,-0.00311439,-0.01007022
0.2860201,0.4397858,0.8542607,0.004168386,-0.005694735,0.004550057,0.03113912,-0.006953211,-0.00588747
0.283754,0.4386995,0.8480584,0.001876874,-0.006527859,-0.001789117,0.01858054,0.002058034,-0.005100091
0.2836382,0.4384252,0.8487825,0.001735234,-0.006548217,-0.001201552,0.02175603,-0.0049962,-0.004680313
0.2840232,0.4396655,0.8517146,0.002093781,-0.005053706,0.001594583,0.02927026,-0.007770613,-0.006471833
0.288253,0.439429,0.8523681,0.00629652,-0.005036067,0.002113012,0.02745879,0.0005163469,-0.007369683
0.2896738,0.4405544,0.8510131,0.007689621,-0.003657089,0.0006242598,0.02795265,-0.002280518,-0.006855625
0.2875277,0.4406302,0.8508223,0.005514977,-0.003328813,0.0003010723,0.0192835,0.008505487,-0.01039857
0.2874427,0.4399325,0.8535171,0.005400321,-0.003775273,0.002865121,0.01813825,0.009805158,-0.01161116
0.2865301,0.4415048,0.852212,0.004456823,-0.001953691,0.001431068,0.01798261,0.003525261,-0.01210747
0.284198,0.4419095,0.8528408,0.002092618,-0.001301861,0.001932775,0.009849016,0.00818321,-0.01299732
0.2804957,0.4415776,0.853935,-0.001642978,-0.001389303,0.00290191,0.01865816,-0.001540405,-0.01136832
0.2792399,0.4419035,0.8546153,-0.002933128,-0.0008220335,0.003459328,0.02966718,-0.007670843,-0.01375659
0.2788404,0.4424621,0.8593755,-0.00336788,-2.551441e-05,0.008098649,0.04022054,-0.01274861,-0.01502998
0.2756148,0.443436,0.8573221,-0.006629198,0.001182523,0.005926333,0.04847664,-0.01966255,-0.01170064
0.2765622,0.443643,0.8533514,-0.005717509,0.001619356,0.001838598,0.0398953,-0.01015289,-0.008073222
0.2779769,0.4458525,0.8508016,-0.004338243,0.004054201,-0.0008263297,0.03666322,-0.008355349,-0.004500443
0.278221,0.4500317,0.8465358,-0.004129017,0.008453541,-0.005205261,0.03490448,-0.008889723,-0.005810374
0.28049,0.4504296,0.8475166,-0.00189392,0.009066074,-0.004335359,0.02807359,-0.005009957,-0.00828199
0.2815232,0.4477721,0.8486319,-0.000893618,0.006616917,-0.003328285,0.03014122,-0.01347035,-0.00787913
0.2872093,0.4466524,0.8498905,0.004760786,0.005698903,-0.002174873,0.03847701,-0.0243193,-0.008186518
0.2937233,0.4476105,0.8500839,0.01124412,0.006851488,-0.002083577,0.05341668,-0.02531968,-0.008239039
0.2925582,0.4492107,0.8431628,0.010049,0.008638705,-0.009103405,0.05812506,-0.007242709,-0.01199192
0.2883664,0.4504009,0.8375113,0.005827404,0.01000816,-0.01484982,0.04308735,0.009251958,-0.01643193
0.2840214,0.4511086,0.8372289,0.001452429,0.01088676,-0.01522296,0.02902226,-0.004732111,-0.01322608
0.2820306,0.4543125,0.8415158,-0.0005684992,0.01425297,-0.01102174,0.02367784,-0.01897499,-0.01022188
0.2805994,0.4593238,0.8458713,-0.002030077,0.01941729,-0.006746476,0.02557278,-0.01113392,-0.01085348
0.2788794,0.4588967,0.8473415,-0.003780437,0.01913357,-0.005350801,0.0268285,-0.006325894,-0.008835093
0.2787048,0.4554046,0.8527784,-0.003985155,0.01577444,1.751598e-05,0.02421066,-0.007943263,-0.007077898
0.2763532,0.4554701,0.8557081,-0.006366451,0.01596196,0.002884306,0.02500368,-0.01021189,-0.007701499
0.2794588,0.4557989,0.8458441,-0.003289679,0.01640158,-0.00703702,0.02425719,-0.01938036,-0.007198585
0.2871345,0.4562435,0.8362561,0.004358127,0.01694535,-0.01667693,0.02113042,-0.01837026,-0.005979269
0.2869847,0.4577129,0.8403288,0.00418146,0.01850197,-0.01265037,0.01747115,-0.009340671,-0.001832016
0.2873546,0.4578675,0.8452788,0.004525313,0.01873164,-0.007740384,0.01102938,-0.009349704,0.002007681
0.2914426,0.459342,0.843626,0.008587739,0.02026881,-0.009426821,0.008622363,-0.008045132,-0.002808758
0.2930871,0.4603739,0.8448482,0.01020697,0.02135053,-0.008231864,0.01091743,-0.006015306,-0.005550969
0.2938179,0.4590191,0.8441453,0.01091238,0.02003264,-0.00895547,0.0148183,-0.0004547621,-0.003875794
0.2882626,0.4577911,0.8397458,0.00533113,0.01882818,-0.01336921,0.01804145,0.007053329,-0.009809295
0.2801486,0.4556387,0.837775,-0.002809663,0.0166861,-0.01534748,0.01423384,0.003123892,-0.01182599
0.2801685,0.4556109,0.8371806,-0.002817435,0.01665532,-0.01594238,0.008058015,0.002911776,-0.005140464
0.2815205,0.4595768,0.841504,-0.001493604,0.02060491,-0.01161229,0.005315744,0.004465487,-0.001932666
0.2799019,0.4621254,0.84445,-0.003140703,0.02312409,-0.008652308,0.004662307,-0.00131522,-0.001341124
0.28055,0.4613753,0.8410915,-0.002521182,0.02233126,-0.01198933,0.008713365,-0.003117613,-0.001690493
0.2811925,0.4604942,0.8387008,-0.001907248,0.02139408,-0.01435131,0.0136746,-0.002489356,-0.001899651
0.2813042,0.4615585,0.8376132,-0.001823733,0.02238896,-0.0154027,0.01260123,-0.001604589,-0.001372028
0.2845971,0.4620212,0.8416799,0.001441401,0.02276892,-0.0112924,0.01168212,-0.004158665,-0.001878617
0.2872683,0.4612879,0.8456684,0.00408533,0.02193952,-0.007252746,0.01372588,-0.00769063,-0.001038525
0.2878985,0.4603812,0.8398816,0.004688568,0.02092361,-0.01298116,0.01195133,-0.004934445,-0.001263593
0.2890022,0.4590572,0.8353435,0.00576556,0.01947735,-0.01745358,0.008932834,-0.001351831,-0.001647995
0.2905764,0.4601159,0.8381331,0.007313078,0.02040088,-0.01459108,0.005994571,0.003266706,-0.0008546588
0.2914035,0.4619402,0.8416314,0.008113204,0.02207748,-0.01101257,-0.0009876356,0.006029304,-0.001761413
0.2864589,0.4625365,0.8444321,0.003141072,0.02251368,-0.008124483,-0.008567024,0.005777834,-0.001562634
0.2808795,0.4626438,0.8468419,-0.002466473,0.02244878,-0.005620337,-0.01505499,0.006488279,-0.001385541
0.2823544,0.4603289,0.8447801,-0.001020384,0.01994974,-0.007581143,-0.01644634,0.00491248,-0.0006832971
0.2825614,0.4591138,0.8417961,-0.0008425459,0.01853888,-0.01045812,-0.01301127,0.003731405,0.001696317
0.279962,0.4592128,0.8439724,-0.003471386,0.01843082,-0.00816875,-0.01459181,0.002905758,0.002243387
0.2797267,0.456088,0.8467429,-0.00373612,0.01508811,-0.005279707,-0.01473382,0.002803224,0.00434485
0.2790305,0.4531434,0.8486211,-0.004461504,0.01191528,-0.003277716,-0.01211328,0.004230743,0.00675224
0.2789735,0.4535116,0.8478544,-0.004547282,0.01204562,-0.003915858,-0.01463085,0.002040386,0.005880683
0.2808719,0.4540639,0.8445145,-0.0026768,0.0123511,-0.007123005,-0.01481372,0.0009881099,0.00645777
0.2827653,0.4526011,0.8453137,-0.0008104135,0.01063326,-0.006187136,-0.01615346,0.0007180655,0.007906469
0.2863764,0.4542712,0.8497227,0.002774713,0.01204079,-0.001638022,-0.01847868,9.627975e-05,0.005716123
0.2907059,0.4581832,0.8533764,0.007079193,0.01568337,0.002158917,-0.008682857,0.00566356,0.003495194
0.2932726,0.4586595,0.8482833,0.00962162,0.0158839,-0.002788507,0.001641629,0.01291907,0.004555129
0.2922854,0.4601528,0.8400858,0.008610514,0.01709538,-0.01083837,0.0004385254,0.01670392,0.003877033
0.2854125,0.4612558,0.839416,0.001713625,0.0179111,-0.01135866,-0.004823074,0.01193223,0.00146613
0.2797355,0.4605713,0.8358482,-0.003987512,0.01693396,-0.01477526,-0.01083716,0.003864861,0.002473394
0.2814937,0.4614905,0.8347076,-0.002253532,0.01755558,-0.01576279,-0.01780774,0.00802427,0.005482979
0.2826236,0.4596988,0.841654,-0.001147865,0.01546151,-0.008661124,-0.01847192,0.01291709,0.006345449
0.2786776,0.4573785,0.8422553,-0.005117796,0.01283453,-0.007902548,-0.01400665,0.009880264,0.004080878
0.276696,0.4562655,0.8414361,-0.007122871,0.01141094,-0.008562444,-0.01457751,0.005436321,0.002864582
0.2788172,0.4536332,0.8430537,-0.005024295,0.008464621,-0.006783634,-0.01363193,-0.004671193,0.004680177
0.2814935,0.4515756,0.8427526,-0.002369586,0.00609005,-0.006921903,-0.009873493,-0.008232707,0.006235533
0.2845162,0.4513524,0.8435673,0.0006327516,0.005547875,-0.005942974,-0.01122723,-0.003094411,0.00680137
0.2861239,0.4554113,0.8431803,0.002221389,0.009286235,-0.006164497,-0.01218597,-0.005584425,0.006563043
0.2874814,0.4592792,0.844591,0.00356102,0.01283276,-0.004587258,-0.01355321,-0.005748133,0.006294053
0.2902772,0.457701,0.8473122,0.006339912,0.01093272,-0.001698836,-0.01460697,-0.001203741,0.006495564
0.2897828,0.454504,0.8472624,0.005829334,0.007413719,-0.001581051,-0.01249875,0.004210762,0.004315139
0.2892415,0.4517987,0.8490279,0.005272173,0.004386726,0.0003521296,-0.01215144,0.01317743,0.000358606
0.2885262,0.4523453,0.8491247,0.004541223,0.004612482,0.0006160956,-0.01123654,0.01144711,-0.001488888
0.2839722,0.4534565,0.8478931,-2.857677e-05,0.005404207,-0.000449177,-0.01178467,0.004409871,-0.001607484
0.2820255,0.4513706,0.8490537,-0.001991139,0.003000786,0.0008764042,-0.01498564,0.003914153,-0.001469578
0.2796845,0.4516334,0.8478361,-0.004348004,0.002948495,-0.0001778253,-0.01687256,0.003058367,0.0008858578
0.2775433,0.4544965,0.8453742,-0.00650498,0.00549941,-0.002478261,-0.01777742,0.002595209,0.00405633
0.2805493,0.4570741,0.844925,-0.003514263,0.007768287,-0.002768248,-0.01647369,0.001080673,0.005607277
0.2811972,0.4574972,0.8479212,-0.002880869,0.007886172,0.0003847677,-0.01580662,-0.0001767198,0.00836742
0.28276,0.4551162,0.8511693,-0.001331807,0.005203805,0.003787123,-0.01528509,1.686995e-05,0.01075334
0.2856207,0.4535678,0.8511689,0.001516165,0.003358142,0.003938064,-0.01309713,-0.003289724,0.00986755
0.2846899,0.4522701,0.8517836,0.0005734872,0.001767417,0.004700803,-0.01247536,-0.001534767,0.009019333
0.2874998,0.4514498,0.850557,0.003372314,0.0006588297,0.003618626,-0.01207855,0.001790268,0.008254841
0.2897431,0.4518956,0.8463861,0.005605271,0.0008214592,-0.0004119414,-0.01228743,-0.0001596911,0.005909473
0.2867833,0.4518873,0.843883,0.002635583,0.0005353648,-0.002778877,-0.01288596,0.002564366,0.004555353
0.285492,0.4531262,0.8444781,0.001334653,0.001502214,-0.002051789,-0.01577615,0.005645718,0.003980851
0.2859792,0.4531668,0.8470316,0.001812388,0.001276773,0.0006295606,-0.02269907,0.004749612,0.002899766
0.2863283,0.4514311,0.8458635,0.002152107,-0.0007186338,-0.0004148271,-0.02550811,0.006787022,0.003967398
0.2846971,0.4503329,0.8452762,0.0005114402,-0.002070073,-0.0008825587,-0.02448844,0.00951549,0.005470642
0.2822769,0.4493332,0.8495196,-0.001918174,-0.003316217,0.003476175,-0.02366234,0.008123618,0.006175361
0.2808182,0.4517051,0.8531235,-0.003386269,-0.001183647,0.007191164,-0.02069622,0.003871672,0.007470996
0.2802624,0.4525601,0.8560651,-0.003951329,-0.0005606125,0.01023923,-0.0179807,0.000415689,0.005770657
0.2826843,0.449406,0.8518504,-0.001538247,-0.003939171,0.006126124,-0.01711503,-0.001695834,0.00420122
0.2846928,0.4486457,0.8456833,0.0004618595,-0.004916185,5.532884e-05,-0.01628357,-0.0005153005,0.004842383
0.2867369,0.4465851,0.8491455,0.002498146,-0.007185531,0.00360857,-0.01730852,0.002137545,0.00688843
0.2899834,0.4462518,0.8495694,0.005737174,-0.007719358,0.004118289,-0.02251212,-0.0002050778,0.01256921
0.289263,0.4480113,0.8466908,0.005009505,-0.00615174,0.001320096,-0.02612756,-0.005976081,0.01142288
0.2890467,0.4461134,0.8455959,0.004785911,-0.008232724,0.0003004373,-0.02112714,-0.008044347,0.00586788
0.2937246,0.4469051,0.8409522,0.009456142,-0.007614958,-0.004273287,-0.01310349,0.009363048,0.006537063
0.2956741,0.4442846,0.8406602,0.01139744,-0.01040005,-0.004500025,-0.01434982,0.03471098,0.006268307
0.2876916,0.4390403,0.843549,0.003405552,-0.01579939,-0.001550523,-0.02823159,0.02927897,0.006732003
0.2782568,0.4418644,0.8446849,-0.006039713,-0.0131204,-0.0003581589,-0.04239997,0.006055698,0.007821222
0.279905,0.4458405,0.8485595,-0.004403181,-0.009279002,0.00356896,-0.04154647,-0.001740034,0.006097866
0.2840668,0.4505967,0.8498946,-0.0002539348,-0.004647003,0.004952651,-0.0312939,0.009237535,0.006657987
0.28243,0.4513637,0.8494463,-0.001903863,-0.003993778,0.004548983,-0.0273565,0.02328357,0.004954151
0.2807042,0.445843,0.8520892,-0.003643163,-0.009617991,0.007232402,-0.02587562,0.01444866,0.003745506
0.278699,0.4447039,0.8532444,-0.00566199,-0.0108503,0.008423884,-0.02317076,0.003319292,0.009174644
0.2788371,0.4425332,0.8539913,-0.005537596,-0.01310404,0.009202808,-0.02425846,0.007726476,0.01377977
0.2828869,0.4420132,0.8527525,-0.001501036,-0.01369675,0.007991328,-0.02334182,0.002252212,0.01297422
0.2837601,0.4441731,0.8476957,-0.0006406111,-0.01159916,0.002957219,-0.02166242,0.001293017,0.01025921
0.2832887,0.4403716,0.8454835,-0.001124044,-0.01545233,0.0007629077,-0.02215982,0.006137235,0.01042394
0.2841704,0.4397039,0.8443077,-0.0002537806,-0.01616121,-0.0003995274,-0.02131566,0.0004299352,0.01116399
0.2865639,0.4407881,0.8445938,0.002128859,-0.01510736,-0.0001043083,-0.02070057,0.002747842,0.01109987
0.2899899,0.4397694,0.8480958,0.005544642,-0.01614562,0.003402683,-0.01780585,0.005081591,0.01158251
0.287388,0.4407435,0.8508854,0.002932929,-0.0151801,0.006193523,-0.01637652,0.006303162,0.01047382
0.2838426,0.4400111,0.8550105,-0.000622036,-0.01591009,0.01031599,-0.02147935,0.01420355,0.01003844
0.2829521,0.440232,0.8537377,-0.001521947,-0.01567583,0.009036616,-0.02792214,0.01319276,0.008035727
0.278743,0.4406091,0.8499076,-0.005740318,-0.01527444,0.005195968,-0.03196426,0.01113171,0.00256183
0.2780283,0.4401727,0.8564823,-0.006463779,-0.0156757,0.01175581,-0.03125724,0.00913224,0.0001713274
0.2802489,0.4421017,0.8604933,-0.004251238,-0.01370077,0.01574774,-0.02641292,0.002300077,0.001602736
0.2788078,0.4416367,0.8570804,-0.005699455,-0.01410908,0.0123111,-0.01818421,0.0001144655,0.00362466
0.2794262,0.4398657,0.8555213,-0.005087042,-0.01581305,0.01072347,-0.009521741,-0.0006988774,0.004170395
0.2823552,0.4393851,0.8538123,-0.002162663,-0.01621639,0.008980827,-0.004219139,-0.002252424,0.004393722
0.2839501,0.4378849,0.8545787,-0.0005709645,-0.0176291,0.009708434,-0.00154666,-0.004548464,0.004871386
0.2849956,0.4348974,0.8563331,0.0004728037,-0.02051903,0.01141897,-0.003151226,-0.005878769,0.003682797
0.2863152,0.4326902,0.854403,0.001791935,-0.02261865,0.00943977,-0.00703932,-0.001412311,0.002704987
0.288201,0.4321218,0.8536662,0.003678548,-0.02306933,0.008648642,-0.01048333,0.004220235,0.002795563
0.2876586,0.4319413,0.8547483,0.003137819,-0.02312197,0.009671312,-0.009669711,0.006023065,0.004373791
0.285876,0.4365098,0.8561462,0.001357717,-0.01841515,0.01100468,-0.005146902,0.00550521,0.005491128
0.2857821,0.4425962,0.8586449,0.001266839,-0.01218037,0.01343376,-0.005446702,0.002092796,0.004230432
0.283342,0.4430747,0.860669,-0.001169865,-0.01154356,0.01538308,-0.004082585,-0.003793355,0.003528006
0.2809415,0.4395167,0.8602836,-0.003566489,-0.01493383,0.01491749,-0.001801402,-6.405657e-05,0.002740536
0.2820007,0.4347903,0.8559056,-0.002503,-0.01948349,0.01045392,-0.005203964,0.006635757,0.002559016
0.282041,0.4347212,0.8507967,-0.002457814,-0.01936725,0.005253978,-0.006812165,0.003609392,0.00315794
0.2807028,0.4354999,0.8512173,-0.003790411,-0.01839464,0.005578386,-0.0098095,0.005339879,0.003899209
0.2793884,0.4336178,0.8525347,-0.005098493,-0.02007443,0.006794589,-0.01043248,0.007023235,0.005692419
0.2788391,0.4343023,0.8517505,-0.005640561,-0.0191795,0.005904581,-0.005554146,0.002151346,0.003550263
0.279278,0.4332015,0.8576516,-0.00519339,-0.0200618,0.01169564,-0.001880323,0.002257594,0.0008542949
0.2791783,0.4326727,0.8633427,-0.005283455,-0.02036421,0.01727237,0.005030506,-0.0006051859,0.001704398
0.2795008,0.433275,0.8592642,-0.004949939,-0.01952783,0.01307537,0.004442477,-0.005628716,0.0008093066
0.2818487,0.4283515,0.8567901,-0.00258949,-0.02420969,0.01047825,-0.001380597,-0.008916031,-0.0008802854
0.2869487,0.4259498,0.858901,0.002524542,-0.02636221,0.01246185,0.003617768,-0.01181384,-0.00636774
0.2897921,0.4306619,0.8585794,0.005383431,-0.02139336,0.01200872,0.009352533,0.0006149679,-0.01358931
0.2853642,0.43526,0.8578829,0.000972217,-0.01653119,0.01117631,0.01359384,0.01633035,-0.01067744
0.2809454,0.4344568,0.8592759,-0.003429122,-0.01706297,0.01242932,0.009544369,0.01083716,-0.005360461
0.2811323,0.4354935,0.8619907,-0.003223917,-0.01574808,0.01499999,-0.0001729908,-0.001500372,-0.004818228
0.2809387,0.439934,0.8634757,-0.003398425,-0.01102306,0.01633679,0.008693013,-0.006702736,-0.002821979
0.2814296,0.4338802,0.8582875,-0.002887503,-0.01678637,0.01099609,0.01694889,-0.008575307,-0.002395446
0.2826323,0.4274093,0.8513649,-0.001663982,-0.02296133,0.003916976,0.01364404,-0.001083551,-0.004370779
0.2797175,0.4315742,0.8540648,-0.004556912,-0.01849529,0.006456461,0.0162134,0.005323707,-0.004697648
0.279119,0.4338527,0.8579749,-0.005132594,-0.01591074,0.01020276,0.01803622,-0.004380135,-0.001770591
0.2842178,0.4364801,0.8568156,-9.897509e-06,-0.01297251,0.008876503,0.02161158,-0.01265145,0.00189162
0.2874304,0.4407014,0.8579679,0.003227641,-0.008436124,0.009858859,0.02600768,-0.01419179,-0.002507339
0.2874852,0.4388983,0.8552918,0.003308056,-0.009920431,0.007010099,0.02419387,-0.01588896,-0.007345507
0.2869796,0.4380018,0.8496986,0.002828703,-0.01049518,0.001241762,0.02493363,-0.01323113,-0.004211377
0.2877851,0.4396441,0.8482577,0.0036608,-0.008528736,-0.0003762432,0.02387741,-0.01186651,-0.004031846
0.2876153,0.4379831,0.8485342,0.003517454,-0.009863696,-0.0002782703,0.02081,-0.01057266,-0.005771305
0.2859769,0.4350323,0.8528401,0.001905432,-0.01248708,0.00384822,0.02009922,-0.005091679,-0.004797476
0.2863535,0.4333957,0.8550692,0.002307805,-0.01379536,0.005897438,0.01951586,-0.003955962,-0.006340869
0.2859073,0.4365307,0.8519868,0.001886929,-0.01033144,0.002635104,0.02090435,-0.00576007,-0.009852062
0.2854471,0.4428171,0.8510809,0.001451314,-0.003715963,0.001549431,0.01937886,-0.003195518,-0.01310766
0.2838849,0.4433118,0.8520206,-8.7209e-05,-0.002892399,0.002309976,0.01657908,0.0009845801,-0.01208149
0.2805974,0.441373,0.85384,-0.003351766,-0.004503399,0.003950996,0.0140683,0.002035432,-0.007261404
0.2821252,0.439377,0.8545963,-0.001801809,-0.006173134,0.00453009,0.01089784,-0.002059946,-0.005069217
0.2834887,0.4344279,0.8555144,-0.0004169079,-0.01079803,0.005272345,0.01514955,-0.008723418,-0.003269626
0.2831437,0.435883,0.8550318,-0.0007409745,-0.009021163,0.004615289,0.02176658,-0.00934702,-0.0008098722
0.2848506,0.4403823,0.8475752,0.0009861425,-0.004202725,-0.003014054,0.02542053,-0.008619327,-0.001736509
0.2856464,0.4400368,0.8424624,0.001801552,-0.00423201,-0.008297666,0.0275383,-0.01238587,-0.006444717
0.2868007,0.4410451,0.8440257,0.002974858,-0.002910959,-0.00690255,0.02812588,-0.01151243,-0.01071174
0.2880426,0.4422353,0.8453823,0.004234859,-0.001411798,-0.005711051,0.02954346,-0.009588235,-0.009252024
0.2890365,0.4440007,0.8442384,0.005245843,0.0006582177,-0.007016316,0.02671653,-0.0095589,-0.006582639
0.2894595,0.4456076,0.8454743,0.005684744,0.002565002,-0.005937542,0.02302684,-0.005839689,-0.005941942
0.2881436,0.443667,0.853256,0.004383359,0.0009189602,0.001691691,0.02392117,-0.003940082,-0.004620895
0.2879552,0.4444917,0.8582896,0.004207718,0.002032414,0.006577628,0.02189156,-0.003653239,-0.0083525
0.2864359,0.4449579,0.8541441,0.002699514,0.002780987,0.002289114,0.01660468,-0.004406941,-0.01349926
0.2843912,0.4437561,0.8492124,0.0006640389,0.001854982,-0.002780969,0.01366904,-0.008386733,-0.01134358
0.2845414,0.4453094,0.8522828,0.0008216844,0.003676836,0.0001556982,0.01907905,-0.009037301,-0.01004071
0.2828296,0.4460876,0.8555574,-0.0008844718,0.004716149,0.003301217,0.0261248,-0.009298478,-0.01094097
0.2813318,0.4472035,0.8534514,-0.002378206,0.006085363,0.001070708,0.02371492,-0.01293152,-0.007798022
0.2819607,0.4460538,0.8562431,-0.001746719,0.0051806,0.003742412,0.02367869,-0.01575583,-0.004285631
0.2820871,0.4430814,0.8582404,-0.001619065,0.002444646,0.005624091,0.02873678,-0.01976903,-0.00163563
0.2821008,0.4450325,0.8570096,-0.001605112,0.004623288,0.004281886,0.02977114,-0.02121099,-0.001270035
0.2829128,0.4467164,0.8580638,-0.0007937706,0.006525729,0.005228493,0.03054607,-0.01519485,-0.003462581
0.2846052,0.4475076,0.8525063,0.00089721,0.0075263,-0.0004328519,0.02943453,-0.01111825,-0.002960485
0.2858084,0.4499733,0.8460593,0.002098175,0.01019173,-0.006980094,0.02743281,-0.01492444,-0.004999674
0.2882676,0.451832,0.8454986,0.004554378,0.01224042,-0.007637292,0.02889922,-0.01477827,-0.009364643
0.2923126,0.4532438,0.8441045,0.008595519,0.0138319,-0.009123627,0.02916022,0.001360152,-0.008186428
0.2913189,0.451097,0.8388717,0.007596782,0.01185427,-0.0144442,0.02769379,0.01550606,-0.00744232
0.2853559,0.4493545,0.8356133,0.001627372,0.01026992,-0.01778526,0.01944928,0.005072475,-0.00727354
0.2810637,0.4530539,0.8440899,-0.002672747,0.01411627,-0.009385619,0.00654529,-0.008085646,-0.004178471
0.2812318,0.4551862,0.8515746,-0.002513905,0.01638413,-0.001971759,0.006972124,-0.003797039,-0.00348132
0.2827253,0.4537544,0.8459878,-0.001030885,0.01507608,-0.007623195,0.01665285,-0.001213699,-0.003364413
0.2817879,0.4518691,0.8420908,-0.001979588,0.01330265,-0.01157857,0.0201906,-0.003046271,-0.00280718
0.2812081,0.4497811,0.8457243,-0.002571569,0.01131429,-0.007996995,0.01861037,-0.002310111,-0.004181673
0.280665,0.4481783,0.8472403,-0.003127311,0.009798844,-0.006526282,0.01770208,-0.00813611,-0.005362614
0.2788665,0.4490683,0.8451694,-0.004938767,0.01076424,-0.008635836,0.02043986,-0.01138396,-0.005302277
0.2815899,0.4532001,0.8419001,-0.002228432,0.01495929,-0.01193718,0.02205816,-0.009069575,-0.003853501
0.285206,0.4554139,0.8391061,0.00137476,0.01722446,-0.01475639,0.01911956,-0.01218524,-0.002811973
0.2861556,0.4537348,0.8430008,0.002311555,0.01558461,-0.01087985,0.01826744,-0.01393298,-0.003702767
0.2924112,0.4527154,0.846573,0.008554575,0.01459245,-0.007318571,0.02117658,-0.009360502,-0.004428899
0.2979487,0.4518572,0.844063,0.01407913,0.01374941,-0.009832372,0.02305141,0.002731767,-0.004106395
0.2925384,0.4501382,0.8446366,0.008655384,0.01203354,-0.009255383,0.02026465,0.01481655,-0.00440275
0.2857874,0.4513196,0.8446066,0.001889789,0.01320623,-0.009274809,0.01524291,0.01305865,-0.005263191
0.2846222,0.4554624,0.8438451,0.0007087152,0.01732885,-0.01001875,0.01016437,0.007776703,-0.004294144
0.2834548,0.457854,0.8452083,-0.0004757411,0.01968864,-0.008631063,-0.0008061877,0.007824357,-0.002667186
0.2820513,0.4562771,0.8426546,-0.001897361,0.0180685,-0.01115328,-0.01116518,0.005782776,-0.003219858
0.2819114,0.4546215,0.8386276,-0.002056401,0.01635815,-0.01514198,-0.0109559,0.003295398,-0.002488877
0.2817319,0.455974,0.8353239,-0.002255655,0.01764451,-0.01840047,-0.008972687,0.00514842,0.003181082
0.2824965,0.4568017,0.8388408,-0.001511356,0.01839481,-0.01483116,-0.009827605,0.006476259,0.004699728
0.2833877,0.4567009,0.8444748,-0.0006407022,0.01820538,-0.00913761,-0.009409458,0.004897509,-0.001380408
0.2832659,0.45684,0.8409646,-0.0007832043,0.01824483,-0.01258096,-0.007941668,0.00275511,-0.001729364
0.2818911,0.4540569,0.8401123,-0.00217878,0.01535108,-0.01335927,-0.006491737,-4.554003e-06,0.001039912
0.2814829,0.4518094,0.8393824,-0.002607655,0.01298229,-0.01400805,-0.007202051,0.0004676704,0.0001625584
0.284368,0.4528282,0.835144,0.0002569258,0.01386954,-0.01815842,-0.009973149,0.003590319,0.001744877
0.2851106,0.453047,0.8420578,0.0009794173,0.01394684,-0.01114943,-0.0122314,0.006381971,0.001842135
0.2835084,0.4526302,0.8507512,-0.0006425303,0.01337898,-0.002353814,-0.0131225,0.01069639,0.001167996
0.2838075,0.4525577,0.8498778,-0.0003628152,0.01314632,-0.003118462,-0.01297842,0.01037949,0.004696624
0.2857511,0.4519837,0.8445549,0.001561848,0.01240352,-0.008326561,-0.01427901,0.005670462,0.009340592
0.2882098,0.451092,0.8389318,0.004001918,0.01133471,-0.01382921,-0.01589919,0.003592818,0.009964653
0.2860537,0.451372,0.8388983,0.001827507,0.01142977,-0.01373683,-0.01431153,0.002305402,0.004723212
0.2832632,0.4528158,0.8449437,-0.0009810497,0.01268133,-0.007560259,-0.01158959,0.002664665,0.004986669
0.2850208,0.4537239,0.8498548,0.0007586896,0.01339027,-0.002512937,-0.006647108,0.002784636,0.006541895
0.2839184,0.4543507,0.8495523,-0.000361455,0.01381151,-0.002674569,-0.0007974395,0.0001319488,0.003896706
0.2816552,0.453367,0.8487608,-0.002642027,0.01261596,-0.003321027,-0.003626569,0.0003534353,0.006571281
0.28197,0.452336,0.8482462,-0.002344283,0.01136733,-0.003687073,-0.009676095,0.002557793,0.005431969
0.2822329,0.4538781,0.8420903,-0.002097868,0.01268641,-0.009691293,-0.0127694,0.004251574,0.003410767
0.2843346,0.4541771,0.8381204,-1.21372e-05,0.01275726,-0.01350668,-0.02002092,0.005331576,0.005289576
0.2884866,0.4522857,0.841238,0.004124634,0.01063313,-0.01023188,-0.02253325,0.006323455,0.002239674
0.292515,0.4508137,0.8421569,0.008138214,0.008924031,-0.009153061,-0.01493036,0.0116418,-0.001679768
0.2930133,0.4509958,0.8414771,0.008621919,0.008865104,-0.009670318,-0.01315994,0.01890349,-0.005784292
0.2883787,0.4509789,0.842193,0.003972704,0.008603901,-0.008789461,-0.02448849,0.02195765,-0.0007650969
0.2845694,0.4496159,0.8435767,0.0001483119,0.006993586,-0.007238453,-0.03930421,0.01425938,0.007424742
0.2857844,0.4507434,0.8467802,0.001347864,0.007871366,-0.003865678,-0.04064571,0.003661656,0.00338138
0.2868953,0.45178,0.847619,0.002442773,0.008656326,-0.002855918,-0.03026943,0.008664453,0.006433545
0.284312,0.4491319,0.8478502,-0.0001568575,0.00575493,-0.002452308,-0.02326053,0.01221936,0.01319691
0.2828805,0.447096,0.8507821,-0.00160517,0.003464713,0.0006527934,-0.01938775,0.002305128,0.009993577
0.2838071,0.446601,0.8505821,-0.0006956754,0.002714809,0.0006264201,-0.01893774,-0.0002931051,0.008052519
0.2856221,0.4453648,0.8483138,0.001101955,0.001223714,-0.001468336,-0.01824087,0.001375116,0.00655935
0.2867805,0.443295,0.8469312,0.002242971,-0.001100463,-0.002677982,-0.01493786,0.0004942014,0.005043999
0.283904,0.4432658,0.8472252,-0.0006512209,-0.001382673,-0.00221199,-0.01934758,0.000803365,0.006363008
0.2826363,0.445166,0.8524689,-0.001936646,0.0002663904,0.003202622,-0.02444234,-0.001603612,0.007624044
0.2854184,0.4443626,0.8551408,0.0008276902,-0.0007856945,0.006043677,-0.02482043,-0.002711216,0.008304731
0.2884028,0.4430594,0.8525459,0.003794416,-0.002334508,0.003615877,-0.02447446,-0.000391881,0.006359833
0.2911031,0.4432223,0.8528492,0.006476906,-0.002413726,0.004083556,-0.02054612,0.007787217,0.002932479
0.2886716,0.4427814,0.8514813,0.004027456,-0.003092771,0.00287683,-0.01964076,0.01839364,0.0003652039
0.2849295,0.4431626,0.8500068,0.0002669555,-0.002945007,0.001559972,-0.02355458,0.01779564,0.0001395221
0.2850682,0.4430159,0.853062,0.0003867833,-0.003320266,0.004768912,-0.02782303,0.01450602,0.003971106
0.2824847,0.4418876,0.852809,-0.002215922,-0.004671504,0.004665575,-0.03100837,0.01515799,0.007838558
0.279199,0.4421717,0.8540791,-0.005521075,-0.00460462,0.006080768,-0.03058392,0.007886544,0.007213169
0.2792462,0.444145,0.8551367,-0.005493279,-0.002842142,0.007278585,-0.02830182,-0.0006172673,0.005338918
0.2812465,0.4460741,0.8510158,-0.003512112,-0.001117421,0.003292729,-0.02106365,0.002161741,0.006284858
0.2846651,0.4426554,0.8512285,-0.0001120751,-0.004733663,0.003634989,-0.0143489,0.004201045,0.006539125
0.2862579,0.4383345,0.8506609,0.001462859,-0.009245139,0.003191271,-0.01632428,0.0001414328,0.00508996
0.2861281,0.4400325,0.8497303,0.001315896,-0.007730274,0.002378917,-0.01625578,0.001428479,0.004154363
0.2867065,0.4393372,0.8535161,0.001877664,-0.008600988,0.006277183,-0.01308079,0.001905263,0.002590306
0.2887021,0.4361457,0.8554422,0.003857189,-0.01195979,0.008309712,-0.01416596,-0.0008253158,0.002883694
0.2906044,0.4377697,0.8559152,0.005743684,-0.01049453,0.008883014,-0.01871932,0.001700857,0.003204604
0.2875862,0.4391624,0.8534749,0.002709893,-0.009251799,0.006536676,-0.02407179,0.006316716,0.001191023
0.2828136,0.4394582,0.8518557,-0.002078348,-0.009096753,0.005004846,-0.02448206,0.01183243,0.004020598
0.282667,0.4405584,0.8536792,-0.002240475,-0.008128008,0.00690909,-0.0225069,0.01214748,0.007304222
0.2829328,0.438126,0.854295,-0.001990128,-0.01068238,0.00759889,-0.0242192,0.009030671,0.002840903
0.2814332,0.4347887,0.856179,-0.0035049,-0.01413194,0.009550093,-0.02602237,0.01198571,-0.0007005961
0.2818438,0.4347227,0.8557052,-0.003109041,-0.01430036,0.009136568,-0.02646246,0.01073061,0.001277202
0.282276,0.4365134,0.853954,-0.002690979,-0.01260201,0.007438575,-0.02519128,0.007418956,0.002557018
0.2820464,0.4374942,0.8544811,-0.002933943,-0.01170309,0.008011782,-0.02151341,0.007125063,0.00443314
0.2838018,0.434058,0.8538084,-0.001190978,-0.01521074,0.007378014,-0.01730975,0.00418542,0.006427725
0.285343,0.4305398,0.8543041,0.0003386931,-0.01878978,0.007905571,-0.01143407,0.005609287,0.005510791
0.2846294,0.4334955,0.8543295,-0.0003854369,-0.015884,0.007955675,-0.009588273,0.006831927,0.01040426
0.2835139,0.4379512,0.8538137,-0.001510669,-0.01146713,0.007457611,-0.01298996,0.005648115,0.01581083
0.2834072,0.4389504,0.8539911,-0.001626038,-0.01049579,0.007645759,-0.01435186,0.006691613,0.01179682
0.2847138,0.4365377,0.8512691,-0.0003271744,-0.01292528,0.004927632,-0.02034741,0.0008492151,0.009037737
0.2884199,0.4334365,0.8495553,0.003372034,-0.01603249,0.003210964,-0.02463412,-0.003220187,0.007782113
0.2934344,0.4344988,0.8516171,0.008380537,-0.0149654,0.00526344,-0.013796,0.007617316,0.00470687
0.2946774,0.4350821,0.8535398,0.00961792,-0.01436647,0.00717066,-0.008358016,0.02653225,0.005175686
0.2888551,0.4313611,0.8519988,0.003789984,-0.01806118,0.005608176,-0.02479105,0.03476241,0.005397969
0.280318,0.4301941,0.8520652,-0.004752923,-0.01919109,0.005647317,-0.03977618,0.01992545,0.002403217
0.2773387,0.4323946,0.8604131,-0.007738219,-0.01694272,0.01396214,-0.03192557,0.006829258,-0.0008532513
0.2792061,0.4332703,0.8687411,-0.00587666,-0.01600837,0.02225141,-0.02115875,0.01379103,-0.0006046301
0.2777032,0.4300296,0.8676864,-0.007385082,-0.0191798,0.02115193,-0.01902331,0.01900595,0.002922005
0.2745626,0.4267958,0.8630356,-0.01053036,-0.02233347,0.01644973,-0.011902,0.01649197,0.005341531
0.2758027,0.4312748,0.8624379,-0.009293693,-0.01776374,0.01579373,-0.01151018,0.01341216,0.005547065
0.2783459,0.4353588,0.8614278,-0.006752344,-0.01357829,0.01471825,-0.01453598,0.002549278,0.007756141
0.2798612,0.4325812,0.8603253,-0.005236974,-0.01624402,0.01354307,-0.00816947,-0.005216049,0.01161376
0.2822697,0.4313477,0.8646985,-0.002826463,-0.01735542,0.01783648,-0.00851297,-0.002532503,0.007365032
0.2844319,0.4322551,0.8656704,-0.0006599714,-0.01631583,0.01872121,-0.008189501,-0.004540613,0.0002740855
0.2865315,0.4324797,0.8618742,0.001445836,-0.01594942,0.01483044,-0.004186806,-0.005371553,-0.0008491388
0.2902095,0.4315307,0.8595808,0.005131962,-0.01674702,0.01243489,-0.003970163,-0.001380242,-0.00427436
0.2920682,0.4275005,0.8579826,0.007000401,-0.02061656,0.01072722,0.002367569,-0.001884338,-0.007007577
0.289041,0.4236622,0.8591715,0.003983898,-0.0242851,0.01179947,0.002614504,-0.002341663,-0.006345668
0.2850838,0.4234372,0.8613674,3.82651e-05,-0.02433113,0.01387183,0.0008139422,-0.003701509,-0.009133893
0.2848263,0.4264973,0.8652186,-0.0002072183,-0.02108291,0.01759273,0.007232427,-0.004682506,-0.008633526
0.2851564,0.4287005,0.8694615,0.0001354409,-0.01868241,0.02169852,0.006144528,-0.00381371,-0.00501163
0.2838215,0.4268229,0.869165,-0.001186478,-0.0203537,0.02125806,0.007132409,-0.007535715,-0.004237085
0.2827838,0.426381,0.8671148,-0.002210944,-0.02058039,0.01905685,0.01387933,-0.01089714,-0.002941548
0.2801838,0.4302676,0.8588206,-0.004797225,-0.01647009,0.01060456,0.0174336,-0.01203945,-0.003044774
0.2797631,0.4330938,0.8508681,-0.005203652,-0.01341177,0.002487088,0.02140846,-0.01144003,-0.002915369
0.2830639,0.4321881,0.8534655,-0.001888018,-0.01407743,0.00491312,0.0195321,-0.008845355,7.72145e-05
0.282773,0.4312483,0.8527567,-0.002163284,-0.01476994,0.004027375,0.01795224,-0.009915327,0.0009210746
0.2839674,0.4321416,0.8473315,-0.0009524924,-0.01362235,-0.001579727,0.02186509,-0.0101485,-0.0005935631
0.2886465,0.4313562,0.8476826,0.003743729,-0.01414706,-0.001414699,0.02328709,-0.006333909,-0.004437578
0.2886255,0.4305889,0.8482077,0.003740334,-0.0146477,-0.001078943,0.0249842,-0.002178421,-0.008637504
0.2875528,0.431592,0.8466854,0.002685667,-0.01337237,-0.002793018,0.02092165,0.001056812,-0.009426548
0.2874289,0.4304597,0.8509607,0.002579827,-0.01422732,0.001288719,0.01284631,-0.001654135,-0.008344104
0.2853269,0.4301924,0.8577193,0.0004957559,-0.01421259,0.007852801,0.01279153,-0.006097344,-0.005826694
0.2841349,0.4321729,0.8605332,-0.0006785897,-0.0119457,0.01047155,0.01299479,-0.004233198,-0.004075047
0.2836011,0.4332501,0.8606705,-0.001194911,-0.0105782,0.01041307,0.01225265,-0.002727249,-0.005186289
0.2821066,0.4352094,0.8587928,-0.002672201,-0.008325271,0.00833925,0.01540411,-0.004087032,-0.007038072
0.2806991,0.4361116,0.8596502,-0.004062589,-0.00712657,0.009000126,0.01801806,-0.004720135,-0.007360333
0.2800653,0.4355602,0.8608055,-0.004679389,-0.007379313,0.009958628,0.0222668,-0.006162028,-0.006392439
0.280142,0.4379086,0.8595926,-0.00458561,-0.004730584,0.00854868,0.02741192,-0.007255475,-0.006277805
0.2809058,0.4397277,0.8615442,-0.003804251,-0.002610179,0.01030322,0.02792073,-0.007829291,-0.006005794
0.2831556,0.4374924,0.8592729,-0.001536581,-0.004543915,0.007834773,0.0267881,-0.01113012,-0.006938385
0.2843212,0.4348768,0.8550792,-0.0003525553,-0.006858249,0.003443973,0.02650002,-0.0151419,-0.008981844
0.2835729,0.4335816,0.8551829,-0.001081981,-0.007853038,0.003350919,0.02499346,-0.01304823,-0.006842049
0.2840571,0.4329094,0.8520412,-0.0005783875,-0.008226105,1.298193e-05,0.02486336,-0.007389011,-0.002268401
0.2831634,0.4334159,0.8485947,-0.001452384,-0.007422076,-0.003628574,0.02500901,-0.006287346,-0.0004867856
0.2808631,0.4335446,0.8492898,-0.003732633,-0.006997745,-0.003126969,0.01847287,-0.0068147,-0.00526881
0.2812244,0.4339465,0.8538372,-0.003350724,-0.006302275,0.001229021,0.01325038,-0.006286646,-0.01183256
0.2842441,0.437962,0.8555202,-0.0003100438,-0.001995796,0.002723104,0.01999838,-0.002482875,-0.01077079
0.2890609,0.4414807,0.8511832,0.004528239,0.001810987,-0.001799934,0.03059771,0.007495556,-0.007957859
0.2888492,0.4395904,0.8510097,0.004338253,0.0002053454,-0.002156322,0.0317335,0.01283743,-0.007439806
0.281641,0.4368665,0.8517846,-0.00284811,-0.002237956,-0.001560906,0.01929686,0.006193539,-0.005890682
0.2775233,0.4378623,0.8516554,-0.006944041,-0.0009658663,-0.001865795,0.008370803,-0.004081631,-0.00677966
0.2787607,0.4396194,0.8555977,-0.00568476,0.0010626,0.001904974,0.01452457,-0.00735658,-0.006484167
0.2800413,0.4405952,0.8586153,-0.004381865,0.002304507,0.004755197,0.02158287,-0.004555549,-0.005071788
0.2785679,0.4418119,0.8583624,-0.005832495,0.003781761,0.00433908,0.01790698,-0.004091801,-0.007096396
0.2769093,0.4424309,0.8542687,-0.007467712,0.004655089,8.646646e-05,0.01823377,-0.006920793,-0.005770547
0.2777863,0.443053,0.8516747,-0.006566325,0.005525035,-0.002662276,0.01897008,-0.01089416,-0.003275983
0.2820164,0.4415538,0.8544215,-0.002310708,0.00426668,-6.591209e-05,0.01640608,-0.01437842,-0.002424257
0.2885317,0.4389917,0.8573174,0.004231242,0.001937932,0.002684062,0.02029941,-0.01760422,-0.002577922
0.2881966,0.4393942,0.8580555,0.003923835,0.002566186,0.003280763,0.02243758,-0.01984833,-0.00780525
0.2869138,0.4381127,0.8530884,0.002669322,0.001502548,-0.001823317,0.02544336,-0.01642119,-0.01063591
0.2923908,0.4367896,0.8478394,0.008174964,0.0003893401,-0.007204806,0.02911025,-0.01110273,-0.01064598
0.2917871,0.4388437,0.8496324,0.007599848,0.002645244,-0.005539541,0.02354961,-0.007139466,-0.01167977
0.2886279,0.4393401,0.8501709,0.004468758,0.003335408,-0.005123696,0.02274546,-0.002155393,-0.01001879
0.2867758,0.4403635,0.8478403,0.002643899,0.004544308,-0.007571733,0.0232456,-0.001442463,-0.009510042
0.2811346,0.4443694,0.8493436,-0.002971028,0.008727394,-0.006180188,0.02017235,-0.00547887,-0.008394495
0.2798218,0.4478342,0.8509673,-0.004258489,0.01236077,-0.004662571,0.02162235,-0.006062993,-0.006051972
0.2806613,0.4476539,0.8497232,-0.003394578,0.01234019,-0.0060067,0.01892676,-0.005857644,-0.007778406
0.2806812,0.4456105,0.8507844,-0.003350901,0.01044716,-0.005039487,0.0175855,-0.01009697,-0.009940618
0.2819588,0.4458291,0.8520845,-0.002050102,0.01080652,-0.003827201,0.02189205,-0.01300293,-0.01057458
0.2826219,0.4457563,0.8510557,-0.001364113,0.01086457,-0.004937702,0.0270327,-0.0102581,-0.009986679
0.2840543,0.4450713,0.8510728,9.075936e-05,0.01030028,-0.004996019,0.03236514,-0.005440561,-0.006400641
0.2836021,0.4465887,0.8491827,-0.0003392799,0.01192822,-0.006955268,0.02986151,-0.005664795,-0.0040234
0.2848354,0.4492558,0.8452062,0.0009158543,0.01469544,-0.01099463,0.0253599,-0.005658399,-0.006294816
0.2882081,0.4506352,0.8435981,0.004309839,0.01616438,-0.01265914,0.02186093,0.007567726,-0.006919165
0.2874822,0.4478672,0.8449271,0.003604681,0.01347507,-0.01137984,0.01045614,0.02418348,-0.005824573
0.287169,0.4453119,0.84762,0.003311448,0.01098741,-0.008729624,-0.001069223,0.02816161,-0.006756025
0.2862641,0.4461252,0.8488722,0.002425532,0.0118573,-0.007513056,-0.0008471384,0.02253953,-0.006602972
0.2827561,0.4466895,0.8480597,-0.00106449,0.01246723,-0.008354019,0.005275096,0.01655825,-0.007133538
0.2801825,0.4474731,0.8465979,-0.003621229,0.01328558,-0.009837195,0.008432087,0.01079022,-0.006951892
0.279087,0.4481552,0.8472417,-0.004700807,0.01399139,-0.009207633,0.01443645,0.004114204,-0.006773317
0.2790354,0.450406,0.8485209,-0.004737204,0.01625504,-0.007935601,0.01681342,0.004253423,-0.009175365
0.2766479,0.4537942,0.8469557,-0.007109997,0.01964512,-0.009500862,0.01333272,0.005258671,-0.008316302
0.2731006,0.4513574,0.8445036,-0.01064261,0.01719917,-0.01194603,0.0178936,-0.001302641,-0.007162293
0.27239,0.4488502,0.8423457,-0.0113383,0.01467167,-0.01408987,0.01782026,-0.004044873,-0.004914387
0.2765948,0.4521975,0.8440469,-0.007117812,0.01798749,-0.01236749,0.01546685,-0.007271113,-0.001721407
0.2820756,0.4537129,0.848337,-0.001620292,0.01946039,-0.008049068,0.02085962,-0.01330431,-0.002805942
0.2809723,0.4520641,0.8480129,-0.002705574,0.01775793,-0.008337569,0.01698963,-0.009208791,-0.001663421
0.2800631,0.4509096,0.8440935,-0.003595569,0.01653867,-0.01221444,0.009950527,-0.007098075,-0.001237549
0.2839761,0.4496659,0.8393523,0.000337826,0.0152191,-0.01690615,0.002828595,-0.00856177,-0.00178831
0.2853645,0.4496356,0.8392156,0.001747845,0.01510223,-0.01698627,-0.002868872,-0.0001576261,-0.0002124093
0.2844339,0.4504553,0.8412927,0.000839812,0.01582463,-0.01484545,0.003826756,0.009136787,-0.001548036
0.2827116,0.4498366,0.8378382,-0.0008591272,0.01509842,-0.01822881,0.002130381,0.01243654,0.0003753827
0.281036,0.4498485,0.8379619,-0.002510665,0.01499257,-0.0180266,-0.01176451,0.005791368,0.004303787
0.2801856,0.4506441,0.8443072,-0.003336366,0.01566069,-0.01159509,-0.02052815,-0.004396645,0.005751476
0.2787551,0.4515601,0.8487661,-0.004741452,0.01643958,-0.007042483,-0.01604405,-0.00383792,0.005801153
0.2785299,0.4528484,0.8481933,-0.004940516,0.01758146,-0.007514246,-0.004249237,-0.0009852178,0.003266195
0.2777813,0.4504111,0.8460761,-0.005662095,0.01498857,-0.00952364,-0.006023713,-0.0005101425,0.004776907
0.2756571,0.4471978,0.8495753,-0.007758126,0.01161094,-0.005910035,-0.0105451,-0.002664311,0.008167919
0.2761258,0.4481208,0.8504156,-0.007260157,0.01236108,-0.004949326,-0.009359316,-0.007439365,0.009646167
0.2782046,0.4465629,0.8451497,-0.005150663,0.0106223,-0.01008907,-0.009490269,-0.006094045,0.01091889
0.2824972,0.4428817,0.8420848,-0.0008258255,0.006752797,-0.01302261,-0.004516027,-0.005407371,0.009093592
0.2888575,0.4437644,0.8407936,0.005568186,0.007440401,-0.01417721,-0.007201403,-0.007514317,0.007436564
0.2888055,0.4455383,0.8434082,0.005551092,0.009012822,-0.011421,-0.01269097,-0.007390139,0.00403898
0.2858681,0.446916,0.8465432,0.0026492,0.01018341,-0.008139468,-0.009549835,-0.007512953,4.128564e-05
0.287953,0.449812,0.8472496,0.004770082,0.01286706,-0.007281843,-0.009292171,-0.002389028,0.002223935
0.2868894,0.4500574,0.8476875,0.003742571,0.01289539,-0.00668836,-0.008472053,0.004681756,0.004759268
0.283626,0.4479919,0.8447117,0.0005149308,0.01060821,-0.0095045,-0.01041249,0.004973821,0.006745736
0.2831731,0.4464677,0.8439352,9.738502e-05,0.008858203,-0.01011774,-0.01558194,0.003257439,0.008313934
0.2803563,0.4449203,0.8453771,-0.002684595,0.007081152,-0.008509127,-0.02176102,0.003918251,0.006254057
0.2798739,0.4434712,0.8467029,-0.003132678,0.005399278,-0.007013348,-0.03002602,0.00409463,0.005524472
0.2814969,0.4426107,0.8501916,-0.001475867,0.004303207,-0.003351798,-0.02309489,0.002822095,0.006835279
0.2807831,0.4443673,0.8505054,-0.00215613,0.005822055,-0.002862605,-0.01283586,0.002719158,0.008667672
0.2814445,0.4472814,0.8510313,-0.001461602,0.00849682,-0.002159322,-0.01240143,0.0007060924,0.0116242
0.2805708,0.4493308,0.8513939,-0.002302483,0.01030562,-0.001617844,-0.007261927,-0.004970724,0.0116403
0.2804358,0.4515316,0.8494881,-0.002404976,0.01226489,-0.003343787,0.0008586553,-0.009344501,0.008472858
0.2844232,0.4502203,0.8528072,0.001614661,0.01071122,0.0001558023,0.009054181,-0.008589951,0.007584614
0.272379,0.4311631,0.8471806,0.01789339,0.0008001655,-0.06171644,0.3764577,-0.1300006,0.116598
0.2709889,0.4368653,0.8346202,0.01786066,0.007145027,-0.07453352,0.3556109,-0.1247681,0.1148428
0.2695965,0.4436752,0.8501967,0.017746,0.01455664,-0.05912561,0.3413424,-0.1359559,0.1118365
0.269658,0.4463784,0.8622939,0.01900679,0.01782137,-0.04711157,0.3420483,-0.1404829,0.1085042
0.2710619,0.4521892,0.8629204,0.02153308,0.02415406,-0.04648601,0.3542686,-0.150379,0.1032656
0.2730547,0.4575927,0.8566089,0.02457285,0.03004004,-0.05271972,0.3614276,-0.1600092,0.1022312
0.2715503,0.4596874,0.8512882,0.02404144,0.03257817,-0.05788706,0.3630938,-0.1536616,0.1036268
0.2680152,0.4636272,0.8536906,0.02140682,0.03692234,-0.05525891,0.3493674,-0.1466655,0.1044057
0.2650918,0.46356,0.8559121,0.01931307,0.03722026,-0.05274243,0.324358,-0.1428544,0.1056233
0.2660155,0.459762,0.854317,0.02099721,0.03374823,-0.05397609,0.3122063,-0.1430284,0.1038584
0.2739896,0.4559981,0.8480682,0.02966466,0.03027121,-0.05980013,0.3028234,-0.1333608,0.1004857
0.28019,0.4468088,0.842486,0.03649265,0.02133024,-0.06489707,0.2953848,-0.1092705,0.09735548
0.2772506,0.4427725,0.8448833,0.03411677,0.01750437,-0.06195658,0.2815473,-0.09991125,0.09786807
0.2710481,0.4477615,0.8550926,0.02841484,0.02266715,-0.05114852,0.2551962,-0.1124881,0.1006695
0.2684393,0.4467636,0.8708553,0.02624549,0.02180745,-0.03473455,0.2571551,-0.121096,0.09719366
0.2691558,0.4469275,0.8801855,0.02734192,0.02207498,-0.02470379,0.260958,-0.10441,0.09421803
0.2698958,0.4514382,0.8673796,0.02840426,0.02665591,-0.03676371,0.2350795,-0.08362961,0.09642003
0.2694342,0.4521245,0.8517978,0.0282093,0.02737989,-0.05155768,0.2162756,-0.07619429,0.1023514
0.2682217,0.4535518,0.8595414,0.02720961,0.02881339,-0.04298742,0.1922471,-0.07000462,0.1165651
0.2649295,0.4524148,0.8659427,0.02407821,0.02765176,-0.03572354,0.168432,-0.07456288,0.1289527
0.2593133,0.4502782,0.8633963,0.01857301,0.02546067,-0.03737407,0.1704963,-0.08763892,0.1333906
0.2591121,0.4485946,0.8662332,0.01843512,0.02369353,-0.03361117,0.1656745,-0.09445683,0.1360127
0.264833,0.4395111,0.8593484,0.02417381,0.01449875,-0.03954265,0.1606195,-0.09582086,0.1311459
0.2686922,0.430134,0.8547244,0.02800762,0.004984,-0.04318869,0.1752827,-0.08981479,0.120374
0.2731248,0.4271602,0.861454,0.03237328,0.001847713,-0.0354588,0.1942836,-0.08724324,0.1128553
0.2762396,0.4271594,0.864411,0.03538141,0.001661857,-0.03148168,0.2150133,-0.09007467,0.1001588
0.272824,0.4248464,0.8674651,0.03182083,-0.0008567997,-0.02739011,0.2313193,-0.09246754,0.08627077
0.2666373,0.42466,0.8678062,0.02545233,-0.001267565,-0.02599664,0.2413248,-0.1054243,0.08862924
0.2621356,0.4290767,0.867428,0.02073378,0.002908278,-0.02531032,0.2480657,-0.1234848,0.09251898
0.2635564,0.4271111,0.8681397,0.02190446,0.0006869481,-0.02352428,0.2497057,-0.1354225,0.09154111
0.2660054,0.4240077,0.8660214,0.02407218,-0.002685181,-0.02456079,0.2470749,-0.1466169,0.09540731
0.2648302,0.4215882,0.8696374,0.02258622,-0.005384732,-0.01985797,0.2425467,-0.1625779,0.09147564
0.2653233,0.4159852,0.872075,0.02274101,-0.01127718,-0.01633055,0.2460673,-0.168551,0.08775358
0.2652364,0.4148569,0.870411,0.02229,-0.01270262,-0.01690415,0.2478623,-0.1523432,0.09042584
0.2634147,0.4130313,0.8710849,0.02008012,-0.01483101,-0.0151413,0.2437391,-0.1366534,0.08813184
0.2642218,0.4118461,0.8719745,0.02047655,-0.01632256,-0.01316636,0.2477696,-0.1277427,0.08955766
0.266626,0.4138668,0.8748181,0.02244937,-0.01461017,-0.009242945,0.2548776,-0.1205,0.09003101
0.2681285,0.4163076,0.8773388,0.02350143,-0.01247758,-0.005649992,0.2652251,-0.1303865,0.08561724
0.267519,0.4245717,0.877335,0.02242374,-0.004520299,-0.004591123,0.2725982,-0.1455229,0.08191575
0.2681849,0.429512,0.8726162,0.02260513,0.0001157873,-0.008258569,0.2696393,-0.1500994,0.07563503
0.271057,0.4298954,0.8641088,0.02497786,0.0001984456,-0.01572778,0.265493,-0.1482369,0.07449712
0.2718282,0.4328068,0.8594042,0.02523583,0.002813014,-0.01940856,0.2541634,-0.1423469,0.07630464
0.2731644,0.4334502,0.8546923,0.02604616,0.003164152,-0.02311185,0.2351682,-0.1372652,0.07716175
0.2759032,0.4317901,0.8499516,0.0282476,0.001216465,-0.02685979,0.2152028,-0.1320637,0.07887452
0.2762753,0.4292214,0.8530331,0.02807156,-0.001634588,-0.0228017,0.2039407,-0.1287056,0.06900041
0.2787722,0.4277498,0.8593744,0.03001046,-0.003383002,-0.01550013,0.2097133,-0.1178297,0.05770683
0.2827378,0.4235639,0.8624116,0.03340895,-0.00783974,-0.01151958,0.2109315,-0.09383292,0.06379272
0.2778106,0.4184317,0.8659179,0.02790608,-0.01323602,-0.007087443,0.2011948,-0.09106258,0.07027891
0.2704271,0.4214953,0.8718445,0.01993913,-0.01042914,-0.0002533729,0.1982353,-0.1102998,0.06666912
0.2719609,0.4242553,0.8759566,0.02088257,-0.007917763,0.004746964,0.202236,-0.1160674,0.06649436
0.2731921,0.4266796,0.8742831,0.02151743,-0.005733321,0.003941315,0.2050116,-0.1037487,0.06690938
0.2697704,0.431064,0.8667187,0.01749447,-0.001579742,-0.002776671,0.199327,-0.09096634,0.064661
0.2645514,0.4291225,0.863719,0.01167032,-0.003742883,-0.004952098,0.1864977,-0.09518373,0.06595895
0.2579111,0.4277187,0.8667744,0.004422157,-0.005358913,-0.001095246,0.1769879,-0.10286,0.06498247
0.2612251,0.4273538,0.8667184,0.007126999,-0.005926531,-0.0003728871,0.1756563,-0.1044434,0.0643541
0.2680884,0.4240095,0.8658017,0.0133813,-0.009463949,-0.0005346965,0.1765581,-0.1131645,0.06613465
0.2660848,0.4254313,0.8652956,0.01076994,-0.008225317,-0.0003098763,0.1724924,-0.1140602,0.06335361
0.2689751,0.4276534,0.8667926,0.01305462,-0.006176413,0.001893994,0.1699963,-0.1099052,0.06086821
0.2742905,0.4255091,0.8690428,0.01776756,-0.008483677,0.004826703,0.170498,-0.1125885,0.05915355
0.2734584,0.4235081,0.866816,0.01633665,-0.01063729,0.003257879,0.1699635,-0.1061873,0.05788241
0.2753681,0.4191174,0.8661964,0.01765187,-0.01517008,0.00327135,0.1730788,-0.09899304,0.05916219
0.2753778,0.4150066,0.8669484,0.01707165,-0.01941219,0.00463152,0.1717336,-0.09743553,0.0581453
0.27224,0.4184901,0.8668586,0.01334904,-0.01604875,0.005124943,0.1662618,-0.09578911,0.05681052
0.2717329,0.420955,0.8686217,0.01226261,-0.0136923,0.007446168,0.165246,-0.09535266,0.05569123
0.269287,0.4187799,0.8698095,0.009243514,-0.01596403,0.009167053,0.1600217,-0.09220014,0.05329137
0.2669448,0.419506,0.8695996,0.00633478,-0.01532251,0.009465173,0.156735,-0.09296252,0.05196345
0.2660338,0.421132,0.8681474,0.004864439,-0.01376893,0.008495727,0.1595431,-0.0954926,0.05116301
0.2640291,0.4225132,0.8683673,0.002308465,-0.01244778,0.009173371,0.1595325,-0.09497481,0.05236861
0.2641604,0.4242437,0.8711299,0.001897194,-0.01076531,0.01236861,0.1611974,-0.09627076,0.05483542
0.2675455,0.4227715,0.8736809,0.004749127,-0.01227338,0.01532725,0.1649334,-0.09752044,0.0558965
0.2707261,0.4218396,0.8753278,0.007406644,-0.01322926,0.01735683,0.1663638,-0.1028913,0.05461182
0.2696943,0.4242992,0.8776401,0.005862264,-0.01078188,0.02002677,0.1608083,-0.1043702,0.05150507
0.2685984,0.4251021,0.8828199,0.004264497,-0.009979761,0.02553907,0.1532815,-0.09645712,0.04940981
0.270052,0.422301,0.8816189,0.00522733,-0.01277041,0.02464511,0.1526482,-0.09322992,0.04654846
0.2697142,0.4194286,0.8721936,0.004410121,-0.01562126,0.01550115,0.1478739,-0.09294168,0.04332053
0.2709295,0.4188662,0.8668056,0.005157634,-0.0161513,0.01036897,0.1448131,-0.08993723,0.04163869
0.2731783,0.4185314,0.8676025,0.00695052,-0.01644288,0.01139666,0.15293,-0.08536431,0.04066562
0.2717898,0.4191808,0.8720763,0.005117854,-0.01573953,0.01607663,0.1532522,-0.08008761,0.04135152
0.2697346,0.4219691,0.8761425,0.002630541,-0.01288663,0.02032492,0.1421989,-0.07135789,0.0411145
0.2674332,0.42188,0.8812306,-9.092171e-05,-0.01290078,0.02557128,0.1315274,-0.06207524,0.03994471
0.2661425,0.4207278,0.8866454,-0.001789341,-0.01396793,0.03112079,0.1282882,-0.06794357,0.0366624
0.2686087,0.4200735,0.8810093,0.0002815299,-0.01452728,0.02559562,0.1374586,-0.0734299,0.03151635
0.2703088,0.4141553,0.8715479,0.00159914,-0.02034083,0.0162216,0.1456326,-0.0618786,0.03174039
0.2691149,0.4091639,0.8671039,3.554161e-05,-0.02521805,0.01184158,0.1380272,-0.05571307,0.03274362
0.2674052,0.4109933,0.8663892,-0.002030994,-0.02326462,0.01116843,0.1300234,-0.05990638,0.03308158
0.2635871,0.4139838,0.8731291,-0.006193006,-0.02014039,0.01792817,0.1328308,-0.06861471,0.03572917
0.2595377,0.4177468,0.8796502,-0.01057301,-0.01623363,0.02444808,0.1336687,-0.08040662,0.03641547
0.2609004,0.4223073,0.8793525,-0.009527496,-0.01151976,0.02412887,0.1323719,-0.082161,0.03793166
