accx,accy,accz,body_accx,body_accy,body_accz,body_gyrox,body_gyroy,body_gyroz
-0.1318443,-0.3737667,-0.9477808,0.01439589,-0.002185047,-0.02404306,0.1039188,-0.00463194,-0.1851312
-0.1310987,-0.3682618,-0.9412645,0.0147941,0.003943298,-0.01824892,0.1486892,-0.01565419,-0.1675604
-0.1352929,-0.3689416,-0.9373672,0.01025855,0.003910462,-0.0150641,0.2005037,-0.03209697,-0.1593034
-0.141111,-0.3685527,-0.93434,0.004105147,0.004966179,-0.01273737,0.2241934,-0.0333425,-0.1622162
-0.1372207,-0.3664521,-0.9300812,0.007666143,0.007749865,-0.009165478,0.2714127,-0.03999915,-0.1576856
-0.1341835,-0.3697648,-0.9292363,0.01038034,0.005133263,-0.00899222,0.2919032,-0.0407366,-0.1531487
-0.1372848,-0.3726081,-0.9236893,0.006962161,0.00299598,-0.004100665,0.2592242,-0.01692093,-0.1611776
-0.1373515,-0.375491,-0.9268463,0.006584713,0.0008259765,-0.007895714,0.2371967,0.01152158,-0.1697528
-0.1390807,-0.3810689,-0.9430799,0.00455111,-0.004034562,-0.02474912,0.2205859,0.02475929,-0.173549
-0.1414303,-0.3824799,-0.9527147,0.001903376,-0.004725993,-0.03498421,0.2555407,0.01118529,-0.1709117
-0.1396459,-0.3813168,-0.9523526,0.003396146,-0.002842985,-0.0352013,0.3336009,-0.01175077,-0.1547864
-0.1382114,-0.3812286,-0.943114,0.00454569,-0.002036507,-0.02651899,0.3937458,-0.03534429,-0.131124
-0.1373217,-0.3812607,-0.9318913,0.005157209,-0.001353569,-0.01582825,0.4451133,-0.06110122,-0.1203036
-0.1376286,-0.3856224,-0.9193554,0.004578913,-0.005005098,-0.003799293,0.467784,-0.05992393,-0.1205844
-0.1409371,-0.3943774,-0.9040629,0.001005796,-0.01305604,0.01101144,0.4526951,-0.04583561,-0.1211969
-0.1441965,-0.4007017,-0.9007536,-0.002511234,-0.01868367,0.01386338,0.4015819,-0.04391143,-0.1330063
-0.1451012,-0.4058184,-0.9047074,-0.003666406,-0.02311145,0.009475564,0.3161038,-0.03320235,-0.1464202
-0.1443178,-0.412887,-0.9109514,-0.003126115,-0.02949914,0.002820051,0.2429692,-0.0132837,-0.1536083
-0.1432744,-0.4155264,-0.920023,-0.002318031,-0.03146566,-0.006641573,0.2060825,0.0003082131,-0.1610031
-0.1402894,-0.4134269,-0.92499,0.0004396784,-0.02870104,-0.01197738,0.1989366,-0.00752426,-0.151469
-0.1360299,-0.4135654,-0.9308199,0.004479808,-0.02818184,-0.01815491,0.2189675,-0.03153855,-0.1302971
-0.1368411,-0.4139722,-0.9289879,0.003457177,-0.02793814,-0.0166493,0.2362457,-0.04352168,-0.1145788
-0.1398481,-0.4117152,-0.9163865,0.0002465264,-0.02503769,-0.004352965,0.2073618,-0.03922844,-0.1125034
-0.1432175,-0.4096308,-0.9049009,-0.00331884,-0.02231687,0.006848773,0.1562092,-0.01620532,-0.1337147
-0.1526901,-0.4095664,-0.8959773,-0.01297957,-0.02162298,0.01550885,0.1250649,0.005235266,-0.149295
-0.1560354,-0.410803,-0.8979713,-0.01650488,-0.02223711,0.01327044,0.1085107,0.005780201,-0.1452994
-0.1471636,-0.411412,-0.9079714,-0.007804361,-0.02223069,0.00304359,0.09906989,0.0102615,-0.1452352
-0.1421185,-0.4114489,-0.9147786,-0.002921462,-0.02165934,-0.003973532,0.1078906,0.006470284,-0.1444496
-0.1429934,-0.4127934,-0.9167007,-0.003949256,-0.02240268,-0.006089561,0.1433763,-0.007927707,-0.1369838
-0.1441575,-0.4150434,-0.9138287,-0.00525713,-0.02405857,-0.003395778,0.1579863,-0.003980607,-0.1354422
-0.1445153,-0.4167889,-0.914454,-0.005749489,-0.02521701,-0.004184223,0.1474606,-0.003094955,-0.135598
-0.1422419,-0.4178636,-0.9151857,-0.003601567,-0.02571147,-0.005064266,0.1664786,-0.01105448,-0.1281605
-0.1404462,-0.4159626,-0.9151283,-0.001922283,-0.02323684,-0.005140941,0.1770691,-0.007436095,-0.1231993
-0.140618,-0.4125013,-0.9190247,-0.002201616,-0.01920849,-0.009157353,0.1671295,-0.006457241,-0.1225432
-0.1415085,-0.4129151,-0.913648,-0.003191095,-0.01906171,-0.003887187,0.1641884,-0.01135085,-0.1175628
-0.142121,-0.4113097,-0.9071075,-0.003894099,-0.01690222,0.002559986,0.1581345,-0.01128706,-0.1112289
-0.1432998,-0.4068294,-0.9085269,-0.005155119,-0.01187442,0.001059774,0.1690545,-0.01622031,-0.1040193
-0.1456037,-0.4100063,-0.9066077,-0.007533201,-0.01451086,0.002909947,0.1766824,-0.01938335,-0.1017017
-0.1458857,-0.4143143,-0.9068774,-0.00788134,-0.01828553,0.002582177,0.157321,-0.01237342,-0.1043089
-0.1459102,-0.4146762,-0.9107325,-0.007963936,-0.01812139,-0.001320655,0.1429126,-0.01047283,-0.10456
-0.1456343,-0.4174391,-0.9132478,-0.007738186,-0.02036541,-0.003874075,0.1480065,-0.01243771,-0.1078279
-0.1436519,-0.4168096,-0.913995,-0.005797911,-0.01922425,-0.004650233,0.1547426,-0.01578326,-0.1049157
-0.1428932,-0.4134729,-0.9087339,-0.005073469,-0.01538296,0.0005906212,0.1475421,-0.01993576,-0.0964376
-0.1432406,-0.4149751,-0.9035342,-0.005447605,-0.01638764,0.005778397,0.1492152,-0.01561555,-0.09557065
-0.1459766,-0.4171865,-0.903557,-0.008202715,-0.01810848,0.005751056,0.152184,-0.01010155,-0.09423644
-0.1482108,-0.4171752,-0.9046203,-0.01044878,-0.01761358,0.004690033,0.1419722,-0.007134205,-0.09522834
-0.146903,-0.4162368,-0.9042191,-0.009145509,-0.01619849,0.005099445,0.1312695,-0.0007506434,-0.09961498
-0.1459709,-0.416544,-0.9038082,-0.008210689,-0.01603576,0.005523819,0.1067129,0.006891547,-0.0983757
-0.1444397,-0.4171618,-0.9048626,-0.006669612,-0.01619047,0.004487448,0.09689405,0.008933267,-0.09723176
-0.1426042,-0.4162092,-0.9058426,-0.004817172,-0.0147814,0.003529456,0.106437,0.007926517,-0.09765122
-0.1430381,-0.4164423,-0.9073466,-0.005227387,-0.01456479,0.002050833,0.09909124,0.00925617,-0.09705479
-0.1451394,-0.4151065,-0.9074455,-0.007298593,-0.012786,0.001980168,0.09788307,0.004193053,-0.09114689
-0.146871,-0.4129253,-0.9062525,-0.008993673,-0.01016842,0.003203951,0.1023645,-0.001009183,-0.08220374
-0.1470885,-0.4140525,-0.9081861,-0.009168668,-0.01086618,0.001303303,0.1021633,0.001398645,-0.08174898
-0.1476116,-0.4144954,-0.9115212,-0.009643169,-0.01088643,-0.001997068,0.1085561,-0.00233335,-0.08057653
-0.1471335,-0.4153823,-0.9146798,-0.009110641,-0.01135775,-0.005119369,0.1098105,-0.008453546,-0.07584794
-0.1467182,-0.4173974,-0.9139464,-0.008635003,-0.01296438,-0.004348164,0.1084831,-0.008048387,-0.07628464
-0.1468236,-0.4168045,-0.9109455,-0.008674314,-0.01197006,-0.001307929,0.110534,-0.006392975,-0.07564533
-0.1453891,-0.4162636,-0.9127275,-0.007168306,-0.0110347,-0.003049114,0.1138325,-0.004743303,-0.07675736
-0.1466519,-0.4168874,-0.911674,-0.008354112,-0.01127112,-0.001953391,0.1142227,-0.001434579,-0.0783103
-0.1479635,-0.4165371,-0.9072153,-0.009583647,-0.01054033,0.002548705,0.1092884,0.002314198,-0.07837253
-0.1468365,-0.4157706,-0.9074138,-0.008369424,-0.00940027,0.002394713,0.1108567,0.002621941,-0.08332322
-0.1469431,-0.4160389,-0.9102598,-0.008383968,-0.009302069,-0.0004061018,0.1161851,-0.001183332,-0.07751393
-0.1455209,-0.4168249,-0.9137835,-0.006865038,-0.009728361,-0.003884034,0.1207654,-0.006299848,-0.06761249
-0.1437528,-0.4168693,-0.9129468,-0.004995752,-0.009420067,-0.003001102,0.1220018,-0.007201103,-0.07082579
-0.1449185,-0.4165097,-0.9102888,-0.006056047,-0.008714697,-0.0002964229,0.1165437,-0.003796736,-0.06908152
-0.1475914,-0.4171547,-0.9117164,-0.008619563,-0.009020832,-0.001676877,0.1184023,-0.003687303,-0.06345047
-0.1501972,-0.4195185,-0.9107945,-0.01111232,-0.0110526,-0.000707708,0.1219176,-0.004042484,-0.06037875
-0.1503158,-0.4215096,-0.9098155,-0.01111423,-0.01271833,0.0003188217,0.1174111,-0.002415935,-0.05577617
-0.1485985,-0.421168,-0.9101332,-0.009276683,-0.01205802,4.876191e-05,0.1061536,0.0003454369,-0.06311272
-0.1474272,-0.4203223,-0.9090252,-0.007981485,-0.01089977,0.001204307,0.08838526,0.004713861,-0.07169743
-0.1470407,-0.4209741,-0.9101641,-0.00746776,-0.01124521,0.0001126768,0.08354062,0.004224959,-0.06685055
-0.1471631,-0.4216222,-0.9096113,-0.007459781,-0.01159282,0.0007123546,0.08433661,0.004690266,-0.06380119
-0.1476959,-0.4225961,-0.9085333,-0.00785916,-0.01227208,0.001836764,0.07906937,0.008429113,-0.06364153
-0.1484501,-0.4235531,-0.9093613,-0.008477123,-0.01293977,0.001054435,0.08703314,0.003634933,-0.05790795
-0.1481375,-0.4210815,-0.9082278,-0.008025664,-0.01018427,0.00223282,0.092389,-0.003087531,-0.0522135
-0.146957,-0.4205877,-0.9059605,-0.006703772,-0.009411526,0.004544058,0.07980582,-0.001118065,-0.05075917
-0.1474544,-0.4231617,-0.9012383,-0.007057513,-0.01171153,0.009309007,0.06062272,0.00958919,-0.05316198
-0.1479775,-0.4235618,-0.8987622,-0.007434875,-0.0118424,0.01182613,0.04275612,0.02001031,-0.05661303
-0.146561,-0.4255329,-0.9012986,-0.005870602,-0.01354889,0.009328716,0.04222945,0.01517114,-0.05353509
-0.14717,-0.4257306,-0.9028956,-0.006330154,-0.0134862,0.007768118,0.04617422,0.007128446,-0.04816706
-0.1481899,-0.4237145,-0.9062551,-0.007199126,-0.0112138,0.004442036,0.03920245,0.009050223,-0.04800713
-0.1483451,-0.4249592,-0.909505,-0.007201949,-0.01220593,0.001222469,0.03821715,0.005499706,-0.04735201
-0.1508475,-0.4240973,-0.90708,-0.009550814,-0.01109508,0.003674695,0.03706729,0.001600313,-0.04707385
-0.1500321,-0.4236941,-0.9054006,-0.008580729,-0.01044629,0.005378117,0.03257037,0.006570892,-0.04655426
-0.1473061,-0.4240119,-0.9058208,-0.005699047,-0.01052189,0.004978761,0.03420312,0.007050667,-0.04394865
-0.147403,-0.4209143,-0.9001359,-0.005639307,-0.007185229,0.0106811,0.03034297,0.009729196,-0.04592113
-0.1469636,-0.4202969,-0.8957155,-0.005042584,-0.006331863,0.01511538,0.02297934,0.01888102,-0.04682401
-0.148464,-0.4189726,-0.9032615,-0.006385017,-0.004774891,0.007579408,0.02100905,0.02002274,-0.04515358
-0.1498781,-0.4163291,-0.9098998,-0.007640856,-0.001902054,0.0009469643,0.0271076,0.01268178,-0.04466721
-0.1489441,-0.4168164,-0.9085185,-0.006548319,-0.002163558,0.002329861,0.03617116,0.007159939,-0.0421479
-0.148367,-0.4176471,-0.9078125,-0.005812498,-0.002772137,0.003033529,0.02850955,0.01353294,-0.04132517
-0.1462349,-0.4195328,-0.9090816,-0.003521637,-0.004439806,0.001758234,0.02123567,0.01985552,-0.04171258
-0.1446076,-0.4207278,-0.9111423,-0.001735733,-0.00542084,-0.0003123847,0.03251346,0.01155706,-0.04038687
-0.1443213,-0.4207908,-0.9120143,-0.001291318,-0.005274012,-0.001197611,0.03774687,0.004905069,-0.03636154
-0.145195,-0.4208057,-0.9075704,-0.002007654,-0.00508323,0.003229918,0.03476091,0.005794249,-0.03099153
-0.1465556,-0.4187,-0.9020038,-0.003211912,-0.002775985,0.008777326,0.03227845,0.006364782,-0.03164404
-0.1455372,-0.4174687,-0.9035902,-0.00203854,-0.001347424,0.00716863,0.02730292,0.00890648,-0.03311595
-0.1455561,-0.4170738,-0.9057891,-0.001903825,-0.0007594916,0.00494453,0.02257993,0.01210132,-0.03049126
-0.1456143,-0.4163382,-0.903961,-0.001810095,0.0001645518,0.006744268,0.01872024,0.0133661,-0.02886656
-0.1456042,-0.4157685,-0.9086572,-0.001650006,0.0009181535,0.002016788,0.02444482,0.009682693,-0.02805157
-0.1479147,-0.4149409,-0.9132421,-0.003812529,0.001924751,-0.002602504,0.03298285,0.004867287,-0.02811429
-0.1475607,-0.415137,-0.9108778,-0.003312695,0.00190255,-0.0002750961,0.02854699,0.007862653,-0.02879485
-0.1464392,-0.414485,-0.9115728,-0.002047627,0.002723267,-0.001009383,0.02437474,0.01064966,-0.02931272
-0.1465108,-0.4133079,-0.9134057,-0.001977926,0.004063576,-0.002883537,0.02254552,0.009631799,-0.02895248
-0.1446462,-0.413726,-0.9136612,2.538649e-05,0.003802946,-0.003181963,0.01428509,0.01172995,-0.02699429
-0.1438917,-0.4155476,-0.9161094,0.0009160703,0.002132958,-0.00567426,0.0118151,0.01372314,-0.02787182
-0.144729,-0.4173945,-0.9192215,0.0002121846,0.0004316675,-0.008831234,0.01509588,0.01607535,-0.03134526
-0.1441074,-0.4160362,-0.9197242,0.0009641363,0.001929435,-0.009379055,0.01480712,0.01817662,-0.03364517
-0.1424918,-0.4147744,-0.9161094,0.002707009,0.003324662,-0.005808953,0.01834352,0.01415655,-0.03091659
-0.1412745,-0.4150094,-0.9098556,0.004048088,0.003216966,0.0004008213,0.02429464,0.009373733,-0.02424704
-0.1421096,-0.412761,-0.9053406,0.003333207,0.005586401,0.004872833,0.02698682,0.004566436,-0.02233881
-0.1457909,-0.4108799,-0.908739,-0.0002317654,0.007582244,0.001432352,0.02941079,-0.00116628,-0.01945924
-0.1490992,-0.4096338,-0.9143636,-0.003427749,0.008936579,-0.004233424,0.02629679,0.001081451,-0.01365657
-0.1486021,-0.4090377,-0.9140214,-0.002822184,0.00963405,-0.003931284,0.02336995,0.004652019,-0.01490777
-0.1454807,-0.4111405,-0.9135782,0.0004038549,0.007625737,-0.003527091,0.02820009,0.001101837,-0.01569973
-0.1436426,-0.4106801,-0.9132423,0.002342738,0.008173317,-0.003228718,0.03455295,-0.0002567302,-0.01294812
-0.144218,-0.4100421,-0.9123982,0.00186438,0.008891204,-0.002420564,0.04449982,-0.002037365,-0.0110152
-0.1439013,-0.4126566,-0.9159344,0.002274272,0.006349095,-0.005990897,0.05304189,-0.0101532,-0.005204227
-0.1425606,-0.4115498,-0.919708,0.0037041,0.007520786,-0.009796765,0.05649302,-0.01351917,-0.0001904612
-0.1429482,-0.4060186,-0.9187208,0.00340148,0.01310938,-0.008839496,0.06183219,-0.01237913,-0.001273752
-0.143563,-0.4028044,-0.9138154,0.002867587,0.01637322,-0.003961477,0.06897712,-0.01762728,-0.002063288
-0.1439135,-0.4108117,-0.9116294,0.002593626,0.008407694,-0.001800015,0.0760579,-0.02396622,-0.0003906331
-0.1457818,-0.4210037,-0.9131591,0.0007975439,-0.001750703,-0.003351283,0.0696263,-0.02117516,-0.001732641
-0.1472601,-0.4169238,-0.912468,-0.0006128492,0.002355142,-0.002678919,0.05617996,-0.01488203,-0.004355761
-0.1472284,-0.4142763,-0.9131357,-0.0005173119,0.005021116,-0.003362581,0.0575267,-0.01313987,-0.003599297
-0.1473005,-0.4186444,-0.9134132,-0.0005296895,0.0006643654,-0.003653076,0.05397199,-0.01136702,-0.003824671
-0.1471946,-0.4161631,-0.9065785,-0.000367871,0.003150423,0.003171472,0.0357326,-0.004896994,-0.007970048
-0.1471386,-0.4159246,-0.8986774,-0.0002597323,0.003387193,0.01106491,0.01244834,0.00988709,-0.01587784
-0.1477242,-0.4187485,-0.896961,-0.000796642,0.0005556092,0.01277588,-0.01594318,0.03087347,-0.0277046
-0.148893,-0.4202344,-0.9001144,-0.00192028,-0.0009436957,0.009618364,-0.03322265,0.04541229,-0.036353
-0.1505693,-0.4243333,-0.9025033,-0.003554624,-0.005061196,0.007226179,-0.03900935,0.04786072,-0.0292225
-0.1499304,-0.4200276,-0.9044378,-0.002876704,-0.0007787003,0.005288688,-0.03519929,0.03782335,-0.01477153
-0.1473136,-0.4136181,-0.9059781,-0.0002235474,0.005603425,0.003745337,-0.01261231,0.02144215,-0.01346383
-0.1452124,-0.4172319,-0.906902,0.001911416,0.001958343,0.00281815,0.009886732,0.006387516,-0.01228119
-0.1437091,-0.4172687,-0.9118302,0.003446034,0.001886644,-0.00211378,0.02295061,-0.005009782,-0.005708762
-0.1442186,-0.413714,-0.912497,0.002965291,0.005402911,-0.002784735,0.03539741,-0.009309974,-0.005984638
-0.144043,-0.4148716,-0.9098063,0.00316713,0.004203715,-9.842682e-05,0.05040977,-0.01208254,-0.00178074
-0.1430424,-0.4183218,-0.9137342,0.004191294,0.0007087539,-0.004030744,0.05206683,-0.009107812,0.0009664222
-0.1466772,-0.4229409,-0.9146334,0.0005773618,-0.003957875,-0.004934455,0.02666073,0.0007087828,-0.001070613
-0.1498775,-0.4221981,-0.9128937,-0.002604558,-0.003265227,-0.003199066,0.0001110226,0.006022783,0.001428737
-0.1477486,-0.4183745,-0.9122656,-0.000459866,0.0005062895,-0.002574811,-0.00938781,0.01187314,0.0004739173
-0.1463407,-0.4194617,-0.9080502,0.0009615639,-0.0006346527,0.001637314,0.005405427,0.002968902,0.006254017
-0.147521,-0.4189,-0.9059164,-0.0002073158,-0.0001281702,0.003768306,0.02454885,-0.0120962,0.01216415
-0.1474483,-0.4161386,-0.9053714,-0.0001252444,0.002577061,0.00431087,0.01400221,0.007020242,0.004376125
-0.1470234,-0.4128983,-0.9046419,0.0003071588,0.005760089,0.005038047,0.005178873,0.02773155,-0.0009167316
-0.1483405,-0.4073742,-0.9034348,-0.00100428,0.01122605,0.006242765,0.004490681,0.02571602,-0.005415353
-0.1489119,-0.408814,-0.900918,-0.001571605,0.009726894,0.008756756,-0.006530131,0.03371176,-0.01196721
-0.1486878,-0.4155175,-0.9046702,-0.001345033,0.002962719,0.005001085,-0.02368002,0.05614385,-0.01933009
-0.1495382,-0.4185205,-0.9089068,-0.002194193,-0.0001024128,0.0007600851,-0.06010024,0.08845927,-0.03142801
-0.1477315,-0.4202552,-0.9079555,-0.0003873439,-0.001900451,0.001705865,-0.07582915,0.1176353,-0.03957499
-0.1372792,-0.4198702,-0.912544,0.01006398,-0.001579732,-0.002889138,-0.05507135,0.1135843,-0.0382803
-0.1247597,-0.4195672,-0.9191908,0.02258128,-0.001341664,-0.009543326,-0.03945023,0.07751665,-0.0263045
-0.1259302,-0.4217175,-0.9172413,0.02140654,-0.003557288,-0.007601692,-0.02306942,0.0410096,-0.01074451
-0.1318936,-0.4208154,-0.9155415,0.01543611,-0.002720419,-0.005909847,-0.0178773,0.03334719,-0.002472217
-0.1301618,-0.4201399,-0.920383,0.01715731,-0.002109874,-0.01075887,-0.008168762,0.03604225,-0.0006188982
-0.1333863,-0.4194502,-0.921739,0.01391806,-0.001484449,-0.01212166,0.0518638,0.01301119,0.006311139
-0.1378432,-0.4134736,-0.9181927,0.009441858,0.00442863,-0.008580729,0.09884246,-0.006544878,0.01728358
-0.1367758,-0.4095577,-0.910015,0.01048511,0.008281874,-0.0004067538,0.07704709,0.006763302,0.01163795
-0.1379718,-0.4117996,-0.8989642,0.009260082,0.005977865,0.01064213,0.02801143,0.02434523,-0.005675083
-0.1350484,-0.4141461,-0.9008122,0.01214942,0.003569829,0.008793605,-0.01260313,0.03667976,-0.01868602
-0.1307961,-0.4148711,-0.910277,0.01636252,0.002783515,-0.0006707646,-0.03661659,0.05524305,-0.02285215
-0.131123,-0.4170532,-0.9126194,0.01599107,0.0005404622,-0.003011968,-0.06251391,0.07588385,-0.01854635
-0.1325109,-0.4172702,-0.9099185,0.01455287,0.000262913,-0.0003092494,-0.1332081,0.1018331,-0.02331275
-0.1356265,-0.4133369,-0.8989975,0.01138123,0.004136035,0.01061423,-0.2209917,0.1248851,-0.03269567
-0.1316817,-0.4105707,-0.8923082,0.01526381,0.006842581,0.01730622,-0.2603127,0.1231225,-0.03432747
-0.1239921,-0.4070371,-0.9098015,0.02288521,0.0103167,-0.0001846041,-0.2634598,0.1068005,-0.03202806
-0.1202969,-0.4031966,-0.9284849,0.0265056,0.0140978,-0.0188662,-0.2361404,0.08861858,-0.0173249
-0.1167468,-0.400329,-0.926249,0.02997382,0.01690551,-0.01662858,-0.1701314,0.06059761,-0.0006175853
-0.1196007,-0.393968,-0.9265375,0.02703028,0.02320546,-0.01691476,-0.1030789,0.03031954,0.006173998
-0.1225636,-0.3905366,-0.9371513,0.02396935,0.02657405,-0.02752473,-0.04430069,0.00175411,0.0115429
-0.1192696,-0.3907225,-0.9378432,0.02715649,0.02632238,-0.02821019,-0.002802814,-0.01622618,0.01256604
-0.1172783,-0.3913719,-0.9323335,0.0290317,0.02560351,-0.02269029,0.01761424,-0.007794041,0.01191061
-0.1149305,-0.3936776,-0.9232764,0.03125359,0.02322369,-0.01361847,0.03473748,-0.005124817,0.01604829
-0.1165623,-0.3901434,-0.9130806,0.0294858,0.02667842,-0.003402693,0.03666188,-0.01676509,0.02067215
-0.1215135,-0.3854524,-0.9167814,0.02438786,0.03128383,-0.007078225,0.03388108,-0.01388753,0.02010035
-0.1210632,-0.3864261,-0.9182125,0.02468065,0.03021762,-0.008478915,0.03056269,-0.008394662,0.01571093
-0.1197391,-0.3889709,-0.9147125,0.02583632,0.02757264,-0.004943553,0.01464573,-0.004422086,0.01363876
-0.117597,-0.3948354,-0.922751,0.02779904,0.02159961,-0.01294154,0.005165057,-0.002541488,0.0133319
-0.1145001,-0.3991176,-0.9259262,0.03070544,0.0172003,-0.01607133,0.005655412,-0.007284929,0.01392338
-0.1176039,-0.396384,-0.9223966,0.02739982,0.01980792,-0.01249103,0.008105717,-0.003626743,0.01201873
-0.1211568,-0.3919443,-0.923686,0.02363387,0.0241129,-0.01372442,0.01011954,-0.00386501,0.01052542
-0.1192153,-0.3896031,-0.9240091,0.02535096,0.02631044,-0.01398589,0.01625777,-0.008325267,0.01418277
-0.1187973,-0.3912497,-0.9232841,0.02553348,0.02451107,-0.01319349,0.02663736,-0.008796167,0.01615476
-0.1201333,-0.395243,-0.923672,0.02395101,0.02035554,-0.01350831,0.02969328,-0.01526226,0.02177357
-0.1196961,-0.3962641,-0.9237423,0.02413093,0.01916298,-0.01349957,0.02819186,-0.01566464,0.02596796
-0.1219799,-0.3931439,-0.9222131,0.02157929,0.0221023,-0.01188554,0.02045495,-0.01461255,0.01918615
-0.1247874,-0.3887989,-0.9173921,0.0184939,0.02625734,-0.006973762,0.007671759,-0.01495427,0.01565679
-0.1236085,-0.3876228,-0.9120904,0.01938503,0.02723411,-0.00157554,-0.003395349,-0.006280715,0.01514211
-0.1233012,-0.39363,-0.913124,0.01939541,0.02101821,-0.002507451,-0.0139665,-0.002608858,0.01390537
-0.1248838,-0.3998043,-0.916418,0.0175071,0.01462595,-0.005695066,-0.01763317,-0.004165691,0.01611968
-0.1255527,-0.3974751,-0.914931,0.01652429,0.01672818,-0.004097281,-0.01695135,-0.005499955,0.01689402
-0.1267587,-0.3958058,-0.9159417,0.0149968,0.01816197,-0.004993364,-0.01623273,-0.00398269,0.01653102
-0.1277537,-0.3982532,-0.9185822,0.01367322,0.01547077,-0.007515568,-0.014775,0.0001253989,0.01617176
-0.1249661,-0.3963896,-0.9206319,0.01612589,0.01708288,-0.009443638,-0.01414934,-0.0002839289,0.01662284
-0.1206124,-0.3931103,-0.9260735,0.02013878,0.02010318,-0.0147605,-0.01195184,0.00218364,0.01731184
-0.1201417,-0.3916058,-0.9258304,0.02026342,0.02134155,-0.01438928,-0.01265873,0.002133615,0.01473958
-0.1213414,-0.3926231,-0.9222017,0.01871255,0.02005121,-0.01062923,-0.01706833,-0.0004034635,0.01215918
-0.1208936,-0.3958205,-0.9214229,0.01880454,0.01657405,-0.009715614,-0.01996316,0.003092057,0.01230893
-0.1215848,-0.3949073,-0.9187012,0.0177531,0.01720112,-0.006855785,-0.01639245,0.001136016,0.01486783
-0.1227079,-0.3952635,-0.9197452,0.01626584,0.01655271,-0.007758465,-0.002557714,-0.005552512,0.01640657
-0.1221772,-0.3987098,-0.9225477,0.01642872,0.01280845,-0.01041685,0.01370513,-0.01324084,0.01713858
-0.1224131,-0.3968739,-0.9220116,0.01582183,0.01434131,-0.009733699,0.02306383,-0.01785522,0.01950683
-0.1241623,-0.3954983,-0.9240155,0.01369891,0.01540913,-0.01158794,0.0231739,-0.01381589,0.01944736
-0.1258488,-0.3954666,-0.9239784,0.01163639,0.01512865,-0.01139862,0.02055904,-0.009035587,0.01994883
-0.1269721,-0.393552,-0.9209138,0.01013534,0.01672719,-0.00817908,0.01918869,-0.00511646,0.02100767
-0.1277829,-0.3949979,-0.9207496,0.008945656,0.0149617,-0.007857509,0.01761033,-0.005807407,0.01810827
-0.12709,-0.3965709,-0.9203633,0.009259174,0.01306579,-0.007311507,0.0195769,-0.01039365,0.0182724
-0.124533,-0.3972464,-0.9190286,0.01143671,0.01206457,-0.005815107,0.02101122,-0.01170682,0.02196626
-0.1228292,-0.3983838,-0.9175793,0.01276178,0.01059901,-0.004202181,0.02348942,-0.01450141,0.02427851
-0.1225737,-0.3993199,-0.9167951,0.01263932,0.009332903,-0.00325292,0.0295544,-0.0173543,0.02740411
-0.1245058,-0.4023368,-0.9177413,0.01033064,0.005984557,-0.004032839,0.02766475,-0.01711286,0.03046491
-0.1274372,-0.4020155,-0.9176628,0.007024303,0.005973697,-0.003787283,0.02456675,-0.01639503,0.03197806
-0.1257504,-0.400638,-0.9187541,0.008338195,0.007018821,-0.004711093,0.02598698,-0.01809259,0.03276732
-0.1241953,-0.403333,-0.9203032,0.009522901,0.003991896,-0.006092378,0.02287908,-0.0235131,0.03088106
-0.1273618,-0.4020245,-0.9191221,0.005988936,0.004969628,-0.00474357,0.02032648,-0.02681545,0.02822573
-0.128577,-0.3989232,-0.9175095,0.004409632,0.007741628,-0.002963341,0.01970474,-0.02540252,0.0287576
-0.1282822,-0.3998392,-0.9112051,0.004344077,0.006498562,0.003508185,0.01709292,-0.02096733,0.02880977
-0.1285712,-0.4008107,-0.9039744,0.003698951,0.005202338,0.01090503,0.01445373,-0.01703535,0.02662865
-0.1275669,-0.4016153,-0.9072137,0.004351928,0.004076029,0.007830313,0.01017815,-0.01558364,0.02613084
-0.1271948,-0.4031801,-0.9127034,0.004377915,0.002192781,0.002502712,0.00884818,-0.01428592,0.02514717
-0.1262417,-0.403576,-0.9142751,0.004990272,0.001482243,0.001090264,0.01203085,-0.01566502,0.02213422
-0.1243638,-0.404227,-0.9184545,0.006533235,0.0005209453,-0.002933084,0.01543467,-0.01761096,0.02264726
-0.1251023,-0.4071066,-0.9233894,0.005465761,-0.002664228,-0.007715332,0.02632443,-0.01672877,0.02400571
-0.1272732,-0.4077259,-0.926534,0.002972084,-0.003583855,-0.01071057,0.03536407,-0.01728691,0.02160363
-0.1280907,-0.4065581,-0.9226774,0.001838071,-0.002710383,-0.006707604,0.02110438,-0.01782358,0.02108042
-0.1278831,-0.4086621,-0.9128225,0.001735919,-0.005102258,0.003290712,0.002759304,-0.01379648,0.02094649
-0.1276411,-0.4086561,-0.911797,0.001675029,-0.005377168,0.004456797,0.002705573,-0.006364874,0.01756241
-0.1279289,-0.4061872,-0.9118023,0.001091557,-0.003181818,0.00458889,-0.0005824488,-0.001959092,0.01547214
-0.1286321,-0.4072677,-0.9091705,0.00010001,-0.004527837,0.007354399,-0.01077042,-0.002597638,0.01529124
-0.1282545,-0.4101969,-0.9159954,0.0001968506,-0.007714252,0.0006593145,-0.01000082,-0.001549857,0.01602559
-0.126717,-0.4132137,-0.9173783,0.001461433,-0.01097952,-0.000598068,-0.01371464,-0.0001505695,0.01649362
-0.1260898,-0.4156731,-0.9129945,0.001823574,-0.01367818,0.003906928,-0.02146527,-0.003490354,0.01682962
-0.1273393,-0.4164043,-0.9150425,0.0003170963,-0.01463884,0.001975671,-0.01574773,-0.003795531,0.01845427
-0.1282978,-0.4134739,-0.9130926,-0.0008903254,-0.01192739,0.00403778,-0.01332852,-0.0001318792,0.01908768
-0.1279744,-0.408983,-0.9112069,-0.0008076872,-0.007644427,0.006030935,-0.01645995,-0.0003337155,0.01940838
-0.1294521,-0.408176,-0.9134067,-0.002517777,-0.007034196,0.003933603,-0.01508578,0.001349897,0.01965489
-0.1313077,-0.4071401,-0.9120735,-0.004597373,-0.006183632,0.005364241,-0.01745759,0.003027389,0.01888723
-0.1305976,-0.4060613,-0.9113544,-0.004102693,-0.005278725,0.006175548,-0.01884085,-5.777544e-05,0.01898384
-0.1300399,-0.4085591,-0.9116427,-0.003751624,-0.007939207,0.005974089,-0.01732132,0.000905444,0.01894929
-0.1298838,-0.4083266,-0.9124148,-0.003793207,-0.00785798,0.005283274,-0.01790044,0.001793585,0.01785785
-0.128895,-0.4060279,-0.9146285,-0.002993131,-0.005699171,0.00314516,-0.01675513,0.002154195,0.01843527
-0.1291086,-0.4054698,-0.9131607,-0.00338648,-0.00526991,0.004682883,-0.01559401,0.003361948,0.01985672
-0.1305661,-0.4051155,-0.911939,-0.005014615,-0.005033292,0.005968828,-0.01364197,-0.002561713,0.0190492
-0.1314131,-0.4064383,-0.9147083,-0.006023076,-0.00646303,0.003258101,-0.01026572,-0.005641423,0.01911862
-0.1311461,-0.4081411,-0.9156979,-0.005908477,-0.008262018,0.002321332,-0.008706721,-0.004450532,0.01981407
-0.1295087,-0.4093936,-0.9143221,-0.004414279,-0.009600266,0.003744503,-0.006111244,-0.005049704,0.01888366
-0.1286781,-0.4095784,-0.9134721,-0.00371776,-0.009860327,0.004636307,-0.005993576,-0.003115295,0.0184383
-0.1303554,-0.4084637,-0.9141954,-0.005520052,-0.008810462,0.003949536,-0.01197732,-0.001772474,0.01637835
-0.1309441,-0.4102336,-0.9159738,-0.006224647,-0.01063492,0.002202263,-0.01586003,-0.0005558086,0.01502537
-0.1303457,-0.4107751,-0.9174994,-0.005733129,-0.01122082,0.0007026936,-0.01801517,-0.0007478238,0.01699855
-0.1302822,-0.4088492,-0.9196081,-0.00576762,-0.009329233,-0.00138486,-0.02300454,-0.002019453,0.01710573
-0.1287392,-0.4080476,-0.9210154,-0.004313728,-0.008551779,-0.002775683,-0.02241163,6.682713e-05,0.01481738
-0.1272256,-0.4063809,-0.9188261,-0.0028806,-0.006899522,-0.0005740949,-0.01949512,0.0008649021,0.01438371
-0.1276137,-0.4070746,-0.9140988,-0.003340748,-0.007598088,0.004161621,-0.02235299,0.002642021,0.01684895
-0.1273938,-0.4094334,-0.9110907,-0.003184602,-0.009952581,0.007174334,-0.02302889,0.00308763,0.01806261
-0.1240944,-0.4107288,-0.9109278,5.907427e-05,-0.01123456,0.007338042,-0.02396773,-0.0003002625,0.0160307
-0.1216958,-0.4112575,-0.9110291,0.002409396,-0.01174094,0.007233829,-0.02683435,0.001274875,0.0128004
-0.1256126,-0.408146,-0.9115942,-0.001548449,-0.008598326,0.006661783,-0.02415928,0.00524672,0.01166865
-0.129541,-0.405964,-0.9134656,-0.005511104,-0.006376742,0.004779466,-0.01835393,0.007423707,0.01409114
-0.1277859,-0.4070123,-0.9172744,-0.003783849,-0.00737732,0.0009559024,-0.009785435,0.005732235,0.01766649
-0.1271103,-0.4072008,-0.9211075,-0.003129627,-0.007510122,-0.002895699,-0.005793172,0.001611983,0.0198036
-0.1295262,-0.4070097,-0.9207957,-0.005560871,-0.007255862,-0.002605769,-0.00809823,0.001724857,0.01718647
-0.1302342,-0.4077268,-0.9182712,-0.006278225,-0.007902687,-0.0001062433,-0.003792503,-4.152471e-05,0.01547329
-0.1305743,-0.4086136,-0.9142608,-0.006621794,-0.008712254,0.003876673,-0.0004144797,-0.00434247,0.01693918
-0.1307542,-0.4074559,-0.9089863,-0.00679948,-0.007470822,0.009121164,-0.002705923,-0.00553675,0.01402567
-0.1290799,-0.4069253,-0.9065438,-0.005117266,-0.006850166,0.01153106,-0.002837262,-0.005654891,0.01393994
-0.1281431,-0.4098135,-0.9068003,-0.004166921,-0.009642469,0.01123916,-0.00424247,-0.003019769,0.01726459
-0.1277434,-0.4112587,-0.9081288,-0.003748414,-0.01098595,0.009872226,-0.008191794,-0.001205051,0.0174714
-0.1284347,-0.4077589,-0.9086306,-0.004415841,-0.007378971,0.009328773,-0.01242881,-0.002019447,0.01890597
-0.129678,-0.4039154,-0.9088879,-0.005630287,-0.003422999,0.009026319,-0.01501952,-0.0008914769,0.01829769
-0.1280952,-0.4053886,-0.9119948,-0.004013883,-0.004778871,0.00587089,-0.01924473,-0.0001927785,0.01619955
-0.1274837,-0.4065512,-0.9151077,-0.003364406,-0.005819714,0.002705925,-0.02746443,0.001725005,0.01470361
-0.1288946,-0.4047553,-0.9155617,-0.004732916,-0.00389807,0.002196467,-0.02988283,0.003338216,0.0126303
-0.1293722,-0.4057312,-0.9162238,-0.005164064,-0.004744451,0.001475936,-0.0290363,0.001150546,0.01454249
-0.1294815,-0.4060853,-0.9175617,-0.005223004,-0.0049659,7.679555e-05,-0.03116292,7.777264e-05,0.01631202
-0.1296499,-0.4059079,-0.9171743,-0.005337295,-0.004652889,0.0004005287,-0.03084655,-0.002058843,0.01874383
-0.1302099,-0.4076297,-0.919318,-0.005839574,-0.006236453,-0.001809046,-0.02912592,-0.005154066,0.02307518
-0.1299942,-0.4069283,-0.9226622,-0.005562711,-0.005394531,-0.005220757,-0.02517367,-0.005158321,0.02262811
-0.1302938,-0.4065844,-0.9197937,-0.005797832,-0.004908113,-0.002420981,-0.0189906,-0.004433893,0.02064135
-0.1310073,-0.4073448,-0.9171134,-0.006443532,-0.005524201,0.0001897145,-0.01712355,-0.001571685,0.01518559
-0.129107,-0.4067002,-0.9151566,-0.004472375,-0.004733793,0.002076401,-0.01631933,0.001456537,0.009028265
-0.1279165,-0.4069862,-0.9122221,-0.003208083,-0.004872709,0.004940511,-0.01422037,-0.0008007284,0.0114997
-0.1277902,-0.4070543,-0.914477,-0.003005237,-0.004792699,0.002614851,-0.01542294,-0.003503611,0.01253931
-0.1274605,-0.4069507,-0.9154532,-0.002596453,-0.00454029,0.001567751,-0.01748625,-0.001677418,0.009816035
-0.1281116,-0.4079905,-0.917912,-0.003166319,-0.005430552,-0.000962111,-0.01600119,-0.0004353377,0.01304614
-0.1276639,-0.4085227,-0.9229167,-0.002635234,-0.00581291,-0.006037781,-0.01477935,-0.002150065,0.0169497
-0.1272755,-0.408443,-0.918301,-0.002161712,-0.005583151,-0.001492648,-0.01596247,-0.003005201,0.01686979
-0.1262809,-0.4081841,-0.9131469,-0.001080425,-0.005174114,0.003591591,-0.01633433,-0.001826001,0.01446847
-0.1241844,-0.4081723,-0.911805,0.001104008,-0.005012221,0.0048644,-0.01903813,0.002694732,0.01086859
-0.1250944,-0.4073787,-0.9097629,0.0002828925,-0.004068716,0.006838286,-0.02425084,0.006567176,0.01321718
-0.1263537,-0.40562,-0.9116571,-0.0008870059,-0.002160426,0.00487629,-0.02659759,0.005158899,0.01743756
-0.1262862,-0.4059921,-0.9126373,-0.000729657,-0.002383657,0.003828905,-0.02606619,0.004153212,0.0161652
-0.126797,-0.4092294,-0.9155554,-0.001150509,-0.005472738,0.0008438713,-0.02184813,0.004173584,0.0172883
-0.1271547,-0.4116858,-0.9216412,-0.001418376,-0.007781952,-0.005308288,-0.01801709,0.001726944,0.01842031
-0.1278178,-0.40848,-0.91898,-0.001991854,-0.004429938,-0.002712795,-0.02029309,0.001577776,0.01579926
-0.1271597,-0.4034831,-0.9162374,-0.001244626,0.0007122363,-3.498826e-05,-0.02209425,0.006208343,0.01501883
-0.1257407,-0.4037629,-0.9192906,0.0002629754,0.0005764313,-0.003151813,-0.0197905,0.00664999,0.01432367
-0.1266472,-0.4047031,-0.9189139,-0.0005555919,-0.0002213286,-0.00283732,-0.01755958,5.184369e-05,0.01220618
-0.1275493,-0.4039863,-0.9191406,-0.001370733,0.0006360672,-0.003124681,-0.01225811,-0.0029041,0.009738663
-0.127745,-0.4051836,-0.9202122,-0.001480426,-0.0004227163,-0.004255137,-0.002153522,-0.00202791,0.01200839
-0.1276904,-0.4058943,-0.9190198,-0.001341015,-0.0009971645,-0.003119621,0.001212123,-0.004192746,0.01619733
-0.1257947,-0.4054937,-0.9204721,0.0006384014,-0.0004628547,-0.00462653,-0.004020938,-0.008062945,0.0146464
-0.1244354,-0.4058838,-0.920313,0.002079944,-0.0007218023,-0.004519691,-0.004599949,-0.009387461,0.01775149
-0.1249673,-0.4073246,-0.9151386,0.001628886,-0.002034327,0.0006049656,0.001396549,-0.00800342,0.02343926
-0.1252112,-0.4085922,-0.9113677,0.00146405,-0.003176424,0.004328774,0.007357685,-0.008663279,0.02078158
-0.125087,-0.4066986,-0.9136179,0.001665438,-0.001160171,0.002033881,0.008775612,-0.008205577,0.01806961
-0.1258282,-0.4047735,-0.9168357,0.0009994456,0.0008845986,-0.001226304,0.005451696,-0.004965152,0.01633312
-0.1269571,-0.4065065,-0.914101,-5.643735e-05,-0.000731687,0.001468199,0.002369093,-0.005055275,0.01212503
-0.127328,-0.4072598,-0.9128117,-0.0003566219,-0.001371317,0.002719372,-0.001804923,-0.005838107,0.01100413
-0.1285212,-0.4049099,-0.9156926,-0.00148134,0.001089076,-0.000197628,-0.005997944,-0.005569503,0.01182385
-0.131662,-0.4035052,-0.9183384,-0.004555776,0.002601134,-0.002877745,-0.003215679,-0.006704849,0.01103119
-0.134152,-0.4041872,-0.9238288,-0.00698154,0.002023069,-0.008400498,0.0009079907,-0.00744498,0.01075716
-0.133803,-0.4058472,-0.9248055,-0.006570127,0.0004635143,-0.009407274,0.0003607164,-0.00556065,0.0119115
-0.1326592,-0.4111319,-0.9204834,-0.005365444,-0.004724254,-0.005112932,-0.001020083,-0.003072449,0.01327623
-0.1333442,-0.4167493,-0.9209012,-0.005990878,-0.0102482,-0.005555624,-0.003416235,-0.002758043,0.01303812
-0.1325803,-0.4126721,-0.9218613,-0.005168392,-0.006080637,-0.006537647,-0.007606408,-0.002730402,0.009981339
-0.1302871,-0.4068485,-0.9216927,-0.002817503,-0.0001694728,-0.006387977,-0.01260479,-0.003348516,0.008312019
-0.1303199,-0.4099854,-0.9195023,-0.002793345,-0.003221337,-0.004213234,-0.01754534,-0.003249999,0.009165783
-0.129406,-0.41038,-0.9139968,-0.001823167,-0.003533502,0.00127985,-0.01910681,-0.001749285,0.008688331
-0.1269472,-0.4078947,-0.9146144,0.0006912002,-0.0009681577,0.0006530538,-0.01995872,-0.002072949,0.008820005
-0.1263048,-0.4095934,-0.9223682,0.001388441,-0.002589159,-0.007106929,-0.02040772,-0.0005123363,0.009280482
-0.1285167,-0.4067093,-0.9275187,-0.0007695947,0.0003703827,-0.01226068,-0.01630305,0.001644044,0.008639724
-0.132788,-0.4053797,-0.9207318,-0.004987844,0.001773059,-0.005473777,-0.0118727,0.00195183,0.01006993
-0.1341769,-0.4085294,-0.9110616,-0.006324681,-0.001305897,0.004199644,-0.006167804,0.002145016,0.01105498
-0.1327507,-0.4059986,-0.9139358,-0.004847105,0.001293261,0.001331877,1.972733e-05,-0.000788446,0.01003988
-0.1312716,-0.4047149,-0.9174529,-0.003317124,0.002642828,-0.00217593,-0.0006740914,-0.003555344,0.009895082
-0.1291985,-0.4045713,-0.916688,-0.001193594,0.002849851,-0.001399082,-0.001529632,-0.002137476,0.01014698
-0.1285336,-0.4030983,-0.9191022,-0.0004786461,0.004383587,-0.003798863,0.0001942064,0.002938767,0.01035705
-0.1285056,-0.4049674,-0.9180286,-0.0004011281,0.002572401,-0.002708398,-0.0009154339,0.006489622,0.009111882
-0.1269981,-0.4041057,-0.9171439,0.001155418,0.003489092,-0.001804591,-0.002865116,0.003779927,0.006007512
-0.124872,-0.4035957,-0.9180664,0.003329861,0.00405105,-0.002705686,-0.008070317,0.003138384,0.005081035
-0.1230658,-0.4049508,-0.9158074,0.005183548,0.00274471,-0.0004231634,-0.01565795,0.003187794,0.006561554
-0.1232184,-0.4039438,-0.9168089,0.005077269,0.003797319,-0.001399172,-0.01814487,-0.001019625,0.007273255
-0.1241097,-0.406107,-0.9181287,0.004230929,0.001676414,-0.002691659,-0.01764148,-0.000877656,0.007853923
-0.1234903,-0.4077444,-0.9176822,0.00489349,7.799217e-05,-0.002216159,-0.01359215,0.001018807,0.008883854
-0.123375,-0.4066832,-0.9184044,0.005050019,0.001174954,-0.002907614,-0.004946321,-0.0003317543,0.009554378
-0.1248311,-0.4069859,-0.9168628,0.003633095,0.0009049815,-0.00133381,-0.003823882,-0.001491595,0.01096699
-0.1278986,-0.4068905,-0.9163141,0.0006023706,0.001029958,-0.0007513561,-0.009237659,-0.003622712,0.01256302
-0.1320431,-0.4066647,-0.9172744,-0.003507609,0.00128246,-0.001676571,-0.01139193,-0.004691397,0.01598894
-0.1322049,-0.4051452,-0.9182445,-0.003637191,0.002825785,-0.002610433,-0.01240034,-0.00194643,0.01943956
-0.1305725,-0.4035138,-0.9198111,-0.001974473,0.004478105,-0.004139626,-0.008212133,-0.0007798904,0.01320659
-0.1303889,-0.4041529,-0.9172433,-0.001762313,0.003857154,-0.001533295,-0.002136725,-8.665268e-05,0.006107508
-0.1259487,-0.4043774,-0.9129876,0.002704781,0.003647773,0.002762043,-0.004046639,0.003204005,0.01071734
-0.1235271,-0.4040815,-0.9116509,0.005151555,0.003955877,0.004139149,-0.005082422,0.001771677,0.01295201
-0.1272685,-0.4042754,-0.9119328,0.001433646,0.003771288,0.003898082,-0.003774904,-0.002066641,0.007013478
-0.1293169,-0.4053402,-0.912987,-0.0005930193,0.002712761,0.002884912,-0.005174067,-0.002217306,0.005310872
-0.1312472,-0.4068817,-0.9140642,-0.002503443,0.001174623,0.001848651,-0.005388563,-0.0002760122,0.007923486
-0.1318818,-0.4083017,-0.9146693,-0.003119827,-0.0002448037,0.00128418,-0.008290673,0.00345924,0.0102149
-0.1298982,-0.4095522,-0.9153528,-0.001119353,-0.00149743,0.0006407063,-0.01241911,0.002793864,0.01143652
-0.1282104,-0.4096893,-0.9169571,0.0005838839,-0.00163899,-0.0009241912,-0.0109506,0.0007978251,0.01016614
-0.1254959,-0.408732,-0.9159858,0.003312694,-0.0006883622,8.582655e-05,-0.01142434,0.002343254,0.008824535
-0.1268353,-0.4070514,-0.9124467,0.001986282,0.0009837032,0.003662899,-0.01662305,0.0002654383,0.009056517
-0.1287605,-0.4065616,-0.9123771,7.278245e-05,0.001463154,0.003769489,-0.01885844,0.0004587568,0.009755507
-0.1253059,-0.4071781,-0.9135796,0.003537795,0.0008346415,0.00260291,-0.01653552,0.00359891,0.01008404
-0.1243945,-0.4072322,-0.9143291,0.004458176,0.0007669266,0.001887977,-0.01150483,0.002489201,0.01067614
-0.1250991,-0.4087035,-0.9160199,0.003761158,-0.0007194107,0.0002304334,-0.007819913,-0.0007468005,0.01251305
-0.1239739,-0.4103395,-0.9168068,0.004892222,-0.00237174,-0.0005246412,-0.006211774,-0.005029416,0.013148
-0.1241966,-0.4094934,-0.9170345,0.004673674,-0.001543041,-0.0007220036,-0.002624091,-0.004246596,0.01405492
-0.1269329,-0.4072418,-0.9160593,0.001939769,0.0006902584,0.0002821387,0.0001672577,-0.002143261,0.01378226
-0.1305255,-0.4047625,-0.914731,-0.00165243,0.003150567,0.001638097,0.0008532988,-0.005277299,0.00600711
-0.1293894,-0.4035076,-0.9143018,-0.0005176278,0.00438564,0.002093523,0.0001940412,-0.003858717,-6.248357e-05
-0.1272143,-0.40398,-0.9159506,0.001654612,0.003892628,0.0004694998,-0.004605119,-0.000192753,0.005714747
-0.1282423,-0.4036378,-0.9194479,0.0006222127,0.004213254,-0.003004459,-0.0106303,-0.0002280067,0.01266499
-0.1275887,-0.4027443,-0.918314,0.001269926,0.005084229,-0.001848534,-0.01240989,-0.0006633145,0.01003576
-0.127937,-0.4053792,-0.9166541,0.0009144086,0.002425704,-0.0001677976,-0.008428581,-0.001801659,0.008434212
-0.1299998,-0.40817,-0.9171626,-0.001156799,-0.0003898443,-0.0006566937,-0.002928556,-0.003264597,0.01291342
-0.1308653,-0.4068974,-0.9144389,-0.002031961,0.0008570025,0.002085667,-0.00144146,-0.005810282,0.01291966
-0.1318607,-0.4064542,-0.9149641,-0.003037944,0.001273536,0.001577888,-0.004240375,-0.007695127,0.01178111
-0.1318684,-0.4071789,-0.9171477,-0.003057051,0.0005213202,-0.000589338,-0.006221097,-0.007575142,0.01029802
-0.1321839,-0.4057614,-0.916751,-0.00338443,0.001910552,-0.0001774099,-0.001767984,-0.007674287,0.007760953
-0.1330027,-0.4042698,-0.9196367,-0.004215318,0.003373156,-0.003048862,0.001869659,-0.005568915,0.01024759
-0.1332754,-0.4043241,-0.9220693,-0.004500134,0.003289268,-0.005468201,-0.002618315,-0.003846088,0.007153392
-0.133375,-0.4059442,-0.9227635,-0.004611631,0.001638747,-0.006149757,-0.00586531,-0.004133566,0.002162684
-0.1312515,-0.4075958,-0.9250367,-0.002499649,-4.393784e-05,-0.00841078,-0.003955855,-0.002184628,0.00520873
-0.1299649,-0.4070905,-0.9263938,-0.001223794,0.0004297281,-0.009755599,-0.003786697,-0.0003635986,0.007480086
-0.1304921,-0.4065143,-0.9258126,-0.001761088,0.0009737538,-0.00916175,-0.005429189,-0.001465694,0.00877809
-0.1296828,-0.4079267,-0.9220247,-0.0009610652,-0.0004712179,-0.005360369,-0.00538932,-0.002877959,0.007684301
-0.1287624,-0.4105423,-0.9161804,-4.90533e-05,-0.003119618,0.0004984217,-0.004954359,-0.002169139,0.004954906
-0.128075,-0.413374,-0.9132765,0.0006306781,-0.005984325,0.003417967,-0.005003636,-0.002507825,0.00510472
-0.128635,-0.4129846,-0.9127188,6.384333e-05,-0.005627583,0.003992161,-0.003890985,-0.00404612,0.004698882
-0.1321263,-0.4106499,-0.909944,-0.003433619,-0.003324905,0.006784031,-0.002509026,-0.003112185,0.004872359
-0.1357129,-0.4112243,-0.9084652,-0.007025504,-0.00393055,0.008280041,-0.002629293,-0.003156866,0.004088159
-0.133493,-0.4109431,-0.9110905,-0.004809915,-0.003679502,0.005671824,-0.004873497,-0.003593249,0.00403149
-0.1292178,-0.4089104,-0.9124232,-0.0005377987,-0.001675685,0.004355668,-0.008233141,-0.001958213,0.003544677
-0.1307097,-0.408026,-0.9140942,-0.002031559,-0.0008187442,0.002700379,-0.009465847,-0.001765829,-0.0001731945
-0.131137,-0.4073775,-0.9150992,-0.002459411,-0.0001963003,0.001709993,-0.008466925,-0.00176809,0.00110893
-0.1297596,-0.4084355,-0.9137375,-0.001081284,-0.001278886,0.00308525,-0.008118504,0.0008865272,0.002729352
-0.1307795,-0.4084619,-0.9160274,-0.002099169,-0.001328389,0.0008076709,-0.008404574,0.003462735,0.004276705
-0.1289704,-0.4062211,-0.9167471,-0.0002867949,0.0008906692,9.908729e-05,-0.007948138,0.002510663,0.005875489
-0.1284191,-0.4057782,-0.9159196,0.000269067,0.00131334,0.0009364643,-0.007424938,0.0007313557,-5.504734e-05
-0.1299108,-0.4054474,-0.9175442,-0.001217049,0.001625203,-0.0006793726,-0.00614468,-0.002477659,0.0002166797
-0.1292172,-0.4042919,-0.9164448,-0.0005166826,0.00276289,0.0004277221,-0.001977889,-0.007704891,0.006152606
-0.1308595,-0.4031063,-0.9173248,-0.002151275,0.003931786,-0.0004456691,0.00239161,-0.005591413,0.00665129
-0.1331132,-0.402748,-0.9184284,-0.004396171,0.004274296,-0.001543709,0.001960415,4.863764e-05,0.006930048
-0.1329946,-0.4050096,-0.9148285,-0.004267757,0.00199743,0.002060899,-0.001819639,0.002810808,0.003967693
-0.1317494,-0.4079709,-0.9141251,-0.003011613,-0.0009785916,0.00276817,-0.004317942,0.005890309,-0.0006046281
-0.1299268,-0.4090006,-0.9185152,-0.001176782,-0.002022553,-0.001618954,-0.007512542,0.003462905,0.0008662893
-0.1298766,-0.4076334,-0.9243189,-0.001113126,-0.0006691445,-0.007420491,-0.01285947,0.00061059,0.005112966
-0.129356,-0.4054406,-0.9243589,-0.0005779286,0.001510475,-0.007458983,-0.01474602,0.004061971,0.006383659
-0.1269354,-0.4036425,-0.9206099,0.001858294,0.003295996,-0.003708595,-0.01068745,0.003869009,0.003996758
-0.1274458,-0.40402,-0.9208543,0.001364449,0.002906253,-0.003951593,-0.00684994,0.0003795951,0.002458289
-0.1287215,-0.4065994,-0.9202304,0.0001060743,0.0003149374,-0.003325919,-0.009833824,-0.0009617183,0.001462696
-0.1279719,-0.4072778,-0.9180076,0.000873674,-0.0003752182,-0.001100848,-0.01355946,0.001499353,0.001500431
-0.1285719,-0.4068987,-0.915,0.000292045,-7.554188e-06,0.001909374,-0.01288488,0.004888189,0.00368896
-0.1279663,-0.4069878,-0.9096301,0.000916489,-0.0001079514,0.007282472,-0.01240569,0.001199775,0.003170687
-0.127004,-0.4067915,-0.9071976,0.001897788,7.737131e-05,0.009718247,-0.007980241,-0.002008705,0.003343272
-0.1282247,-0.4071204,-0.9121482,0.0006962087,-0.0002621923,0.004770725,-0.002273969,0.0003733623,0.004383569
-0.1265919,-0.4068731,-0.9182166,0.002348128,-2.524058e-05,-0.001295199,-0.004295547,-1.158949e-05,0.002862966
-0.124883,-0.4068594,-0.9102756,0.004075942,-2.168086e-05,0.006647572,-0.006027168,-0.000411281,0.002777943
-0.1258477,-0.4067827,-0.9017204,0.003129922,4.522343e-05,0.01520369,-0.003869739,0.001729418,-0.0004218004
-0.1282735,-0.4049544,-0.9102203,0.0007221681,0.001864062,0.006703436,-0.001797552,0.002320796,-0.003907426
-0.1318807,-0.403739,-0.914519,-0.002867663,0.00307023,0.002402711,0.001224114,0.001007964,0.001724309
-0.1306279,-0.403963,-0.9113593,-0.001598,0.002837117,0.005558546,0.0006856049,-0.001177668,0.00699313
-0.127707,-0.4048214,-0.9128893,0.001339226,0.001969653,0.004022746,-0.005834308,-0.001146295,0.005951686
-0.1279655,-0.4059127,-0.9125669,0.001096493,0.0008691358,0.004337375,-0.01201545,0.001044974,0.00617638
-0.1272935,-0.4072685,-0.912044,0.001783676,-0.0004959644,0.004850326,-0.01483778,0.002366422,0.00743892
-0.1265677,-0.407454,-0.9119377,0.002523945,-0.0006907808,0.004944733,-0.01573616,0.002276183,0.004871247
-0.1246238,-0.4061714,-0.9110824,0.004481643,0.0005824067,0.005785835,-0.01534739,0.001567126,0.002399118
-0.1227115,-0.4062328,-0.9142371,0.006406793,0.0005115493,0.00261468,-0.01351573,0.002038082,0.001710434
-0.1253395,-0.4057318,-0.9183735,0.003790465,0.001003081,-0.001540311,-0.01126101,0.002291995,-0.0003421589
-0.1283956,-0.4060458,-0.9205609,0.000744728,0.0006796151,-0.003748437,-0.0105665,0.001956323,-0.002922654
-0.1305521,-0.4087032,-0.9203465,-0.001402756,-0.001987369,-0.003556468,-0.01094616,0.002642811,-0.006132258
-0.1312704,-0.4084921,-0.9167774,-0.002113462,-0.001785657,-1.115006e-05,-0.01208691,0.003367791,-0.005462391
-0.129838,-0.4074998,-0.911465,-0.00067453,-0.0008027028,0.005276266,-0.01280476,0.007162649,-0.001403492
-0.1295664,-0.4059756,-0.9104684,-0.0003974651,0.000712303,0.006246734,-0.009732574,0.01114787,-0.0001665328
-0.1282691,-0.4032634,-0.9155698,0.0009043214,0.003415562,0.00111801,-0.005886358,0.007114006,0.00248036
-0.1270234,-0.4055829,-0.9192614,0.002153602,0.001087365,-0.002602103,-0.005218605,0.001972843,0.004507896
-0.1281504,-0.4093477,-0.9209561,0.001029232,-0.002686142,-0.004326335,-0.006230272,0.002427217,0.003933432
-0.1279892,-0.4082583,-0.9224462,0.001192244,-0.001605363,-0.005846672,-0.006742272,0.002550257,0.004088797
-0.1282416,-0.4047861,-0.919802,0.0009406282,0.001858388,-0.00323306,-0.00617791,0.00117372,0.002830978
-0.1288193,-0.4045557,-0.9140688,0.0003628834,0.002080653,0.002469521,-0.005986309,0.0003128105,0.001773972
-0.12744,-0.4066235,-0.9113608,0.001741119,4.759054e-06,0.005146949,-0.006640291,-0.001223845,0.0002779169
-0.1274961,-0.4055053,-0.9145043,0.001683162,0.001115036,0.00197283,-0.007343982,-0.001197925,-0.0003650519
-0.1281657,-0.4059096,-0.9177281,0.001010841,0.0007027847,-0.001281553,-0.007487497,-0.0001873872,0.0007545292
-0.1274107,-0.4079864,-0.918565,0.001762198,-0.001381807,-0.002149134,-0.007866981,-0.001975102,-0.0007162736
-0.126665,-0.4065532,-0.92072,0.00250333,4.35981e-05,-0.004334601,-0.007766922,-0.002458303,-0.001041722
-0.1253765,-0.4065763,-0.9215,0.003786304,1.287546e-05,-0.00514464,-0.006752463,0.0003679343,-0.0003686738
-0.1246633,-0.4067022,-0.9204176,0.004492967,-0.0001204686,-0.004091581,-0.007893869,0.0009717143,-0.0002972765
-0.1263975,-0.4055371,-0.9210327,0.002751158,0.001037238,-0.004735152,-0.007661417,7.488043e-05,0.00066286
-0.1285963,-0.4062981,-0.9219374,0.0005435507,0.0002690809,-0.005667029,-0.004663677,0.0007862717,0.0008692474
-0.12959,-0.4047018,-0.9222685,-0.0004600781,0.00185823,-0.006023961,-0.003617062,-0.0002319939,0.002884743
-0.1291434,-0.4032788,-0.9213668,-2.454952e-05,0.003274259,-0.005146279,-0.005021395,-0.00145022,0.004120544
-0.1279446,-0.404965,-0.9159739,0.00116233,0.001580933,0.0002244041,-0.008030781,0.001014857,0.001758091
-0.1274842,-0.406158,-0.90902,0.001609755,0.0003807164,0.007158088,-0.007265657,0.001827279,-0.0006864672
-0.126867,-0.40849,-0.9085505,0.002213277,-0.001958643,0.007608993,-0.004144899,0.0003830729,-0.002484944
-0.1262794,-0.4104947,-0.9130108,0.002786294,-0.003970753,0.003131308,-0.00407984,0.001012776,-0.001166315
-0.1272708,-0.4092569,-0.9152062,0.001779336,-0.002740317,0.0009195926,-0.002725134,0.00322503,0.0004269008
-0.1281473,-0.4071059,-0.9168943,0.0008865692,-0.0005964523,-0.0007839372,-0.002453674,0.005990246,-0.001745951
-0.127472,-0.4062967,-0.9186079,0.001544587,0.0002059294,-0.002512211,-0.005203874,0.004844785,-0.003598801
-0.1257904,-0.4071896,-0.9173841,0.003208187,-0.0006933053,-0.001302303,-0.007507064,0.001110796,-0.004312136
-0.1245591,-0.4068074,-0.9171613,0.004420661,-0.0003171939,-0.001092379,-0.008998025,0.0002766481,-0.001025883
-0.1243079,-0.4045901,-0.9169179,0.004652077,0.001894441,-0.0008609409,-0.007685793,0.001308457,0.004026407
-0.1225888,-0.402993,-0.915531,0.006350419,0.00348619,0.0005150393,-0.006807917,0.004513541,0.003315127
-0.1204735,-0.4020986,-0.915492,0.00844373,0.004375381,0.0005440051,-0.00749214,0.00563577,0.003088928
-0.1232521,-0.4020027,-0.9132965,0.005641721,0.004466004,0.002730326,-0.006439942,0.002959415,0.002428835
-0.1275049,-0.4013773,-0.9133831,0.001363955,0.005085917,0.002635209,-0.006133083,0.001645601,-0.0004353109
-0.1267688,-0.4007309,-0.9162172,0.002073559,0.005726404,-0.0002067409,-0.006491839,8.36588e-05,0.0007963505
-0.1265962,-0.4009379,-0.9168138,0.002218153,0.005512805,-0.0008106142,-0.005923339,-0.000101799,-0.0003721122
-0.1286299,-0.3999892,-0.9196427,0.0001549685,0.006453962,-0.00364629,-0.005068669,0.00172272,-0.00262009
-0.1273134,-0.4014355,-0.9202037,0.001440739,0.004999104,-0.004213441,-0.003930053,0.00116935,-0.002981274
-0.1254675,-0.4039155,-0.9182196,0.003254763,0.002509174,-0.002234812,-0.001716294,0.0003521974,-0.002519432
-0.1241677,-0.4025875,-0.9183864,0.004521441,0.003825859,-0.002406054,0.004112453,-0.0003622024,0.001605566
-0.1239148,-0.4031223,-0.9167276,0.004740188,0.003278365,-0.0007508402,0.009670351,-0.002104393,0.0007182065
-0.1265432,-0.4068013,-0.9169686,0.002076381,-0.0004148214,-0.0009944525,0.007375241,-0.00371638,-0.0007338432
-0.1272297,-0.4087943,-0.9173447,0.001353337,-0.002423298,-0.001372139,0.003599704,-0.005195766,0.001516646
-0.1273548,-0.4068492,-0.9162782,0.001190579,-0.0004948181,-0.0003062428,0.004586171,-0.005113243,7.309495e-05
-0.1281757,-0.4030215,-0.9198118,0.0003310228,0.003315162,-0.003839502,0.00337426,-0.003779352,0.001014503
-0.1258411,-0.4016253,-0.9216259,0.002626077,0.004692648,-0.005652311,0.002324367,-0.002242721,0.0009256896
-0.124763,-0.3987569,-0.919736,0.003663909,0.007541373,-0.003759911,0.002232331,-0.001437948,-0.00189735
-0.125862,-0.3956656,-0.9181939,0.002523891,0.01061182,-0.002214059,-0.002558675,-0.004431344,-0.0009794089
-0.1264179,-0.3977254,-0.9132764,0.001926281,0.008529575,0.002708521,-0.002395018,-0.006688486,0.001016925
-0.128295,-0.3986216,-0.9034107,6.745377e-06,0.007609127,0.01258043,0.002114319,-0.002321987,0.004758081
-0.1283199,-0.3983889,-0.8989459,-6.110187e-05,0.007815419,0.01705204,0.004453426,0.001560548,0.006642884
-0.1268174,-0.4005665,-0.9121748,0.001397941,0.005609283,0.003829934,0.007345222,0.0004098677,0.003939091
-0.127279,-0.4026872,-0.9286996,0.0008926562,0.003457796,-0.01268849,0.002928855,0.0002403248,0.0006034974
-0.1262495,-0.4053456,-0.9283927,0.001878258,0.0007662027,-0.01237558,-0.004125059,0.0008731938,-0.0001341685
-0.1256536,-0.4064015,-0.9188466,0.002430024,-0.0003250139,-0.002823233,-0.002232359,-0.002053081,0.001796407
-0.1263332,-0.4066186,-0.9119047,0.001706253,-0.0005792535,0.004125448,0.002633342,-0.006101012,0.00149986
-0.1252941,-0.407705,-0.9114167,0.002700986,-0.001704593,0.004620652,0.007172848,-0.008576246,0.002683176
-0.1266273,-0.4065435,-0.9145686,0.001323395,-0.0005833165,0.0014762,0.009612636,-0.009458388,0.00499073
-0.1279816,-0.4065598,-0.915097,-7.543615e-05,-0.0006410558,0.0009553343,0.008055889,-0.009603902,0.003649178
-0.127322,-0.4068029,-0.9160794,0.0005397779,-0.0009264033,-1.961436e-05,0.006953104,-0.01043973,0.003711489
-0.1282003,-0.4054538,-0.9177856,-0.0003828493,0.0003798105,-0.001718382,0.004785122,-0.009815308,0.003292767
-0.1277146,-0.406807,-0.9168566,5.886552e-05,-0.001016836,-0.0007820223,0.001416305,-0.007756027,0.001698191
-0.1274743,-0.4071636,-0.9138476,0.0002554327,-0.001417186,0.002234332,0.005794955,-0.005864163,0.001894857
-0.127694,-0.4068345,-0.9092094,-7.505328e-06,-0.001131939,0.006879694,0.01115104,-0.003903333,0.00125639
-0.1247491,-0.4085784,-0.9099109,0.002894647,-0.00291953,0.006185136,0.005084962,-0.004258329,0.001132056
-0.1230728,-0.4097094,-0.9130736,0.004528594,-0.004093974,0.003028657,-0.0009051767,-0.004356422,0.002687736
-0.1243278,-0.4098966,-0.9102347,0.003231742,-0.004324044,0.005873012,-0.0006076769,-0.004226253,0.003536878
-0.126151,-0.4067202,-0.9111274,0.001367087,-0.001189662,0.004984704,-0.0009121908,-0.007157549,0.002712617
-0.1277551,-0.4045405,-0.9150149,-0.0002783357,0.0009491087,0.00110027,-0.0006581229,-0.007278459,0.002311371
-0.1291365,-0.4068531,-0.9146867,-0.001700605,-0.001403361,0.001430335,-0.0001815969,-0.006459246,0.001680457
-0.128154,-0.4067411,-0.9141672,-0.000758511,-0.001330009,0.001950394,0.0021443,-0.008893884,0.0004686583
-0.125795,-0.4041655,-0.9120596,0.001560685,0.001208158,0.004057228,0.005181905,-0.008907045,0.001237805
-0.1298584,-0.4017997,-0.9136067,-0.002541888,0.003537673,0.00250798,0.001802598,-0.006236225,-0.0003716866
-0.1337705,-0.4016281,-0.9176389,-0.00649235,0.003674147,-0.001527727,-0.001563737,-0.003638506,-0.002144656
-0.1298712,-0.402855,-0.916878,-0.002630411,0.002413188,-0.0007716939,0.00056608,-0.001513822,-0.0004779691
-0.1262579,-0.4025972,-0.9182069,0.0009468143,0.002637722,-0.002106621,0.002300593,0.0002513054,-0.001839186
-0.1244071,-0.4039532,-0.9172027,0.002762726,0.001249098,-0.001109417,0.002964403,0.000298338,-0.00178473
-0.1245838,-0.40492,-0.9155877,0.00255247,0.0002504814,0.000497826,0.004311382,-0.002442567,0.002257942
-0.1268998,-0.4055963,-0.9205584,0.0002039833,-0.0004569228,-0.004481451,0.006894512,-0.003579418,0.003639387
-0.127175,-0.4077913,-0.9205836,-0.0001025691,-0.002682362,-0.004515686,0.01154065,-0.003309608,0.003817611
-0.1279872,-0.4066245,-0.9160171,-0.000945133,-0.001545196,4.154594e-05,0.01222386,-0.002694665,0.004749081
-0.1279627,-0.404903,-0.9130328,-0.0009498687,0.0001475788,0.003016315,0.007512948,0.0001775243,0.006054305
-0.1265199,-0.4049251,-0.9140176,0.000464866,9.788717e-05,0.002021972,0.004269274,0.0003662914,0.003656339
-0.1270046,-0.4053942,-0.9178279,-4.689501e-05,-0.0003979013,-0.001798104,-5.572022e-05,0.000451101,-0.002329596
-0.126314,-0.4061163,-0.9162559,0.0006178757,-0.001145669,-0.0002360751,-0.004468926,0.005228879,-0.004399217
-0.1254269,-0.405215,-0.9150902,0.001480152,-0.0002690234,0.0009195307,-0.001019961,0.006429948,-0.006790446
-0.1264555,-0.4056411,-0.9146231,0.0004278679,-0.0007186733,0.001376522,0.00418105,0.002432822,-0.008778519
-0.1267366,-0.407188,-0.9109531,0.000123934,-0.002288064,0.005036155,0.00368095,-0.0002232549,-0.00407941
-0.1263816,-0.4086015,-0.9110079,0.0004570968,-0.003722858,0.004970869,-0.0002617961,9.454027e-05,-0.001018332
-0.1275302,-0.410235,-0.9122353,-0.0007123955,-0.005376334,0.003732472,-0.004070285,0.001086376,-0.001669993
-0.1300699,-0.4079713,-0.9162368,-0.003271997,-0.003131195,-0.0002805759,-0.003794743,0.0008532114,-0.0008163649
-0.130708,-0.405696,-0.9215292,-0.003929002,-0.0008728718,-0.005585136,0.00102688,0.001412168,0.00158662
-0.1285525,-0.4063459,-0.9189057,-0.001791327,-0.001538039,-0.002974093,0.006471687,0.001537049,0.003366524
-0.1262138,-0.4052943,-0.9148737,0.0005308728,-0.0005001051,0.001045249,0.008052091,-0.000529088,0.003075844
-0.125934,-0.4042772,-0.9131321,0.0007954677,0.0005049667,0.002774088,0.001942471,-0.001796685,0.002726658
-0.1267913,-0.4042643,-0.9115767,-7.585928e-05,0.0005074079,0.004316772,-0.004576239,-0.002387779,0.0003811136
-0.1262752,-0.4039318,-0.9111415,0.0004272924,0.0008308171,0.004738872,-0.001641048,-0.00201963,-0.003240744
-0.1265976,-0.4046441,-0.911648,9.302793e-05,0.0001107704,0.004218914,0.001358252,7.368983e-05,-0.003475366
-0.1284422,-0.4060166,-0.9161013,-0.001762416,-0.0012683,-0.0002482993,-9.332739e-05,0.002813654,-0.002928543
-0.1293003,-0.4075056,-0.9213632,-0.002630369,-0.002762638,-0.005524737,0.001490651,0.005339207,-0.003199454
-0.1285916,-0.4080158,-0.9221317,-0.00193034,-0.003276922,-0.006308068,0.001747097,0.005005876,-0.003075775
-0.1271324,-0.4077811,-0.9229405,-0.0004788369,-0.00304512,-0.007131619,0.000257948,0.003530677,-0.002139039
-0.127729,-0.4090857,-0.925312,-0.001081924,-0.004351207,-0.009517556,0.0007578443,0.001929283,-0.001048383
-0.127886,-0.4089281,-0.9229432,-0.001244317,-0.004193554,-0.007162255,0.00228744,-0.0006570528,-0.0009110958
-0.1255257,-0.4055526,-0.9178345,0.001111766,-0.0008165595,-0.002065929,0.003520588,0.0002942491,-0.0002458576
-0.1246624,-0.4046897,-0.9146781,0.001971762,4.941872e-05,0.001079492,0.0003398379,0.002435684,0.001252553
-0.1248763,-0.4072499,-0.9100578,0.001755542,-0.002506193,0.005690112,-0.001042586,0.002355006,0.001573748
-0.1254978,-0.4082223,-0.909658,0.001132344,-0.003472488,0.006081366,-6.701919e-05,0.00274932,-0.002380344
-0.1268775,-0.4080328,-0.9143905,-0.000248315,-0.003275485,0.001341104,-0.002907575,0.002676902,-0.006434913
-0.1280551,-0.4074176,-0.9148814,-0.001426287,-0.002651318,0.0008429799,-0.00271485,0.003131466,-0.002259092
-0.1282462,-0.4048447,-0.9172046,-0.001617334,-6.788402e-05,-0.001486921,-0.001573942,0.004236189,0.002311224
-0.1272743,-0.4043484,-0.9196682,-0.0006446371,0.0004403666,-0.003956698,-7.73506e-05,0.003901495,-8.560317e-05
-0.127869,-0.4060916,-0.9175933,-0.001238069,-0.001289594,-0.001887393,0.004369096,0.003228787,-0.0001297396
-0.1273855,-0.40586,-0.9182296,-0.0007526219,-0.001043534,-0.002528593,0.004231952,-0.0002245329,0.003459145
-0.1237322,-0.4061518,-0.9162145,0.002903249,-0.001319707,-0.0005176439,0.003913286,-0.004599155,0.004991613
-0.1221848,-0.4075731,-0.9140931,0.004453651,-0.00272436,0.001600456,0.004872309,-0.003870396,0.005901834
-0.1253104,-0.4079234,-0.9155017,0.001331319,-0.003056877,0.0001892013,0.003973238,-0.002439556,0.0058267
-0.1291382,-0.4081691,-0.912262,-0.002493015,-0.003283789,0.003426993,0.006660118,-0.00292081,0.006287473
-0.1263435,-0.4073315,-0.9106124,0.0003051962,-0.002426208,0.005075151,0.009561381,-0.0002750212,0.008152275
-0.1231587,-0.4047213,-0.9136365,0.00349361,0.0002049182,0.002049893,0.01312084,-0.0005200268,0.007928901
-0.1258042,-0.4043642,-0.9181139,0.0008517566,0.0005841063,-0.002428644,0.0233992,-0.01057949,0.01000527
-0.125219,-0.4087913,-0.9211147,0.001440519,-0.003820007,-0.005430339,0.03546947,-0.01789294,0.01417289
-0.1244583,-0.4126477,-0.9195807,0.002204634,-0.007652566,-0.003897029,0.04763486,-0.01358493,0.01433185
-0.1271346,-0.4114269,-0.9186736,-0.0004684954,-0.006406943,-0.00299016,0.05763493,-0.009305042,0.01315452
-0.1289542,-0.4103697,-0.9162929,-0.002285215,-0.005323727,-0.0006090315,0.0597384,-0.01140119,0.01205512
-0.1314812,-0.4125093,-0.9142932,-0.004809413,-0.007435806,0.001391741,0.06342665,-0.01175373,0.01019597
-0.1309511,-0.41292,-0.9175926,-0.004276576,-0.007817501,-0.001906016,0.06637966,-0.0104565,0.008468215
-0.1296483,-0.4120994,-0.9187645,-0.002970866,-0.006966192,-0.003075649,0.05574218,-0.01205549,0.006120671
-0.1312217,-0.4129256,-0.9176683,-0.004541008,-0.007759859,-0.001976453,0.04655319,-0.01090728,0.00465522
-0.1304175,-0.4133501,-0.9163893,-0.003732954,-0.008149668,-0.000693833,0.04388221,-0.007650742,0.005412661
-0.1304437,-0.4138403,-0.9128579,-0.003754607,-0.008602938,0.002841949,0.03142366,-0.005865028,0.004435156
-0.1318992,-0.413347,-0.909999,-0.005204734,-0.008070393,0.005705697,0.01543282,-0.003747768,-0.0003307133
-0.132034,-0.4123243,-0.9102021,-0.005333117,-0.00700585,0.005507908,0.006736763,-0.002837539,-0.004159763
-0.1330871,-0.4154738,-0.9092797,-0.006378686,-0.01011097,0.006435597,-0.005870449,-0.0007649789,-0.004303809
-0.1331183,-0.419012,-0.9065539,-0.006401013,-0.01360192,0.00916629,-0.02444,0.002980004,-0.002884315
-0.1315477,-0.4197149,-0.9109451,-0.004819987,-0.01425445,0.004779289,-0.03372272,0.008285543,-0.002654367
-0.1300672,-0.4187897,-0.9163948,-0.003327342,-0.01327562,-0.0006670732,-0.0359852,0.01273184,-0.003588949
-0.1301795,-0.4150729,-0.9136006,-0.003425656,-0.00950143,0.002129358,-0.0338191,0.009280287,-0.004401877
-0.1311485,-0.4125888,-0.9129696,-0.004379016,-0.006956121,0.002761451,-0.02555185,0.007034131,-0.005908478
-0.1302686,-0.4140328,-0.9148409,-0.003481583,-0.008335047,0.0008902716,-0.02083368,0.00719381,-0.005410315
-0.1305937,-0.4140772,-0.9134698,-0.00378735,-0.008310595,0.002260297,-0.01328651,0.003419198,-0.002724481
-0.1318426,-0.4115697,-0.9137734,-0.005015025,-0.005730472,0.001954627,-0.003473338,0.002226376,-0.002362475
-0.1316535,-0.4108948,-0.9142667,-0.004802923,-0.004979317,0.001458094,-0.000381356,0.001757417,-0.004469321
-0.1313457,-0.4120116,-0.9135357,-0.004470063,-0.00601648,0.002184657,0.0007385701,0.001977966,-0.006597484
-0.1301343,-0.4128166,-0.9144108,-0.003231827,-0.006738479,0.001304053,0.0005766411,0.001309877,-0.003814604
-0.1303172,-0.4126885,-0.915716,-0.003385879,-0.006524343,-7.665807e-06,0.004084068,-0.001758264,-0.0001184976
-0.1310806,-0.4119619,-0.9170471,-0.004118479,-0.005708618,-0.00134646,0.007202225,-0.0002730485,-0.002641167
-0.1303202,-0.4123326,-0.9170604,-0.003325523,-0.005987366,-0.001368231,0.008787732,-0.001354444,-0.004113495
-0.131559,-0.4134335,-0.9164961,-0.004529834,-0.006993587,-0.0008133295,0.01435472,-0.002384208,-0.002118982
-0.1323898,-0.4148096,-0.9186699,-0.005324429,-0.008272483,-0.002996969,0.01164609,-0.0004252803,6.510833e-05
-0.1317414,-0.4144443,-0.9190722,-0.004637968,-0.007807299,-0.003409672,0.008063743,-0.003531829,0.001146821
-0.1320176,-0.4128934,-0.9139609,-0.004874231,-0.006154154,0.00169103,0.007419908,-0.002799996,-0.001115754
-0.1317278,-0.4143309,-0.909353,-0.004542594,-0.007486999,0.006288126,0.001291037,-0.0006909274,-0.001570858
-0.1310645,-0.4142118,-0.9105621,-0.003835664,-0.007260969,0.005067849,-0.001399277,0.0001203836,-0.0009944556
-0.1303184,-0.413159,-0.912716,-0.003044231,-0.006099075,0.002902253,-0.004618238,0.003241129,-0.001318513
-0.1303579,-0.4145305,-0.9126062,-0.003036524,-0.00735942,0.002999777,-0.009331325,-0.0003685688,0.003094106
-0.130882,-0.4136554,-0.9159739,-0.003511861,-0.006371074,-0.0003809693,-0.009413356,-0.00635815,0.006528326
-0.1303539,-0.4142101,-0.9181753,-0.002933456,-0.006810781,-0.00259608,0.002429994,-0.01244127,0.005822176
-0.1305548,-0.4170503,-0.9155975,-0.003082645,-0.009534097,-3.259671e-05,0.02783541,-0.0137481,0.007331765
-0.1305244,-0.4190994,-0.9158226,-0.002999092,-0.01146458,-0.0002723997,0.03633917,-0.009372689,0.01009269
-0.1292967,-0.4218788,-0.9151546,-0.001716933,-0.01412357,0.0003805645,0.02642899,-0.01363199,0.009206111
-0.1281362,-0.4222892,-0.9127307,-0.0005008207,-0.01441139,0.00278915,0.02350593,-0.01214151,0.004568201
-0.1277139,-0.4204344,-0.9126396,-2.195571e-05,-0.01243182,0.002864603,0.02221114,-0.005211753,0.001761002
-0.1297972,-0.4179213,-0.9120366,-0.00204799,-0.009791579,0.003451508,0.01831284,-0.005252137,0.002916717
-0.1321956,-0.415022,-0.9119961,-0.004388372,-0.006762564,0.003475501,0.01754126,-0.001786979,0.005172315
-0.1321907,-0.4134388,-0.9091824,-0.004324921,-0.005047266,0.006272142,0.02091654,-0.002801917,0.005148053
-0.1317709,-0.4144433,-0.9060285,-0.003845924,-0.005917546,0.009408272,0.02271256,-0.004000608,0.002908886
-0.1317671,-0.4172252,-0.91094,-0.003782381,-0.008563354,0.004477883,0.01553875,0.0005698441,0.002389018
-0.1311346,-0.4169337,-0.9160057,-0.003089507,-0.008133831,-0.0006077937,0.007289534,-0.0001841903,0.001352854
-0.1303974,-0.4169243,-0.9155247,-0.002291451,-0.007984786,-0.0001480433,0.002623798,0.001408966,-0.0007416896
-0.1313375,-0.4182077,-0.9137873,-0.003170125,-0.009126788,0.001567079,-0.007629896,0.00446269,-0.00125585
-0.1323085,-0.4169311,-0.9126045,-0.004079337,-0.007707324,0.00272658,-0.01791502,0.006336325,-0.002858102
-0.1309798,-0.4183301,-0.9110934,-0.002688389,-0.008961943,0.004213542,-0.01729213,0.007648349,-0.004329773
-0.130081,-0.419583,-0.9088665,-0.001726966,-0.01006912,0.006415169,-0.01953988,0.0050926,-0.004105808
-0.1303114,-0.4190059,-0.9083072,-0.001894474,-0.009344741,0.006948161,-0.02690915,0.00505596,-0.004982055
-0.1288729,-0.4201323,-0.9100011,-0.0003928427,-0.0103226,0.005226707,-0.0255144,0.00421484,-0.006692076
-0.1271096,-0.4195697,-0.9113257,0.001433713,-0.009609982,0.003873022,-0.02644368,0.004370079,-0.005826518
-0.1276091,-0.418295,-0.9086463,0.0009972413,-0.008183928,0.006521912,-0.02911499,0.007801703,-0.00291862
-0.1284028,-0.4163161,-0.9062143,0.0002661497,-0.00605227,0.008921751,-0.02268839,0.006260024,-0.001933621
-0.1282299,-0.4157562,-0.9106558,0.0005012845,-0.005338496,0.004446383,-0.01965792,0.004024693,-0.002488894
-0.1283239,-0.417633,-0.9139854,0.0004687817,-0.007060397,0.001081102,-0.01986121,0.003937943,-0.003362618
-0.1267738,-0.4165442,-0.9114423,0.002079525,-0.005815899,0.003586685,-0.01739595,0.005486535,-0.003638072
-0.124313,-0.4173612,-0.9106377,0.004599853,-0.00647657,0.004352107,-0.0160752,0.006370108,-0.002954971
-0.1232564,-0.4198914,-0.913251,0.005714786,-0.008849878,0.00169791,-0.01191978,0.004482015,-0.00350014
-0.1226518,-0.4187471,-0.9145866,0.006376156,-0.007548283,0.0003199067,-0.00850483,0.003589637,-0.004331632
-0.1262779,-0.4168426,-0.9137603,0.002804878,-0.005486124,0.00110233,-0.007931248,0.0004189226,-0.004900152
-0.1313589,-0.4145376,-0.9137116,-0.002223494,-0.003023224,0.001105978,-0.003141838,-0.003280716,-0.004877072
-0.13023,-0.4147165,-0.9144405,-0.001044067,-0.003044181,0.000330931,-0.0004705086,-0.003511989,-0.003467167
-0.1297206,-0.4160246,-0.9159365,-0.0004862933,-0.004194589,-0.001212043,-0.001170999,-0.001140337,-0.003084069
-0.1315288,-0.4138522,-0.9190057,-0.00224804,-0.001864994,-0.004328931,-0.0006505633,0.003206313,-0.002792156
-0.1301621,-0.4131949,-0.9188094,-0.0008368899,-0.001051211,-0.004180648,-0.005277896,0.004559729,-0.001669124
-0.1303094,-0.4128108,-0.9115248,-0.0009416583,-0.0005116685,0.003055933,-0.01276529,0.004894883,-0.002219427
-0.1311065,-0.4120445,-0.9032865,-0.001697948,0.0004087981,0.01124629,-0.01749845,0.004286841,-0.003634125
-0.130084,-0.4146081,-0.9027589,-0.0006362785,-0.002002279,0.01172576,-0.01855371,0.0011771,-0.003082453
-0.1303706,-0.415358,-0.9055619,-0.0008854137,-0.00260163,0.008874202,-0.01628353,0.001570978,-0.001725258
-0.1289053,-0.4148215,-0.9042792,0.000615789,-0.001916512,0.01010738,-0.01394793,0.001244247,-0.0004554948
-0.1269257,-0.4155414,-0.9035498,0.002629759,-0.002490106,0.01078613,-0.0115887,-0.001116075,0.002483754
-0.1276832,-0.414626,-0.9059931,0.001904997,-0.001430663,0.008290702,-0.01016224,-0.0008453243,0.002660251
-0.127321,-0.4146774,-0.9096442,0.002298333,-0.001340436,0.004585809,-0.005294946,-0.001408346,0.001454043
-0.1271396,-0.4148965,-0.9109162,0.002509036,-0.001420592,0.00325819,0.002593783,-0.003782944,0.003543757
-0.129805,-0.4127952,-0.9070219,-0.0001289412,0.0008169577,0.007095225,0.007280568,-0.007026893,0.002707063
-0.1314463,-0.4133497,-0.9060869,-0.001744574,0.000395821,0.007971213,0.01263302,-0.008267497,0.001608801
-0.130412,-0.415078,-0.9075827,-0.000686367,-0.001202147,0.006414555,0.01467295,-0.006396787,0.002810629
-0.1302109,-0.4142996,-0.9055213,-0.00046297,-0.0002965177,0.0084132,0.01539225,-0.005664517,0.00219796
-0.1309455,-0.4153178,-0.9061242,-0.001176795,-0.001190854,0.00774564,0.01826109,-0.004710179,0.003618114
-0.1300278,-0.416161,-0.9092854,-0.000239712,-0.001913444,0.004517702,0.01657163,-0.003715565,0.004243215
-0.1286846,-0.4154506,-0.9113745,0.001121499,-0.001085676,0.00235994,0.01565527,-0.002253939,0.0005071953
-0.1278196,-0.4172023,-0.9092592,0.002003124,-0.002723469,0.004404715,0.01297183,0.002842773,-0.002990414
-0.129121,-0.417016,-0.9049563,0.0007170654,-0.002426442,0.008635202,0.008593013,0.004413393,-0.003472346
-0.1316399,-0.4159517,-0.9078547,-0.00178784,-0.001254703,0.005662766,0.006559268,0.002878915,-0.002936524
-0.1305815,-0.4172306,-0.91148,-0.0007167649,-0.00242942,0.001961644,-0.001161291,0.005630975,-0.003901217
-0.1299339,-0.4165034,-0.9120965,-5.764249e-05,-0.001601144,0.00126772,-0.009365808,0.007224758,-0.003763106
-0.1307951,-0.416988,-0.9118149,-0.000908285,-0.001987732,0.001470557,-0.01516215,0.007148012,-0.003904469
-0.1288788,-0.4197514,-0.9083044,0.001017425,-0.004656129,0.004901008,-0.01732788,0.008539664,-0.004324026
-0.1289046,-0.4203824,-0.9096702,0.001000163,-0.005195069,0.003454212,-0.01648984,0.007345937,-0.002748958
-0.1311958,-0.4168851,-0.9117838,-0.001283493,-0.001608509,0.001258718,-0.02180686,0.007905431,-0.003523666
-0.1310606,-0.4121052,-0.9106009,-0.00114169,0.003258111,0.002359056,-0.02482635,0.01483485,-0.005508843
-0.1309919,-0.4143585,-0.9135289,-0.001067088,0.001088829,-0.0006522118,-0.0293639,0.024222,-0.0081642
-0.131993,-0.4166179,-0.9140493,-0.002063098,-0.001089268,-0.001256119,-0.03932497,0.03153718,-0.01430128
-0.1299072,-0.412524,-0.9114394,2.734333e-05,0.003082972,0.00127021,-0.04019014,0.03207054,-0.01978836
-0.1249396,-0.411762,-0.9090895,0.004998923,0.003920546,0.003536639,-0.04059745,0.02877525,-0.0172009
-0.1215244,-0.4120122,-0.9081099,0.008417472,0.003742719,0.004433096,-0.03578277,0.02281262,-0.006678433
-0.1209232,-0.4105418,-0.9132629,0.009021127,0.005282299,-0.000802747,-0.01224074,0.00876859,-0.0003625737
-0.1242012,-0.4112425,-0.9168297,0.005744238,0.004647261,-0.004451977,0.002618749,-0.001331858,-0.002731997
-0.1280138,-0.411362,-0.915649,0.001931237,0.004589947,-0.003352941,-0.007748912,0.00102592,-0.005672914
-0.1261222,-0.4118804,-0.9167278,0.003820816,0.004129867,-0.004512278,-0.01326354,-0.0008882529,-0.003796364
-0.1237251,-0.4129027,-0.9195105,0.006214141,0.003162008,-0.007374135,0.009204688,-0.009788445,-0.001406209
-0.1243301,-0.4124792,-0.9187499,0.005603525,0.003636138,-0.006690753,0.02724139,-0.01137666,-0.001131447
-0.1258759,-0.4125795,-0.9143992,0.004050177,0.00358243,-0.002415103,0.01665067,-0.008961922,0.001255782
-0.1285911,-0.4136117,-0.9135306,0.001325325,0.002592908,-0.001618943,0.00815547,-0.006914114,-2.468305e-05
-0.1274076,-0.4150908,-0.915854,0.002497152,0.001152468,-0.004012083,0.01039046,-0.003084192,-0.002397329
-0.1250915,-0.4156128,-0.9163052,0.004799659,0.0006652486,-0.004530146,0.01233196,-0.00610338,0.0004846354
-0.1269268,-0.4151691,-0.9125382,0.002948803,0.001140011,-0.000827007,0.01719996,-0.01127812,0.0007251987
-0.1266116,-0.4154214,-0.907913,0.00324655,0.0009151932,0.003737365,0.01395759,-0.008621439,0.001117865
-0.1259863,-0.4162159,-0.9104142,0.003852349,0.0001446606,0.001178305,0.00617534,-0.006145553,0.001354509
-0.1281665,-0.4165837,-0.9127513,0.001650763,-0.000202457,-0.001213774,0.005244792,-0.005421488,-0.0004784412
-0.1295989,-0.4149562,-0.911656,0.0001952081,0.00144256,-0.000170705,-0.0007492122,-0.003107925,-0.0008675487
-0.1311282,-0.4131553,-0.9155492,-0.001359046,0.003258034,-0.004113494,-0.007696107,0.0005853772,-0.004078402
-0.1301297,-0.4137937,-0.9179826,-0.0003870373,0.002631196,-0.006593569,-0.006224658,0.00369712,-0.0040855
-0.1261735,-0.4139411,-0.9148597,0.00354143,0.002492565,-0.003514335,-0.004442105,0.00161674,-0.00120566
-0.1234748,-0.4118372,-0.909332,0.006211207,0.004602295,0.00197275,-0.000209115,-7.393482e-05,0.00059557
-0.1230094,-0.4109061,-0.9038113,0.006646357,0.005536431,0.007455732,0.008196251,0.001432919,0.004999097
-0.1249954,-0.4128815,-0.9067415,0.004628703,0.00356111,0.00449059,0.01072684,0.0008580273,0.0043163
-0.1254244,-0.4144666,-0.9150875,0.004166522,0.001973263,-0.003887971,0.005398519,-0.0003144634,0.001098503
-0.1245567,-0.4130954,-0.9174161,0.004999505,0.003338788,-0.006246883,-0.0005566723,0.0003192642,0.0006995884
-0.1256785,-0.4119572,-0.9141597,0.003841387,0.004468553,-0.003018406,-0.003896707,0.002889754,0.0002729251
-0.1266718,-0.4135842,-0.9112157,0.002810197,0.002830495,-9.98374e-05,-0.008415621,0.005981315,0.001600766
-0.128214,-0.4142156,-0.9120328,0.001228522,0.002185244,-0.0009398881,-0.01309183,0.007219309,0.00194356
-0.1282565,-0.4127529,-0.9125948,0.001145181,0.003631549,-0.001522387,-0.0151791,0.00476252,0.002171819
-0.1268878,-0.4126055,-0.9113955,0.002471783,0.003759957,-0.0003412982,-0.01557492,8.924996e-05,0.001532835
-0.1272915,-0.4142601,-0.9172421,0.002024819,0.002084021,-0.006203836,-0.01257991,-0.0002698845,-0.0006114396
-0.1261602,-0.4159283,-0.9220863,0.003111755,0.0003919932,-0.0110615,-0.009037664,0.001439679,0.0006007825
-0.1257515,-0.4154792,-0.9129359,0.003475029,0.0008152111,-0.001922032,-0.007946919,0.0005020726,-0.0002300627
-0.1259395,-0.4147581,-0.9028885,0.003240645,0.001508298,0.008117171,-0.007288187,0.00154365,-0.002891414
-0.1236341,-0.4154476,-0.9039529,0.005498739,0.0007889887,0.007046973,-0.006721931,0.00271511,-0.003626921
-0.1241356,-0.4140186,-0.9102339,0.004948854,0.002186493,0.0007621712,-0.004028013,0.001648256,-0.002372309
-0.1259885,-0.4115895,-0.9148795,0.003046546,0.004582486,-0.003885677,0.001335181,0.002048609,4.431264e-05
-0.1266624,-0.4107577,-0.9164304,0.002322259,0.005379679,-0.005437141,0.005658148,0.001926205,-0.002276477
-0.1282202,-0.4109071,-0.9165756,0.0007131242,0.005194034,-0.005581248,0.008139308,0.0005196978,-0.003378963
-0.1280912,-0.4114552,-0.9196334,0.0007899832,0.004608061,-0.00863604,0.009669423,-0.00266659,-0.0008137175
-0.1273326,-0.4109775,-0.924471,0.001495746,0.005046337,-0.01346851,0.01001861,-0.006279254,0.001006434
-0.1279747,-0.4109683,-0.9225181,0.0008001966,0.005014259,-0.01150803,0.009449626,-0.003028431,0.00249374
-0.1276771,-0.4113955,-0.9158288,0.001043999,0.004544167,-0.004808345,0.005826768,0.001427324,-0.0001591925
-0.1265113,-0.4112239,-0.9101825,0.002155731,0.00467118,0.0008513889,-5.490601e-05,-0.0002968866,-0.0001856784
-0.1248362,-0.4129844,-0.9059968,0.003776556,0.00286436,0.005053432,-0.0001639217,-0.000877455,0.00119459
-0.1217358,-0.4148753,-0.9062276,0.006822353,0.0009255122,0.004841442,0.00165028,0.0005092468,-0.00167148
-0.1193222,-0.4157036,-0.9073306,0.009181111,4.784124e-05,0.003759268,-0.002943377,0.000121779,-0.0004605873
-0.1205,-0.4173404,-0.9078126,0.007948,-0.001639672,0.003299818,-0.00733889,0.002160187,-0.001479429
-0.1240792,-0.4185855,-0.9115918,0.004312589,-0.002936484,-0.0004555876,-0.007962608,0.004471536,-0.003322378
-0.1259104,-0.4187595,-0.9139542,0.002424444,-0.00316286,-0.002793161,-0.006635769,0.003724821,-0.001586014
-0.1249563,-0.417887,-0.9139866,0.003320682,-0.00234302,-0.002799681,-0.003837322,0.004812869,-0.003292248
-0.1246314,-0.4164326,-0.9159734,0.003586921,-0.0009413027,-0.004759704,-0.004639991,0.005264087,5.87342e-05
-0.1253044,-0.4148366,-0.9172301,0.002854588,0.0006022027,-0.005988537,-0.008776868,0.001283508,0.003496054
-0.1249379,-0.413291,-0.9165642,0.00316109,0.002095559,-0.005293612,-0.009462261,1.965435e-05,0.001822789
-0.1248753,-0.4133176,-0.9166093,0.003163012,0.002017168,-0.005308461,-0.005855441,0.003382658,0.003518234
-0.1248168,-0.4125935,-0.9167086,0.003160178,0.002689937,-0.005376133,-0.00339887,0.004783517,0.002763795
-0.1231005,-0.4102772,-0.9166423,0.004814725,0.004955209,-0.005276756,-0.003423712,0.004869003,0.001704002
-0.1220468,-0.4110224,-0.9161856,0.005806086,0.004159326,-0.00478539,-0.003027095,0.005116609,0.001025879
-0.1238584,-0.4126914,-0.9138933,0.003931534,0.002439807,-0.002456971,-0.001600598,0.0004193992,-0.001446672
-0.1258733,-0.4124679,-0.9115977,0.001853074,0.002612979,-0.0001236535,-0.001166731,-0.003886255,-0.0003147988
-0.1247185,-0.4135501,-0.9108855,0.002943797,0.001480557,0.000627728,-0.007145763,0.001500088,-0.0007923209
-0.1226934,-0.4142385,-0.9096413,0.004904286,0.0007421698,0.001912193,-0.01365877,0.007509194,-0.001347847
-0.1222709,-0.4137175,-0.9080085,0.005261784,0.0012133,0.003586231,-0.01093537,0.005584089,-0.0003409505
-0.1228249,-0.4139864,-0.9116547,0.004642167,0.0008949582,-1.806631e-05,-0.009191524,0.004214853,-0.0009181111
-0.1240925,-0.4138257,-0.9185385,0.003308481,0.001006571,-0.006859679,-0.01102535,0.005201769,-0.0004363981
-0.1238156,-0.4138904,-0.9205501,0.003518816,0.0008931101,-0.008828551,-0.007469267,0.004036373,-0.0008440546
-0.123458,-0.4136144,-0.9190916,0.003809267,0.001120839,-0.007326615,-0.005191986,0.004212926,-0.0001444938
-0.1257816,-0.4119592,-0.9161838,0.001418094,0.002728384,-0.004374638,-0.009928985,0.003876477,0.0003381588
-0.1270571,-0.41071,-0.9109058,7.467015e-05,0.003930334,0.0009485531,-0.01670764,0.003485203,-0.002144443
-0.1269091,-0.410813,-0.9083305,0.0001544945,0.003780464,0.003569962,-0.01930994,0.006483223,-0.002117893
-0.1263645,-0.4115197,-0.9157507,0.0006310289,0.003027305,-0.003803512,-0.01407974,0.006242921,-0.001029584
-0.1250416,-0.4109954,-0.9242384,0.001885954,0.003505415,-0.01224406,-0.006456518,0.003846078,0.0007507017
-0.1247913,-0.411079,-0.9189758,0.002068525,0.003375845,-0.006933486,-0.003260811,0.002645449,0.003492099
-0.1244614,-0.4123499,-0.9133864,0.002331011,0.002059013,-0.001295202,-0.002870929,-0.001082057,0.003064314
-0.124673,-0.4123337,-0.9154016,0.002052458,0.002029514,-0.003260627,-0.003055698,-0.004681395,0.002451299
-0.125756,-0.4115897,-0.9133735,0.000902876,0.002727862,-0.001181734,-0.003500753,-0.003744844,0.002396053
-0.125829,-0.4093458,-0.9143703,0.0007637992,0.004926173,-0.002126907,-0.003427488,-0.0008682595,-0.0005005133
-0.1273773,-0.4065207,-0.9202915,-0.0008499817,0.007705733,-0.007995822,-0.004650679,0.0004512323,-0.003595467
-0.1283468,-0.4059931,-0.9228501,-0.001884215,0.008187574,-0.01050127,-0.006312298,0.003284486,-0.002960048
-0.126315,-0.4095823,-0.9211767,8.38269e-05,0.004552276,-0.008773682,-0.005894116,0.003889425,0.000946437
-0.1250112,-0.4144155,-0.9140318,0.001324851,-0.0003276656,-0.001573311,-0.005544256,-0.002188655,0.003391275
-0.1238213,-0.4129045,-0.909576,0.002453173,0.001136138,0.002939203,-0.005151236,-0.006203599,0.001464744
-0.1222532,-0.4109613,-0.9093965,0.003960764,0.003031656,0.003176462,-0.002242981,-0.006375561,-0.0003697812
-0.1215808,-0.4126134,-0.9094368,0.004573747,0.001331508,0.00319465,0.003758687,-0.008711128,0.002266963
-0.1194983,-0.4112182,-0.9170335,0.006597674,0.002678386,-0.004343331,0.01645613,-0.02209235,0.008114511
-0.1174736,-0.4131679,-0.9267212,0.008564501,0.0006801104,-0.01397192,0.04560299,-0.05145135,0.01933865
-0.1188404,-0.4168495,-0.9264518,0.007140346,-0.003050227,-0.01364302,0.09284237,-0.08608634,0.03628139
-0.1216514,-0.4137278,-0.9201991,0.004272066,2.281037e-05,-0.007329934,0.1305485,-0.1121529,0.0471304
-0.1246064,-0.4116412,-0.9152668,0.00125996,0.002060854,-0.00233599,0.1392536,-0.1228709,0.05063085
-0.1301724,-0.413976,-0.9094681,-0.004363175,-0.000322207,0.003525486,0.1567422,-0.1374365,0.06045485
-0.1352742,-0.4197584,-0.9063194,-0.009521762,-0.00615244,0.006737874,0.2017843,-0.1683726,0.07372325
-0.137737,-0.4265849,-0.9072432,-0.0120406,-0.01302606,0.005878132,0.211885,-0.1740184,0.072081
-0.1465349,-0.42747,-0.8990511,-0.02089296,-0.01395694,0.0141343,0.1497619,-0.1285396,0.04685721
-0.1578508,-0.4274872,-0.8868813,-0.03226099,-0.01401809,0.02636723,0.05460308,-0.05788774,0.004444425
-0.1586073,-0.4294636,-0.879466,-0.03306587,-0.01603579,0.03384362,-0.02660808,0.009298732,-0.03580308
-0.1563125,-0.4288249,-0.8756801,-0.03081437,-0.01543503,0.03768705,-0.07371015,0.05210992,-0.05370188
-0.1565977,-0.4282626,-0.8810857,-0.03113624,-0.0149067,0.03233367,-0.1141549,0.07254815,-0.05922814
-0.1509022,-0.4274,-0.8919927,-0.02546965,-0.01407352,0.02147227,-0.1625666,0.0823654,-0.07101411
-0.1397582,-0.4255225,-0.9058852,-0.01434599,-0.01222028,0.007617732,-0.1690923,0.07006869,-0.0704064
-0.1298611,-0.4242189,-0.9153642,-0.004460054,-0.01093555,-0.001831332,-0.1280261,0.04382432,-0.04410407
-0.1270598,-0.4208791,-0.9158779,-0.00166091,-0.007609002,-0.002322776,-0.1018381,0.028575,-0.02204921
-0.1321318,-0.4171433,-0.9144211,-0.00672655,-0.003880581,-0.0008509156,-0.1309203,0.02582206,-0.02679805
-0.1376697,-0.4148442,-0.9072001,-0.0122498,-0.001583213,0.006378481,-0.1839788,0.02884268,-0.03569598
-0.14091,-0.4133876,-0.9067128,-0.01546741,-0.0001229823,0.006867854,-0.2138146,0.02411669,-0.03094581
-0.1396993,-0.4124804,-0.911119,-0.01422589,0.0007929412,0.002457568,-0.2413572,0.01802626,-0.03177908
-0.1352166,-0.4073417,-0.9085155,-0.009704234,0.005945077,0.005051037,-0.2707509,0.02995434,-0.03387549
-0.1352634,-0.3995333,-0.915312,-0.009703972,0.01377089,-0.001761193,-0.2701959,0.0392036,-0.02594814
-0.132682,-0.3979796,-0.9256007,-0.007067769,0.01534519,-0.01207073,-0.2232086,0.02979467,-0.02048379
-0.1281914,-0.3983567,-0.9331912,-0.002514744,0.01499106,-0.01968664,-0.1361224,0.008811786,-0.007999774
-0.132755,-0.3903654,-0.9353854,-0.007008754,0.02300639,-0.02190941,-0.08621796,-0.01035843,0.003216326
-0.1383064,-0.381849,-0.9301692,-0.01248387,0.03154686,-0.01672378,-0.07443239,-0.003015043,-0.003532574
-0.1417961,-0.3817129,-0.9349034,-0.0158908,0.03170555,-0.02148922,-0.03864043,0.01177959,-0.007569389
-0.1390417,-0.3847125,-0.9357469,-0.01304712,0.02872566,-0.02236358,0.001230654,0.005267274,-0.005373765
-0.131267,-0.3871527,-0.9338437,-0.005176736,0.02630077,-0.02048954,0.05651222,-0.003001854,-0.004774864
-0.1352002,-0.3862195,-0.9383238,-0.009007941,0.02724382,-0.02499626,0.09904264,-0.007712224,-0.003521191
-0.1384244,-0.3843159,-0.9311221,-0.01212421,0.02915073,-0.01781739,0.09710057,-0.01008458,-0.002315348
-0.1357998,-0.3864089,-0.9259329,-0.009385895,0.02705351,-0.0126465,0.1096662,-0.00527147,-0.0006358248
-0.1378782,-0.3907222,-0.9178327,-0.01134513,0.02272774,-0.004559533,0.1068042,-0.009774656,-0.000166153
-0.135592,-0.3962022,-0.9027399,-0.008934385,0.01722615,0.01052506,0.06699283,-0.01101325,-0.001148059
-0.1341708,-0.3953109,-0.9084288,-0.007383476,0.01808657,0.004832679,0.02249386,0.001292039,-0.005826927
-0.1321604,-0.3906726,-0.9169623,-0.005238619,0.02268438,-0.003700221,-0.009170814,0.009698658,-0.0135403
-0.1255941,-0.3925184,-0.9171291,0.001466584,0.02078837,-0.00386277,0.007402902,0.01224731,-0.0154008
-0.1303079,-0.3938855,-0.9230056,-0.003104506,0.0193611,-0.009731319,0.02032763,-0.003145299,-0.002277671
-0.1353258,-0.3961041,-0.9259193,-0.007976449,0.01707204,-0.01263329,0.01449068,-0.0197659,0.01306531
-0.1328589,-0.398705,-0.9225176,-0.005360665,0.01439067,-0.009215964,0.02908144,-0.01232787,0.00604376
-0.1349517,-0.3954724,-0.9172913,-0.007301971,0.01753266,-0.003969906,0.01689188,-0.01006357,-0.002115524
-0.1363071,-0.3954733,-0.9163904,-0.008503567,0.01743123,-0.003045204,-0.003968323,-0.01361772,0.004421047
-0.1353341,-0.3962202,-0.9205384,-0.007374636,0.01657404,-0.007165391,-0.008203677,-0.006805415,0.003763785
-0.1371979,-0.3938222,-0.9198048,-0.0090805,0.01885206,-0.006400088,-0.01087637,-0.003345885,0.002585498
-0.139087,-0.3919386,-0.9166295,-0.01080983,0.02060603,-0.003189189,0.02342039,-0.004791007,0.004407341
-0.1379502,-0.3891659,-0.9162242,-0.009511581,0.02323972,-0.002744641,0.06220869,-0.005159146,0.0003313484
-0.1333283,-0.3909471,-0.9148448,-0.004726448,0.02130977,-0.001322488,0.05859085,-0.0008630456,-0.0007757572
-0.1296377,-0.3959554,-0.9141864,-0.0008712762,0.01614328,-0.0006180698,0.03381931,0.01143595,-0.002421268
-0.1328563,-0.3997989,-0.9184897,-0.003924137,0.01213215,-0.004872464,0.01580084,0.0234955,-0.006066854
-0.1385415,-0.4022802,-0.9233318,-0.00944284,0.009474128,-0.009662948,0.01529228,0.02413302,-0.005051832
-0.137895,-0.4004267,-0.9230662,-0.008629285,0.0111425,-0.009342823,0.00794539,0.03366519,-0.007606525
-0.1359447,-0.3985472,-0.9221779,-0.006511544,0.01282909,-0.008397165,0.003193436,0.06553392,-0.01993959
-0.1342993,-0.3969887,-0.9242579,-0.004698227,0.01418711,-0.01041684,0.03102196,0.08031804,-0.02990993
-0.1282067,-0.3966161,-0.9239765,0.001562374,0.01435232,-0.01007193,0.06156602,0.06464495,-0.02231797
-0.1253864,-0.4003671,-0.9237531,0.004550427,0.01038719,-0.009781897,0.07475647,0.0463563,-0.007513358
-0.1243408,-0.4034668,-0.9321794,0.005762909,0.00706724,-0.01813819,0.1108865,0.02693703,0.01004544
-0.1197199,-0.410233,-0.9497249,0.01054923,7.524242e-05,-0.03560989,0.1858125,-0.01814234,0.05814924
-0.1183634,-0.4155859,-0.9557867,0.01206889,-0.0055082,-0.04159322,0.2231427,-0.06941673,0.1075312
-0.1230544,-0.408522,-0.9188027,0.007538017,0.001321468,-0.004525072,0.1930222,-0.06732014,0.09304054
-0.1309102,-0.4038402,-0.8795107,-0.0001614205,0.005766334,0.03485713,0.1748981,-0.05799892,0.06514153
-0.1362901,-0.4118734,-0.8998986,-0.005389011,-0.002505793,0.01456432,0.1806129,-0.08257425,0.07234935
-0.1416255,-0.4207066,-0.9186926,-0.01057623,-0.01157912,-0.004131226,0.1684269,-0.04910586,0.05073141
-0.1468212,-0.4238264,-0.8974686,-0.01562746,-0.01493918,0.01719363,0.1456273,0.002183942,0.02006212
-0.1450713,-0.4282096,-0.898712,-0.01373634,-0.01956136,0.01605244,0.1166519,-0.01139119,0.02144117
-0.1448287,-0.4325367,-0.9058373,-0.01335518,-0.02412478,0.00902971,0.09684401,-0.003608736,0.006129939
-0.1461518,-0.4304475,-0.8946541,-0.014542,-0.02226759,0.02031495,0.09199427,0.02416969,-0.003887352
-0.1485132,-0.4298729,-0.8936214,-0.0167686,-0.02191942,0.02144784,0.06387449,0.02018378,0.003573326
-0.1545132,-0.4320958,-0.8861828,-0.02263493,-0.02436152,0.02898385,0.02048897,0.02473023,-0.009682748
-0.1474118,-0.4309899,-0.8800225,-0.01540021,-0.02346652,0.03523718,-0.04110956,0.04496296,-0.03031979
-0.1351776,-0.4302604,-0.8867598,-0.003032592,-0.02293836,0.02858717,-0.1224088,0.07821654,-0.05623691
-0.1320914,-0.4312983,-0.8933525,0.0001873458,-0.024167,0.02207452,-0.1396869,0.09563866,-0.06476571
-0.1286834,-0.434127,-0.9091059,0.003729056,-0.02717485,0.006392992,-0.122944,0.07199186,-0.04294241
-0.1255678,-0.4365751,-0.9082207,0.006977932,-0.02978952,0.007341619,-0.1475825,0.05678091,-0.02856081
-0.1244685,-0.4310508,-0.890015,0.008209489,-0.02441813,0.02560216,-0.191537,0.06069301,-0.02583778
-0.1266631,-0.4185363,-0.8897408,0.006145482,-0.01204235,0.02592208,-0.2814061,0.07643067,-0.04734677
-0.1292267,-0.407678,-0.9078138,0.003710123,-0.001308201,0.007885271,-0.3282938,0.09533744,-0.07313057
-0.1261603,-0.404868,-0.9378409,0.006902054,0.001391838,-0.02211542,-0.2036642,0.0732198,-0.04882045
-0.1229423,-0.4075293,-0.9443284,0.01024243,-0.001365848,-0.02858509,-0.05828955,0.02532037,-0.01008866
-0.117802,-0.407522,-0.9253322,0.01550128,-0.001442027,-0.009578365,-0.03283604,0.002022037,0.0002738205
-0.1149139,-0.4063494,-0.9246735,0.0185035,-0.0003406464,-0.008914728,-0.0645081,0.0107671,-0.009092189
-0.1187683,-0.4081973,-0.9336011,0.01475795,-0.002248239,-0.01784221,-0.06792445,0.0201096,-0.02059521
-0.1237377,-0.4080398,-0.939196,0.00989141,-0.00213944,-0.02344051,-0.02608919,0.00551862,-0.01023133
-0.1327988,-0.4044447,-0.9365176,0.0009266417,0.001417306,-0.02076782,0.02922569,-0.01461992,0.008500271
-0.1373205,-0.4015167,-0.9291649,-0.003505131,0.004316757,-0.01342196,0.08404565,-0.03791649,0.01997022
-0.1328249,-0.4004958,-0.9301782,0.00107394,0.005318115,-0.01444229,0.09394536,-0.05569952,0.02824192
-0.1279603,-0.4009528,-0.9149563,0.006015991,0.004849657,0.000773275,0.06053773,-0.03676735,0.01582151
-0.1199609,-0.4030873,-0.8937224,0.0140868,0.002711107,0.02200163,0.02414721,-0.00131041,-0.007113832
-0.116323,-0.4067263,-0.8953835,0.01778975,-0.0009253578,0.0203352,-0.08642787,0.04263584,-0.02765041
-0.1232151,-0.4056674,-0.9041841,0.01095588,0.0001421614,0.01152867,-0.2308037,0.06414021,-0.04085102
-0.1270345,-0.3986427,-0.9091456,0.007187628,0.007181186,0.006559871,-0.2906039,0.01739738,-0.03025146
-0.1244606,-0.3898184,-0.9116404,0.009805392,0.01602456,0.004055933,-0.2495478,-0.01300175,-0.01930388
-0.1231438,-0.3818743,-0.9330943,0.01115871,0.0239917,-0.01740883,-0.03899592,0.0004181658,-0.002097528
-0.1187991,-0.3883622,-0.9792913,0.01553249,0.01752951,-0.0636177,0.2899995,-0.02507725,0.0440878
-0.1029886,-0.4079494,-0.9988968,0.03136426,-0.002030604,-0.08323386,0.443241,-0.09918012,0.1075978
-0.09460118,-0.4240206,-0.9692135,0.03976437,-0.01807378,-0.05355678,0.3148522,-0.1544999,0.1446256
-0.1213106,-0.4269888,-0.9170166,0.01305821,-0.02101272,-0.001358885,0.1219711,-0.0779991,0.06881181
-0.1520542,-0.4057444,-0.8655346,-0.01769206,0.0002626582,0.05013199,-0.07605424,0.06259297,-0.04517716
-0.1418489,-0.3837312,-0.8499507,-0.007502751,0.02230891,0.06573107,-0.2468235,0.08571962,-0.06199866
-0.122629,-0.3861431,-0.8776247,0.0116929,0.01993134,0.03807562,-0.1920133,0.05895281,-0.04126745
-0.1181132,-0.3899119,-0.8962352,0.0161768,0.01619702,0.01948433,-0.1142312,0.04245334,-0.02721307
-0.110818,-0.391191,-0.9024194,0.02343239,0.01495151,0.01331812,-0.1470652,-0.02322756,0.002801756
-0.123261,-0.402791,-0.9187885,0.01094197,0.003383475,-0.003034948,-0.1432155,-0.06279283,0.02266759
-0.1436655,-0.4115333,-0.9357076,-0.009517917,-0.005328902,-0.01994001,-0.19868,-0.0510046,0.00985315
-0.139601,-0.4065693,-0.9696175,-0.005516188,-0.0003369523,-0.05383717,-0.1619578,-0.06104366,-0.003036179
-0.134224,-0.3973716,-0.9880662,-0.0002082481,0.008886778,-0.07227232,0.0006259035,-0.08296576,0.03108499
-0.1257492,-0.3934049,-0.9591145,0.008191747,0.01287738,-0.04330361,0.0826959,-0.09182612,0.06222798
-0.1163284,-0.3877578,-0.9337146,0.01753255,0.01854588,-0.01788086,0.1640843,-0.08829871,0.05536632
-0.1249116,-0.3803421,-0.9122646,0.008864194,0.02597973,0.003599052,0.1539502,-0.05326648,0.03298823
-0.1369615,-0.3723496,-0.8942695,-0.003276069,0.03398612,0.0216309,0.1346392,0.02006233,-0.01603073
-0.1435113,-0.3717016,-0.913727,-0.009920884,0.0346427,0.002216041,0.2410033,0.07666109,-0.04200153
-0.1257051,-0.404615,-0.9391172,0.007786482,0.001731133,-0.0231266,0.3030978,0.06537317,-0.005418787
-0.1002625,-0.4370567,-0.9357968,0.03312661,-0.03071549,-0.01975368,0.3436839,0.01217921,0.04374142
-0.1080743,-0.4211087,-0.9128859,0.02520843,-0.01477823,0.003214873,0.3193851,-0.03189296,0.06035278
-0.109242,-0.4066902,-0.8920032,0.02392982,-0.0003751749,0.02416022,0.289514,-0.03751313,0.06163065
-0.0905169,-0.424579,-0.8902812,0.04253853,-0.01828296,0.02594869,0.3277197,-0.02615255,0.1095471
-0.09563096,-0.4274232,-0.8923486,0.03730167,-0.02114874,0.02395002,0.2616628,-0.03313313,0.1518915
-0.1214528,-0.421475,-0.866642,0.0113497,-0.01522375,0.04972592,0.11359,-0.03011031,0.07006218
-0.1484147,-0.4309258,-0.8455925,-0.01575004,-0.02469817,0.07084273,-0.1035038,-0.002011108,-0.04789209
-0.1540357,-0.4311609,-0.8787674,-0.02151554,-0.02495605,0.03773068,-0.1871532,0.01111676,-0.04473096
-0.1445468,-0.426666,-0.9198767,-0.01217617,-0.0204821,-0.003322672,-0.01996114,0.004031789,-0.002216393
-0.1539647,-0.429276,-0.925815,-0.02174699,-0.0231099,-0.009212544,0.08488453,-0.01116016,-0.001746075
-0.1505027,-0.4377069,-0.92378,-0.01843981,-0.03155444,-0.00713622,0.170419,-0.03978687,0.03999166
-0.1224058,-0.4520705,-0.9198733,0.009501856,-0.0459264,-0.00319457,0.2550662,-0.05014279,0.1046525
-0.1093238,-0.4502992,-0.9062634,0.02242873,-0.04415659,0.01044449,0.2235216,0.003134369,0.1286362
-0.1149747,-0.4437535,-0.8914811,0.01662265,-0.03760381,0.02525032,0.1861745,0.05946298,0.1020095
-0.137563,-0.4429503,-0.8658951,-0.006121247,-0.03678348,0.05085346,0.06113547,0.02332925,0.0403731
-0.1538444,-0.4330096,-0.8420147,-0.02255829,-0.0268144,0.07474299,-0.09653919,-0.01424529,-0.009800045
-0.1521687,-0.4348856,-0.8562286,-0.02103743,-0.02865011,0.06052796,-0.1528452,0.01525471,-0.05586539
-0.1529916,-0.4422885,-0.8814045,-0.0220129,-0.03600025,0.03533805,-0.1560899,0.005447526,-0.06566655
-0.1453228,-0.4401169,-0.8989902,-0.01449302,-0.03376266,0.01772408,-0.08511895,-0.009948366,-0.03820739
-0.1372251,-0.4440052,-0.9181665,-0.006539659,-0.03757138,-0.001495178,-0.0323191,0.02190491,-0.04050891
-0.1398642,-0.4441232,-0.9147412,-0.00931787,-0.0375953,0.001873356,-0.01123713,0.03221795,-0.03734423
-0.1388203,-0.4413873,-0.9134238,-0.008407291,-0.03475032,0.003121017,0.02749753,0.03171807,-0.02234683
-0.1269986,-0.4434964,-0.9152048,0.003287216,-0.03673495,0.001258357,-0.005468576,0.0221837,-0.01203176
-0.1111908,-0.4385118,-0.8866418,0.0189738,-0.03160998,0.02972853,-0.08856859,0.006112938,-0.008244118
-0.1114941,-0.4313125,-0.8713643,0.01855457,-0.02425432,0.04490238,-0.1812065,0.008341756,-0.01943222
-0.1166649,-0.4257944,-0.8817897,0.01327244,-0.01856403,0.03436177,-0.1989797,-0.01306622,-0.003178647
-0.1218996,-0.4217762,-0.8927663,0.007930033,-0.01435817,0.02325766,-0.134112,-0.04097381,0.01368507
-0.1377605,-0.4240074,-0.9015895,-0.008035233,-0.01638718,0.01429442,-0.1190488,-0.03760109,0.01893725
-0.1436577,-0.4267053,-0.9093741,-0.01403364,-0.01886905,0.006357605,-0.09706128,-0.02943334,0.0286317
-0.1387602,-0.4291549,-0.9211426,-0.009233506,-0.02108937,-0.005574641,-0.02339105,-0.03174284,0.01708331
-0.1384904,-0.4326515,-0.9227277,-0.009056809,-0.02434413,-0.007333612,0.07915319,-0.0269256,0.01219314
-0.1441064,-0.4323008,-0.9224302,-0.01476104,-0.02373941,-0.007218771,0.1682989,0.0005232663,-0.007214818
-0.1455355,-0.43297,-0.9251935,-0.0162731,-0.0241427,-0.01017186,0.1634834,0.03460072,-0.04244615
-0.1354163,-0.4403302,-0.9171664,-0.006231067,-0.03122556,-0.002340423,0.1503963,0.04563598,-0.03586381
-0.1252852,-0.445996,-0.9097351,0.003829068,-0.03660257,0.00489073,0.1459375,0.0153857,-0.002350897
-0.1199872,-0.4391317,-0.8806247,0.009062105,-0.02943801,0.033797,0.07079184,-0.004222493,0.02478798
-0.111617,-0.4264555,-0.8291738,0.01737279,-0.01645019,0.08503958,-0.07514338,0.0370377,-0.00787367
-0.1040218,-0.4228068,-0.815708,0.02491287,-0.01247892,0.09829057,-0.2700087,0.07642577,-0.0658904
-0.1139244,-0.4261419,-0.857653,0.01495858,-0.01548146,0.0561212,-0.3841879,0.07272212,-0.06375104
-0.1307481,-0.4284822,-0.9122773,-0.001914496,-0.01748001,0.001260956,-0.3681099,0.04977295,-0.04758984
-0.1388321,-0.4285982,-0.9447334,-0.01004589,-0.0172458,-0.03144301,-0.3108122,0.02432826,-0.02890104
-0.147378,-0.4260108,-0.9565263,-0.01863696,-0.01430051,-0.04349346,-0.2252678,-0.006767117,0.01080922
-0.1470001,-0.4227409,-0.9477669,-0.0183014,-0.01066581,-0.03499819,-0.1448039,-0.05818625,0.02732393
-0.1369203,-0.4135337,-0.9335365,-0.008260292,-0.001087625,-0.02103556,-0.1020626,-0.1024348,0.0249507
-0.1288865,-0.3995054,-0.9301893,-0.0002611249,0.01331643,-0.01795724,-0.04812032,-0.1208893,0.02739902
-0.1253498,-0.3994778,-0.9261812,0.003245195,0.013723,-0.01421731,0.0174551,-0.1252429,0.02869388
-0.1341539,-0.4025347,-0.922205,-0.005585409,0.01104639,-0.01050693,0.05609172,-0.09194155,0.01060695
-0.1450376,-0.393734,-0.9132941,-0.01649176,0.02022693,-0.001858368,0.08732458,-0.02953233,-0.02178916
-0.1515602,-0.3957542,-0.9130721,-0.02303269,0.01858424,-0.001894564,0.1167036,-9.942284e-05,-0.03990507
-0.1492559,-0.4067048,-0.9280712,-0.02074181,0.008007036,-0.01714689,0.1099802,-0.005187032,-0.04048786
-0.1387276,-0.4126253,-0.9281397,-0.01022137,0.002454595,-0.01746289,0.1267046,0.01325974,-0.03332389
-0.1394671,-0.41808,-0.9296202,-0.01096265,-0.002638428,-0.0191841,0.2800794,0.08096673,-0.02787531
-0.1338928,-0.4191463,-0.9398358,-0.005384008,-0.003350005,-0.02963239,0.5577461,0.1263459,0.002450863
-0.1155502,-0.433051,-0.9424685,0.01296904,-0.01690716,-0.03248841,0.706503,0.02703371,0.09031976
-0.1117631,-0.4528551,-0.924839,0.01677193,-0.0363706,-0.01507164,0.5189466,-0.08714917,0.1532608
-0.1334801,-0.4417542,-0.8708509,-0.004924902,-0.02493526,0.03871499,0.2821427,-0.005320425,0.08259644
-0.1557813,-0.4322651,-0.8291717,-0.02720189,-0.01511695,0.08020309,0.2269691,0.06231508,-0.006482785
-0.127576,-0.4488767,-0.8280686,0.001031647,-0.03140388,0.08112245,0.1463851,-0.009188001,0.03659351
-0.09728859,-0.4615246,-0.8369473,0.03135128,-0.04373091,0.07206344,0.04203249,-0.01293932,0.0552758
-0.125976,-0.466964,-0.8446749,0.002699266,-0.04885196,0.06415542,-0.06030806,0.0004537006,-0.004460809
-0.1490174,-0.4650849,-0.8569376,-0.02030435,-0.04665538,0.05170906,-0.2083776,-0.02625401,0.003822304
-0.1497892,-0.4583071,-0.8878568,-0.02103598,-0.03955948,0.02060092,-0.1746115,-0.01773867,0.01017758
-0.1531203,-0.460281,-0.9149532,-0.02432405,-0.04121318,-0.006690515,-0.07882459,-0.0332077,0.01112714
-0.1481762,-0.4578328,-0.9195095,-0.01933311,-0.0384417,-0.01144753,-0.1053657,-0.01415753,0.03524442
-0.1535698,-0.4529656,-0.918419,-0.02467531,-0.03324726,-0.01056219,-0.05852183,0.0590787,-0.01231545
-0.1568054,-0.4581027,-0.9178231,-0.02785427,-0.03805235,-0.01017451,0.01479089,0.0762558,-0.03874249
-0.1431624,-0.4629509,-0.9215676,-0.0141487,-0.04256321,-0.01412884,0.0796641,0.05360917,0.0004449494
-0.135102,-0.4660999,-0.9039774,-0.006019373,-0.04536879,0.003251006,0.1167862,0.02889408,0.02045928
-0.1294459,-0.4583728,-0.8643433,-0.0002880782,-0.03729123,0.04267496,-0.001408058,0.03796395,-0.001766147
-0.1251655,-0.4412859,-0.843826,0.004073342,-0.01984654,0.0629816,-0.117669,0.05118564,-0.04231404
-0.1238346,-0.4399623,-0.8479084,0.005490236,-0.01815766,0.05868628,-0.2283007,0.0347506,-0.05197368
-0.1233945,-0.4423099,-0.8718716,0.006020726,-0.02013289,0.03450566,-0.310755,0.0442387,-0.05938673
-0.1261765,-0.4379383,-0.9005871,0.003332511,-0.01538254,0.005566985,-0.2004546,0.03416038,-0.04843498
-0.1297411,-0.4400262,-0.9163315,-0.0001356686,-0.01708573,-0.01040638,-0.09678588,0.02630471,-0.02405688
-0.138649,-0.4452259,-0.9195768,-0.008944923,-0.02189547,-0.01388539,-0.07981452,0.08985512,-0.05758813
-0.139732,-0.4520272,-0.923618,-0.009927234,-0.02830192,-0.01816357,-0.05607848,0.1293555,-0.06640484
-0.1248716,-0.4544089,-0.9323613,0.005035671,-0.03028411,-0.02714542,-0.05115247,0.07868705,-0.01623882
-0.1103695,-0.4485682,-0.9197142,0.01964191,-0.02403921,-0.01473648,-0.05390528,0.002891922,0.02303196
-0.1079763,-0.4436517,-0.8983051,0.02213977,-0.01871382,0.006436283,-0.08638144,-0.009729293,0.01793829
-0.1175891,-0.4318886,-0.8745668,0.01263087,-0.006537606,0.02994067,-0.1544955,-0.004383234,-0.006145554
-0.1253335,-0.4132102,-0.8470446,0.004988709,0.01255721,0.057231,-0.2132746,-0.01107171,-0.002301736
-0.1335897,-0.4069578,-0.8670301,-0.003167728,0.01922791,0.03701407,-0.1918988,0.0125457,-0.01135473
-0.1380317,-0.413071,-0.9019974,-0.007512465,0.01353294,0.001814371,-0.1017969,-0.004403465,-0.01349307
-0.1333393,-0.4167811,-0.906057,-0.002725213,0.01023901,-0.002478904,-0.03259313,-0.01953842,0.005524276
-0.1375725,-0.4189465,-0.9186756,-0.006865773,0.008486184,-0.0153319,0.03981479,0.02541084,-0.008070602
-0.1351636,-0.4266084,-0.9353521,-0.004366414,0.001231876,-0.03224239,0.0867458,0.0381994,-0.004152201
-0.1240708,-0.4371317,-0.9420873,0.006814993,-0.008889777,-0.03920915,0.07857995,0.01433331,0.007245114
-0.1167629,-0.4433448,-0.928759,0.01420926,-0.0147076,-0.02610811,0.03749962,-0.01670179,0.0006795032
-0.1051889,-0.4335089,-0.8812736,0.0258668,-0.004482999,0.02115614,-0.05960269,-0.02115906,0.005802409
-0.1039601,-0.4169452,-0.8544784,0.02717537,0.01246264,0.04773649,-0.1246289,-0.008572855,-0.003988884
-0.1096667,-0.4110218,-0.8638661,0.02154349,0.01876049,0.03813893,-0.1173878,-0.01828755,-0.006772067
-0.1181324,-0.4062651,-0.8716497,0.01314637,0.02388289,0.03014855,-0.09927009,-0.00275395,-0.0002240542
-0.1354395,-0.4087021,-0.8836687,-0.004098679,0.02180143,0.01792472,-0.09321464,0.01695159,-0.01161267
-0.1484428,-0.4204686,-0.9079665,-0.01704648,0.01037911,-0.006576936,-0.09705305,0.04127923,-0.03274195
-0.1499285,-0.427159,-0.9522069,-0.01848232,0.004020509,-0.05101966,-0.06733986,0.07960939,-0.05640111
-0.1279197,-0.4382951,-0.9939669,0.003571379,-0.006796619,-0.09297849,-0.01432675,0.05539118,-0.02709925
-0.1057929,-0.4414043,-0.9780006,0.02573889,-0.009599423,-0.07720386,0.01392533,0.02143782,0.02509076
-0.1036694,-0.4315272,-0.9355557,0.02789828,0.0005716928,-0.03493962,-0.01552526,0.008508296,0.02935514
-0.09751491,-0.4245211,-0.9080689,0.03408294,0.007859913,-0.007619972,-0.08373711,-0.039614,0.03047732
-0.1042248,-0.4028393,-0.8705928,0.02739625,0.02981151,0.02970312,-0.1476982,-0.06156302,0.02139249
-0.1276965,-0.3836152,-0.8515533,0.003939746,0.04929239,0.04860254,-0.2304061,-0.03145315,-0.01581399
-0.1340309,-0.38681,-0.873547,-0.002387687,0.04633955,0.02647961,-0.2546854,-0.01380447,-0.02891036
-0.1247852,-0.3905633,-0.9010399,0.006857128,0.04281156,-0.001133758,-0.1911606,-0.005161565,-0.02528699
-0.1183096,-0.4033474,-0.9364636,0.01332432,0.03023444,-0.03667005,-0.156461,0.01007385,-0.0253184
-0.1193242,-0.4164249,-0.9553858,0.01229392,0.01734453,-0.05569639,-0.1456535,0.01735631,-0.02305107
-0.1200343,-0.4087557,-0.9505161,0.01156061,0.02518154,-0.0509205,-0.1230632,0.01893489,-0.02393102
-0.1199352,-0.4014664,-0.9654167,0.01162904,0.0326186,-0.06590238,-0.06237536,-0.01330067,-0.01712846
-0.1226538,-0.3965305,-0.9561451,0.008872266,0.03768172,-0.05669724,0.04678036,-0.07255136,0.002667092
-0.1270264,-0.3853976,-0.9197337,0.004454356,0.04892056,-0.02033545,0.1140731,-0.1006169,0.01805208
-0.1319378,-0.3823549,-0.9088301,-0.0005093487,0.05204717,-0.00946382,0.1306799,-0.103721,0.01382208
-0.1296891,-0.3887082,-0.9069114,0.001680607,0.04575435,-0.007559646,0.1636655,-0.09588847,0.002369893
-0.1256778,-0.3944606,-0.9119831,0.005627172,0.04003834,-0.01262908,0.1821332,-0.07128025,0.0006551963
-0.1286841,-0.4031371,-0.9128211,0.00255077,0.03137332,-0.01344871,0.128756,-0.03738586,-0.009773233
-0.1311242,-0.4113603,-0.9059455,3.551298e-05,0.02313693,-0.006539288,0.05556612,-0.008876152,-0.02458049
-0.1345977,-0.4084273,-0.9138646,-0.00351761,0.02603209,-0.01440974,0.04767478,0.02541859,-0.0284395
-0.1364509,-0.4094839,-0.9243623,-0.005454348,0.02491392,-0.02484457,0.1462944,0.1124366,-0.0323201
-0.1215501,-0.4231384,-0.9377798,0.009359609,0.01117456,-0.038185,0.2864097,0.1579511,-0.01227037
-0.1070351,-0.4314154,-0.9271947,0.0237848,0.002790473,-0.02750855,0.2835296,0.0470264,0.04390819
-0.1152642,-0.4243274,-0.887594,0.01546259,0.009750739,0.01219793,0.1403614,-0.05067001,0.07995379
-0.1216525,-0.415372,-0.8690574,0.008977558,0.01855901,0.03085372,0.03849337,0.002738578,0.04557212
-0.1117991,-0.4214042,-0.8683912,0.01873045,0.01236148,0.03165046,0.02661629,0.03732236,0.00185653
-0.1088708,-0.4252219,-0.8767851,0.02155408,0.008361275,0.02339559,0.005315599,-0.00359418,0.01857908
-0.1163974,-0.4193702,-0.8810574,0.01391853,0.01401464,0.01926875,-0.1120968,0.01444182,0.01291643
-0.1303969,-0.4200178,-0.8767629,-0.0001946262,0.01315367,0.02371278,-0.2365062,0.04365289,-0.03624806
-0.1454537,-0.4171293,-0.895631,-0.01536933,0.01581501,0.004996732,-0.2749595,0.03663247,-0.04616043
-0.1345299,-0.4146304,-0.9283525,-0.004566824,0.01807365,-0.02757124,-0.2349762,0.03497429,-0.03403376
-0.1173965,-0.4181146,-0.9542552,0.01244285,0.01433695,-0.05331907,-0.1324699,0.006575501,-0.02233693
-0.1261532,-0.4145205,-0.9580774,0.003560211,0.01766693,-0.05698343,-0.05193173,0.01295963,-0.01896842
-0.1271143,-0.414565,-0.9630417,0.002471424,0.0173476,-0.06178494,0.01666389,0.05232603,-0.02104082
-0.115818,-0.4171199,-0.9805045,0.01363833,0.0145077,-0.07907769,0.1415388,0.04649171,0.005088239
-0.1133429,-0.4145838,-0.948465,0.01598246,0.0167494,-0.04685848,0.2342232,0.036818,0.03185512
-0.1076994,-0.4141278,-0.8969758,0.0214931,0.01690207,0.004821676,0.1796312,0.01397948,0.04182355
-0.108525,-0.4099896,-0.8706044,0.02053228,0.02072883,0.03139521,0.04222301,-0.002985217,0.02426275
-0.1128862,-0.4042337,-0.8533074,0.01603312,0.02616555,0.04890323,-0.06821008,-0.002887589,-0.01184793
-0.111044,-0.4047784,-0.8657367,0.0177342,0.02529407,0.03669101,-0.2020146,-0.01546225,-0.02188973
-0.1190008,-0.4070635,-0.8907404,0.009632777,0.02267488,0.01190732,-0.2492578,0.006155692,-0.03103791
-0.1226272,-0.4080355,-0.9272632,0.005858352,0.02136176,-0.02439445,-0.1646898,0.007945446,-0.0333461
-0.1193585,-0.4098347,-0.962899,0.008975799,0.01921452,-0.05980842,-0.1655995,-0.01638652,-0.02303014
-0.1217951,-0.4098711,-0.9474217,0.006384873,0.0188237,-0.04410728,-0.1861774,-0.02025864,-0.03140237
-0.1201511,-0.4055986,-0.9423215,0.007871893,0.02273579,-0.03877965,-0.1729369,-0.03828385,-0.0285986
-0.1187664,-0.4012833,-0.9593755,0.009097062,0.02668495,-0.05560113,-0.1532088,-0.04083889,-0.02334505
-0.1181926,-0.3948053,-0.9449617,0.009508971,0.03279124,-0.04094848,-0.06902799,-0.04791466,-0.02156849
-0.1175985,-0.3895887,-0.9297448,0.009939075,0.03763049,-0.02548495,-0.03052707,-0.05905746,-0.01041113
-0.1217332,-0.3878206,-0.9185193,0.005638241,0.03901526,-0.01400486,-0.02215523,-0.04288813,-0.02272969
-0.1224499,-0.3842158,-0.9155016,0.004753634,0.04223012,-0.01072453,-0.001655084,-0.03995698,-0.03513981
-0.1213855,-0.3881367,-0.9279783,0.005648542,0.03791237,-0.02293122,0.009886225,-0.01680201,-0.02644944
-0.120611,-0.393667,-0.9263389,0.006252327,0.03197775,-0.02101475,0.04286361,0.005054954,-0.01916441
-0.1203279,-0.3940474,-0.9312971,0.006363805,0.03118543,-0.02568908,0.03627016,-0.001365939,-0.01435483
-0.1226755,-0.3959385,-0.9346098,0.00384373,0.02887474,-0.02871113,0.03481008,0.0217137,-0.01759925
-0.1256882,-0.3935151,-0.9211086,0.0006580871,0.03087116,-0.01491242,0.05567961,0.05141634,-0.02794739
-0.1284756,-0.3942102,-0.9232806,-0.002302286,0.02974183,-0.01678031,0.04423767,0.06520983,-0.03027623
-0.1184599,-0.3967359,-0.9150621,0.007540793,0.02677476,-0.008251629,0.02855312,0.05351109,-0.01118143
-0.1046394,-0.3935446,-0.8994527,0.02118915,0.02951777,0.007673458,-0.01753174,0.02981204,0.01095451
-0.1082552,-0.3913914,-0.9069698,0.01740163,0.03121619,0.0004762071,-0.04645427,0.04097693,0.0002563572
-0.1107451,-0.3865268,-0.9110011,0.01473994,0.03561944,-0.003232235,0.001095714,0.05837199,-0.01097159
-0.1062376,-0.3912279,-0.9188686,0.01907506,0.03045051,-0.01077498,0.05552444,0.06480148,0.002922378
-0.1099589,-0.4046344,-0.931262,0.01518063,0.01657003,-0.02284227,0.05517083,0.05153727,0.007122786
-0.114457,-0.406111,-0.9262275,0.01050819,0.01461367,-0.01748045,0.009425572,0.01409467,0.007944871
-0.1167367,-0.401901,-0.9213101,0.008052841,0.01833898,-0.01223479,-0.0180336,0.002950407,0.01488825
-0.1163838,-0.3966444,-0.9218609,0.008228884,0.02310671,-0.01245634,0.0078613,-0.005139699,0.01619096
-0.1119324,-0.3959745,-0.9203965,0.01250245,0.02328422,-0.01066213,0.068698,-0.03902751,0.02555121
-0.1138502,-0.3987975,-0.9211178,0.01040565,0.01996576,-0.01105332,0.1166248,-0.04935443,0.0280743
-0.1164881,-0.3962146,-0.9243524,0.007587805,0.02205055,-0.01395786,0.1304955,-0.02742519,0.01413554
-0.1193965,-0.3978766,-0.9227586,0.004498499,0.01988832,-0.0120344,0.1246085,0.004466451,0.001057281
-0.1296449,-0.4005233,-0.9153684,-0.005931436,0.01673969,-0.004315197,0.08977356,0.03040632,-0.01369479
-0.1303179,-0.4021517,-0.9123033,-0.006786036,0.01460813,-0.0009221124,0.03571246,0.04822667,-0.0229719
-0.1240345,-0.407537,-0.9157772,-0.0006834792,0.008719203,-0.004069721,-0.00888608,0.07688991,-0.03013142
-0.1190381,-0.4113522,-0.9174995,0.004133231,0.004400799,-0.005468044,-0.04897043,0.09202016,-0.03538279
-0.1047178,-0.4129901,-0.9117274,0.01827546,0.002261055,0.0006251779,-0.1106752,0.07153042,-0.02911428
-0.09320489,-0.4061225,-0.9061,0.02961158,0.008629178,0.006570349,-0.1355253,0.05413739,-0.02761526
-0.08969056,-0.397006,-0.9054433,0.03294961,0.01724933,0.007540549,-0.08369399,0.03066662,-0.01422529
-0.08667924,-0.3974066,-0.9094112,0.03578403,0.01635616,0.003881097,-0.04977317,-0.02906655,0.01455144
-0.09337451,-0.4018198,-0.9212017,0.02891007,0.01145449,-0.00760658,-0.03292795,-0.07321103,0.02178649
-0.1055402,-0.4067986,-0.9334712,0.016563,0.005991551,-0.0195794,-0.01601503,-0.08867974,0.01661317
-0.1132255,-0.4062804,-0.938608,0.008693,0.006030435,-0.02442524,-0.03249641,-0.1117348,0.02021739
-0.121442,-0.4026277,-0.9322085,0.0002887312,0.009209393,-0.01773979,-0.04968926,-0.1243035,0.0238984
-0.1316056,-0.3980971,-0.9193622,-0.01006529,0.01327228,-0.004612079,-0.08183448,-0.1121094,0.01087209
-0.1352305,-0.3886058,-0.9135867,-0.01388224,0.02230197,0.001440403,-0.0735198,-0.07377455,-0.01103332
-0.1277792,-0.3883762,-0.9171681,-0.006623492,0.02207614,-0.001868638,0.0004472413,-0.01766724,-0.01972488
-0.1210624,-0.393126,-0.924362,-9.884626e-05,0.01687682,-0.008795147,0.04554405,0.03099155,-0.02462603
-0.1209496,-0.3918762,-0.923072,-0.0001769529,0.01768274,-0.007242826,0.07842429,0.08375644,-0.03843411
-0.1167404,-0.3953314,-0.9217659,0.003843028,0.01378914,-0.005679567,0.09501882,0.1417784,-0.04801183
-0.106519,-0.3979133,-0.9315387,0.01387709,0.01077449,-0.01520011,0.09325906,0.1530715,-0.03160938
-0.09785971,-0.3979645,-0.9329967,0.02235078,0.01029633,-0.0164107,0.09707748,0.1010554,0.002352054
-0.097042,-0.4015327,-0.9214893,0.02298423,0.006306975,-0.004660278,0.09697209,0.06240028,0.02191394
-0.09712072,-0.4009199,-0.911378,0.02272184,0.006504843,0.005689772,0.1565493,0.06138943,0.03321454
-0.09233108,-0.4036147,-0.9124036,0.02732766,0.003401672,0.004898329,0.2117416,0.02325941,0.0640834
-0.09575167,-0.4106795,-0.9106999,0.02372235,-0.004064432,0.006831012,0.1712891,-0.03855774,0.0955014
-0.104827,-0.4099811,-0.8969587,0.01446069,-0.003759885,0.02079543,0.08170309,-0.06201428,0.07661452
-0.1152844,-0.4086619,-0.8990735,0.00381518,-0.002826106,0.01889725,-0.03929341,-0.06205273,0.0349378
-0.1284687,-0.4070897,-0.9077105,-0.009558968,-0.001630567,0.01046919,-0.1259017,-0.05645952,0.01820832
-0.1283815,-0.4017425,-0.9069904,-0.009662559,0.003349304,0.01138976,-0.1072901,-0.04746924,0.002914776
-0.1219549,-0.4017571,-0.9163063,-0.003426851,0.002977025,0.002265485,-0.03148627,-0.04854256,0.004996319
-0.1213337,-0.4053614,-0.9232158,-0.002995521,-0.0009750252,-0.004461588,0.02913652,-0.03965739,0.01148922
-0.1241708,-0.4083851,-0.9230933,-0.006021007,-0.004336576,-0.004165553,0.05132779,0.007925003,-0.02118717
-0.1299698,-0.413062,-0.92884,-0.01200618,-0.009340921,-0.009747293,0.06496358,0.08150439,-0.04333929
-0.1233128,-0.4182858,-0.9413725,-0.005532365,-0.01488122,-0.0221228,0.1207216,0.1258535,-0.03611883
-0.1057413,-0.4228815,-0.9544433,0.01185956,-0.019782,-0.03504353,0.1792151,0.07665896,0.008242843
-0.0889077,-0.4260807,-0.9306484,0.02851706,-0.02327373,-0.01110414,0.1462138,0.01232232,0.07423135
-0.07705866,-0.4217656,-0.8815841,0.04019283,-0.0192377,0.0380999,0.06042243,0.03302477,0.08102016
-0.08249635,-0.4121475,-0.8668859,0.0345833,-0.009884508,0.05293231,-0.04329714,0.03432441,0.05968738
-0.1034958,-0.4106219,-0.8751156,0.01341206,-0.008609182,0.04482942,-0.1508984,-0.01685738,0.04246543
-0.1279045,-0.4087885,-0.8783507,-0.01116898,-0.007011206,0.04171145,-0.204386,-0.0329941,0.0003346515
-0.1274127,-0.4019986,-0.8897659,-0.01084979,-0.0004420018,0.03040187,-0.2516946,-0.01818172,-0.02750686
-0.1105266,-0.4006014,-0.918597,0.005864319,0.0007490728,0.001663863,-0.2449392,0.004922449,-0.03073926
-0.1183248,-0.3968229,-0.9483387,-0.002104823,0.00433538,-0.02799741,-0.132764,0.002843134,-0.02763119
-0.118771,-0.399918,-0.9545633,-0.002720398,0.001061476,-0.0341531,-0.02461412,-0.001446472,-0.01417023
-0.1067264,-0.408262,-0.9494868,0.009156766,-0.007448452,-0.02901698,0.04801117,0.0210443,-0.01856955
-0.1134885,-0.4017498,-0.9448977,0.002229335,-0.001089628,-0.02437568,0.05741224,0.01903679,-0.03495791
-0.1141508,-0.3967939,-0.9321534,0.001403769,0.003724948,-0.0115848,0.05228451,0.02994815,-0.03253959
-0.1124869,-0.395929,-0.9275636,0.00290681,0.004460192,-0.006952777,0.1053912,0.03798449,-0.0198288
-0.1078366,-0.3991954,-0.9260611,0.007398741,0.001075101,-0.005411755,0.1358838,-0.019689,0.02199929
-0.09098821,-0.4099407,-0.9108932,0.02409102,-0.009778379,0.009791409,0.1400314,-0.06303605,0.06205696
-0.09034918,-0.4058877,-0.9039038,0.02457578,-0.005823571,0.01681288,0.07191532,-0.05130882,0.03662863
-0.09068727,-0.4027828,-0.9078198,0.02408437,-0.002806778,0.01292526,-0.0661422,-0.04195502,0.01653394
-0.08338629,-0.4081805,-0.9057384,0.03123205,-0.008282885,0.01503085,-0.08992002,-0.07498697,0.03519564
-0.08939774,-0.404408,-0.9065447,0.02506633,-0.004579068,0.01424399,-0.02947505,-0.1074953,0.0339589
-0.1052833,-0.4062434,-0.919396,0.009024704,-0.006473891,0.001407043,0.03002392,-0.1270438,0.03413387
-0.1259991,-0.4121578,-0.9333314,-0.01184914,-0.01243848,-0.01251899,0.08825927,-0.1667467,0.04909233
-0.1331748,-0.4151233,-0.9358826,-0.01918426,-0.01544503,-0.01506545,0.07565966,-0.1623378,0.04476151
-0.1254317,-0.4197825,-0.9309889,-0.01160094,-0.02013594,-0.01017053,0.04081312,-0.1199921,0.02486948
-0.1270215,-0.4190677,-0.9283164,-0.01334942,-0.01944321,-0.007499621,0.0460829,-0.09046768,0.004169931
-0.1309227,-0.4115325,-0.9204662,-0.01740735,-0.01192017,0.0003469778,0.03905809,-0.070147,-0.007468359
-0.133013,-0.3985616,-0.9042209,-0.01965119,0.001048556,0.01658679,0.02865727,-0.0789846,-0.01146505
-0.1414197,-0.3944171,-0.89446,-0.02820723,0.005200497,0.02634007,0.01628391,-0.07157617,-0.03340677
-0.1410075,-0.4011119,-0.8928977,-0.02793864,-0.001478099,0.02789186,-0.01361403,-0.03048481,-0.055239
-0.1311084,-0.4028984,-0.9016996,-0.01817631,-0.003240368,0.01907533,0.004147465,0.003133209,-0.04909424
-0.1254994,-0.4111519,-0.9189188,-0.01269606,-0.01146201,0.001836848,0.02950469,0.008051544,-0.04648626
-0.1208799,-0.4220838,-0.9209446,-0.008196781,-0.02235476,-0.0002132948,-0.002727164,-0.02209887,-0.04443233
-0.1206235,-0.4231132,-0.9205078,-0.008051741,-0.02333739,0.0001946099,-0.01269579,-0.02961272,-0.02680425
-0.1256611,-0.4240018,-0.9343768,-0.01319172,-0.02417128,-0.01370758,-0.002392402,-0.01668538,-0.01637012
-0.1286321,-0.4217587,-0.9372888,-0.01625583,-0.02186514,-0.01665617,-0.01286546,-0.01284063,-0.008213846
-0.129658,-0.4161434,-0.9241679,-0.0173655,-0.01617781,-0.003574245,-0.02396071,-0.00155734,-0.004532565
-0.1251854,-0.4097033,-0.9056459,-0.01296667,-0.009656831,0.01490685,-0.05164884,-0.001741023,-0.01075414
-0.1221584,-0.4043643,-0.8938151,-0.01000332,-0.004228234,0.02669499,-0.07989215,0.009812365,-0.01060311
-0.1254182,-0.4059558,-0.8998198,-0.0133166,-0.005721862,0.02064517,-0.1075152,0.03743811,-0.01766133
-0.1270703,-0.4039661,-0.9048409,-0.015012,-0.003626691,0.01557563,-0.1517158,0.04615131,-0.03183119
-0.127946,-0.3994713,-0.9065786,-0.01592064,0.0009807425,0.01378558,-0.1764646,0.04550847,-0.03112616
-0.1261282,-0.3992151,-0.9227326,-0.01412534,0.001355782,-0.00242496,-0.1726925,0.03641445,-0.02497828
-0.1234202,-0.3962396,-0.9437747,-0.01142937,0.004455519,-0.02352743,-0.135077,0.02831989,-0.02030021
-0.122617,-0.392535,-0.9534817,-0.01062778,0.008289016,-0.03329759,-0.04961243,0.0219334,-0.01082944
-0.1204745,-0.3926983,-0.9490331,-0.008476588,0.00825805,-0.02891331,0.02848045,0.007963304,0.002807649
-0.1221475,-0.395461,-0.9409247,-0.01013098,0.005630369,-0.02086856,0.04360476,-0.007033369,0.01482956
-0.1246862,-0.3963761,-0.9380277,-0.01264128,0.004851827,-0.01803316,0.06198748,-0.02260584,0.01686623
-0.1225705,-0.3952091,-0.9349636,-0.01048766,0.00615624,-0.01502758,0.136064,-0.02606953,0.02142941
-0.122387,-0.3945582,-0.9243209,-0.01025705,0.00694469,-0.00443947,0.172993,-0.02531739,0.03049881
-0.1271855,-0.3943554,-0.9095976,-0.01499935,0.007284493,0.01023327,0.1387684,-0.02299236,0.01953409
-0.1317142,-0.3976286,-0.9090782,-0.01946283,0.004146931,0.01070615,0.108227,-0.005858529,-0.001125612
-0.1319593,-0.4009109,-0.9158021,-0.01963377,0.0009984536,0.003938976,0.09519002,0.01846981,-0.01192419
-0.1306305,-0.4027123,-0.9140333,-0.01822174,-0.000671276,0.005667294,0.08718903,0.03914573,-0.01777154
-0.1272992,-0.40814,-0.921356,-0.01479814,-0.005969718,-0.001693322,0.09535131,0.0340257,-0.01646337
-0.1209315,-0.4128057,-0.9260648,-0.008329003,-0.01050848,-0.00643768,0.09926275,0.0198021,-0.009730663
-0.1192587,-0.4127038,-0.9176398,-0.006545968,-0.01028189,0.001954109,0.08713389,0.01078416,-0.002608376
-0.1217947,-0.4115299,-0.9156891,-0.008963652,-0.00898513,0.003874006,0.07843436,-0.008225829,0.006052914
-0.1212077,-0.4119854,-0.9080436,-0.008250569,-0.009319379,0.01149085,0.0644057,-0.009912699,0.007883268
-0.1216675,-0.4111752,-0.9037558,-0.008576994,-0.00838919,0.01575165,0.04524611,-0.008575433,0.006697365
-0.1231815,-0.4106679,-0.909179,-0.009950863,-0.007762995,0.01030243,0.03808238,-0.01887208,0.01140032
-0.1209019,-0.4141708,-0.9045029,-0.007524754,-0.01114783,0.01495277,0.0261388,-0.01415354,0.00981381
-0.1210634,-0.4176594,-0.9084906,-0.007533782,-0.01451904,0.0109391,0.01157798,-0.01510883,0.005237242
-0.1232531,-0.4222482,-0.9142376,-0.009565414,-0.01899068,0.005165312,0.01098665,-0.01743454,0.004846592
-0.1252223,-0.4252812,-0.9094444,-0.01137149,-0.02190623,0.009930525,0.00779827,-0.01045229,0.0004329086
-0.1292401,-0.4234249,-0.9114868,-0.01522124,-0.01993144,0.00785873,0.0026928,-0.009989058,0.001223995
-0.1279777,-0.4247825,-0.911497,-0.0137861,-0.02116887,0.00781758,0.0207314,-0.005584605,0.002879314
-0.1246612,-0.4256584,-0.9103799,-0.01029217,-0.02192236,0.008901797,0.04407794,-0.004078473,-0.004273169
-0.1253946,-0.4226732,-0.9119026,-0.01084384,-0.01881188,0.00734413,0.04132744,-0.00459993,-0.005822608
-0.1246669,-0.4217848,-0.9086857,-0.009930201,-0.01779479,0.01052393,0.03333254,0.0001689486,-0.004022192
-0.1250778,-0.4196647,-0.9025227,-0.01015117,-0.01554233,0.01664722,0.03181745,0.0002227558,-0.004306275
-0.1263954,-0.4158545,-0.8945043,-0.01127529,-0.01159584,0.024623,0.0223673,0.00693901,-0.005348386
-0.1251854,-0.4152228,-0.8967291,-0.009868427,-0.01082386,0.02235196,0.01585935,0.01148362,-0.007461993
-0.1223744,-0.4167627,-0.9047878,-0.006857481,-0.01221956,0.01424268,0.01614275,0.003031151,-0.005870471
-0.1179047,-0.4206094,-0.9086783,-0.002185086,-0.01591817,0.01029675,0.009290396,-0.0006854345,-0.00616291
-0.119032,-0.4270511,-0.9194016,-0.003107489,-0.02220792,-0.0004868841,0.0004673036,0.00060745,-0.006826244
-0.1231116,-0.4279088,-0.9261069,-0.006980379,-0.02290942,-0.007257132,0.009763838,-0.001194819,-0.004042783
-0.1235888,-0.4245645,-0.9175879,-0.007249662,-0.01940433,0.001192921,0.02054613,-0.007948675,-0.0002043739
-0.1259388,-0.4245374,-0.9070296,-0.009390777,-0.01921162,0.01167867,0.00421247,-0.01092893,0.005368845
-0.1269061,-0.4204971,-0.903744,-0.01014835,-0.01500059,0.01488835,-0.01554379,-0.003631339,0.001624636
-0.1283034,-0.4157494,-0.9067053,-0.01133534,-0.0100772,0.01184756,-0.02713149,0.009629047,-0.009147161
-0.1319506,-0.4174872,-0.9082412,-0.01477164,-0.01163426,0.01022856,-0.03837054,0.02897827,-0.01444517
-0.1286564,-0.419271,-0.9087315,-0.0112659,-0.01323271,0.009651305,-0.03378345,0.03756088,-0.01455262
-0.1254774,-0.4214826,-0.912973,-0.007874837,-0.01525449,0.005319179,-0.02832884,0.02672592,-0.01101859
-0.1237043,-0.4211847,-0.9144247,-0.005889082,-0.01476244,0.003773143,-0.03579008,0.01489953,-0.008463108
-0.1175548,-0.4176172,-0.9100174,0.0004731805,-0.01099658,0.008082711,-0.04132879,0.005683115,-0.004668676
-0.1167871,-0.4163499,-0.9079705,0.001453507,-0.009526836,0.01002863,-0.04884086,0.001591825,-0.001573759
-0.1189699,-0.4143911,-0.9138644,-0.0005175646,-0.007361855,0.004030711,-0.05464889,0.008020438,-0.004927592
-0.1168412,-0.4140672,-0.9198561,0.00182157,-0.006828388,-0.002067934,-0.04981778,0.00788897,-0.003644481
-0.1161278,-0.4144457,-0.9173819,0.002743429,-0.006994552,0.0002968329,-0.032475,-0.0103345,0.005996355
-0.117529,-0.4130813,-0.9116358,0.001548409,-0.005415192,0.005931416,-0.006404335,-0.02937765,0.01784351
-0.1194506,-0.4145039,-0.9089212,-0.0001700271,-0.006620975,0.008532727,-0.006222413,-0.02883598,0.0203339
-0.1224667,-0.4147411,-0.9110605,-0.00298615,-0.006639632,0.006278553,-0.01994247,-0.01711168,0.009370943
-0.1232973,-0.4143079,-0.9175538,-0.003620318,-0.005986682,-0.0003312172,-0.005403071,-0.01859348,0.005444727
-0.1237514,-0.415196,-0.9206858,-0.003881619,-0.006654206,-0.003580886,0.02060984,-0.03698534,0.01456076
-0.1274654,-0.4150621,-0.9176158,-0.007406552,-0.006299282,-0.0006293792,0.04641208,-0.05167995,0.02411925
-0.1295062,-0.4166028,-0.9155948,-0.009261834,-0.007618603,0.001272766,0.04933781,-0.03989191,0.02453139
-0.1311312,-0.4163976,-0.9171304,-0.01070486,-0.007192225,-0.0003816684,0.02870346,-0.01860898,0.0136255
-0.1362593,-0.4136616,-0.9189058,-0.0156541,-0.004235257,-0.002275544,0.02909181,-0.01416946,0.001426426
-0.1367941,-0.4120504,-0.9183414,-0.01601283,-0.002403692,-0.001828872,0.01614343,-0.0003673927,-0.006971581
-0.1321611,-0.4124205,-0.9134494,-0.01120608,-0.002554381,0.002946376,-0.004394989,0.01536383,-0.009282299
-0.1288172,-0.4158927,-0.9073056,-0.007690282,-0.005808409,0.008974641,0.001787901,0.004513938,-0.006520733
-0.1246838,-0.4173311,-0.9070408,-0.003386758,-0.00703042,0.009125129,-0.00276096,0.002691756,-0.005337005
-0.120704,-0.4160148,-0.9081585,0.0007613845,-0.005499403,0.007894087,0.0001181103,0.008993002,-0.005455959
-0.1202579,-0.4140356,-0.9059682,0.001373688,-0.003307429,0.009971699,-0.003267996,0.006211315,-0.00961401
-0.1210794,-0.4116636,-0.9083241,0.0007160467,-0.0007249354,0.007503815,-0.03360383,0.01395005,-0.01404208
-0.1209592,-0.4133039,-0.912989,0.0009973525,-0.002157023,0.002727201,-0.04012341,0.016498,-0.009679596
-0.1206021,-0.4143575,-0.9196179,0.001512596,-0.003005314,-0.004012789,-0.02365962,0.002304665,-0.0005307597
