accx,accy,accz,body_accx,body_accy,body_accz,body_gyrox,body_gyroy,body_gyroz
0.0578526,0.654303,0.7603864,0.05125967,0.007541091,-0.02025881,-0.07664802,-0.1507284,0.2300198
0.05621769,0.6551221,0.7554337,0.0467674,0.007982752,-0.02402236,-0.07410342,-0.1470963,0.2353087
0.0567841,0.6544018,0.7558678,0.04454133,0.006893638,-0.0224318,-0.06721044,-0.1453038,0.2370299
0.05493667,0.661813,0.7565437,0.03996689,0.01394476,-0.02063173,-0.06717998,-0.146052,0.2333347
0.05160106,0.6703414,0.7601637,0.0339703,0.02212161,-0.01591946,-0.06797995,-0.1435243,0.2295063
0.05136151,0.6719911,0.7586081,0.03113635,0.02342758,-0.0164144,-0.06590871,-0.1350835,0.2303849
0.0545115,0.6676911,0.7585324,0.03175909,0.01879114,-0.01546086,-0.06678964,-0.1278251,0.2283037
0.05859095,0.6652398,0.7591826,0.03337882,0.01600984,-0.0138125,-0.06928247,-0.1315833,0.2244063
0.06017705,0.6671866,0.757266,0.03257288,0.01763266,-0.01476168,-0.07183969,-0.1377372,0.2217009
0.06147171,0.6664837,0.7600488,0.03154315,0.01661141,-0.01104209,-0.07419024,-0.1338629,0.2152523
0.06295803,0.6644672,0.7599393,0.03077251,0.0142817,-0.01024489,-0.07527888,-0.1303288,0.2103518
0.06174427,0.6636946,0.7592553,0.02736892,0.01320074,-0.01005209,-0.07680966,-0.1307873,0.2071258
0.06062241,0.6634967,0.7605103,0.02412399,0.01269919,-0.007949974,-0.07552282,-0.1272582,0.2011312
0.06212445,0.6643189,0.7600466,0.02356933,0.01322215,-0.007595937,-0.07308267,-0.1247823,0.194492
0.06213613,0.6635984,0.7626056,0.02159028,0.01220665,-0.004248167,-0.07661294,-0.1221018,0.1905629
0.0578308,0.6629565,0.7651617,0.01535969,0.01127399,-0.0009321343,-0.07912868,-0.1174576,0.1922133
0.05413771,0.6634782,0.7662189,0.009806415,0.01150891,0.0008563527,-0.07687789,-0.1168996,0.1918923
0.05463313,0.6637683,0.7636306,0.00850641,0.01151614,-0.001029169,-0.07378195,-0.1144915,0.187789
0.05432224,0.6641206,0.7592967,0.006464568,0.0115894,-0.004688723,-0.07039929,-0.1098667,0.1858009
0.05316239,0.6627835,0.7592546,0.00363791,0.009977005,-0.004084403,-0.06992322,-0.1074082,0.1835429
0.05798218,0.6626141,0.7577611,0.006854662,0.009535955,-0.004959143,-0.06973304,-0.1050448,0.182486
0.06233991,0.6654416,0.7578924,0.009672574,0.01209535,-0.004235988,-0.06756748,-0.1055039,0.1830216
0.06136707,0.6675261,0.7598986,0.007222369,0.01391526,-0.00166437,-0.06569962,-0.1053434,0.1822287
0.06288234,0.6679248,0.7606497,0.007321808,0.01405266,-0.000373763,-0.06365727,-0.1003551,0.1796191
0.06308246,0.6677525,0.7662955,0.006166674,0.01362218,0.005786053,-0.06324269,-0.09783019,0.1754669
0.06153574,0.6683423,0.767263,0.003324244,0.01395662,0.007242346,-0.06206848,-0.09886142,0.1726596
0.0621405,0.6681333,0.7611821,0.002691824,0.01349494,0.00162532,-0.06064401,-0.09831386,0.1697395
0.05700219,0.6676754,0.7587315,-0.003626144,0.01278677,-0.0003860221,-0.06495615,-0.09928111,0.167182
0.0521435,0.6686372,0.7592504,-0.009607844,0.01350049,0.0005479833,-0.06911073,-0.09925038,0.1667375
0.0539748,0.6687677,0.7601296,-0.008843663,0.01338507,0.001818747,-0.06932096,-0.09381335,0.1655886
0.05397899,0.6696008,0.7577571,-0.009851386,0.01397413,-0.0001850085,-0.0696553,-0.09184124,0.1643113
0.05266443,0.6698724,0.7559025,-0.01212339,0.01400336,-0.001693232,-0.06769984,-0.08989836,0.1618447
0.05521366,0.6687095,0.7582064,-0.01047792,0.01259975,0.0009354463,-0.06632946,-0.08405108,0.1585953
0.0583139,0.6688692,0.7603822,-0.008228627,0.01252009,0.003415057,-0.06893246,-0.08414134,0.1567324
0.05696636,0.6678168,0.76329,-0.01037529,0.01122966,0.00660633,-0.06882454,-0.08391179,0.1542907
0.05600043,0.6678354,0.7621319,-0.0120896,0.01101156,0.005711891,-0.06724131,-0.07982241,0.1513293
0.05679239,0.6695206,0.7587761,-0.01199635,0.01246122,0.0026002,-0.06698662,-0.07878307,0.148788
0.05532437,0.6693488,0.7602254,-0.01411447,0.01205514,0.004274715,-0.06575774,-0.07832634,0.1478316
0.05780974,0.669233,0.7607218,-0.01223168,0.01170615,0.004978017,-0.06459152,-0.07680057,0.1460121
0.06324282,0.667132,0.7608271,-0.00735483,0.009372983,0.005272268,-0.06261485,-0.07142241,0.1398239
0.06555713,0.6632336,0.7607651,-0.005551733,0.005243624,0.005381918,-0.06199113,-0.06224944,0.1302928
0.06472199,0.6624723,0.7591037,-0.006854567,0.004252603,0.003875409,-0.0631711,-0.05797356,0.1225013
0.05893157,0.6663059,0.7607097,-0.01307066,0.007858003,0.005620041,-0.06208583,-0.05825584,0.1264645
0.05248731,0.6714063,0.7617387,-0.01989992,0.01273188,0.006771921,-0.0610461,-0.05563402,0.1329006
0.05073371,0.670816,0.7609568,-0.02199893,0.01191674,0.006097744,-0.0614419,-0.05268069,0.1280409
0.05234831,0.6663649,0.7624396,-0.02069104,0.007242314,0.007673492,-0.06251981,-0.05555275,0.1230359
0.05514769,0.6636325,0.7642434,-0.01816056,0.004288331,0.009555961,-0.06444644,-0.05774583,0.1186602
0.05781427,0.6632055,0.7637149,-0.0157261,0.003641504,0.009092195,-0.06801747,-0.05252452,0.1129121
0.05858515,0.665121,0.7595307,-0.0151517,0.005339142,0.00495922,-0.0721814,-0.04741224,0.1149655
0.05735954,0.667851,0.755369,-0.01653938,0.007853513,0.0008358238,-0.0738401,-0.04646088,0.1166555
0.0568574,0.6718947,0.7553647,-0.0171704,0.01168387,0.0008573351,-0.07720037,-0.04382229,0.1125259
0.0553013,0.6729595,0.7572035,-0.01882339,0.0125375,0.002710479,-0.08268909,-0.04091947,0.1052795
0.05504767,0.6675943,0.7574055,-0.01914305,0.006963308,0.002915864,-0.08625444,-0.04275989,0.09774821
0.05832742,0.6644512,0.7553825,-0.01589957,0.003613152,0.000886001,-0.09018389,-0.04579798,0.101279
0.05814149,0.6643212,0.7544935,-0.01609318,0.003278235,-1.93984e-05,-0.09338219,-0.045523,0.1069572
0.05623954,0.6634583,0.7554954,-0.01797542,0.002212761,0.0009572242,-0.09174188,-0.04281559,0.1017023
0.05408812,0.6620185,0.7577959,-0.02008087,0.000573024,0.003224295,-0.085441,-0.0420183,0.09992255
0.05140031,0.6568219,0.7619466,-0.02269751,-0.004820701,0.007333871,-0.08052428,-0.0455085,0.1032814
0.05120847,0.652419,0.7645828,-0.02279393,-0.009417296,0.009921676,-0.07514811,-0.04888055,0.1009924
0.04928058,0.6538243,0.768846,-0.02460297,-0.008201698,0.01412948,-0.06294294,-0.04836465,0.09900248
0.04805873,0.6551426,0.7755332,-0.02568336,-0.007068556,0.02075427,-0.05323944,-0.04657007,0.09797378
0.04883763,0.6536959,0.7740104,-0.02474113,-0.008695103,0.0191619,-0.04645827,-0.0481392,0.09416814
0.04840672,0.6539154,0.7665196,-0.02498758,-0.008649779,0.01159412,-0.03365155,-0.05112813,0.09177853
0.04886027,0.6547649,0.7610654,-0.02432921,-0.007968262,0.006055416,-0.02290328,-0.0493299,0.09100128
0.0480975,0.6544124,0.7569531,-0.02486754,-0.008481979,0.001851504,-0.02092428,-0.04695647,0.09272475
0.04675627,0.6579904,0.7573953,-0.02596548,-0.005058244,0.002195517,-0.02136836,-0.04846797,0.09770886
0.04611648,0.6623659,0.758685,-0.02634386,-0.0008296588,0.00338099,-0.01938736,-0.04839746,0.100631
0.04951522,0.6640267,0.7523942,-0.02266629,0.000691461,-0.003019441,-0.01987293,-0.04828648,0.1001039
0.05994246,0.6689061,0.7482785,-0.01194364,0.005438285,-0.007249431,-0.02601475,-0.04953458,0.09840743
0.0667524,0.6742771,0.752956,-0.004822854,0.01068366,-0.002690124,-0.03706798,-0.04335853,0.09131148
0.06559529,0.674395,0.7586563,-0.005655154,0.01068207,0.002889052,-0.0514649,-0.03549813,0.07668623
0.06229808,0.6730602,0.7623003,-0.008615143,0.009233575,0.006409444,-0.05967536,-0.03649111,0.06590928
0.0601053,0.6744678,0.7618459,-0.01045975,0.01053238,0.005829238,-0.06537575,-0.03465333,0.06181685
0.05768917,0.6743742,0.7600531,-0.01251801,0.01033452,0.003908677,-0.07359574,-0.02870884,0.05596102
0.05298173,0.6699125,0.7617021,-0.01685897,0.005772377,0.005428296,-0.07297843,-0.03091116,0.05178809
0.04938382,0.6638671,0.7624527,-0.02008264,-0.0003699279,0.006047893,-0.07027423,-0.03138236,0.05414605
0.04817071,0.657324,0.7629513,-0.02091441,-0.007006566,0.00641433,-0.07025772,-0.0246751,0.05813925
0.04779421,0.6534344,0.7641312,-0.020903,-0.01098603,0.007460795,-0.06264414,-0.02129422,0.05704946
0.04525126,0.6511146,0.7634691,-0.02305193,-0.01339178,0.006664189,-0.05126772,-0.0227998,0.05662633
0.04054006,0.6502425,0.764363,-0.02736333,-0.01434524,0.007422507,-0.04071197,-0.02713687,0.06587221
0.03973532,0.6535396,0.7658298,-0.02776273,-0.0111244,0.008752899,-0.03210345,-0.02959503,0.07652899
0.04644243,0.6541548,0.7658073,-0.02064491,-0.01057971,0.00859304,-0.02389639,-0.02661792,0.08033554
0.05565305,0.6552614,0.7648453,-0.01101854,-0.009537826,0.007492874,-0.01682578,-0.02400669,0.07674002
0.05491841,0.6603266,0.7611868,-0.01133302,-0.004531044,0.003695262,-0.0182359,-0.02411115,0.07371354
0.05197871,0.662356,0.7594648,-0.01384897,-0.002553759,0.001833507,-0.01948852,-0.0227947,0.07550858
0.05600262,0.6653039,0.7637655,-0.009398514,0.0003481156,0.005994056,-0.01741819,-0.0206836,0.07191245
0.05504249,0.6693224,0.7693404,-0.009930103,0.004326549,0.01142851,-0.01921605,-0.02168093,0.06864735
0.05569989,0.6701543,0.7701078,-0.008842949,0.00512377,0.01205513,-0.01900149,-0.02214816,0.06759948
0.05855978,0.6692462,0.7657286,-0.005552902,0.004186011,0.007534698,-0.02093017,-0.01963002,0.06267739
0.05493026,0.6680161,0.7626106,-0.008752672,0.002930609,0.004275078,-0.03003419,-0.01834713,0.060789
0.05523223,0.6686592,0.7621318,-0.008022126,0.003552429,0.003654209,-0.03576958,-0.01730131,0.0571737
0.05501427,0.6696338,0.7623695,-0.00781334,0.004509359,0.003749512,-0.03711075,-0.01357185,0.05327621
0.05227244,0.6714085,0.7625628,-0.01013088,0.006269524,0.00380057,-0.04225722,-0.008018396,0.05275345
0.05307818,0.6722387,0.7603935,-0.008903838,0.007087859,0.001489127,-0.0496011,-0.005302,0.04811177
0.05248586,0.670658,0.7598962,-0.009078284,0.005497432,0.0008502403,-0.05076642,-0.006451023,0.04471337
0.05269549,0.6708063,0.7633648,-0.008454641,0.005637884,0.004177894,-0.05011281,-0.005772178,0.04597665
0.05209793,0.6681767,0.7656773,-0.008642461,0.003001663,0.006350392,-0.05199248,-0.004500319,0.04814842
0.05067085,0.6634609,0.7620531,-0.009664418,-0.001719618,0.002587134,-0.04966808,-0.004503162,0.04669664
0.05175702,0.6609232,0.7567328,-0.008178073,-0.004261776,-0.002871131,-0.04699373,-0.003895577,0.04415638
0.05129403,0.6602338,0.7581412,-0.008246091,-0.004954595,-0.001599281,-0.04251422,-0.003873979,0.04520133
0.0513123,0.6617173,0.7598277,-0.007838351,-0.003473311,-4.753046e-05,-0.03354093,-0.00390106,0.04386522
0.05157506,0.6600909,0.7606677,-0.007191865,-0.005100559,0.0006595796,-0.03203883,-0.006013612,0.04361095
0.05132473,0.6593124,0.7662147,-0.007064467,-0.005878466,0.006075997,-0.03172034,-0.009158154,0.04462307
0.05251503,0.6623235,0.7670246,-0.005502664,-0.002865146,0.006757577,-0.02829044,-0.007685651,0.04234876
0.05307455,0.6637399,0.7639288,-0.004578115,-0.001444785,0.003535495,-0.03049105,-0.0063258,0.04170476
0.05398772,0.6658877,0.7629922,-0.003306653,0.0007086908,0.002474787,-0.03071023,-0.00708224,0.04075728
0.05521724,0.6681069,0.7596072,-0.001725874,0.002935148,-0.001032258,-0.02824966,-0.005239992,0.03918638
0.05586474,0.6696505,0.7582934,-0.0007344742,0.0044873,-0.002465881,-0.0280168,-0.004012382,0.03680154
0.05443225,0.668343,0.7647355,-0.001830747,0.003189494,0.003858803,-0.02856645,-0.00478041,0.0333531
0.0489475,0.6647783,0.7701002,-0.006987208,-0.0003648425,0.009108714,-0.03025505,-0.006254112,0.0348165
0.04439026,0.6644618,0.766019,-0.01122417,-0.000670227,0.004915029,-0.02873038,-0.00934401,0.03948434
0.04645374,0.6603571,0.7607023,-0.008848312,-0.004763284,-0.0005119339,-0.02746349,-0.009469777,0.04217983
0.05218482,0.6563889,0.7613734,-0.002812556,-0.008719239,5.112793e-05,-0.02680113,-0.007190798,0.03772688
0.05561372,0.6597933,0.7629473,0.0009133217,-0.005301665,0.001519293,-0.02188048,-0.007805991,0.03111865
0.05851929,0.6608172,0.764277,0.004107983,-0.004263454,0.002745703,-0.01874074,-0.009190555,0.03187577
0.05943334,0.6607511,0.7642169,0.005302906,-0.004313932,0.002584643,-0.01438643,-0.009371986,0.03148348
0.05639012,0.6625587,0.7622928,0.002531963,-0.002489462,0.0005620073,-0.01157484,-0.005653352,0.0273066
0.05416934,0.6619565,0.7625602,0.0005745629,-0.003073322,0.0007332314,-0.01515712,-0.0003699258,0.02547789
0.05012655,0.6625136,0.7625577,-0.003213894,-0.002496594,0.0006370418,-0.01530868,-0.001719461,0.02235958
0.0486053,0.6648837,0.7622479,-0.004489821,-0.0001053925,0.0002360504,-0.01716086,-0.003459805,0.01975045
0.05159783,0.6653824,0.7628503,-0.001260866,0.0004156,0.0007497865,-0.02144968,-0.00165022,0.02209556
0.05092501,0.6644346,0.7620562,-0.001705993,-0.0005087709,-0.0001303959,-0.02086276,-0.002123781,0.02724752
0.0523364,0.6635559,0.7616583,-7.556154e-05,-0.001363073,-0.0006118003,-0.02193542,-0.0009054839,0.02973849
0.05542163,0.663717,0.7615411,0.003220121,-0.001176713,-0.0008098693,-0.02446651,0.002715899,0.0250037
0.0569195,0.6640391,0.7633989,0.00491981,-0.0008284587,0.000969885,-0.02622583,0.005199481,0.02058192
0.05733541,0.663012,0.7665665,0.005528793,-0.001828743,0.004062035,-0.02518838,0.006122638,0.02192463
0.05447959,0.6630269,0.7644751,0.002857163,-0.001786238,0.001897849,-0.01895748,0.003871835,0.02225512
0.05734137,0.6643004,0.7606388,0.005894159,-0.0004845893,-0.002008768,-0.01485721,0.002023607,0.0203203
0.05943004,0.6641536,0.7602478,0.008148981,-0.0006025833,-0.00246748,-0.01443118,0.001453498,0.0160753
0.05455088,0.6645608,0.7625841,0.003426808,-0.0001661571,-0.0001963951,-0.01444102,0.001322434,0.01047332
0.05340123,0.6658671,0.7624763,0.002424942,0.001169851,-0.0003667659,-0.01287116,0.002048104,0.01160637
0.05257776,0.6662518,0.7553773,0.001740122,0.001584474,-0.007525598,-0.009337926,0.0007389798,0.01446107
0.05273229,0.6667053,0.7511096,0.002024347,0.002067893,-0.01185012,-0.007515155,0.002179126,0.01231888
0.05500449,0.6668971,0.7549583,0.004417475,0.00228963,-0.008055149,-0.007145919,0.00519323,0.01339854
0.05505104,0.6663242,0.7585325,0.0045763,0.001746263,-0.004530892,-0.008423947,0.004605074,0.01499678
0.05579232,0.6657466,0.7587418,0.005421323,0.001197925,-0.004367767,-0.0121495,0.006141158,0.01281625
0.05538407,0.6651497,0.7580271,0.005108364,0.0006295523,-0.005124649,-0.01624869,0.007761923,0.01428479
0.05472249,0.664507,0.7580415,0.004533695,1.48317e-05,-0.005148331,-0.01796544,0.007759346,0.01598298
0.05498362,0.6628318,0.7566876,0.004873494,-0.001633025,-0.006536214,-0.01718836,0.009679363,0.0140559
0.05546052,0.6602711,0.7547676,0.005420949,-0.004167177,-0.008485975,-0.02002571,0.01049763,0.01111923
0.05595745,0.6609757,0.7555619,0.005980435,-0.003436523,-0.007717069,-0.02302746,0.01106792,0.006825197
0.05346307,0.6637452,0.75587,0.003540762,-0.000641333,-0.007429821,-0.02076095,0.01324555,0.004591234
0.05039198,0.6639907,0.7553005,0.000516722,-0.000370491,-0.008015517,-0.0184165,0.01342902,0.005004623
0.04826848,0.663789,0.7559967,-0.001567064,-0.0005472616,-0.007330767,-0.01621952,0.01126314,0.004461639
0.05058332,0.6627041,0.7570147,0.0007805699,-0.00160753,-0.006319346,-0.01552785,0.01138192,0.002859729
0.05473168,0.6601647,0.7573983,0.004955197,-0.004122684,-0.005937448,-0.01589486,0.01198506,0.001063724
0.05248295,0.6597443,0.7568535,0.0027265,-0.004519011,-0.006479119,-0.01189746,0.0111406,0.0002883093
0.05200274,0.6615206,0.7580756,0.002260296,-0.00271878,-0.005249179,-0.009222448,0.01256971,0.0009829859
0.05408567,0.6639954,0.7607176,0.004351466,-0.0002199624,-0.002594515,-0.01078364,0.01221558,0.0002476346
0.05381667,0.6636739,0.7611393,0.004085164,-0.0005173823,-0.002155686,-0.01091091,0.0105757,-0.001848011
0.05526228,0.6625466,0.7597502,0.005528098,-0.001620694,-0.003523384,-0.01104101,0.01068408,-0.001380349
0.05423894,0.6643792,0.7590345,0.00449688,0.0002359672,-0.004213494,-0.01315549,0.0100133,-0.001999814
0.0523266,0.6645537,0.7602227,0.002571605,0.0004345466,-0.002995942,-0.01374467,0.01064097,-0.004029296
0.05360178,0.6647832,0.7608845,0.003829011,0.0006879449,-0.002300964,-0.01533405,0.01055696,-0.002944203
0.05431186,0.6654373,0.7610355,0.004516692,0.001365702,-0.00211326,-0.01860776,0.01266825,-0.003473156
0.05596539,0.6616794,0.7624794,0.00614338,-0.002368744,-0.0006295015,-0.01749403,0.01731555,-0.004380836
0.05581812,0.6598221,0.762561,0.005964947,-0.00420291,-0.0005049771,-0.01678673,0.01627426,-0.003062414
0.05293634,0.6618843,0.762405,0.003047798,-0.002117764,-0.0006154745,-0.02004047,0.01532836,-0.002195618
0.05265434,0.6623209,0.7627349,0.002726395,-0.001658366,-0.000237586,-0.02094592,0.01447205,-0.001921046
0.05304988,0.6632208,0.7622046,0.003078729,-0.0007355831,-0.0007177392,-0.01784617,0.01188099,-0.005149299
0.05451187,0.6646272,0.7625098,0.004493949,0.0006935484,-0.000360636,-0.01201618,0.01550212,-0.006270028
0.05638331,0.6635162,0.7616336,0.006315237,-0.0003948006,-0.001183282,-0.007029505,0.01906941,-0.003770135
0.05506426,0.6627449,0.7599016,0.004942768,-0.001143538,-0.002860363,-0.004816685,0.0183665,-0.004096589
0.05337591,0.6624376,0.7586223,0.003197846,-0.001428519,-0.004083515,-0.004302919,0.01965474,-0.002836607
0.05159253,0.6615826,0.7589087,0.00135492,-0.002261219,-0.003739803,-0.005264649,0.02038391,-0.003810551
0.05073145,0.6632432,0.7637548,0.00043159,-0.000578504,0.001164726,-0.00522417,0.01660293,-0.006699347
0.0524956,0.6661489,0.7657271,0.002131065,0.002349209,0.003196379,-0.005437225,0.01298454,-0.003755865
0.05511952,0.6675495,0.7640822,0.004688155,0.003771553,0.001611333,-0.006188604,0.01186735,-0.003737204
0.05872677,0.6666721,0.7650815,0.008226571,0.002915554,0.002670866,-0.005455279,0.009834459,-0.007903141
0.05927577,0.6637734,0.7639316,0.008704755,3.773619e-05,0.001581143,-0.005579938,0.009888813,-0.01168762
0.0574442,0.6618746,0.7639465,0.00680032,-0.001840829,0.001656008,-0.005333264,0.01479286,-0.01458055
0.05769246,0.6628688,0.7665179,0.006973606,-0.0008270592,0.004286756,-0.005141471,0.01842943,-0.01434688
0.05417653,0.6642791,0.7647465,0.003380625,0.000602183,0.002573959,-0.007620673,0.01816582,-0.01681256
0.04933785,0.6635063,0.7639843,-0.001537072,-0.0001521977,0.001869232,-0.01100231,0.01825254,-0.01833383
0.05033433,0.6638019,0.7641386,-0.0006212938,0.0001611907,0.00207987,-0.01276215,0.01954233,-0.01253998
0.05068436,0.6642714,0.7621316,-0.0003532661,0.000647853,0.0001276869,-0.0100492,0.01995821,-0.008482081
0.04938553,0.6627256,0.761054,-0.001735058,-0.000881366,-0.0008966795,-0.008576926,0.02096778,-0.009213035
0.0517167,0.6644765,0.7570184,0.0005125396,0.0008854558,-0.004880472,-0.01390554,0.02149884,-0.008760783
0.05457824,0.6668076,0.7532651,0.003290171,0.003231802,-0.008583334,-0.01714775,0.02052391,-0.005945736
0.05602765,0.6668327,0.7540802,0.004655494,0.003271413,-0.007718953,-0.01294511,0.02112705,-0.006535958
0.05601574,0.6668153,0.7554622,0.004559373,0.003267658,-0.006288407,-0.008690035,0.02116895,-0.007990723
0.05495217,0.6657635,0.7594769,0.0034115,0.00222851,-0.002225732,-0.009559821,0.02032218,-0.005973653
0.05609994,0.6640791,0.7640652,0.004474884,0.0005556715,0.002410137,-0.009243471,0.0194446,-0.008430186
0.05726225,0.6608225,0.7630019,0.005552748,-0.002690512,0.001393958,-0.006304125,0.01565293,-0.01206663
0.05661846,0.6601907,0.7604359,0.004824443,-0.003312885,-0.001125476,-0.005557559,0.01382723,-0.01320223
0.05505148,0.6620711,0.7612849,0.003172875,-0.001423885,-0.0002307253,-0.002590025,0.01604082,-0.01613109
0.05180678,0.6613838,0.761063,-0.0001564536,-0.002103294,-0.0004076063,-0.000455885,0.01827152,-0.01554559
0.04886078,0.6645556,0.7587558,-0.003186951,0.001075824,-0.002670635,-0.002841163,0.02099424,-0.01491178
0.04651242,0.6687624,0.7591437,-0.005619386,0.005289333,-0.002239357,-0.002799018,0.02224446,-0.0181588
0.04706452,0.6692608,0.7624846,-0.005150514,0.005793814,0.001144187,-0.003800098,0.02083579,-0.01903741
0.05086728,0.6711542,0.7669547,-0.001429747,0.007692387,0.005656099,-0.006070182,0.01850658,-0.01740752
0.0521439,0.6713192,0.7662721,-0.0002335711,0.007861322,0.00501422,-0.005651708,0.01675325,-0.01498243
0.05323775,0.6689583,0.7618058,0.000781542,0.005502849,0.0005874285,-0.007465843,0.01928698,-0.01446624
0.05506901,0.6675117,0.7610708,0.002535849,0.004056922,-0.0001095286,-0.009567791,0.02490354,-0.01701254
0.05607541,0.6660966,0.761643,0.003467064,0.002640695,0.0004992073,-0.01075656,0.02838047,-0.01971568
0.05870575,0.6654431,0.7665842,0.006023932,0.001984101,0.005475494,-0.01264666,0.02758171,-0.02074626
0.05950694,0.6656418,0.7711283,0.006753168,0.002177834,0.01005291,-0.01261202,0.02531465,-0.02233897
0.05637071,0.6659069,0.7665329,0.003546309,0.002436124,0.005488849,-0.01181137,0.02586371,-0.02638274
0.05285597,0.6669577,0.7638151,-3.787566e-05,0.003478272,0.002800141,-0.009738645,0.02660239,-0.02542208
0.05360988,0.6670087,0.7655496,0.0006477643,0.003518819,0.004561236,-0.00706805,0.02605613,-0.02058844
0.05483047,0.6661671,0.7659984,0.001801307,0.002664874,0.005034014,-0.006111826,0.02584144,-0.01822787
0.05057921,0.6669185,0.7669706,-0.0025157,0.003402158,0.006027519,-0.005016526,0.02308799,-0.01563289
0.04819139,0.6664206,0.7692074,-0.004967862,0.002888299,0.008282807,-0.005058146,0.02072886,-0.01610214
0.0483287,0.664534,0.7681552,-0.004893232,0.0009840192,0.007246038,-0.005942051,0.02301735,-0.01752279
0.04658876,0.6637035,0.7603477,-0.006693888,0.0001340573,-0.0005492012,-0.006604414,0.02507848,-0.01655388
0.04563343,0.663658,0.754259,-0.007707653,6.758008e-05,-0.006628828,-0.008278248,0.02353128,-0.01720188
0.0457588,0.6651649,0.7560515,-0.007638075,0.001552078,-0.004829987,-0.007863916,0.02228211,-0.01658498
0.04851043,0.6655576,0.7605152,-0.004939259,0.001921116,-0.0003624671,-0.006589611,0.02314006,-0.01750792
0.05194108,0.6650293,0.7609835,-0.001558216,0.00136791,0.0001076621,-0.006452515,0.02213723,-0.01941342
0.05368808,0.6653356,0.7603575,0.0001424523,0.001648113,-0.000518544,-0.004940678,0.02004198,-0.01705555
0.05499785,0.6633161,0.7644722,0.001409122,-0.0003985394,0.003594236,-0.004855887,0.01792708,-0.01680949
0.05539777,0.6591879,0.7674229,0.001769008,-0.004554716,0.006541316,-0.00458438,0.01487008,-0.01978947
0.05590635,0.6554215,0.7687877,0.002240447,-0.00834972,0.007900508,-0.0008700022,0.01524071,-0.02192456
0.05448989,0.6560223,0.7660915,0.0007895304,-0.00777785,0.005196775,0.001431671,0.01621193,-0.02045185
0.05334018,0.6595024,0.7579861,-0.0003921282,-0.004326316,-0.002918318,0.00217925,0.01387154,-0.01706864
0.05362913,0.6616938,0.7594179,-0.0001327203,-0.002162889,-0.001498367,0.003293757,0.01291883,-0.01779647
0.05114292,0.664205,0.7640282,-0.002646147,0.0003212168,0.0030983,0.003592049,0.01337251,-0.02080882
0.05029148,0.6631821,0.7634435,-0.003522486,-0.0007279361,0.002498258,0.003269221,0.013816,-0.02286638
0.05098371,0.6606214,0.7650095,-0.002852807,-0.003313804,0.004047307,0.00280045,0.01546396,-0.01986909
0.05126226,0.6617116,0.7653578,-0.002594413,-0.002247826,0.004376929,0.001289533,0.01695276,-0.01457149
0.0519275,0.6627446,0.7662818,-0.001946899,-0.001237879,0.005280587,-0.0003000743,0.01841892,-0.0158359
0.05077825,0.6643747,0.7650248,-0.00311145,0.0003704194,0.004001501,0.001333568,0.02029704,-0.01663069
0.05000384,0.6652886,0.7604998,-0.003898744,0.001263693,-0.0005474017,0.0003748443,0.02019566,-0.01525598
0.04735854,0.6675417,0.7621929,-0.006554443,0.003497351,0.001120068,-0.003517036,0.01926297,-0.01594169
0.04445749,0.6721817,0.7606936,-0.009463294,0.008118879,-0.0004063505,-0.002574446,0.01699742,-0.01164465
0.04732668,0.668493,0.7571719,-0.006599079,0.00441235,-0.003956487,-0.001583249,0.01167765,-0.008677437
0.05284076,0.6635453,0.7622524,-0.001086993,-0.0005527192,0.001094454,0.0004641848,0.01028504,-0.01400492
0.05878398,0.6655099,0.7653054,0.004857194,0.001394808,0.004116946,0.003532953,0.01202133,-0.01823967
0.05989117,0.6647382,0.7628213,0.005968012,0.0006062135,0.001601585,0.001935842,0.01087784,-0.01929226
0.05615428,0.6632341,0.7617334,0.00223701,-0.0009143798,0.0004815217,0.002225107,0.0103363,-0.02062928
0.05391182,0.665084,0.7634625,2.302962e-06,0.000919311,0.002177858,0.002323556,0.00896901,-0.02136541
0.04954755,0.6654476,0.7668848,-0.00435254,0.001266955,0.005566597,-0.0005689002,0.007426979,-0.02144555
0.04714174,0.664294,0.7713717,-0.006747298,9.766339e-05,0.01001916,-0.001188446,0.01333667,-0.02017983
0.04799862,0.6633846,0.7721713,-0.005877614,-0.0008270872,0.01078343,0.001328356,0.02150413,-0.01546722
0.04501087,0.6629318,0.7636509,-0.008850666,-0.001294898,0.002226379,0.005576933,0.02230229,-0.01024047
0.04626592,0.6624591,0.7575402,-0.007578815,-0.001782286,-0.003922281,0.005638773,0.0191819,-0.009498263
0.04987072,0.6622245,0.7631281,-0.003954918,-0.002031084,0.00162638,0.004960294,0.01628037,-0.01065963
0.0496151,0.662903,0.7676436,-0.004189073,-0.001366173,0.006101561,0.006657924,0.01347235,-0.01429366
0.05395425,0.663749,0.764223,0.0001738991,-0.0005331615,0.002639689,0.004626021,0.01884565,-0.02098143
0.05712286,0.6657742,0.7607477,0.003368516,0.001479816,-0.0008778725,0.001325196,0.02706091,-0.01981466
0.05515086,0.667346,0.7603628,0.00142445,0.00303999,-0.00130589,-0.002933219,0.02338403,-0.01654985
0.05521418,0.6656645,0.7625101,0.001517286,0.001347326,0.0007976335,-0.006084667,0.02003001,-0.02051132
0.05466319,0.6644943,0.7661339,0.0009971363,0.0001663818,0.004377072,-0.004950067,0.02197973,-0.02170058
0.05242263,0.6646414,0.7622443,-0.001211501,0.0003032128,0.0004427377,-0.004208153,0.01812839,-0.02382241
0.04971306,0.6636479,0.7561374,-0.003888222,-0.0007002829,-0.005709222,-0.002789743,0.01486427,-0.0271471
0.04801183,0.6636472,0.7592637,-0.005555684,-0.0007105267,-0.002628133,-0.001365443,0.01332465,-0.02392172
0.04997496,0.6638511,0.7625882,-0.003557825,-0.0005158254,0.0006512543,0.0002234126,0.011551,-0.02280984
0.05325779,0.6619531,0.7667943,-0.0002392761,-0.002422643,0.004812644,0.004182008,0.01148434,-0.02144367
0.05496685,0.6606994,0.7715389,0.001506449,-0.003684619,0.009512829,0.007687685,0.008206987,-0.01980261
0.05347525,0.6619295,0.7670833,5.226267e-05,-0.002462042,0.005012894,0.0109782,0.008414929,-0.02088662
0.05021242,0.663068,0.7643526,-0.003172562,-0.001330463,0.002237703,0.01235714,0.01139355,-0.01616483
0.04783259,0.6622655,0.7660288,-0.00551385,-0.002138893,0.003869143,0.01941234,0.01004088,-0.01391265
0.04808129,0.6611741,0.7660348,-0.005226014,-0.003235455,0.003830122,0.03181058,0.01162079,-0.01284062
0.04956451,0.6602048,0.7677351,-0.003702973,-0.004208876,0.005485056,0.0307469,0.01359047,-0.004858655
0.04938556,0.6601378,0.7669277,-0.003841329,-0.004278958,0.004631924,0.02668997,0.01397677,-0.0009581858
0.05090752,0.664217,0.7621666,-0.002277978,-0.0002015872,-0.0001754322,0.02881963,0.01619494,-0.001956589
0.05228292,0.6690042,0.7578711,-0.0008604223,0.004585043,-0.004517646,0.02507929,0.01685339,-0.005707164
0.05104355,0.6710334,0.7555931,-0.002056936,0.006614731,-0.006842481,0.02095469,0.01691986,-0.01155863
0.05231154,0.6750751,0.7546273,-0.0007454926,0.01065746,-0.0078548,0.01257691,0.01630222,-0.0136596
0.05370411,0.6782057,0.7538236,0.0006910398,0.01378942,-0.008704294,-0.003834261,0.01688045,-0.01425474
0.05428944,0.6759183,0.7552877,0.001320682,0.01150282,-0.007284808,-0.01187111,0.02003626,-0.0162004
0.05617018,0.6750481,0.75721,0.003245868,0.0106325,-0.005405402,-0.01379072,0.02140375,-0.01963114
0.05560846,0.6733487,0.7583781,0.002728513,0.008931349,-0.004278269,-0.01586447,0.02015882,-0.02276439
0.05383672,0.666722,0.7614016,0.001000784,0.002300973,-0.001293547,-0.01498827,0.01628574,-0.02430918
0.05238936,0.6623988,0.7631506,-0.000403085,-0.002027837,0.0004189197,-0.01472132,0.01389752,-0.02565212
0.051261,0.6571014,0.7616884,-0.001488582,-0.007332719,-0.001077515,-0.01016471,0.0136513,-0.02503565
0.05391801,0.6519504,0.7592151,0.001210605,-0.01249259,-0.003582784,-0.001341208,0.01235467,-0.02325533
0.05630315,0.6561033,0.7549219,0.003637174,-0.00834957,-0.007905645,0.003525712,0.01254751,-0.02199272
0.05288259,0.6592183,0.7499924,0.0002571276,-0.005244712,-0.01286235,0.009120473,0.01266577,-0.01885836
0.04977716,0.6586547,0.751348,-0.002808793,-0.005818343,-0.01153097,0.01430587,0.01230046,-0.01380146
0.05032799,0.6620002,0.7555537,-0.002219471,-0.002482436,-0.007346178,0.01904971,0.01275474,-0.009712779
0.04881112,0.662037,0.7539272,-0.003698758,-0.002454516,-0.008989971,0.02517407,0.01376633,-0.007666264
0.04836282,0.6614166,0.7533523,-0.004110285,-0.003083116,-0.009578218,0.02285639,0.01578497,-0.008353486
0.053603,0.666254,0.7540468,0.001165989,0.001746907,-0.008892909,0.01867884,0.01567802,-0.01274737
0.05634421,0.6692569,0.751091,0.003942623,0.004743351,-0.01185364,0.01705708,0.01499421,-0.01511221
0.05397235,0.671545,0.752044,0.001605375,0.00702548,-0.01090092,0.01254916,0.01541834,-0.01287358
0.05205585,0.6749645,0.7535341,-0.0002774689,0.01043942,-0.00940636,0.009446778,0.01468732,-0.01280793
0.05113944,0.6748079,0.752355,-0.001161244,0.01027706,-0.01057609,0.003984958,0.01416084,-0.01364031
0.05240069,0.6745148,0.7531635,0.000131621,0.009977456,-0.00975299,0.0001606252,0.01419339,-0.01287834
0.05564869,0.6753768,0.7535964,0.003410201,0.01083197,-0.00930035,-0.0003445887,0.01396753,-0.01392215
0.05772847,0.6735723,0.7550965,0.005519421,0.009018441,-0.007775216,-0.004688069,0.01358604,-0.01531221
0.05813014,0.6708132,0.7580355,0.005949179,0.006248448,-0.004806032,-0.004900762,0.0138399,-0.01858653
0.05472559,0.6674873,0.7603351,0.002571134,0.002909476,-0.002471108,-0.00561552,0.01461649,-0.02282496
0.05017875,0.6638138,0.7605092,-0.001950939,-0.0007792241,-0.002256783,-0.007538895,0.01529625,-0.02090667
0.0501155,0.6630121,0.7587826,-0.001991136,-0.001598062,-0.003938749,-0.004398147,0.01503173,-0.01698429
0.05113288,0.6624104,0.7600063,-0.0009522804,-0.002218805,-0.002666128,-0.005416855,0.01095879,-0.01633187
0.05306467,0.6606788,0.7601419,0.0009995119,-0.003970796,-0.002477686,-0.004268637,0.007026005,-0.01677845
0.05721666,0.6622831,0.7597111,0.00517007,-0.002388169,-0.002852008,0.002016415,0.008018556,-0.01807495
0.05789678,0.6661041,0.7638752,0.005867222,0.001410221,0.001371944,0.00894071,0.009375642,-0.019364
0.05721858,0.668238,0.7654767,0.005204336,0.003520844,0.003036264,0.0155755,0.01058507,-0.01981035
0.05617242,0.6683908,0.7619086,0.004171564,0.003649541,-0.0004664843,0.01203397,0.0140431,-0.01956792
0.05086229,0.6674871,0.7589577,-0.001127189,0.002720949,-0.003349981,0.007288181,0.01443283,-0.01891642
0.04840149,0.6662286,0.7628454,-0.0035786,0.001436823,0.0006069355,0.007866832,0.01194944,-0.01898655
0.04913316,0.665438,0.7672522,-0.002839308,0.0006197006,0.005084542,0.006947984,0.01199949,-0.01753074
0.04833188,0.6675995,0.7630541,-0.003634482,0.002753957,0.0009584013,0.007768054,0.0111771,-0.01304187
0.05062781,0.6708929,0.7607956,-0.001333718,0.006019412,-0.001227477,0.005330676,0.01079613,-0.008907554
0.05223932,0.6703431,0.7615328,0.0002815616,0.005440851,-0.0004172151,0.001705818,0.01424093,-0.00932563
0.05154084,0.6693932,0.7589541,-0.0004141056,0.004461279,-0.002922526,0.002486347,0.01577623,-0.01246136
0.0541824,0.6695536,0.7593905,0.002229358,0.004590887,-0.002412589,0.0001555969,0.01611493,-0.01514589
0.05636752,0.6672311,0.7603698,0.004415484,0.002236482,-0.0013598,-0.002546599,0.01597487,-0.02051657
0.05580543,0.6659418,0.7592963,0.003853403,0.0009141921,-0.002359738,-0.002106418,0.01309536,-0.02204503
0.05490895,0.6650547,0.7601591,0.002955825,-6.947949e-06,-0.001423604,-0.001680619,0.01099457,-0.0180757
0.05475723,0.6604742,0.7616494,0.002801797,-0.004622298,0.0001397144,-0.00113725,0.01001921,-0.02002867
0.05367975,0.6576618,0.7628635,0.00172074,-0.007470118,0.001426479,0.002378242,0.01119691,-0.0208041
0.05110386,0.6615161,0.7628219,-0.0008599902,-0.003651473,0.001456964,0.007414245,0.01438793,-0.01953909
0.05056444,0.66624,0.7618961,-0.001405426,0.001036973,0.0006023341,0.006811588,0.01485468,-0.02241251
0.0512735,0.6656968,0.7619383,-0.0007034299,0.0004586662,0.0007147824,0.005940606,0.01388724,-0.0195071
0.05142362,0.6662696,0.7616938,-0.00056127,0.0009967631,0.0005392457,0.01020099,0.01357574,-0.01355025
0.04958937,0.6688196,0.761514,-0.002404238,0.003512402,0.0004271805,0.01149706,0.01268645,-0.009510366
0.0476549,0.6675557,0.7613437,-0.004348026,0.002214565,0.0003231496,0.007032492,0.01203873,-0.009893341
0.04907536,0.667854,0.760841,-0.002937249,0.002479341,-0.0001147975,0.001594774,0.01228639,-0.0150599
0.05021037,0.6677128,0.762521,-0.001812073,0.002304703,0.001628427,0.0003316619,0.01299052,-0.01361902
0.05260838,0.6658327,0.7644234,0.0005761149,0.0003914911,0.003592292,-0.001049634,0.01435506,-0.01190107
0.05525041,0.6679776,0.7633969,0.003208365,0.002503401,0.002625337,-0.006767772,0.01476102,-0.01392004
0.05315197,0.6675638,0.7604661,0.001100155,0.002056946,-0.0002478929,-0.008619363,0.01375333,-0.01625534
0.05207175,0.6632557,0.7586028,1.011547e-05,-0.002283793,-0.002055755,-0.005080111,0.01377999,-0.02222606
0.05343424,0.6603979,0.7598068,0.001362716,-0.005173771,-0.0007984354,-0.002041791,0.01354488,-0.02077139
0.05461404,0.6626328,0.760011,0.002532533,-0.002970702,-0.0005427771,-0.002468171,0.01188121,-0.01747636
0.05542483,0.6683279,0.7609722,0.003333178,0.002693392,0.0004677872,-0.002400038,0.0100313,-0.02043797
0.05314343,0.6687436,0.7652862,0.001041394,0.003078875,0.004829245,0.001115897,0.007118912,-0.01794217
0.05022049,0.6681287,0.7641679,-0.001892216,0.00243438,0.003756359,0.001067896,0.006924547,-0.01569891
0.05079648,0.6683576,0.7601282,-0.001327126,0.002634191,-0.0002402261,0.002321396,0.01135553,-0.01426346
0.05039375,0.6658496,0.7585078,-0.00174088,9.77246e-05,-0.001819805,0.006468436,0.01250838,-0.009634439
0.04806485,0.6664588,0.7576014,-0.004080782,0.0006788695,-0.002687474,0.002804651,0.01069869,-0.009413694
0.05106757,0.6675845,0.7613609,-0.001088895,0.001776986,0.001108685,-0.000146774,0.01084997,-0.01155478
0.05424347,0.6680131,0.7639425,0.00207646,0.002178381,0.003724894,0.001096873,0.01024315,-0.01365082
0.05151227,0.6701722,0.7637917,-0.000664965,0.004310787,0.003606688,-0.0009299687,0.009819684,-0.01138648
0.05070455,0.6693173,0.7666191,-0.001482614,0.003429352,0.006464578,-0.00168997,0.01010014,-0.008115304
0.05218289,0.66678,0.7649177,-1.38677e-05,0.0008656346,0.004791292,-0.001096757,0.01026164,-0.01343759
0.05305778,0.664654,0.7624511,0.0008517945,-0.001286537,0.002350194,-0.001798588,0.01093076,-0.01658415
0.05448549,0.6631221,0.7628064,0.002270616,-0.002844565,0.002728513,-0.001835009,0.007685913,-0.01434812
0.05356125,0.6635626,0.7598387,0.001337767,-0.002429808,-0.0002187821,0.0006663173,0.004605534,-0.01458775
0.05204864,0.6624822,0.7594733,-0.0001832398,-0.003535472,-0.0005662683,0.005242642,0.007725895,-0.01533615
0.05288591,0.6604005,0.7603461,0.000645794,-0.005641714,0.0003221044,0.006795911,0.01012725,-0.01517863
0.05341847,0.6618769,0.7613788,0.001170275,-0.00418893,0.001367989,0.005880818,0.009118157,-0.01256446
0.05425177,0.6633373,0.7654185,0.00199561,-0.002751011,0.005418757,0.007152362,0.009227196,-0.008063
0.05533528,0.6623475,0.7652946,0.003071216,-0.003761864,0.005303623,0.008807409,0.009431664,-0.005620821
0.05138546,0.6632688,0.7632666,-0.0008865551,-0.002860143,0.003282072,0.007583681,0.00651326,-0.007209147
0.04664027,0.6642952,0.7616184,-0.005639718,-0.001851878,0.001638013,0.00623474,0.003285714,-0.01135948
0.04916503,0.6628327,0.7594854,-0.003122807,-0.00333068,-0.0004932822,0.007595702,0.001560185,-0.01310033
0.05342279,0.6623144,0.7591659,0.001127406,-0.003863694,-0.0008133256,0.008981606,-0.0005088442,-0.01193827
0.0557045,0.663605,0.759242,0.00340192,-0.002585976,-0.0007398508,0.008131371,-0.0009849575,-0.01214312
0.05817558,0.6651745,0.7603664,0.005866041,-0.001027466,0.0003801441,0.003698859,0.0005217611,-0.01490912
0.05852436,0.6657609,0.7598556,0.00620789,-0.0004503035,-0.0001368326,0.0003104782,0.003721008,-0.01636883
0.05718281,0.6662114,0.7600275,0.004859153,-7.136889e-06,2.740314e-05,0.002316397,0.007494054,-0.01747514
0.05296065,0.6680134,0.7621729,0.000629341,0.001789154,0.00216373,0.001866181,0.006111135,-0.01898126
0.04687495,0.6693723,0.7612348,-0.005464546,0.003143895,0.001215098,0.0001944701,0.001981683,-0.0159579
0.04607357,0.6695761,0.7634188,-0.006274471,0.003344802,0.003387311,0.001397292,0.0009376551,-0.01151933
0.04645054,0.6691164,0.7659108,-0.005906094,0.002883362,0.005866121,0.0004407442,0.0006765069,-0.007839404
0.04573153,0.6670365,0.7644401,-0.006633406,0.0008025095,0.004380871,0.003284196,-0.0007712762,-0.007415085
0.05008969,0.6633105,0.7660958,-0.002282971,-0.002923727,0.006020468,0.009158129,-0.002454838,-0.009676604
0.0545225,0.660408,0.7671117,0.002142892,-0.005825798,0.007018633,0.01087158,-0.002744242,-0.005612257
0.05443038,0.6598172,0.7646246,0.002044579,-0.00641525,0.00451197,0.01549201,-0.001443854,-0.002768204
0.0530947,0.6590898,0.7630021,0.0007033559,-0.007140141,0.002868004,0.02282671,5.631196e-05,-0.002915371
0.05253554,0.6588234,0.7630051,0.000139206,-0.007402749,0.002847602,0.02794613,0.001974514,-0.0004759383
0.05395702,0.6613475,0.7615226,0.001556182,-0.004873157,0.001339968,0.03193069,0.001700617,-0.002175538
0.05546946,0.6636846,0.7566834,0.003064526,-0.002528886,-0.003526241,0.0330366,0.000421594,-0.003606914
0.05571899,0.6658317,0.7528766,0.003310232,-0.0003726965,-0.007361402,0.03152005,0.0009860007,-0.002972788
0.05580208,0.6708243,0.7536808,0.003389602,0.004630654,-0.006586669,0.02818369,-0.001751004,-0.003940055
0.05627915,0.6766401,0.7558868,0.003862894,0.01045868,-0.004410653,0.02271979,-0.003108043,-0.005724597
0.05714291,0.6796901,0.7548241,0.004722644,0.01352186,-0.00550347,0.01762142,0.0007168705,-0.007740896
0.05618746,0.6784662,0.7551243,0.003762753,0.01231131,-0.005233124,0.013028,0.0007208434,-0.007741458
0.05494404,0.6764558,0.7598448,0.002514316,0.01031391,-0.0005420129,0.005845529,-0.000625138,-0.0129176
0.05534559,0.677649,0.7619318,0.002910136,0.01151895,0.001516324,-0.0002838574,2.277902e-05,-0.01641177
0.05392083,0.6779532,0.7593221,0.001478885,0.01183354,-0.001121217,-0.0006245282,-0.00193431,-0.01119239
0.05273544,0.6736047,0.7546739,0.0002861917,0.007493218,-0.005796461,-0.0007378323,-0.002292936,-0.01165836
0.05626883,0.6671746,0.7551231,0.003811484,0.001069038,-0.005373371,0.0004558686,0.001974242,-0.01162354
0.05927881,0.6629578,0.761613,0.006812517,-0.003144366,0.00109162,0.006630325,0.003691641,-0.008609978
0.05583458,0.6640069,0.7628157,0.003358342,-0.002094155,0.002270792,0.01072952,0.002080719,-0.008988885
0.05267064,0.6659291,0.7603641,0.0001833352,-0.0001727643,-0.0002031359,0.01280192,0.00238616,-0.003169018
0.05533978,0.6651203,0.7578896,0.002840265,-0.0009842612,-0.002698837,0.01413516,0.002068699,0.001704394
0.05642826,0.6668339,0.7527976,0.003915411,0.0007250201,-0.007810823,0.01306497,0.001973965,0.001692099
0.05478646,0.6695214,0.7543089,0.002259124,0.003406661,-0.006317984,0.01112467,0.00377004,0.002688735
0.05479738,0.6718644,0.7598548,0.002254367,0.005742301,-0.0007888581,0.004509212,0.003149999,-4.656617e-06
0.05424868,0.676471,0.7571215,0.001688823,0.01034003,-0.003537188,-0.001868393,0.003991811,-0.003835261
0.05467662,0.6749306,0.7531347,0.002098756,0.008788762,-0.007537048,-0.001853707,0.008316689,-0.008000556
0.05625323,0.6714839,0.7496124,0.003656225,0.005329117,-0.0110703,-0.005595423,0.01211588,-0.009659103
0.05529619,0.6737061,0.7445943,0.00267892,0.007536013,-0.01609693,-0.01237698,0.01328548,-0.007525857
0.0543727,0.6715939,0.749252,0.001734019,0.005406008,-0.01144478,-0.0122559,0.01179445,-0.01074653
0.05386946,0.6685756,0.7566035,0.001208242,0.002367372,-0.004095452,-0.01156272,0.01206531,-0.01312598
0.05191069,0.6683575,0.7571805,-0.0007741084,0.002126376,-0.003517123,-0.01172514,0.01058025,-0.01138039
0.05033789,0.66657,0.7613241,-0.002371401,0.0003136421,0.0006314742,-0.00597798,0.005060697,-0.01102036
0.05042155,0.6657882,0.7674383,-0.002312943,-0.0004955923,0.006753835,-0.001876609,0.002434876,-0.007771238
0.05232074,0.6625539,0.7652865,-0.0004394414,-0.003759256,0.004613115,0.003079977,0.002994908,-0.002455789
0.05439583,0.6618603,0.7601616,0.001609628,-0.004483862,-0.0004981992,0.01231208,0.006755907,5.508909e-05
0.05567164,0.6649584,0.7597918,0.002859173,-0.001418108,-0.0008524535,0.01056656,0.007578176,-0.0001611596
0.05492029,0.6635725,0.7617057,0.00208128,-0.002837163,0.001078968,0.007015326,0.002581134,0.0008100599
0.05153793,0.6655717,0.7644432,-0.00132788,-0.0008718952,0.003835649,0.01040184,0.002882868,0.002439617
0.05075752,0.6687153,0.7642862,-0.002135287,0.002237488,0.003699176,0.007032744,0.002994368,0.002204373
0.05271364,0.6693113,0.7594853,-0.0002062209,0.002798858,-0.001080057,0.004585974,-0.0008434496,0.003502559
0.05563926,0.6731566,0.7579133,0.002692409,0.006609164,-0.002629512,0.006442287,-0.001508571,0.00373273
0.05974624,0.6734883,0.7550054,0.006772452,0.006905432,-0.005514029,0.005258112,-0.002698945,0.0009085118
0.05896095,0.6727015,0.7484896,0.005960126,0.006082478,-0.0120055,0.00741601,-0.001469844,-0.004314536
0.0570963,0.6725249,0.7467899,0.004068131,0.005868974,-0.01367959,0.008096481,0.002895267,-0.01110327
0.05818103,0.668595,0.7461248,0.005125043,0.001901131,-0.01431734,0.00291573,0.004829042,-0.01097371
0.05372323,0.6681447,0.7468399,0.0006388353,0.001411906,-0.01357267,0.0006846546,0.002982018,-0.008632297
0.04842636,0.6688347,0.7505905,-0.004687021,0.002062021,-0.00978984,0.001697612,-0.001511381,-0.01117398
0.04888242,0.6691657,0.7524013,-0.00426033,0.002352345,-0.007943789,0.002200812,0.0006013666,-0.0102812
0.04894291,0.6715116,0.7561365,-0.004229283,0.004656689,-0.004170135,0.00215488,0.004681782,-0.00789424
0.04854439,0.6691658,0.7605106,-0.004657018,0.002268635,0.0002454906,0.002680997,0.004395521,-0.004615994
0.05108946,0.6668471,0.7615791,-0.002140656,-9.316453e-05,0.001358377,0.004039515,0.005120431,0.00568516
0.05490509,0.6687965,0.7619308,0.001646973,0.001812514,0.001757001,0.005865699,0.003106202,0.01033343
0.05710209,0.6700059,0.7574525,0.003816708,0.002977544,-0.002672188,0.00810546,0.00405547,0.004161549
0.05634886,0.6710937,0.7518995,0.003036864,0.004020511,-0.008174072,0.006995623,0.008913447,0.0007097517
0.05499185,0.6706841,0.7539822,0.001653761,0.003565538,-0.00603843,0.004319741,0.00786572,0.001999722
0.05568603,0.6673553,0.7553414,0.00232227,0.0001907947,-0.004624242,0.005559082,0.006069361,0.002290278
0.05750096,0.6638575,0.7538338,0.004111872,-0.003353395,-0.006075033,0.006288418,0.004988804,-1.051816e-05
0.0605112,0.6613687,0.756984,0.007096986,-0.005888738,-0.002866006,0.006682127,0.003824568,-0.004196818
0.06286702,0.6621631,0.7595338,0.009427646,-0.005140876,-0.0002556193,0.009478848,0.003089052,-0.008267174
0.05785103,0.6685052,0.758701,0.004386166,0.001155281,-0.001026211,0.009336666,0.0005876756,-0.008174793
0.05057189,0.6753544,0.7606762,-0.00291901,0.007959092,0.001012652,0.008603929,-0.0005636092,-0.004979286
0.05065241,0.6747109,0.7627392,-0.002865021,0.007270757,0.00314032,0.009218573,-0.001333431,-0.00608442
0.05174943,0.6714936,0.7582668,-0.001794827,0.004008928,-0.001266606,0.006342991,-0.0009706463,-0.007318868
0.04928734,0.6715768,0.7534752,-0.004283813,0.004047663,-0.005992227,0.003329929,0.00169825,-0.005162369
0.04859087,0.6690566,0.7556472,-0.005006982,0.001482956,-0.003753724,0.002729837,0.002278919,-0.003035545
0.051944,0.6681988,0.7582416,-0.001680116,0.0005806461,-0.001092437,0.0006678862,0.001742935,0.0005502146
0.05743037,0.6708219,0.759927,0.003780619,0.003159287,0.0006602041,-0.00233464,0.001735412,-0.0004584378
0.05980904,0.668926,0.7638617,0.006134237,0.001218893,0.004662234,-0.002836855,0.0017657,-0.003161753
0.05910755,0.6695319,0.7611615,0.005408117,0.001780435,0.002029326,-0.001008038,0.002108665,0.0008185105
0.06056569,0.673068,0.7513635,0.006841764,0.005272173,-0.007701829,0.0009296634,0.003341927,0.002499888
0.06168959,0.673585,0.7456145,0.007941053,0.005744867,-0.01338449,0.003064245,0.004965632,0.001207399
0.05942639,0.6735733,0.7486985,0.005652842,0.005688725,-0.01023411,0.005250998,0.004333958,-0.0002399905
0.05659832,0.6696153,0.7541013,0.00279913,0.001685955,-0.00476474,0.005740386,0.002764063,-0.004882252
0.05493085,0.6665315,0.7521878,0.001105279,-0.001442894,-0.006611171,0.005629702,0.00228817,-0.007116719
0.05506723,0.6678284,0.7515061,0.001214552,-0.0001912368,-0.007225166,0.005644537,0.001886929,-0.006258114
0.05519938,0.6684455,0.754531,0.001318921,0.0003806509,-0.004131905,0.003903404,0.002231838,-0.004911183
0.0536656,0.6707282,0.7518522,-0.0002432378,0.002618176,-0.006741586,0.00214524,0.003002887,-0.002675471
0.05407338,0.6715107,0.7531942,0.0001356363,0.003355517,-0.005329691,0.002293614,0.004483729,-0.001647088
0.05562158,0.6703688,0.7574683,0.00165453,0.002168639,-0.0009847545,0.002060819,0.008458003,-0.00104184
0.05543719,0.6709873,0.7582129,0.001440484,0.002742247,-0.0001686955,0.001857218,0.01046631,-0.001047757
0.05569841,0.6712028,0.7598242,0.001671745,0.002912868,0.001514737,0.003223015,0.006587964,-0.00302711
0.05559725,0.6727506,0.759141,0.001540328,0.004415868,0.0009038214,0.0033421,0.002047134,-0.004566676
0.05531572,0.6749108,0.7605455,0.001228288,0.006531212,0.002380658,-5.539031e-05,0.001475704,-0.004809244
0.05584696,0.6741901,0.7601501,0.001728781,0.005765433,0.002057332,-0.00390694,0.002455409,-0.006037116
0.05555588,0.6713185,0.7546454,0.00140674,0.00284832,-0.003375896,-0.003788395,0.002888487,-0.007472149
0.05625555,0.6700757,0.7522662,0.002075256,0.001559649,-0.005684226,-0.002938873,0.003495977,-0.005779988
0.05668004,0.6711096,0.7498559,0.00246841,0.002547362,-0.008024175,-0.005467993,0.003350615,-0.003281114
0.05622341,0.6709037,0.7557173,0.001980247,0.002294867,-0.002092949,-0.006385369,0.002795802,-0.001805128
0.05798081,0.6706586,0.7640589,0.00370589,0.002002837,0.006318076,-0.003990115,0.003152164,-0.001246113
0.0589626,0.6709802,0.7600146,0.004655649,0.002277163,0.002342618,-0.002356889,0.003514413,-0.004831408
0.05810026,0.6707446,0.7586966,0.00376092,0.001994134,0.001092594,-0.002498013,0.004771245,-0.00855459
0.05822475,0.6706991,0.7596426,0.00385255,0.00190102,0.002105458,-0.003118228,0.006247399,-0.008762707
0.05835218,0.6701036,0.7578984,0.003946579,0.00125772,0.0004266961,-0.001915272,0.005518128,-0.008852963
0.0573383,0.669699,0.7604491,0.002898703,0.0008051649,0.00304144,-0.001075265,0.004058021,-0.007466245
0.05681251,0.6690666,0.7602448,0.002338275,0.0001248652,0.00289944,-0.001542505,0.002309502,-0.004489447
0.05784849,0.6668816,0.7587945,0.003338964,-0.002107921,0.001509658,0.0005582781,0.0005069456,-0.00387338
0.0587066,0.6659242,0.7597869,0.004161127,-0.003112868,0.002560544,0.002722369,0.0008285388,-0.006523935
0.05837281,0.6671732,0.7562985,0.003790704,-0.001910849,-0.0008714573,0.004114317,0.000843605,-0.008971139
0.05813217,0.6677377,0.7515081,0.003512675,-0.001392626,-0.00560752,0.005639972,-0.0001038319,-0.00828847
0.0584538,0.6681155,0.75171,0.003796141,-0.001060193,-0.005353209,0.004563178,0.00281801,-0.007719427
0.05801273,0.6695271,0.7530188,0.00331609,0.0003070224,-0.003993807,0.003401105,0.006336803,-0.008756703
0.05641156,0.6703602,0.7519259,0.001675138,0.001096784,-0.005037438,0.00213307,0.004919777,-0.01013735
0.05514135,0.671134,0.7530985,0.0003643785,0.001828316,-0.003816954,-0.001188857,0.003182821,-0.01124328
0.0552893,0.6710448,0.7576008,0.0004711063,0.001697964,0.0007320615,-0.0044823,0.003687125,-0.00803497
0.05575034,0.6703967,0.7607265,0.0008903898,0.001009576,0.003903456,-0.005490621,0.003803646,-0.002167182
0.05456146,0.6713267,0.7618798,-0.0003406477,0.001900412,0.005101249,-0.003856164,0.004616814,-0.0003727527
0.05370261,0.6717012,0.7609378,-0.001241936,0.00223652,0.004202182,-0.005919841,0.006608204,-0.000445698
0.05471324,0.6715538,0.7590901,-0.0002738484,0.002051685,0.002395794,-0.009538916,0.007024632,0.0005730838
0.05595944,0.6690806,0.7571833,0.0009298567,-0.0004581295,0.000528354,-0.008310743,0.006722285,0.0001068712
0.05704029,0.6656485,0.7535598,0.001968339,-0.003926122,-0.003057584,-0.006877798,0.009043785,-0.0010375
0.05548842,0.6691038,0.7529534,0.0003742921,-0.000505701,-0.003628277,-0.005148943,0.01061221,-0.002005401
0.05345396,0.6720874,0.752976,-0.00170209,0.002444083,-0.003571648,-0.005411317,0.006280267,-0.003524752
0.05601965,0.6677401,0.7519586,0.0008220266,-0.00193606,-0.004556385,-0.008332591,0.0005398144,-0.004704973
0.05778517,0.6655561,0.7583172,0.002546407,-0.004151771,0.001833687,-0.005391357,3.176638e-05,-0.005756839
0.05579859,0.6683734,0.7615767,0.0005191533,-0.001364925,0.00512343,0.0004181597,0.002223634,-0.006340432
0.05505747,0.6716896,0.7560044,-0.0002621582,0.001922013,-0.0004198915,0.0031899,0.003611308,-0.00584018
0.05484346,0.6745753,0.7545436,-0.0005158224,0.004779786,-0.001853144,0.001658852,0.005461947,-0.004213631
0.05098766,0.6755967,0.7559064,-0.004410637,0.005774478,-0.0004640218,-0.0005062072,0.005523795,-0.0028081
0.04621355,0.6735589,0.7556224,-0.009222907,0.003710728,-0.0007230086,-0.002282068,0.004612835,-0.002719353
0.04720228,0.6710986,0.7558173,-0.008271105,0.001225043,-0.0005043056,-0.007138197,0.00721265,-0.0004563674
0.05175204,0.6696551,0.7573025,-0.003756646,-0.0002431724,0.001003616,-0.005262799,0.008478815,0.002092593
0.05419546,0.6689698,0.7590154,-0.001346623,-0.0009527345,0.00273809,-0.001399205,0.005806253,-0.001091217
0.05655546,0.6692538,0.7587815,0.0009819916,-0.0006923291,0.002524503,-0.005290977,0.003360205,-0.004762217
0.05908487,0.6678156,0.7597316,0.00348196,-0.002153593,0.003493702,-0.005886733,0.00189152,-0.003135593
0.05877276,0.6660137,0.7619394,0.003142217,-0.003977775,0.005719114,-0.005088968,0.001128584,-0.002203221
0.05759949,0.6681008,0.7612715,0.001942898,-0.001911985,0.00506723,-0.004731694,-0.0003752971,-0.004217712
0.0575478,0.6713695,0.7605885,0.001866577,0.001336348,0.004398437,-0.001742231,-0.002010982,-0.005320269
0.05677148,0.6728421,0.7614567,0.001066903,0.002789544,0.005278863,-0.0009867423,-0.001956643,-0.006623567
0.05506687,0.6726093,0.7596829,-0.0006598673,0.002538275,0.00351524,0.0007484988,-0.001942017,-0.005899475
0.05295888,0.6726624,0.7537322,-0.002788863,0.002573674,-0.002427493,0.0009951249,-0.000912725,-0.002789637
0.0504692,0.6741118,0.7489719,-0.005298328,0.004006005,-0.007181762,0.0009184578,-0.000456938,-0.003358951
0.05097481,0.6738112,0.7540075,-0.004811108,0.003688739,-0.002141903,0.004854274,-0.00354733,-0.003920754
0.05227479,0.6731371,0.7620899,-0.003527961,0.002998337,0.005943307,0.003937235,-0.004526088,-0.001757709
0.05100615,0.6739545,0.7589316,-0.004811703,0.003799484,0.002786449,0.0009782575,-0.002221261,-0.001608319
0.05224689,0.6735587,0.754011,-0.003584202,0.00338733,-0.002134111,0.0004907691,0.0003016212,-0.00120983
0.05387315,0.6734294,0.7555377,-0.001969227,0.003241633,-0.0006088881,-0.0005056846,0.004129668,0.001958766
0.05411902,0.6738705,0.7543243,-0.001732637,0.003666002,-0.001824888,-0.0001598832,0.004243814,0.004467172
0.05623964,0.6734203,0.7536645,0.000380669,0.003198682,-0.002488342,0.0003513436,0.002351476,0.005131894
0.05585288,0.6733041,0.7564099,-1.151847e-05,0.003064913,0.0002525052,0.0004280476,0.005828914,0.005620835
0.05492551,0.671728,0.7568172,-0.0009425445,0.001470684,0.0006545007,0.0002667522,0.006335177,0.004503112
0.05601336,0.6694235,0.7570909,0.000143321,-0.0008524846,0.000922223,-0.0003160041,0.00311651,0.00028081
0.05543169,0.6701688,0.7589639,-0.0004387659,-0.0001263849,0.002788476,-0.001666014,0.001179715,-0.002716792
0.05560015,0.6722359,0.7602469,-0.0002692466,0.001921001,0.004064103,-0.002907152,-0.003769685,-0.001138833
0.05650345,0.6720596,0.7598007,0.0006364862,0.001724673,0.003609768,-0.0003895943,-0.003410223,0.0007228768
0.0555902,0.6693294,0.7585328,-0.0002730651,-0.00102583,0.002332737,0.001205673,0.002733151,0.0008170506
0.05280803,0.6674056,0.7554729,-0.00305037,-0.002970328,-0.0007371746,0.002382125,0.001582287,0.00279696
0.05061559,0.669117,0.7518944,-0.005236763,-0.001279657,-0.004326681,0.008751434,-0.003071918,0.003996479
0.05327577,0.6719898,0.7548617,-0.002569298,0.001572324,-0.001370981,0.01258562,-0.004707345,0.002772765
0.05661164,0.6726406,0.7589056,0.0007751691,0.002202388,0.002660805,0.01073603,-0.005487234,0.002912248
0.05729641,0.6713999,0.7566635,0.001469772,0.0009410914,0.0004061409,0.00911537,-0.006175765,0.001762579
0.05869423,0.6686141,0.7559894,0.00287851,-0.001865354,-0.0002809646,0.008398834,-0.005930767,-0.001656023
0.05840653,0.6656055,0.7569208,0.002602592,-0.004894439,0.0006370411,0.006243018,-0.005020512,-0.003594934
0.05597555,0.6664152,0.7547116,0.0001840611,-0.004104907,-0.001585871,0.00276253,-0.002204589,-0.002592646
0.0552769,0.6692942,0.7533296,-0.0005016487,-0.001245449,-0.00298179,0.0002933629,0.001240116,0.0003196377
0.0550899,0.672345,0.7492019,-0.0006752763,0.001786404,-0.007123377,-0.0006835076,-0.0004495148,0.00174821
0.05334429,0.6761852,0.7453244,-0.002407124,0.005608381,-0.01101461,-0.0008736795,-0.002166212,0.002404958
0.04963401,0.6746769,0.754508,-0.006103209,0.004082397,-0.001843962,-0.0002113947,0.001737137,0.006128025
0.04808269,0.6710992,0.7630661,-0.007639747,0.000487324,0.006702124,0.0007495463,0.003114157,0.01085467
0.05334884,0.6724007,0.7561976,-0.002358032,0.001771605,-0.0001775778,0.0001186224,-0.001341851,0.009850188
0.06011142,0.670883,0.7512,0.004421022,0.0002368435,-0.0051856,-0.001048761,-0.004165097,0.005423287
0.06168108,0.6663768,0.7546553,0.006007902,-0.00428617,-0.001739942,-0.0001669997,-0.0001336649,0.004774643
0.05753886,0.6646649,0.7521192,0.001883367,-0.006014534,-0.004284792,4.855343e-05,0.004279902,0.003990277
0.05381736,0.6654845,0.7483913,-0.001820245,-0.005210872,-0.008020285,-0.0008184113,0.002448013,0.0005810379
0.05580689,0.6694978,0.7524157,0.0001872717,-0.001212569,-0.004002278,-0.0002912356,0.0005536839,-0.002146418
0.05725409,0.6718166,0.756188,0.001652518,0.001092036,-0.000234814,0.001622623,0.0007974641,-0.001691167
0.05628343,0.6708096,0.7610387,0.0006998751,7.192173e-05,0.004612626,0.005362628,-0.0002938544,0.0004508752
0.05642638,0.6704626,0.7667532,0.0008607065,-0.000287222,0.01032506,0.008371901,-0.001328787,-0.001339562
0.05526703,0.6700971,0.761568,-0.0002809608,-0.0006640932,0.005138671,0.007988153,-0.002831184,-0.001554732
0.05533008,0.6702564,0.7552842,-0.0002004891,-0.0005152043,-0.00114585,0.005148319,-0.002647974,-0.0005658647
0.05704391,0.6712208,0.7583916,0.001530472,0.000439633,0.001961142,0.002862664,-0.0005607669,-0.003300097
0.05631861,0.6730449,0.7572004,0.0008219657,0.002255041,0.0007697637,0.001432148,-0.001170746,-0.001753417
0.05436509,0.6749906,0.7510474,-0.001115172,0.004192732,-0.005383307,-0.002728993,-0.0006371385,5.521183e-05
0.05256308,0.6741844,0.7517777,-0.002901201,0.003378988,-0.004652658,-0.005662586,-3.949612e-05,-5.850177e-05
0.05489325,0.6696679,0.7562421,-0.000555387,-0.001144587,-0.0001875098,-0.004662962,-0.002125246,0.001490804
0.05866821,0.6648257,0.759404,0.003234908,-0.005993601,0.002975561,-0.004027958,-0.001315041,0.001296572
0.05661294,0.6668652,0.7593069,0.001194599,-0.003960439,0.002880263,-0.004156013,-8.49511e-05,0.001959725
0.05528319,0.6717545,0.7580165,-0.0001206457,0.0009230941,0.001591875,-0.003691151,-0.0002787241,-0.003164323
0.05611325,0.6733313,0.7605049,0.0007234015,0.002494877,0.004082404,-0.001243174,0.000397008,-0.009880802
0.0550363,0.673993,0.7602187,-0.0003401014,0.003152177,0.00379825,0.000436904,0.000734752,-0.003140029
0.05533965,0.6714541,0.7586516,-2.383635e-05,0.000609259,0.002233025,-0.0004405763,0.001100881,0.00398416
0.05402267,0.6689554,0.7605879,-0.001328431,-0.001893027,0.004170799,-0.0001746604,0.001187899,0.003447032
0.05179797,0.6705158,0.7594728,-0.003541212,-0.0003360014,0.003056692,0.001363868,0.001396645,0.004755338
0.05292576,0.6737594,0.7581226,-0.002401855,0.002904635,0.001706764,0.002908829,0.0002823557,0.006896815
0.05305906,0.677806,0.7537715,-0.002257217,0.006948547,-0.002644742,0.00257264,-0.002434637,0.005429356
0.05246795,0.6768676,0.7456929,-0.002837093,0.006007344,-0.01072432,0.0005441474,-0.002797751,0.003504103
0.05330115,0.6741919,0.7469506,-0.001992667,0.003328721,-0.009467867,-0.003054292,-0.002413218,0.004403925
0.05453853,0.6753445,0.7522839,-0.0007439733,0.004477748,-0.004135505,-0.008224154,-0.002581228,0.005167366
0.05605542,0.6738511,0.7541126,0.0007843242,0.002980159,-0.002307306,-0.007695376,-0.002420241,0.004311593
0.05618169,0.6718985,0.7546368,0.0009220829,0.001022659,-0.001782813,-0.004587895,-0.00112006,0.0003984281
0.05688904,0.6713275,0.752931,0.001640927,0.0004458714,-0.003487629,-0.005711542,0.001602148,-0.005517587
0.05910146,0.6691551,0.7527187,0.003864718,-0.001733182,-0.003697975,-0.004833923,0.001784763,-0.005931562
0.05808653,0.6685847,0.7548512,0.002860901,-0.002310777,-0.001562541,-0.003034841,0.0007106949,-0.004236892
0.05501061,0.6686316,0.7559657,-0.0002043299,-0.002271622,-0.0004441502,-0.002799471,0.0004922911,-0.003644394
0.0537526,0.6689096,0.7557912,-0.001452125,-0.002001722,-0.0006138178,-0.0003366075,-0.0005861989,0.001483872
0.05421686,0.6699095,0.7546582,-0.0009781098,-0.001010061,-0.001740954,-0.0003989909,0.0002790018,0.004264488
0.05627999,0.6700687,0.752811,0.001094373,-0.0008592551,-0.003581419,-0.002140019,0.002023509,0.001006112
0.05752018,0.6711581,0.7496704,0.002343505,0.0002217266,-0.006714194,-0.001264163,0.001013593,-0.0003262027
0.05684526,0.6733775,0.7482248,0.001677044,0.002432873,-0.008150945,-0.002498272,-0.0004662623,-0.000667349
0.05685532,0.6757392,0.7490694,0.001695001,0.004786199,-0.007295938,-0.003438023,-0.000258338,-0.001002634
0.05720049,0.6744619,0.7483669,0.002047428,0.003500302,-0.007986369,-0.003479162,0.003691343,-7.215149e-05
0.05779977,0.6715907,0.7484686,0.002653266,0.0006202639,-0.007870726,-0.005741281,0.008655574,1.073216e-05
0.0586446,0.6728317,0.7490132,0.003503848,0.001852087,-0.007310058,-0.005476371,0.006344024,0.000750645
0.05855737,0.6712069,0.748927,0.003421457,0.0002176033,-0.007377735,-0.00543699,0.001100875,0.0004515402
0.0590848,0.6673554,0.7523691,0.003952685,-0.0036439,-0.003914733,-0.006438985,-0.0006658185,-0.003252374
0.06006268,0.6677946,0.7553431,0.004933195,-0.003214978,-0.0009173276,-0.004266091,-0.003023034,-0.008412918
0.06002795,0.6681479,0.7545024,0.004899786,-0.00287196,-0.001732172,-0.003487162,-0.003217412,-0.01175678
0.06036305,0.6671345,0.7545297,0.005234719,-0.003895539,-0.001676756,-0.003658441,0.000632453,-0.009323717
0.06131762,0.6668421,0.7558638,0.006187503,-0.004197756,-0.000312346,-0.003107547,0.004143113,-0.006824912
0.05987064,0.6692577,0.7549583,0.004736929,-0.001791462,-0.001185723,-0.003902121,0.005937244,-0.007716575
0.05638103,0.6719817,0.7538861,0.001241823,0.0009239174,-0.00222406,-0.004090644,0.004982219,-0.006114779
0.05488376,0.6712044,0.7570437,-0.0002628463,0.0001387343,0.0009690069,-0.004846323,0.004627668,-0.004721263
0.05508726,0.6721248,0.759275,-6.855209e-05,0.001051806,0.003237112,-0.006986332,0.003604064,-0.003366787
0.05445442,0.6736437,0.757294,-0.0007122367,0.002563926,0.001294115,-0.008334362,5.455966e-06,-0.0002896709
0.05391402,0.6692789,0.7558612,-0.00126494,-0.001807063,-9.986917e-05,-0.008454772,0.0009591772,-0.00110445
0.05624573,0.6647679,0.7550806,0.001053171,-0.006323899,-0.0008410628,-0.007441222,0.003518692,-0.001765612
0.05914754,0.6670134,0.7560834,0.003940199,-0.004083542,0.0002015466,-0.006959498,0.003043034,-0.0004130945
0.05955468,0.6698841,0.7607043,0.004331388,-0.001217135,0.004862738,-0.007720701,0.002640592,0.000177154
0.05926487,0.6687091,0.7620026,0.004024389,-0.002395568,0.006201275,-0.009658085,0.001958749,0.00208729
0.05792339,0.6684116,0.7567727,0.002664422,-0.002695468,0.001011327,-0.01136709,0.0004048906,0.0002204155
0.05786714,0.6684622,0.7541222,0.002588358,-0.002646266,-0.001599682,-0.008949016,5.496816e-05,-0.003409559
0.0591113,0.6665289,0.7559844,0.003811373,-0.004579831,0.0003012927,-0.005364707,0.002151145,-0.003260127
0.05730477,0.6659129,0.7558807,0.001982361,-0.005194871,0.0002357025,-0.004516442,0.002685366,-0.005806102
0.05543393,0.6670833,0.7563663,8.773675e-05,-0.004022095,0.0007587448,-0.002494037,0.001429168,-0.009010963
0.0527413,0.6676192,0.7583082,-0.002629864,-0.003482339,0.002737191,-8.442382e-05,0.00136112,-0.008143382
0.05070501,0.6697011,0.7573332,-0.00469209,-0.001395041,0.001797809,-0.001515784,0.0008311881,-0.007822372
0.05204493,0.6735001,0.7520721,-0.00337878,0.002410896,-0.003428727,-0.004122912,0.002111461,-0.007467636
0.05128053,0.6716219,0.7470771,-0.004170124,0.0005410647,-0.008390095,-0.005262568,0.003359763,-0.002503049
0.05238852,0.6680956,0.7508572,-0.003089136,-0.002975712,-0.004577212,-0.004765125,0.002530178,0.002664837
0.05544052,0.6681582,0.7561313,-6.393903e-05,-0.002902273,0.0007292048,-0.004239962,0.002886386,0.001349234
0.05577863,0.6664408,0.754787,0.0002477094,-0.004607645,-0.0005833064,-0.007925444,0.0005462729,0.0003965987
0.05678065,0.6678877,0.755229,0.001223654,-0.003147446,-0.0001098887,-0.01153085,-0.001910366,0.003742541
0.05695899,0.6707497,0.7564142,0.001376319,-0.0002708861,0.001106147,-0.009166938,0.0009025425,0.00265228
0.05659211,0.667943,0.7549066,0.0009841513,-0.003061647,-0.0003712441,-0.007478412,0.003405222,-0.002133782
0.05536228,0.6665776,0.7562009,-0.0002705957,-0.004409894,0.0009526578,-0.008742177,0.0029704,-0.005328488
0.05324778,0.6671756,0.7587501,-0.002409616,-0.003793448,0.003530752,-0.007432326,0.002938085,-0.00684156
0.05410955,0.6681479,0.7607721,-0.001571855,-0.002801281,0.005580745,-0.005724158,0.004228077,-0.005565604
0.05339847,0.6702598,0.7613367,-0.002306322,-0.0006682405,0.006172214,-0.005593069,0.004441623,-0.004048221
0.05089271,0.6697347,0.7599327,-0.004834708,-0.001170817,0.004793759,-0.003783476,0.004049605,-0.003611994
0.0492953,0.6698478,0.7620891,-0.006453786,-0.001034003,0.006973972,-0.001628032,0.003546771,-0.001582006
0.04716008,0.6714852,0.7636151,-0.008609431,0.0006282372,0.008521982,-0.002295332,0.001418563,-0.0005720556
0.04702581,0.6708448,0.761901,-0.008762536,1.362506e-05,0.006827608,-0.004014033,-0.000200128,-0.00157032
0.04887901,0.6699691,0.7644516,-0.006926241,-0.0008355149,0.009395443,-0.003730376,-0.0006882977,-0.000847205
0.05154227,0.6684398,0.7689358,-0.004277644,-0.002337453,0.01389406,-0.002247907,-0.0005935455,0.0007831707
0.05364074,0.6663012,0.7694917,-0.002191437,-0.004448122,0.01446112,-0.001806764,-0.0005875877,0.001435418
0.05292276,0.6689272,0.7596041,-0.002919234,-0.001793406,0.004581016,-0.001573139,-0.001689967,0.00196459
0.05229056,0.6724435,0.7463236,-0.003558808,0.001752326,-0.008695749,-0.000714784,-0.002552764,0.003587562
0.05323215,0.6705429,0.7489066,-0.002622143,-0.0001182349,-0.006112678,0.001442155,-0.002617631,0.005810864
0.05391553,0.6692178,0.7549661,-0.00194125,-0.001412926,-5.612459e-05,0.005196244,-0.0007730566,0.004570877
0.0550801,0.6697168,0.7534285,-0.0007767944,-0.0008830704,-0.001599218,0.00637503,-0.0004436363,0.002612718
0.05615585,0.6685066,0.7567976,0.0003011244,-0.002062096,0.001761926,0.004896162,-0.004192857,0.005510296
0.05522011,0.6690957,0.7591812,-0.0006303296,-0.001441528,0.004135427,0.003839003,-0.00578977,0.006892211
0.05408648,0.6693944,0.7590554,-0.001757678,-0.001111182,0.003997438,0.002186819,-0.005027548,0.004454599
0.05244652,0.6680312,0.7610408,-0.003389472,-0.002442444,0.005968539,0.000475455,-0.005044864,0.003874038
0.05049458,0.6680498,0.7589963,-0.005331372,-0.002391663,0.003907396,-0.0004406454,-0.005630245,0.005093064
0.05232253,0.6651228,0.7594095,-0.003491484,-0.005286342,0.004301796,0.0004585038,-0.006374754,0.006288012
0.05629643,0.6621297,0.761075,0.0004962896,-0.008246643,0.005946314,0.003215279,-0.006047368,0.004928162
0.05923955,0.6644052,0.7604958,0.003455095,-0.005937856,0.005343683,0.00521115,-0.006680414,0.0005344052
0.05909327,0.6644862,0.7635559,0.003326075,-0.005822748,0.008378076,0.005703266,-0.007256008,-0.003034422
0.05696765,0.6629719,0.7625065,0.001218976,-0.007301965,0.007300511,0.004612374,-0.004957044,-0.003285946
0.05615969,0.6648171,0.7596715,0.0004305518,-0.005420595,0.004434741,0.003514276,-0.003466924,-0.002490236
0.05167474,0.6660418,0.760304,-0.00403401,-0.004158488,0.005033801,0.002636427,-0.005270947,-0.003623556
0.04708034,0.6687345,0.7601382,-0.008607179,-0.001427135,0.004831967,0.002083852,-0.007242864,-0.002711585
0.04887222,0.671649,0.7625852,-0.006793032,0.001527301,0.007240385,0.002946249,-0.005865114,0.0008226678
0.04919319,0.670536,0.762426,-0.006448554,0.0004553526,0.007039958,0.002223713,-0.003640069,0.004911653
0.0492933,0.6707753,0.7580159,-0.006323486,0.0007364028,0.002586069,0.001277787,-0.002801065,0.007783554
0.05320913,0.6711506,0.7556693,-0.002381113,0.001154209,0.0001930309,0.0009219906,-0.002554934,0.00136502
0.05681421,0.6704176,0.7553675,0.001252101,0.0004640479,-0.0001574696,-0.000852847,-0.003722142,-0.00412438
0.05938451,0.6708102,0.7556807,0.003851977,0.0008997094,0.0001049629,-0.002004294,-0.003604628,0.003978059
0.05828793,0.6689173,0.7492676,0.002786125,-0.0009501039,-0.006360558,-0.003192766,-0.00259977,0.009670264
0.05607452,0.6674149,0.7431347,0.0006042952,-0.002409413,-0.0125472,-0.003483972,-0.002880386,0.004997312
0.0573682,0.6679101,0.7480689,0.001930145,-0.001871236,-0.007667397,-0.003524506,-0.002742913,0.0003542736
0.05860784,0.6673007,0.7538611,0.003202328,-0.002437724,-0.001929455,-0.004452951,-0.003557049,-0.001158206
0.05829061,0.6663856,0.756541,0.002917775,-0.003310041,0.0006965711,-0.002305874,-0.004015182,-0.0008788198
0.05579715,0.6666017,0.7572173,0.0004569009,-0.003051243,0.001319716,0.0002447619,-0.003890167,0.0005963301
0.05235946,0.6679148,0.7562341,-0.002948451,-0.001695417,0.0002839333,0.004002915,-0.004693895,0.0003905492
0.05161368,0.6681927,0.7577367,-0.003662149,-0.001374757,0.001734792,0.009379725,-0.004597329,0.0011776
0.05302157,0.6685454,0.7588795,-0.002222371,-0.000979445,0.002826564,0.007668545,-0.005316603,0.005804912
0.05444061,0.670839,0.7593886,-0.0007715832,0.001356783,0.003285445,0.003006632,-0.005135487,0.005702176
0.05491239,0.6721475,0.7572304,-0.0002681702,0.002707591,0.001077646,0.00163056,-0.003031045,0.003563544
0.05584954,0.6691282,0.7486144,0.0007004458,-0.0002698202,-0.007587152,0.0006106615,-0.001372588,0.007342695
0.0558978,0.6647352,0.744778,0.0007799146,-0.004621381,-0.01147142,0.001098928,0.0007121409,0.008928883
0.05498845,0.6657211,0.7529391,-9.856579e-05,-0.003594611,-0.0033568,0.002011566,0.0001196817,0.007829123
0.05591147,0.6670594,0.7628334,0.0008548905,-0.002215749,0.006492757,0.002306815,-0.001202268,0.006488611
0.05559208,0.6664063,0.7630265,0.0005654332,-0.002828632,0.006642878,0.003627537,-0.0002312248,0.001648105
0.05520953,0.6699173,0.7560627,0.0002122398,0.0007222816,-0.0003624276,0.002521755,-0.0007944315,0.0002877946
0.05563163,0.6717148,0.7526977,0.0006630536,0.002559411,-0.003767681,0.001500208,-0.0006156732,0.004440352
0.05293155,0.6705784,0.7541212,-0.002008985,0.001462053,-0.002382925,0.00291542,-6.521182e-06,0.005307852
0.0496088,0.6708941,0.7559205,-0.005304356,0.001816263,-0.0006209093,0.001732368,-0.001432543,0.003548731
0.04811067,0.6707165,0.7568676,-0.00677559,0.001676329,0.0002905638,0.001863556,-0.002492969,0.005297307
0.05019596,0.6709644,0.7587492,-0.00466367,0.001961027,0.002138113,0.00500545,-0.002838369,0.005444051
0.05299052,0.6708211,0.7607161,-0.001842513,0.001853431,0.004072461,0.006372695,-0.001617787,0.004085927
0.05284544,0.6706705,0.7586156,-0.001960935,0.001737377,0.001940754,0.00599793,-0.001449584,0.006017093
0.05439113,0.6711081,0.7548996,-0.0003884931,0.002208229,-0.001805286,0.002552201,-0.002881957,0.004811891
0.05541574,0.6705772,0.7519454,0.0006629439,0.001709235,-0.004788211,-0.001264424,-0.002377691,0.003538579
0.05570941,0.6713111,0.7516549,0.0009834328,0.002473481,-0.005106123,-0.002544406,-0.002564761,0.001857718
0.05805005,0.6725006,0.753077,0.003350769,0.003691865,-0.00370996,-0.003873053,-0.001413834,-0.003219387
0.05727841,0.6730639,0.7512411,0.002605519,0.004282331,-0.005569975,-0.005011895,0.001191943,-0.001179518
0.05762824,0.6716957,0.7534931,0.002981241,0.002939488,-0.003340184,-0.005142744,-0.0003079036,0.0001256709
0.05947937,0.6679345,0.7574575,0.004857588,-0.0007982828,0.0006041125,-0.003444423,-0.002694105,-0.002497369
0.0567536,0.6662376,0.7550502,0.002156136,-0.002473619,-0.001821314,-0.0002938068,-0.003754048,-0.0008733494
0.05569384,0.6673514,0.7551305,0.001119642,-0.001340027,-0.001757123,0.002641563,-0.003079206,-0.001846903
0.05407237,0.6694515,0.7562391,-0.0004796913,0.0007781305,-0.0006626705,0.001908437,-0.0007376028,-0.002325673
0.05028449,0.6690129,0.7550312,-0.004246539,0.000356219,-0.001882786,-0.0008413711,0.0001485003,-0.001068868
0.05384938,0.667219,0.755783,-0.0006616278,-0.001422553,-0.001141264,0.001028126,0.0009326599,-0.001559215
0.0568267,0.6690242,0.7552306,0.002334832,0.0003964545,-0.001702168,0.0004078813,0.0019311,0.002409541
0.0523976,0.6718064,0.7535861,-0.002076021,0.003191089,-0.003353274,-0.004496522,0.002876837,0.006856529
0.05073172,0.6739824,0.7531685,-0.003724478,0.005378125,-0.003775632,-0.005485589,0.001873634,0.006141582
0.05425994,0.6724253,0.756135,-0.0001795672,0.003830623,-0.0008119799,-0.002243504,-0.003644423,0.001538557
0.05726959,0.6683416,0.7606519,0.002846122,-0.0002450759,0.003703934,0.003733685,-0.007671721,-0.00271929
0.05840745,0.6694128,0.7589624,0.003999322,0.0008324908,0.002015062,0.003881594,-0.005951685,-0.003205237
0.06066467,0.6700296,0.7550433,0.006271013,0.00145414,-0.001901993,0.0008730373,-0.001149707,-0.002818855
0.0606189,0.6689606,0.7536515,0.006238623,0.0003884883,-0.003290268,0.001771314,0.001216397,-0.001289083
0.05502823,0.6707669,0.7523716,0.0006600127,0.00219661,-0.0045654,-0.0007559596,1.555028e-05,-0.0001481552
0.05217403,0.6710213,0.7536573,-0.002183558,0.00245141,-0.003273525,-0.0001088801,-0.0003529436,-0.001614753
0.05354087,0.6705609,0.7558528,-0.0008074434,0.001989983,-0.00107033,0.003097474,-0.0003039445,-0.001166863
0.05342691,0.6698873,0.7553721,-0.0009133525,0.001313919,-0.001541906,0.001342072,-0.001350662,0.001140523
0.05176159,0.6680782,0.7544443,-0.002571704,-0.0004990266,-0.002459071,0.00184075,-0.003207568,0.006319785
0.0512473,0.6678778,0.7532731,-0.00307997,-0.0007045668,-0.003618345,0.0008467451,-0.003929865,0.01168277
0.05483096,0.6682312,0.7538636,0.0005089322,-0.0003575644,-0.003014442,-0.000158913,-0.003486037,0.007029586
0.05928913,0.6688344,0.7582469,0.004971659,0.0002381779,0.001383708,0.002992893,-0.003067498,-0.0007782773
0.06026269,0.6690181,0.7607827,0.00594898,0.0004134819,0.003935648,0.003307065,0.001249174,-0.002699024
0.05849463,0.6688389,0.7586999,0.004183708,0.0002250337,0.001869962,0.003591226,0.004948459,-0.0003359354
0.05586953,0.6704587,0.7562506,0.001560243,0.001834761,-0.0005612952,0.001609573,0.001463956,0.003909767
0.05519201,0.6710532,0.7551299,0.000883122,0.002418358,-0.001663336,-0.003765616,-0.004252342,0.0007757849
0.05558746,0.6688937,0.7537857,0.001277749,0.0002472222,-0.002988189,-0.002643046,-0.006423277,-0.004582207
0.05558063,0.6676954,0.753923,0.001268903,-0.0009635056,-0.002830959,0.0006439246,-0.004419239,-0.004175351
0.05475096,0.6698473,0.7561653,0.000436059,0.00117534,-0.0005679797,0.0004284529,-0.002950763,-0.004176269
0.05092599,0.6720697,0.7580957,-0.003393174,0.003384054,0.001383601,0.0008893378,-0.00276254,0.001774319
0.04736324,0.6725482,0.7597507,-0.006961089,0.003848166,0.003060348,0.001292786,-0.0001622503,0.007266687
0.04862635,0.6738187,0.7592903,-0.005703727,0.005103621,0.002622045,0.002481639,0.002659613,0.003122952
0.05254872,0.6741299,0.7577558,-0.001787362,0.005398802,0.001109698,0.005107564,0.002911055,0.00314184
0.05523818,0.6727515,0.7570825,0.0008960654,0.004003417,0.0004585708,0.003571516,0.002000741,0.004701203
0.05731888,0.6719342,0.7554138,0.002970756,0.003168081,-0.001188117,0.0001999475,0.000845173,0.003169601
0.0595734,0.6705214,0.758682,0.005219198,0.001735893,0.002101882,-0.001665753,-0.0008064668,0.003538602
0.06125569,0.6702881,0.7625045,0.006895169,0.001482143,0.005945777,-0.002071173,-0.0004964779,0.003072076
0.06144524,0.6718162,0.7571897,0.007077891,0.00298868,0.0006519231,0.001119668,0.001017561,0.003853104
0.05824892,0.6724132,0.753962,0.003873955,0.003562938,-0.002555425,0.001225494,-0.0005442833,0.005250415
0.05709988,0.6730214,0.7571949,0.002716317,0.004147278,0.0006971153,-0.0008182607,-0.005714464,0.005097911
0.05839018,0.6692646,0.7593582,0.003996934,0.0003654186,0.002879438,0.001622243,-0.01064614,0.004855173
0.05633514,0.6623902,0.7603885,0.001931071,-0.006535062,0.003927986,0.002901583,-0.00780636,0.00265249
0.05658714,0.6643078,0.761551,0.00217106,-0.004644394,0.00510784,0.005339679,-0.002412733,0.002591744
0.05769976,0.6696934,0.762737,0.003270484,0.0007138779,0.006310165,0.008388686,-0.003360213,0.006434602
0.05632136,0.6700265,0.7615249,0.001877687,0.001019309,0.005112965,0.005572697,-0.002988001,0.006843975
0.05700353,0.6708181,0.7575639,0.002544261,0.001783139,0.001165269,0.003766954,-0.001609574,0.00519783
0.05618882,0.6714046,0.7525331,0.001712771,0.002341772,-0.003853841,0.003905218,-0.001319244,0.006455959
0.05511182,0.6703703,0.7487488,0.0006178306,0.001279319,-0.00762791,0.00235231,0.001167913,0.005176868
0.05670584,0.6709102,0.7516546,0.002192813,0.00179104,-0.004713059,0.0008611849,-0.0004551305,0.001270142
0.05737093,0.6710484,0.7562676,0.002837829,0.001900836,-9.17902e-05,-0.001102272,1.246229e-05,-0.0004441177
0.0578874,0.6705598,0.7556562,0.003333178,0.001383672,-0.0006955557,-0.003580686,0.003275575,-0.002883163
0.05847166,0.6709847,0.7559448,0.003895246,0.001779867,-0.0003999096,-0.005761396,0.0005810618,-0.003929734
0.05792799,0.6703214,0.7596749,0.003328275,0.001087644,0.003336741,-0.004551146,0.0007896354,-0.001895458
0.05557105,0.6680121,0.7628208,0.0009469183,-0.001250605,0.006488565,-0.001668435,0.001268605,0.0004143925
0.0532581,0.6660066,0.7625737,-0.001391539,-0.003285104,0.006246488,-0.001401417,-0.001269271,0.003209568
0.05457075,0.6666111,0.7583087,-0.000105343,-0.002709371,0.001985508,0.001274668,-0.001077986,0.001887056
0.05732154,0.669071,0.7558339,0.002618193,-0.0002780011,-0.0004864112,0.004981917,-0.001644778,-0.0006386604
0.05886095,0.6697669,0.7577144,0.004129629,0.0003899961,0.001395784,0.005910281,-0.000127522,0.0006548695
0.05918324,0.669067,0.7608129,0.004423181,-0.0003373841,0.004494755,0.006900941,0.001077681,-0.0006838477
0.06055461,0.6676739,0.7634472,0.005764958,-0.001757281,0.007128322,0.003947244,0.0001991882,-0.002330561
0.06240666,0.6668872,0.7628639,0.007586453,-0.002570194,0.006542888,-0.0004045865,0.0006756828,-0.001509571
0.0572649,0.6710696,0.7617753,0.002413011,0.001586879,0.005450484,-0.0004862132,-0.001188907,-0.00222799
0.04983869,0.6753407,0.7625478,-0.005046041,0.005833343,0.006217352,-0.001985309,-0.0003949121,-0.00217014
0.05070751,0.6734897,0.7607566,-0.004211009,0.003958378,0.004418569,-0.003024145,0.0008956077,-0.002193597
0.05323514,0.67071,0.7588839,-0.001717787,0.001155165,0.002536194,-0.001498963,-0.00284486,-0.004073486
0.05447607,0.6696041,0.759799,-0.0005115898,2.60951e-05,0.003439482,-0.002599464,-0.005275744,-0.003713835
0.05894826,0.667257,0.7600001,0.003925708,-0.002343767,0.003626737,-0.002987366,-0.005431524,-0.00206455
0.05942485,0.6659605,0.7600214,0.00436727,-0.003662634,0.003632177,-0.0008167339,-0.004311079,-0.004094529
0.0562524,0.6674361,0.7629847,0.001159594,-0.002208824,0.006577562,0.001115462,-0.002867121,-0.004951258
0.05435656,0.6694237,0.7669492,-0.0007716848,-0.0002422095,0.01052193,0.002309001,-0.002190017,-0.001187891
0.05008854,0.6714695,0.7660286,-0.005075241,0.001783397,0.00957875,0.001810416,-0.001903948,-0.0001256497
0.04935432,0.6713301,0.7605182,-0.005844868,0.001624666,0.004043274,0.0007293712,-0.001467019,0.0016825
0.05150275,0.6700844,0.7572591,-0.003731362,0.0003602401,0.0007564325,-0.001247056,-0.0004764114,0.003553686
0.05091303,0.6711961,0.7568975,-0.004355228,0.001453924,0.0003644672,-0.002584657,-0.0009168727,0.0009167023
0.05604092,0.6709758,0.7567684,0.000739527,0.001216215,0.0002027427,-0.001621061,-0.0007814776,0.00510043
0.06059101,0.6702261,0.7580383,0.005257562,0.0004497003,0.001437915,-0.002844519,0.001418678,0.008563105
0.05776515,0.670536,0.758415,0.002400624,0.000743183,0.001777966,-0.003767829,0.002682416,0.004656868
0.05772904,0.6702165,0.7562811,0.00233429,0.0004078425,-0.000394317,-0.002977753,0.001528089,0.00273838
0.05803835,0.6727338,0.7551077,0.00261408,0.002909727,-0.001607689,-0.00350816,0.001270452,-0.002492591
0.05647096,0.6741654,0.7557361,0.00101779,0.004326239,-0.001020424,-0.002085652,0.001710789,-0.005498765
0.05785111,0.6705642,0.7577999,0.002369601,0.0007101728,0.001001186,-0.0007758673,-0.0006864989,-0.002822371
0.05866935,0.6682844,0.7597469,0.003160003,-0.001584277,0.002905152,-0.001016081,-0.0006277123,-0.0035613
0.05736211,0.6685404,0.7599745,0.00182532,-0.001342819,0.003089,0.0007390245,8.825825e-05,-0.00449486
0.05650039,0.6687279,0.7595337,0.0009365032,-0.001169573,0.002603684,0.002654221,-0.001308753,-0.005575744
0.05645696,0.670557,0.7583027,0.0008662732,0.0006456256,0.001327577,0.002162357,-0.0006497267,-0.006225543
0.05428913,0.6738909,0.7564098,-0.001328027,0.003966006,-0.0006111161,0.0005890959,-0.001071238,-0.005274021
0.05083391,0.6732976,0.7549293,-0.004809326,0.003359402,-0.00213774,0.001191172,0.0007969751,-0.003685289
0.05145833,0.6702468,0.7559104,-0.004210396,0.0002953827,-0.001203057,0.002043256,0.004251228,0.001089004
0.05477076,0.6707606,0.7587665,-0.000922649,0.0007960029,0.001606606,0.000733234,0.004213774,0.001906756
0.05688872,0.6711489,0.7597938,0.001171547,0.00117126,0.002587562,-0.002343004,0.004360452,-0.002514857
0.05654929,0.6702903,0.7582964,0.0008093139,0.0002995528,0.001043897,-0.00602358,0.002278303,-0.004016869
0.05496813,0.6702173,0.7558478,-0.000793741,0.000213467,-0.001450701,-0.005018353,0.0002636989,-0.002620348
0.05540445,0.6690658,0.7563262,-0.0003784095,-0.0009510867,-0.001018091,-0.003284129,0.001640195,0.001334484
0.05636309,0.6690837,0.7587728,0.0005601429,-0.0009461668,0.001383205,-0.005419648,0.003312694,0.005032374
0.05701845,0.6687779,0.7597954,0.001196305,-0.001264705,0.002360963,-0.005870364,0.005063052,0.002179165
0.05873217,0.6665654,0.7601969,0.002891663,-0.003489665,0.002718088,-0.005362968,0.003754935,-0.003555889
0.05731382,0.6667579,0.7573686,0.001455681,-0.003309357,-0.0001540271,-0.003747163,0.001145122,-0.007059482
0.05367625,0.6686319,0.7531524,-0.002198885,-0.001446906,-0.004413563,-0.001231435,0.0002079191,-0.00605987
0.05401375,0.669919,0.7525021,-0.00187773,-0.0001707254,-0.005106456,-0.001797485,0.0002490785,-0.002008751
0.05605266,0.6696913,0.7555977,0.0001455541,-0.0004085634,-0.002052459,-0.001442798,0.002087375,-0.002441374
0.05577053,0.6688149,0.7577083,-0.0001514407,-0.001294476,1.778416e-05,-0.0005338116,0.003064065,-0.001314822
0.05426352,0.6691474,0.7560841,-0.001672545,-0.0009708324,-0.00164558,-0.001341881,0.003509836,0.003500908
0.05406837,0.6696386,0.75865,-0.001881002,-0.0004876305,0.0008825779,-0.002224728,0.003338498,0.003483335
0.05543856,0.6717315,0.7598205,-0.0005232748,0.00159792,0.002016616,-0.005331265,0.002870683,0.002660492
0.05643514,0.6750855,0.7562233,0.000461726,0.004945302,-0.001615627,-0.007878052,0.004399816,-0.0004727531
0.05643368,0.6764716,0.7573866,0.000449536,0.006325094,-0.0004861702,-0.008353791,0.004688779,-0.00292304
0.05528497,0.6749931,0.7550171,-0.0007090916,0.004840572,-0.002888116,-0.008215628,0.00520269,-0.0003879822
0.05499632,0.6714904,0.7522339,-0.001006877,0.001331802,-0.005702291,-0.006167846,0.005174125,-0.001940013
0.05517355,0.6704043,0.7529757,-0.0008379825,0.0002393607,-0.00498983,-0.005739574,0.004175487,-0.003282703
0.05363546,0.6695981,0.7499739,-0.002383604,-0.0005733258,-0.008019022,-0.005888468,0.004975713,-0.003635992
0.0530842,0.66688,0.7510778,-0.002941536,-0.003298161,-0.006940479,-0.004775098,0.001870752,-0.004573569
0.05020947,0.6680763,0.7495447,-0.005821973,-0.002108694,-0.008496409,-0.005302491,-0.0009071887,-0.002509773
0.04561109,0.6692711,0.7460591,-0.01042489,-0.000920605,-0.0120021,-0.004988187,-0.0004056722,-0.003474544
0.04790895,0.6699878,0.7530535,-0.008130096,-0.0002104612,-0.005024704,-0.003784849,-0.0007437457,-0.003988812
0.05111181,0.6732764,0.7593956,-0.004928497,0.003071832,0.001303632,-0.002572178,0.001963848,-0.003681012
0.05050523,0.6716665,0.7603664,-0.005534307,0.001455725,0.002263831,-0.001216985,0.003047725,-0.004768201
0.05160321,0.6696109,0.7577289,-0.004433392,-0.0006060255,-0.0003812078,-0.002133381,0.001646021,-0.001420936
0.05236411,0.6710969,0.7544357,-0.003667311,0.0008738345,-0.003679142,-0.003334074,0.001529356,0.002434367
0.05367784,0.6688793,0.7540722,-0.002346113,-0.001349849,-0.004044847,-0.003073082,-0.002097463,0.004406118
0.05774597,0.6662822,0.7532165,0.001731715,-0.003953032,-0.004899975,-0.001860911,-0.005415517,0.001411668
0.05849807,0.6661779,0.7578093,0.00249557,-0.004063053,-0.0003040061,-0.0006552024,-0.005749069,-0.004946838
0.05760827,0.6651609,0.7632742,0.001619319,-0.005085405,0.005166588,0.0006131875,-0.005391917,-0.003985433
0.05779283,0.6642705,0.7602909,0.001818962,-0.005980497,0.002191357,0.002781558,-0.001679226,-0.002865036
0.05472282,0.6655955,0.7584214,-0.001234656,-0.004659348,0.0003318447,0.001385145,0.001844673,-0.006818841
0.05048487,0.6676575,0.760326,-0.005455042,-0.00260015,0.002248024,-0.001418947,0.00308955,-0.007961952
0.04757624,0.6680128,0.7593775,-0.008344902,-0.002246318,0.001312702,-0.0001299346,0.004916104,-0.006887827
0.04712298,0.6673292,0.7565224,-0.008777978,-0.002930214,-0.001528116,0.001266526,0.002747991,-0.003811188
0.0488724,0.6663411,0.7544051,-0.007006707,-0.003917239,-0.00362987,0.001857566,0.0001784648,0.003170331
0.0486114,0.6669101,0.7523453,-0.00724398,-0.003345866,-0.0056731,0.0004408431,0.001145494,0.008990181
0.05010822,0.6696541,0.752839,-0.005721373,-0.0005979696,-0.0051615,-0.002389738,-0.00156465,0.007495198
0.05429482,0.6704841,0.7564528,-0.001506848,0.0002373579,-0.001528527,-0.001229176,-0.0002873251,0.00100089
0.05621944,0.6687054,0.7573325,0.0004477997,-0.001534695,-0.0006283141,-0.001018347,0.003813419,-0.002429276
0.05608696,0.6654549,0.7563563,0.0003472452,-0.004777243,-0.001582646,-0.0005599699,0.001194148,-0.002653068
0.0548826,0.6629665,0.7573417,-0.0008234928,-0.007256341,-0.0005742083,0.002483939,0.00123589,-0.002804266
0.05547057,0.6636839,0.7582659,-0.000200422,-0.006528197,0.0003741618,0.0007729388,-0.0006192649,-0.002964452
0.05480821,0.6643464,0.7594421,-0.0008263866,-0.005853202,0.00157536,-0.00056587,-0.004600449,-0.002936948
0.0512327,0.6646032,0.7621299,-0.004364339,-0.005582017,0.004289025,-0.0002329413,-0.001719078,-0.002044688
0.05030173,0.6682417,0.7633694,-0.005256644,-0.001927189,0.005554747,-0.0003373052,0.0002263712,-0.002041501
0.04989039,0.6723801,0.7633901,-0.005628181,0.002229518,0.005601888,0.003779703,0.002064498,-0.001772744
0.05071813,0.6713037,0.7622926,-0.004759404,0.001173203,0.004530584,0.003907463,0.0007824899,-0.0004042958
0.0521638,0.6696968,0.758813,-0.003271409,-0.0004121694,0.001076597,-0.000530454,-0.004310013,0.0002742795
0.05099099,0.6716998,0.7579954,-0.004400607,0.001613801,0.0002839489,0.0007584772,-0.003872588,0.002291272
0.05160884,0.6717968,0.7561797,-0.003737869,0.001734841,-0.001507512,0.003046188,-0.00471161,0.003854106
0.052472,0.6708624,0.7500501,-0.002828552,0.0008254362,-0.007613707,0.001021677,-0.006021374,0.002684141
0.05328923,0.6675816,0.7507051,-0.001963956,-0.002429572,-0.006935681,0.0008217994,-0.00402747,0.001678226
0.05585866,0.6617084,0.7548497,0.0006539432,-0.008276348,-0.002768363,0.001595809,-0.002666615,0.003068565
0.05735022,0.6633104,0.7548225,0.002194904,-0.006647206,-0.00277282,-0.0006620225,0.001843401,0.004270308
0.05743229,0.6654938,0.7562622,0.00232704,-0.004435576,-0.001310209,0.0007321524,0.006760863,0.004068359
0.05643847,0.6627639,0.7577054,0.001383664,-0.007136084,0.0001559352,0.003581649,0.005673476,0.003908774
0.05678274,0.6640318,0.7580116,0.001778493,-0.005837413,0.000485118,0.003827294,0.001028655,0.00185533
0.05647731,0.6648248,0.7581829,0.001523496,-0.005012248,0.0006794659,0.004620802,-0.0008044532,0.002419458
0.05421101,0.6652678,0.7566801,-0.0006926756,-0.004535613,-0.0008003675,0.003415714,-0.0002596677,0.00409209
0.05309732,0.6695115,0.7594426,-0.001756693,-0.000256667,0.001984896,0.004537671,-0.002013739,0.001283925
0.05079486,0.670118,0.7626774,-0.004009955,0.0003866461,0.005242255,0.006666951,-0.00384069,0.0004048275
0.05048811,0.6689741,0.7605316,-0.004267959,-0.0007193034,0.003118562,0.005449632,-0.003036589,-0.0003083633
0.05148016,0.6696468,0.7600884,-0.003227507,-7.505061e-06,0.002696736,0.005527258,-0.0008281718,-0.0006872392
0.04993589,0.6695663,0.7609837,-0.004723642,-4.792403e-05,0.003612552,0.001716183,-3.334272e-05,0.000975519
0.05334977,0.6697967,0.7618389,-0.001261796,0.0002233239,0.004487325,-0.00233292,0.0007809299,-0.0004040912
0.05734318,0.6684704,0.7625193,0.002779394,-0.001061612,0.005186046,-0.0002642496,0.002675282,0.0002836771
0.05501294,0.6658768,0.7578232,0.0004966419,-0.00361336,0.0005068229,0.0006271296,0.000889626,0.003521306
0.05318205,0.6662361,0.7511742,-0.001287227,-0.00321174,-0.006126604,0.001821359,-0.002983348,0.006532946
0.05276653,0.6674831,0.7492766,-0.001656258,-0.001921942,-0.008009957,0.005090797,-0.004870564,0.007272003
0.05240126,0.6673429,0.7535965,-0.001975602,-0.002018988,-0.003676714,0.005691312,-0.002938326,0.005530025
0.05323756,0.6688075,0.7577378,-0.001093951,-0.000510807,0.0004773417,0.0046687,-0.001202792,0.007160877
0.05368361,0.6721333,0.7571422,-0.0006031087,0.002858819,-0.0001059993,0.005534633,-0.003500168,0.003820374
0.05422657,0.6742294,0.7581727,-1.597673e-05,0.004998807,0.0009363338,0.00549465,-0.002022876,-0.001880055
0.05431664,0.6741404,0.7592679,0.0001176067,0.00495344,0.002042763,0.002502158,-0.000317686,0.001578516
0.05296977,0.6726829,0.7577969,-0.001186472,0.003539051,0.0005825317,0.001860311,-0.002788906,0.004189991
0.05291047,0.6716505,0.7593102,-0.001203753,0.002548889,0.002105994,0.00370782,-0.003484267,0.00602476
0.05463914,0.669869,0.7603992,0.0005661612,0.0008085493,0.00320442,0.00490188,-0.005309825,0.008747053
0.05641349,0.6682385,0.7593074,0.002380918,-0.0007819563,0.002121321,0.004770223,-0.004329085,0.003905219
0.05762128,0.6691139,0.7598432,0.003628156,0.0001321744,0.002664803,0.004323223,-0.001074047,-1.914499e-05
0.05841001,0.6679283,0.7598065,0.004455197,-0.001015947,0.002634961,0.005933833,-0.00183997,0.00130466
0.05838988,0.6675302,0.7595364,0.004472016,-0.001377738,0.002370617,0.006657442,0.003234116,-0.001299434
0.05628429,0.6697915,0.7597385,0.002401789,0.0009186338,0.00257733,0.005433322,0.009149905,-0.004578804
0.05416688,0.6692625,0.7586952,0.000318022,0.0004236443,0.001537522,0.004005337,0.004208536,0.0009483656
0.05213589,0.6698257,0.7575636,-0.001681094,0.001019495,0.0004081719,0.001973248,-0.0005767445,0.006771256
0.04900321,0.6714861,0.755421,-0.004783566,0.002711421,-0.001733306,0.00143364,0.0006765068,0.002940673
0.0496301,0.6723155,0.752555,-0.004127973,0.00357085,-0.004599233,0.001263667,-0.0009107272,0.001796448
0.05270596,0.6721532,0.7521955,-0.001024679,0.003437174,-0.00495943,-0.0001657896,-0.004214013,0.0083128
0.05564559,0.6680208,0.7528215,0.001941256,-0.0006682889,-0.004334682,0.000253034,-0.002164068,0.01065707
0.05970854,0.6657031,0.7510232,0.006029349,-0.002960612,-0.006134494,0.003421282,-0.0002087808,0.006276978
0.05943053,0.6666194,0.7491678,0.005775157,-0.002020493,-0.007991215,0.006579876,-0.0001097178,0.001675068
0.05842339,0.6669022,0.7504094,0.004790274,-0.001715118,-0.006750587,0.006171018,0.00138853,0.002494004
0.06060984,0.6672701,0.7524835,0.006997169,-0.001326044,-0.004676725,0.004840993,-0.0005323507,0.004014132
0.05797229,0.6690246,0.7547795,0.004378052,0.0004486358,-0.00238003,0.005552927,-0.001942656,0.00206974
0.05612173,0.6719391,0.7564585,0.00254373,0.003382148,-0.0006991339,0.002752065,-0.0007446445,0.002151413
0.0578151,0.671481,0.7553894,0.004251055,0.002941959,-0.001765252,-0.0002076491,-0.002850247,0.001726559
0.05512105,0.6717442,0.7553947,0.00156863,0.003221875,-0.001755983,0.003484443,-0.002605561,0.0006536653
0.05328839,0.6752091,0.756689,-0.0002547242,0.006701943,-0.00045652,0.005873401,0.001084757,0.002147677
0.0530385,0.6757684,0.7559148,-0.0004975257,0.007274911,-0.001224541,0.003369737,0.002140533,0.001592885
0.05289621,0.6777145,0.7544862,-0.0006347943,0.009232865,-0.002645953,0.001279328,0.0007884945,0.001582101
0.05516169,0.6784171,0.7530305,0.001633772,0.00994497,-0.004093361,-8.084187e-05,-0.001126346,0.003042388
0.05410841,0.673373,0.7514944,0.0005817724,0.004908024,-0.005620139,-0.0009272693,0.0003088193,0.002437902
0.05426106,0.671176,0.7519065,0.0007339727,0.002715313,-0.005197546,-0.0006118759,0.001770952,0.0003017297
0.05852063,0.6699836,0.7547716,0.004991437,0.001524532,-0.002320502,-0.001449544,-0.001394344,-0.002744655
0.05939409,0.6676631,0.7556909,0.005861083,-0.0007970123,-0.001387741,-0.002653221,-0.002212072,-0.0008156383
0.05578148,0.6713513,0.7553951,0.002242877,0.002887677,-0.00166878,-0.0009997096,0.0003907541,0.00392793
0.05157148,0.6751227,0.7580158,-0.001974549,0.006653062,0.0009679788,0.0001784607,0.002093406,0.004224123
0.05576848,0.6717295,0.7571056,0.002213305,0.003251539,7.515977e-05,0.0003278835,0.001937755,0.002947578
0.06105037,0.670018,0.7550511,0.007484402,0.001529203,-0.001961001,0.001214397,0.001126269,0.0003829457
0.05720159,0.6740303,0.757059,0.003623143,0.005528202,6.625478e-05,0.0009568942,0.00185207,-0.002634623
0.05589482,0.675835,0.755528,0.00230211,0.007317275,-0.001444485,0.00292104,0.0006317968,-0.003910159
0.05608029,0.6739872,0.7533644,0.002471535,0.005451383,-0.003586954,0.003676674,-0.0007833339,-0.004441517
0.0549096,0.673044,0.7533896,0.001283048,0.00448748,-0.003539792,0.001225792,0.0008162111,-0.004652293
0.05801949,0.6737231,0.7556178,0.004373475,0.005143297,-0.001288733,0.002194418,0.0009859939,-0.003880137
0.05832303,0.6740119,0.7602597,0.004655875,0.005406217,0.003376914,0.001728007,0.0006434783,0.003320359
0.05538329,0.6749547,0.7577378,0.001693324,0.00632046,0.0008793971,-0.000159076,0.0006070593,0.009252745
0.05355546,0.6789578,0.7535701,-0.0001589523,0.01029241,-0.003263373,-0.0006980957,-0.0002425057,0.005224829
0.05396776,0.680577,0.752854,0.0002273841,0.01187764,-0.003954173,-0.003266042,-0.001921181,0.004663147
0.05730359,0.6743451,0.7510658,0.003535872,0.005608764,-0.005716354,-0.002079851,-0.003208713,0.006687239
0.05981934,0.6683639,0.749953,0.006022974,-0.0004126543,-0.006802575,0.0006618209,-0.0001324158,0.002541864
0.06152833,0.6700961,0.7465748,0.00770195,0.001276543,-0.01015334,-0.0004178404,0.001284269,-0.000508207
0.05964703,0.6705284,0.7487181,0.005789117,0.001663008,-0.007981387,0.0003444668,-0.0002558662,-0.0006975328
0.05592218,0.6665304,0.7567428,0.002031102,-0.002383177,7.336597e-05,0.002787356,0.002366599,0.001244953
0.05709372,0.6678048,0.7575449,0.003167837,-0.00115905,0.0009070252,0.004564031,0.002255842,0.002423118
0.05690597,0.6690238,0.7580021,0.002943701,7.893977e-06,0.001396924,0.004118445,-0.0007129165,0.0008414106
0.05465489,0.6661416,0.7623468,0.0006547171,-0.00292772,0.005775388,0.0001412642,0.0002563128,-0.0001340364
0.05407957,0.6669268,0.7659668,4.011716e-05,-0.002197114,0.009429782,-0.001663593,0.0002272001,-0.004238356
0.05351559,0.6693728,0.7634975,-0.0005643519,0.0001936105,0.006994909,-0.0006815658,-9.844136e-05,-0.006002443
0.05369554,0.6759195,0.7566245,-0.0004258821,0.006684512,0.0001561539,-0.0009431984,4.230789e-05,-0.002744627
0.05303502,0.6830882,0.7563469,-0.001128673,0.0137968,-8.787953e-05,-0.001952226,-0.001309946,-0.001445078
0.05497518,0.6775809,0.7532142,0.0007686382,0.008232286,-0.003187672,-0.001834382,-0.0006217164,0.0005022237
0.05864224,0.6702573,0.7473924,0.004392398,0.0008504186,-0.008977062,0.0009644376,-0.0008615551,-0.0007841716
0.05771569,0.6706388,0.7507916,0.003422146,0.001172474,-0.005545875,0.00277055,-0.001821984,-0.002645028
0.05799073,0.6708918,0.7525743,0.003653048,0.001365102,-0.00373137,0.002340228,-0.0009027915,-0.001623224
0.05907868,0.6707657,0.7525457,0.004696383,0.00117789,-0.003727991,0.003195559,-0.0004683956,-0.007085392
0.05691286,0.6710109,0.7551962,0.002485418,0.00136129,-0.001045322,0.002587109,0.001578278,-0.01193757
0.05395914,0.6706232,0.7570742,-0.0005139618,0.0009113849,0.0008650618,0.001258063,0.002318145,-0.01058533
0.05026135,0.6709544,0.7595713,-0.004257817,0.001179941,0.003394544,0.002206681,0.0002419028,-0.007946588
0.05051745,0.6708555,0.7585482,-0.004047914,0.001018229,0.002403761,0.002016649,0.0004206396,-0.005839784
0.05267787,0.671061,0.7579671,-0.001933524,0.001160844,0.001854698,0.0001321905,-0.0002781241,-0.003773457
0.05079808,0.6727706,0.7595111,-0.003858896,0.002807691,0.003430255,-0.001423845,-0.002364668,0.001737085
0.05200146,0.6731722,0.7582138,-0.002700386,0.00314658,0.002163747,-0.002262527,-0.002376752,0.004889119
0.05658575,0.6693569,0.7618151,0.001839927,-0.0007313143,0.00579501,-0.003440226,-0.00270201,0.003474075
0.05904439,0.6653235,0.7639734,0.004255565,-0.004826979,0.0079822,-0.004939451,-6.408994e-05,0.002020077
0.05912015,0.668013,0.7543363,0.004289209,-0.002199213,-0.001627397,-0.00422908,0.005006323,-0.001018403
0.05675935,0.6712017,0.7460214,0.001887038,0.0009284815,-0.009916282,-0.00313515,0.00325434,-0.003897466
0.054841,0.6688819,0.7486444,-7.20157e-05,-0.00145121,-0.007268542,-0.003802761,0.001127067,-0.003720317
0.05268276,0.6689942,0.7547485,-0.002270278,-0.001397827,-0.001140487,-0.003559869,0.002134472,-0.002903725
0.05331322,0.6702362,0.7562011,-0.001679063,-0.0002134802,0.0003354802,-0.002144811,-0.0007320202,-0.006113641
0.05724954,0.6688618,0.7555984,0.002218909,-0.001644136,-0.0002443976,-0.001111811,-0.0003548425,-0.008615783
0.05451509,0.6697676,0.7555693,-0.0005529495,-0.0007932156,-0.000251312,-0.000655816,0.002286762,-0.006828379
0.05282953,0.6705734,0.7559469,-0.002274949,-4.068428e-05,0.0001478765,-0.0003999577,0.0023714,-0.007206608
0.0549937,0.6710561,0.7595148,-0.0001461696,0.0003902895,0.00373678,-0.000886057,0.004669991,-0.006683179
0.05180592,0.6730842,0.7618958,-0.003368208,0.002368346,0.006137945,-0.003113406,0.004371747,-0.002380707
0.05129949,0.6737803,0.7600477,-0.003907644,0.003015897,0.004309056,-0.005116822,0.003648596,0.001773739
0.05438222,0.6742369,0.7573031,-0.0008565178,0.003425455,0.001582476,-0.006283526,0.006281408,0.003234212
0.05612414,0.6752207,0.7558997,0.0008552815,0.00436349,0.0001958053,-0.007232205,0.005981436,0.001063066
0.05654858,0.6766056,0.7555176,0.001251097,0.005703778,-0.000170841,-0.007150705,0.004878781,-0.002005938
0.05642851,0.6757175,0.7537671,0.001103811,0.004772029,-0.001907185,-0.007459787,0.003900829,-0.004697141
0.0592929,0.672015,0.7546518,0.003942298,0.001026532,-0.001009576,-0.008465698,0.002103875,-0.004003284
0.05846312,0.6709949,0.7562027,0.003087772,-3.580225e-05,0.0005532143,-0.008185757,0.002828926,-0.002441105
0.05508216,0.6705961,0.7533525,-0.0003169384,-0.0004762247,-0.002286012,-0.005911681,0.0053591,-0.003229223
0.05411775,0.6694466,0.7514374,-0.001304168,-0.001666609,-0.004191101,-0.00383672,0.006377427,-0.0009557276
0.05155713,0.6685554,0.7500079,-0.003886663,-0.002597856,-0.00561125,-0.001518374,0.004333072,-0.000630816
0.05179166,0.6664812,0.7501694,-0.003672927,-0.004710992,-0.005440872,0.002141119,0.003052474,-0.002687808
0.05227675,0.6670341,0.7552275,-0.003207409,-0.004195801,-0.0003739378,0.0007482629,0.003188794,-0.001656897
0.0523934,0.669599,0.7571999,-0.003108966,-0.001667214,0.00160717,-0.002251349,0.002983458,-0.0008208645
0.05627843,0.6713601,0.7552708,0.0007593283,5.921794e-05,-0.0003132628,0.0004433586,0.004167968,0.0006660666
0.05579423,0.6714142,0.7579465,0.0002598504,8.029581e-05,0.002370951,0.003317747,0.005425091,-0.0007347982
0.05392299,0.6704282,0.7600872,-0.00162526,-0.0009371708,0.004519997,0.00413983,0.007049041,-0.003846785
0.05450205,0.6728941,0.7531693,-0.00105869,0.001498909,-0.002389857,-0.001471145,0.006501362,-0.002445588
0.05394467,0.6739247,0.7473881,-0.001627197,0.002501221,-0.008163356,-0.01226198,0.00264199,-0.002733303
0.05524778,0.6703777,0.7490381,-0.0003338404,-0.00107268,-0.006505709,-0.01471791,0.0009111947,-0.004061754
0.05595401,0.6680007,0.7511426,0.0003639684,-0.003475115,-0.004393482,-0.01271098,0.001102634,-0.003370204
0.05532625,0.6681932,0.7568081,-0.0002709421,-0.003306667,0.001280245,-0.0129784,0.002554266,-0.003663167
0.05570329,0.6690893,0.7651468,0.0001001494,-0.002433087,0.009627549,-0.01135071,0.002422746,-0.004513461
0.0547292,0.6670327,0.762918,-0.0008787519,-0.004510415,0.007407524,-0.008297259,0.00241458,-0.007147773
0.05203367,0.6656721,0.7573685,-0.003577978,-0.005890092,0.001866496,-0.005978851,0.005214602,-0.009406469
0.04930954,0.6675265,0.7600458,-0.006304658,-0.004052688,0.004551858,-0.006181202,0.003225543,-0.00632281
0.05122702,0.6677781,0.7586074,-0.00438841,-0.003816005,0.003120673,-0.006372229,0.0008385044,-0.001340977
0.05396747,0.6701969,0.7574033,-0.001647731,-0.001409925,0.00192303,-0.003994131,0.0004393797,-0.0008613436
0.05065883,0.6733541,0.7630084,-0.004954605,0.001736796,0.007533507,-0.003183001,-0.001474044,-0.001250595
0.04910354,0.6711086,0.7597175,-0.006506499,-0.0005171337,0.004246942,-0.003109093,-0.002892672,0.003204413
0.05139377,0.6659012,0.7568208,-0.00421112,-0.005730972,0.001353169,-0.0002777353,-0.006803418,0.006480005
0.05217462,0.6630701,0.7594785,-0.003423241,-0.008566515,0.004012413,0.001698021,-0.006388805,0.002993978
0.05400571,0.6682186,0.7558227,-0.001583214,-0.003420326,0.0003566484,0.001706446,-0.002570418,-0.002734745
0.05633705,0.6732243,0.7547908,0.0007589493,0.001585448,-0.0006766966,0.002433591,-0.00313941,-0.004379824
0.05587593,0.6699852,0.7563067,0.0003103993,-0.001651316,0.000836505,0.001416965,-0.001994968,-0.003372868
0.05429606,0.6673168,0.7560404,-0.00125533,-0.004315325,0.0005662238,0.0007197836,-0.002026123,-0.003365698
0.05217578,0.6668898,0.7557143,-0.003359992,-0.004735883,0.0002348842,0.00153513,-0.002429239,-0.001740665
0.04911637,0.667243,0.7479998,-0.006402347,-0.004374089,-0.007485858,1.796329e-05,0.0002121521,0.0009587776
0.04921122,0.6705951,0.7412972,-0.006288917,-0.001011276,-0.01419544,0.0003230727,0.0004199205,0.001826621
0.05108141,0.6713673,0.7485654,-0.004398473,-0.0002262399,-0.006934354,0.0007410677,-0.0001947741,0.001225885
0.0495799,0.6695087,0.7565314,-0.005877965,-0.002069935,0.001024678,-0.0005540088,-0.002051146,0.001373338
0.04981873,0.6694983,0.7522528,-0.005615261,-0.002063614,-0.003260287,0.001059457,-0.002246527,0.004324392
0.0521613,0.6702556,0.7498388,-0.00324688,-0.001287841,-0.00568003,0.001673602,0.001876024,0.005867136
0.05391069,0.6710183,0.7541186,-0.001469731,-0.0005049636,-0.001405249,0.001310604,0.004100198,0.004647776
0.05756343,0.6697413,0.752588,0.002212586,-0.001760284,-0.002939953,0.0009731191,0.004120147,0.004677096
0.0577531,0.6669971,0.7509754,0.002433457,-0.004481232,-0.004555663,-0.0006435976,0.002365029,0.003826458
0.05693796,0.6659566,0.7533544,0.001650831,-0.005497106,-0.002178678,0.000477368,-0.0008035654,0.0006479601
0.05885431,0.6648122,0.7549359,0.003600713,-0.006615345,-0.0005979437,0.003219521,-0.004239674,-6.86917e-05
0.05616153,0.6636849,0.7564468,0.0009421987,-0.007714831,0.0009132557,0.00519397,-0.006032166,0.002142759
0.05259108,0.6651001,0.7571614,-0.002593487,-0.00626997,0.001629243,0.006143206,-0.005867664,0.003346179
0.05164568,0.6686544,0.7588337,-0.003503725,-0.002684046,0.003303963,0.006566637,-0.006872063,0.003243656
0.05080103,0.6714514,0.7576928,-0.0043128,0.0001464122,0.002166137,0.007157224,-0.003721835,0.002958164
0.05068937,0.6719076,0.7522112,-0.00438841,0.0006379833,-0.003311832,0.005960093,-0.0003433415,0.003778021
0.0497562,0.6722814,0.7496546,-0.005284948,0.001048637,-0.005864162,0.004589283,-0.002116262,0.004492935
0.0500926,0.6722409,0.7527593,-0.004911235,0.001046281,-0.002754496,0.003168445,-0.001097294,0.004242717
0.05218375,0.6711091,0.7576925,-0.002782008,-4.633157e-05,0.002184478,-0.0002011211,-0.0001510802,0.005384521
0.05342582,0.6706696,0.7557803,-0.001501043,-0.0004457546,0.0002788599,-0.004012873,0.0002760983,0.00482843
0.05481544,0.6705603,0.7542297,-7.178858e-05,-0.0005143395,-0.001264463,-0.006584971,0.002448563,0.001803926
0.05580219,0.6698877,0.7578383,0.0009552327,-0.001145594,0.002351884,-0.00287338,0.00159354,-0.001592483
0.05580918,0.6682697,0.7567026,0.001002957,-0.002721914,0.001224596,0.003322699,-0.0003498342,-0.004927489
0.05534961,0.6675664,0.7570167,0.0005844,-0.003383015,0.00154738,0.002307724,-0.001913514,-0.004293535
0.05547602,0.6683025,0.7594039,0.0007519201,-0.002604409,0.003943547,0.001949886,-0.001508327,-0.0007687808
0.05582397,0.6680641,0.7588039,0.001140921,-0.002799855,0.003352629,0.005060217,-3.977508e-05,0.000312001
0.05477807,0.6682756,0.7568643,0.0001358761,-0.002544995,0.001421917,0.003524811,-0.0009183053,-0.001068984
0.05294127,0.6701681,0.752583,-0.001660404,-0.000608847,-0.00285074,0.002849221,-0.001821862,0.001209981
0.0512333,0.6721787,0.7532702,-0.00332821,0.001445776,-0.002155138,0.004365067,-0.002590584,0.005367904
0.0535173,0.6727335,0.7538158,-0.0010044,0.002044801,-0.001601314,0.004270319,-0.003185745,0.005447445
0.1473459,0.7410793,0.6895942,0.08563524,-0.0088408,-0.04642668,0.1684868,0.1126897,0.2984904
0.1526231,0.7334958,0.6952374,0.08953024,-0.01551971,-0.04072383,0.1710876,0.1158611,0.2822985
0.1433132,0.7266077,0.6959581,0.07879529,-0.02152393,-0.03985882,0.1779833,0.1204431,0.2759453
0.1305264,0.7215837,0.6999036,0.06454338,-0.02568468,-0.03568904,0.1919912,0.1189056,0.2762055
0.1148155,0.7116158,0.7013504,0.04733066,-0.03480956,-0.03394223,0.2151531,0.1049796,0.2766298
0.09469845,0.7051656,0.7031176,0.02567898,-0.04043624,-0.03180386,0.2407296,0.07673079,0.2833239
0.09224204,0.7063488,0.7095089,0.02165971,-0.0384479,-0.02497479,0.268165,0.05011114,0.3035055
0.1052072,0.7046479,0.7060632,0.03303872,-0.03936105,-0.02792061,0.2921436,0.03655456,0.3209005
0.1112448,0.7074149,0.69985,0.03747136,-0.03582254,-0.03357638,0.2990649,0.04180418,0.3311822
0.1197103,0.7173746,0.6966348,0.04431718,-0.02510663,-0.03618059,0.2997043,0.05454402,0.3367396
0.1314586,0.7234253,0.6903277,0.05443432,-0.01831442,-0.04182687,0.2985145,0.06511632,0.3268136
0.139009,0.7296376,0.6852131,0.06034493,-0.01137506,-0.04623428,0.2864887,0.08494572,0.3183364
0.1451325,0.7370207,0.6807713,0.06482212,-0.003279646,-0.04992565,0.2727635,0.09276304,0.3124587
0.1428994,0.7389859,0.6810004,0.06093812,-0.000617332,-0.04890552,0.2627019,0.08338196,0.2958348
0.1427942,0.7401094,0.6825107,0.05917891,0.001187438,-0.04656627,0.2513244,0.08478254,0.2844789
0.1459389,0.7414902,0.6785224,0.06066827,0.003232984,-0.04969011,0.2409587,0.08350688,0.271727
0.1392823,0.7372563,0.6770321,0.05235655,-0.0003534797,-0.05028303,0.2392631,0.07648478,0.2574324
0.1320681,0.7283523,0.67597,0.04348901,-0.008627812,-0.05041695,0.2448302,0.07729855,0.2506797
0.1207296,0.7243917,0.6805312,0.03050102,-0.01197676,-0.04489917,0.2492575,0.07189988,0.2398245
0.106885,0.7285891,0.6920812,0.01501302,-0.007185626,-0.03236639,0.2547829,0.0566655,0.24598
0.1035778,0.730975,0.6933451,0.01007151,-0.004223732,-0.03009601,0.2639066,0.03750101,0.2694429
0.1101554,0.7310784,0.6920825,0.01502678,-0.003562121,-0.03033145,0.275629,0.02848266,0.2826478
0.1224808,0.7332051,0.692397,0.02574477,-0.0008949802,-0.02897158,0.2875257,0.03719899,0.291552
0.1263257,0.7319282,0.6827559,0.02799935,-0.001649293,-0.03755197,0.2879251,0.04476713,0.2954594
0.1295173,0.7291985,0.6728557,0.02961961,-0.003874288,-0.04637814,0.2808417,0.05438587,0.2958672
0.1394893,0.7297372,0.6724662,0.03804057,-0.002848727,-0.04568218,0.2747052,0.06584454,0.2945842
0.1421653,0.7320627,0.67734,0.0391869,-5.410038e-05,-0.03971301,0.2631558,0.06307516,0.2845111
0.1476149,0.7371358,0.6786611,0.0431289,0.00547049,-0.03728815,0.2494482,0.06799962,0.2741261
0.1514698,0.7434866,0.6762515,0.04549854,0.01225497,-0.03858725,0.2320298,0.08142551,0.261252
0.1473731,0.7467031,0.6759831,0.03993924,0.01588691,-0.03773984,0.2108292,0.07765999,0.2468315
0.1488115,0.7440851,0.674548,0.03993787,0.01366581,-0.03805539,0.1990644,0.0755428,0.227602
0.1474634,0.7379031,0.673034,0.03717302,0.007861585,-0.03844746,0.1928281,0.0819607,0.2078953
0.1445547,0.7362469,0.6739877,0.03287078,0.006563887,-0.03637076,0.1847084,0.0841074,0.2073874
0.1419139,0.7371733,0.6759911,0.02886004,0.007829595,-0.03324451,0.1790512,0.09085351,0.2019574
0.1333108,0.7358292,0.6797122,0.01891114,0.006805501,-0.028402,0.1784907,0.08895693,0.1936491
0.132768,0.7370741,0.6814064,0.01704721,0.008351432,-0.02558916,0.1769396,0.0795074,0.1990268
0.1345224,0.7398985,0.6809078,0.01750611,0.01145803,-0.02497345,0.1716453,0.08500095,0.1972154
0.1281223,0.7433956,0.6820208,0.009836962,0.01521844,-0.02275172,0.1702276,0.08878366,0.2014523
0.1253844,0.7473285,0.684017,0.005857221,0.01939569,-0.01965387,0.1685149,0.08818571,0.208316
0.1242674,0.7438533,0.6837191,0.003526753,0.01614586,-0.01885873,0.1636619,0.08868249,0.2084991
0.1226257,0.7327382,0.6834881,0.0007007471,0.00523711,-0.01800638,0.1633449,0.07825328,0.2180486
0.1253115,0.7221458,0.6882431,0.002232624,-0.00516777,-0.01217933,0.167406,0.06847991,0.2175412
0.1266378,0.7213906,0.6917087,0.002436105,-0.00575336,-0.007654274,0.1791626,0.06188312,0.2120252
0.1288746,0.7258443,0.6903801,0.003581947,-0.001146996,-0.007937241,0.1964127,0.05689195,0.2154227
0.1346892,0.724667,0.6897393,0.008337924,-0.00218771,-0.007547984,0.2053003,0.05738718,0.2122878
0.1370602,0.7276846,0.6904728,0.009682797,0.0009515349,-0.005801104,0.2043286,0.05610017,0.2097493
0.1354618,0.7351527,0.6901509,0.007090959,0.008526777,-0.005127509,0.2022431,0.05832885,0.2089512
0.1338303,0.7362074,0.6877807,0.004498496,0.009674919,-0.006521273,0.2021327,0.05936994,0.2048345
0.1348154,0.737337,0.6851605,0.004555127,0.01088438,-0.008185085,0.1994332,0.05813555,0.2006735
0.13473,0.7391027,0.6819441,0.003573718,0.0127167,-0.01046597,0.1933754,0.06163681,0.1944179
0.1308534,0.739393,0.6766827,-0.001166551,0.01306058,-0.01481322,0.186484,0.06003437,0.1932929
0.1274036,0.74031,0.6721462,-0.005447624,0.01401815,-0.01845715,0.1800793,0.06107059,0.1938347
0.1253419,0.7390753,0.672242,-0.008308256,0.01281119,-0.01749053,0.1755968,0.0646656,0.1900738
0.1261079,0.7393314,0.67311,-0.008308633,0.01308234,-0.01577327,0.1673118,0.05943495,0.1894323
0.1262872,0.7394035,0.6688865,-0.008862999,0.01315708,-0.01916909,0.1577772,0.05570596,0.1878801
0.1246898,0.7378206,0.6699644,-0.01116119,0.01156462,-0.01728473,0.1535487,0.05561498,0.1854232
0.1287447,0.7383709,0.6797734,-0.007774282,0.0120934,-0.006690416,0.1476391,0.05614129,0.1859034
0.1320878,0.7363688,0.6880191,-0.005066402,0.01005816,0.002319511,0.1430985,0.05881781,0.1834318
0.1303607,0.735265,0.6910551,-0.007396289,0.008910003,0.006098167,0.1421954,0.06008707,0.1810742
0.1300125,0.7357143,0.6869201,-0.008315215,0.009304063,0.002683593,0.1412069,0.0574666,0.1795813
0.1299102,0.7304602,0.6844847,-0.008956409,0.003984485,0.0009459751,0.1484686,0.05282606,0.1749817
0.1289328,0.7264461,0.6856016,-0.0104414,-0.0001049448,0.002737549,0.1558532,0.05062512,0.1729803
0.1288879,0.729714,0.6831191,-0.0109629,0.00307885,0.0009064481,0.1532054,0.05184139,0.1736312
0.1292947,0.7347244,0.6823003,-0.01100224,0.00799677,0.0007153944,0.1535879,0.05312283,0.1720305
0.1282419,0.7351954,0.6794651,-0.01247091,0.008367805,-0.001515559,0.1574356,0.05097098,0.1697898
0.1272645,0.7333847,0.6782979,-0.01383455,0.006449886,-0.00210209,0.1550609,0.04776404,0.1683971
0.1283537,0.7333038,0.6810679,-0.01310224,0.006255025,0.001225366,0.1529271,0.04438673,0.1666242
0.1295616,0.733132,0.676612,-0.0122225,0.005963012,-0.002696259,0.1559759,0.04163402,0.1657129
0.1313493,0.733482,0.6751829,-0.01073464,0.006186994,-0.003613947,0.1587753,0.04551722,0.1653726
0.1327133,0.7330754,0.6773864,-0.009642976,0.005648945,-0.0009214847,0.1596614,0.04873546,0.1601352
0.1332995,0.7312346,0.6758075,-0.009302177,0.003671902,-0.002033449,0.158086,0.04679556,0.1523853
0.13388,0.7308918,0.6766012,-0.008940938,0.003188434,-0.0007943905,0.1551494,0.04720052,0.147216
0.1324082,0.7338921,0.6771801,-0.0106067,0.006044082,0.0002086481,0.1514743,0.04773005,0.1431179
0.1305951,0.7412864,0.6796828,-0.01258927,0.01329028,0.003114553,0.1435209,0.04626428,0.1429615
0.1289167,0.7450317,0.6834069,-0.01441332,0.01688405,0.007221407,0.1366067,0.04548235,0.144292
0.1294813,0.743227,0.6823881,-0.0139713,0.01492446,0.006564913,0.1317598,0.04512266,0.1406865
0.1324157,0.745266,0.682571,-0.01113696,0.01680497,0.00709001,0.125633,0.04442581,0.1370588
0.1307886,0.7483063,0.6835081,-0.01284223,0.01968302,0.008349293,0.1229516,0.04444445,0.1362748
0.1280427,0.7463658,0.6830135,-0.01564535,0.01757641,0.008157053,0.118088,0.04443106,0.1374091
0.1276624,0.7439098,0.6863567,-0.01606231,0.0149502,0.01178296,0.1097179,0.04173163,0.1399922
0.1273875,0.7438091,0.6886616,-0.01635408,0.01467511,0.01435093,0.1071186,0.03941891,0.1400463
0.1276572,0.7407151,0.6827653,-0.01608195,0.01140256,0.008698319,0.1048306,0.03927389,0.1413399
0.1246679,0.7354805,0.6775351,-0.01905006,0.005985298,0.003692471,0.09992736,0.03688981,0.1481203
0.1207137,0.7345636,0.6776301,-0.02296481,0.004882156,0.003993058,0.101245,0.02947843,0.1514618
0.1223767,0.7349379,0.6780486,-0.0212445,0.005066913,0.004598757,0.107161,0.0218683,0.1463981
0.132149,0.734695,0.680944,-0.01139739,0.004631703,0.007663796,0.1085107,0.0240835,0.1392493
0.1471766,0.7360788,0.6835045,0.003721747,0.005820971,0.01037665,0.09664401,0.03921357,0.1326192
0.1543443,0.7390471,0.6817458,0.01099652,0.008592834,0.008753517,0.07487124,0.05754756,0.1239124
0.1541767,0.7439844,0.677218,0.01094977,0.01333216,0.004344954,0.05984691,0.065161,0.1146799
0.155153,0.7474058,0.673967,0.01205881,0.0165541,0.001197227,0.04119274,0.06899641,0.1050574
0.1496818,0.7463954,0.6785216,0.006730606,0.01534262,0.005839973,0.01099407,0.08121596,0.08892566
0.1396266,0.7438612,0.6827239,-0.003173095,0.0126057,0.0101158,-0.007029339,0.08830881,0.07172025
0.1341917,0.7417221,0.6810815,-0.008448872,0.01026219,0.008532852,-0.02243784,0.09061566,0.06818163
0.1287068,0.7399064,0.6816851,-0.01376801,0.00824031,0.009182191,-0.03980817,0.09601204,0.07154276
0.1214432,0.7383965,0.6836701,-0.02085937,0.006522902,0.01119976,-0.03517081,0.08983723,0.06954641
0.1125866,0.7320831,0.6885289,-0.02953739,8.670733e-07,0.01607805,-0.02182738,0.07355809,0.07387035
0.09973946,0.71625,0.6999072,-0.04219919,-0.01604147,0.02746299,0.0009717088,0.05444715,0.08410629
0.09524008,0.6985705,0.7091811,-0.04650561,-0.03392964,0.03673047,0.03992523,0.03670504,0.08952831
0.1020942,0.69242,0.71745,-0.03944983,-0.04028649,0.04497919,0.06743017,0.02296021,0.1017487
0.1025642,0.6990433,0.7297931,-0.03876854,-0.03386497,0.05728738,0.09511413,0.00423127,0.1146544
0.1024714,0.7007844,0.7277642,-0.03863951,-0.03231916,0.05520722,0.1355099,0.002413318,0.1191236
0.1163934,0.6906837,0.7122707,-0.0244848,-0.04260679,0.03964489,0.1678046,0.01251462,0.1267609
0.1327231,0.6858517,0.7055542,-0.007911214,-0.04761528,0.03284097,0.1901424,0.003385297,0.1276349
0.1377301,0.692543,0.7006915,-0.002649796,-0.04108823,0.02787196,0.2005291,0.004994745,0.1241536
0.1332087,0.7014581,0.6973427,-0.006907327,-0.03232341,0.02439791,0.204181,0.01127939,0.125723
0.1311139,0.7088624,0.6969168,-0.008729968,-0.0250541,0.02382826,0.2063658,0.002564825,0.1189073
0.1318308,0.7234581,0.6895962,-0.007733491,-0.01057734,0.01634592,0.1992205,0.007298589,0.1130024
0.1318725,0.7457816,0.6893216,-0.007405781,0.01164321,0.01589232,0.1923844,0.01073096,0.1107339
0.1355008,0.7563076,0.6916316,-0.00348577,0.02208143,0.01800692,0.1808152,0.009479216,0.1034114
0.131393,0.7545451,0.688285,-0.007297317,0.02024462,0.01444929,0.1621669,0.01037835,0.09461356
0.1235975,0.7549989,0.6873682,-0.01479253,0.02063586,0.01330679,0.1443065,0.001834656,0.07870285
0.1250254,0.755208,0.6816819,-0.01306116,0.02079248,0.007381205,0.1143653,0.002952229,0.0711646
0.1242078,0.7529113,0.6756973,-0.0135723,0.01845151,0.001144626,0.08356422,0.0003355904,0.07957229
0.1242157,0.7528766,0.6668348,-0.01325534,0.01837945,-0.007980919,0.06096871,-0.009814456,0.08489623
0.1305531,0.7533133,0.6571735,-0.006606711,0.01878429,-0.0179146,0.0370547,-0.006036031,0.0871301
0.1360325,0.7487897,0.6653771,-0.0008144356,0.0142331,-0.009990867,0.0155794,-0.004834193,0.0826274
0.1378897,0.7442807,0.672962,0.001356469,0.009699741,-0.002691388,-0.003401269,0.002263623,0.07167273
0.1349618,0.7426504,0.6742966,-0.00125768,0.008047383,-0.001646162,-0.01242554,0.02223854,0.06503347
0.1300112,0.7351719,0.6878923,-0.005895284,0.0005487361,0.01165746,-0.009629937,0.02927455,0.06189835
0.1229301,0.7253404,0.7020036,-0.01266485,-0.009301372,0.02547452,-0.0003132636,0.01827658,0.06303665
0.1238821,0.7191351,0.7038594,-0.01140296,-0.01552343,0.0270339,0.02003286,0.007552623,0.06590567
0.1325611,0.7102973,0.7013935,-0.00241599,-0.02437578,0.02426937,0.04139779,0.009758271,0.07124346
0.1327906,0.7018325,0.7021084,-0.001880831,-0.03285189,0.02468292,0.05540831,0.009848486,0.07563648
0.1331809,0.7028531,0.7003916,-0.001187552,-0.03183818,0.02266177,0.06771456,0.006788645,0.07160799
0.1322223,0.7087259,0.6970842,-0.001846548,-0.02596657,0.01904706,0.08394358,0.009746623,0.07193764
0.127654,0.7142593,0.6980176,-0.006119041,-0.02042751,0.01966995,0.09732039,0.008068209,0.07460741
0.1300545,0.7212504,0.6972108,-0.003426806,-0.01342338,0.01854971,0.0985475,0.005786531,0.07068442
0.1309404,0.7260793,0.6970542,-0.002253602,-0.008573722,0.01807657,0.09997546,0.004972333,0.07047386
0.1346897,0.7281841,0.6992513,0.001778294,-0.006440447,0.01995442,0.1038646,0.002696898,0.07049034
0.139917,0.7308575,0.6981881,0.007283024,-0.00373108,0.01856924,0.1022555,0.004141484,0.0657107
0.1365837,0.734361,0.695566,0.004221348,-0.0001845738,0.01562256,0.09911257,0.005048729,0.06152609
0.1347212,0.7367054,0.6920313,0.002624109,0.002209477,0.01176084,0.09102814,0.006332201,0.0584603
0.1314033,0.7373676,0.6882346,-0.0004353083,0.002927233,0.007635077,0.07805396,0.007687885,0.05724553
0.1255213,0.7410767,0.6832112,-0.006065759,0.006697069,0.002281152,0.06509972,0.008216306,0.05506955
0.1245927,0.742974,0.6794261,-0.006749926,0.008659541,-0.001835103,0.05440701,0.0144935,0.05224247
0.1270067,0.7423354,0.6823208,-0.0040984,0.008089555,0.0007285058,0.04686097,0.01825743,0.05234655
0.1306294,0.7428782,0.6862301,-0.0002450222,0.008703704,0.004307859,0.034754,0.01287299,0.05078788
0.1309987,0.736284,0.6881568,0.0003480706,0.002182732,0.00590629,0.02560059,0.00826389,0.04693727
0.1300775,0.7305283,0.6887913,-0.0003561989,-0.003498446,0.00621486,0.02995873,0.009669417,0.04447492
0.1303814,0.7308499,0.6902444,0.0001576424,-0.003101379,0.007344776,0.03373341,0.01186588,0.04479019
0.1312387,0.7283051,0.6944967,0.001217666,-0.00556979,0.01127679,0.03391358,0.01294575,0.04654145
0.1336381,0.7259639,0.6935453,0.003812713,-0.007833882,0.01000841,0.03872636,0.01431649,0.04537518
0.1335792,0.7244433,0.6907854,0.003942189,-0.009276303,0.006934901,0.04315215,0.01252904,0.04324744
0.1324059,0.7237046,0.6924671,0.002949728,-0.009935879,0.008306406,0.04704112,0.009708931,0.04146272
0.1313543,0.7238753,0.6924203,0.002071343,-0.009684843,0.007953173,0.05050961,0.008550316,0.0383573
0.1304863,0.7235585,0.6925983,0.001368914,-0.009919761,0.007828486,0.05212247,0.007306963,0.03799893
0.1352006,0.725644,0.6919893,0.006241162,-0.007750826,0.006920895,0.0560744,0.007332983,0.03827873
0.1382741,0.7274778,0.688132,0.009464777,-0.005831961,0.002769129,0.05637474,0.006894928,0.03713202
0.1320435,0.7290926,0.6858626,0.003376346,-0.004130313,0.0002097103,0.05324354,0.009912175,0.03860648
0.1268569,0.731384,0.6831524,-0.00167616,-0.001750532,-0.002785713,0.05197089,0.01542257,0.03911733
0.1297801,0.7319496,0.6851202,0.001373311,-0.001095088,-0.001097808,0.04845056,0.01317529,0.03814988
0.1338843,0.7326742,0.6915545,0.005595943,-0.0002795255,0.005062262,0.04502584,0.01154145,0.03817532
0.1349874,0.7336092,0.6906105,0.006809763,0.0007471808,0.003849973,0.0427255,0.01448201,0.03600266
0.1351757,0.7324093,0.6894063,0.007101114,-0.0003604664,0.002383673,0.04125671,0.01385862,0.03334611
0.1344348,0.7305514,0.6912747,0.006455478,-0.002125862,0.003996036,0.0392258,0.01415982,0.03155661
0.1345024,0.7315104,0.6908925,0.006610559,-0.001074324,0.003364176,0.03481521,0.01643944,0.03007507
0.1350454,0.733262,0.692855,0.00723309,0.0007696386,0.005083243,0.03418912,0.01680986,0.02875677
0.1330803,0.7326357,0.6932054,0.00533968,0.0002353243,0.005196562,0.03248859,0.0160005,0.02469102
0.1313177,0.7289583,0.6894859,0.003641104,-0.003350761,0.00124617,0.02777536,0.01458013,0.02219363
0.1307277,0.7247935,0.6861806,0.00310739,-0.007424932,-0.002283677,0.02641089,0.01364526,0.02318949
0.1328013,0.7261737,0.6830834,0.005229896,-0.005954809,-0.005599005,0.02606993,0.01238425,0.022432
0.1356562,0.7285602,0.6812789,0.008126453,-0.003478912,-0.007614829,0.02834653,0.01244896,0.02186765
0.132018,0.728212,0.6801028,0.004522688,-0.003738193,-0.008995117,0.03105421,0.01528836,0.02359363
0.1289936,0.7297731,0.68131,0.001525717,-0.002088784,-0.007984348,0.02926361,0.01545426,0.02620664
0.1309772,0.7301966,0.6870557,0.003530033,-0.001577476,-0.002427089,0.02739134,0.01334978,0.0268679
0.1310055,0.729151,0.6931615,0.003572499,-0.002536024,0.003498406,0.02758702,0.01254858,0.02452209
0.1309028,0.7283755,0.6961283,0.003477777,-0.00322515,0.0062931,0.02817453,0.01107068,0.02234657
0.1315005,0.726204,0.6950411,0.004077429,-0.005311124,0.005041504,0.0308968,0.01208153,0.01908815
0.1304056,0.726469,0.6948723,0.002978787,-0.004961283,0.004715602,0.0354521,0.01546933,0.01729012
0.1301543,0.7285418,0.6967809,0.00271823,-0.002804336,0.006474213,0.03535388,0.01464884,0.01748482
0.1309136,0.7293981,0.697496,0.00346306,-0.001864455,0.007045851,0.03405925,0.01378148,0.01396069
0.1301663,0.7297285,0.6988811,0.002696338,-0.001451356,0.008293764,0.0351794,0.01299023,0.01347887
0.1285347,0.7300145,0.6961421,0.001040591,-0.001083367,0.005423206,0.02910219,0.007549148,0.015637
0.1282331,0.732656,0.6857934,0.0007104372,0.001639267,-0.005051656,0.02116844,0.004866299,0.01407322
0.1309836,0.7342936,0.6756643,0.003428439,0.00335679,-0.01530146,0.02186141,0.005708921,0.01400166
0.134615,0.7329216,0.6760499,0.007023361,0.002063466,-0.01503083,0.02316402,0.005448413,0.01250409
0.1328594,0.732942,0.6869018,0.005227696,0.002160896,-0.004287574,0.02197457,0.005890837,0.0092633
0.1305251,0.7315955,0.6925741,0.002849805,0.0008896835,0.001282688,0.02299628,0.006259671,0.007331149
0.1324578,0.7288735,0.6886005,0.004735413,-0.00175898,-0.002786335,0.02257058,0.006118041,0.002613608
0.1310193,0.7288563,0.6859818,0.003246586,-0.001704758,-0.005494032,0.02101699,0.006154221,0.0008211232
0.1286096,0.7293919,0.687706,0.0007835474,-0.001099767,-0.0038523,0.02279533,0.006939662,0.003968552
0.1285024,0.7291665,0.6882425,0.0006201688,-0.001257605,-0.003391894,0.02340649,0.008702665,0.006688028
0.1272776,0.7290511,0.6872462,-0.0006633857,-0.001307487,-0.004457996,0.02205098,0.01006298,0.008179716
0.1277549,0.7292538,0.6904216,-0.0002468203,-0.001041032,-0.001346135,0.0225058,0.01030604,0.007981002
0.1281152,0.7288252,0.6912503,5.077864e-05,-0.001407863,-0.0005747843,0.02276624,0.009209873,0.007480947
0.1277563,0.727275,0.6832727,-0.0003722657,-0.002897967,-0.008603873,0.02135727,0.009367688,0.006496088
0.1298065,0.7259733,0.6768415,0.001612582,-0.004141475,-0.01508049,0.01816271,0.009916821,0.00573111
0.1310503,0.7260889,0.6800902,0.002790103,-0.003969208,-0.01187118,0.01536699,0.008691455,0.004954502
0.1304872,0.7275235,0.6870887,0.002159787,-0.002479296,-0.004905508,0.01538102,0.007761606,0.002763059
0.129423,0.7298291,0.6883397,0.001027748,-0.0001198027,-0.00368078,0.01548737,0.006635433,0.002665516
0.1287539,0.7333764,0.6874576,0.000290162,0.003479987,-0.004582918,0.01475941,0.007505159,0.002401021
0.1283479,0.7353883,0.6858928,-0.0001846223,0.005543002,-0.006161419,0.01402975,0.008776386,0.0009479239
0.1271125,0.7358351,0.6818548,-0.001488884,0.006039151,-0.01020707,0.01135595,0.005620786,0.001479223
0.1259243,0.7367291,0.6830932,-0.002746001,0.006980456,-0.008970289,0.008308087,0.003502192,0.0026627
0.1250076,0.7347077,0.6844391,-0.003731131,0.005004111,-0.007619854,0.009357035,0.004130025,0.004209639
