accx,accy,accz,body_accx,body_accy,body_accz,body_gyrox,body_gyroy,body_gyroz
0.01740504,0.2704215,0.9616627,-0.0455318,0.104514,-0.02226558,-0.06547516,-0.2276958,0.1733353
0.02843098,0.245627,0.9601589,-0.02981975,0.07708021,-0.02379368,-0.02940367,-0.2263749,0.1901808
0.01773166,0.234768,0.9550564,-0.03601082,0.06357083,-0.02887592,0.01651986,-0.2618597,0.2111852
0.02029414,0.2263839,0.9558113,-0.02911561,0.05252948,-0.02805818,0.03754031,-0.2364443,0.2181977
0.021472,0.2131804,0.9693456,-0.02377806,0.03666673,-0.01442032,0.05749906,-0.262372,0.2153828
0.01285015,0.2170814,0.9808959,-0.02841064,0.03791163,-0.002727987,0.08339281,-0.2789186,0.2229338
0.02301381,0.2225906,0.9794397,-0.01442538,0.04077268,-0.004006222,0.07157637,-0.2926275,0.2262642
0.023453,0.2186409,0.9721478,-0.01032951,0.0341876,-0.01108727,0.05840851,-0.3310888,0.2111808
0.0318449,0.2279954,0.9755606,0.001556766,0.04092379,-0.007433054,0.07528381,-0.3178339,0.1989875
0.04095436,0.231791,0.9719777,0.0140007,0.0421221,-0.01074661,0.08387499,-0.2823902,0.1980149
0.0313561,0.2349584,0.9638901,0.007579204,0.04271665,-0.01853914,0.0871232,-0.300237,0.1924101
0.03221026,0.2454923,0.967045,0.01145468,0.05070529,-0.01506531,0.09528069,-0.2902165,0.1803149
0.02260514,0.2370503,0.9670634,0.004717949,0.03974815,-0.01470587,0.09100515,-0.2796298,0.1722366
0.01172206,0.2311475,0.9691364,-0.00344677,0.03136277,-0.01227164,0.09056456,-0.3077374,0.1714778
0.01610643,0.2362578,0.9666269,0.003509292,0.03402573,-0.01440142,0.0910175,-0.2983023,0.1703512
0.01488228,0.2337107,0.9597174,0.004713685,0.02906883,-0.0209143,0.08387937,-0.2775414,0.1683092
0.01309975,0.2325574,0.9691842,0.005220142,0.02554554,-0.01103548,0.09228422,-0.2480527,0.1740777
0.008186494,0.2338626,0.9780059,0.002459943,0.02452286,-0.00178794,0.09737158,-0.249733,0.1792032
0.002724195,0.2344033,0.9798562,-0.0009814198,0.02277959,0.0005004387,0.08933227,-0.2988385,0.1758826
0.00160023,0.2358293,0.9783977,-0.0002125714,0.02196754,-0.0005100096,0.08693464,-0.3167254,0.173709
0.004838267,0.2364267,0.9710851,0.004794255,0.02037438,-0.007366322,0.08669632,-0.3183186,0.1760712
0.01083517,0.2358499,0.9672428,0.01243992,0.01765605,-0.01074571,0.08752874,-0.293525,0.1769662
0.006245369,0.233994,0.9610981,0.009382673,0.01370881,-0.01642232,0.08721409,-0.2750404,0.1750712
0.004304576,0.2328843,0.9576386,0.008861949,0.01055948,-0.01940929,0.08884193,-0.2965733,0.1750231
0.009848046,0.2316444,0.9662305,0.01571675,0.007332672,-0.01034133,0.09268259,-0.2972825,0.1736607
0.01180747,0.229222,0.9747214,0.01888242,0.00297734,-0.001371696,0.09442214,-0.2978765,0.1683722
0.01338828,0.2267733,0.9740505,0.02156784,-0.001349291,-0.001562406,0.09760835,-0.3003379,0.1656538
0.01230779,0.226415,0.9665649,0.02149367,-0.003529356,-0.00856747,0.09558347,-0.2966156,0.1652782
0.01173686,0.2270056,0.9631236,0.02183406,-0.004703373,-0.01152897,0.09668454,-0.2973962,0.1659021
0.01115919,0.2257666,0.9654625,0.02207598,-0.007648884,-0.008711889,0.1009768,-0.2855799,0.1652822
0.007413929,0.2264881,0.9730007,0.01906189,-0.008575118,-0.0006978514,0.09471374,-0.2826964,0.1617779
0.006294862,0.2268244,0.9818887,0.01858894,-0.009826963,0.00866284,0.09235752,-0.2809838,0.1617495
0.005370473,0.225748,0.9798967,0.01822903,-0.01243162,0.007138972,0.1002125,-0.2858065,0.1611025
0.005102689,0.2268639,0.9771101,0.01844752,-0.01278363,0.004814821,0.1104077,-0.2965624,0.1570383
0.006087332,0.2262868,0.978093,0.01984361,-0.01476787,0.006253219,0.1121359,-0.2808818,0.156897
0.005299002,0.2261318,0.9739361,0.01939523,-0.01626925,0.002543878,0.09648295,-0.2654322,0.1584521
0.005502097,0.2270104,0.9718808,0.01987004,-0.01667603,0.0009273659,0.08596386,-0.2568652,0.1592695
0.005595373,0.2270514,0.9712652,0.02016997,-0.01785965,0.0007410245,0.1000722,-0.2613318,0.158749
0.004447007,0.2291554,0.9668021,0.01916635,-0.01691957,-0.00330274,0.1134337,-0.2887039,0.1558516
0.004006277,0.2299419,0.9670958,0.01881154,-0.01723674,-0.002600143,0.1036125,-0.3050225,0.155061
0.004064312,0.23062,0.9754329,0.01889972,-0.01760232,0.006135304,0.09787982,-0.2956336,0.1535707
0.004297365,0.2321525,0.980892,0.01911014,-0.01705433,0.01198158,0.106813,-0.2823748,0.1488376
0.004866649,0.2281272,0.9747129,0.0196069,-0.02200552,0.006178073,0.1069947,-0.3001269,0.1450932
0.007644392,0.220319,0.963967,0.02226506,-0.03068173,-0.00420458,0.1070701,-0.3166415,0.1425346
0.01111129,0.2173193,0.9605547,0.02556795,-0.03449195,-0.00726615,0.1115396,-0.302674,0.142979
0.01097807,0.2245253,0.9630015,0.02522877,-0.02803934,-0.004480812,0.1113222,-0.2892301,0.1457454
0.01053385,0.232519,0.9638378,0.02453894,-0.0207426,-0.003318017,0.1107638,-0.2755515,0.147119
0.01206232,0.230919,0.9639724,0.02578443,-0.0229838,-0.002868708,0.1042895,-0.2825097,0.1456089
0.01294454,0.2282942,0.9649441,0.02634846,-0.02619523,-0.001594118,0.09960753,-0.2987285,0.1419044
0.01502043,0.2287441,0.9654554,0.02807305,-0.02627854,-0.0007913989,0.1026543,-0.2817684,0.1408085
0.01585644,0.2273624,0.9654083,0.0285266,-0.02814102,-0.0005585307,0.102916,-0.2724092,0.1371629
0.01234689,0.2272755,0.9652488,0.02460533,-0.0286574,-0.0004493026,0.1034307,-0.2740547,0.131095
0.009292682,0.2280209,0.966632,0.02111203,-0.02829126,0.001191234,0.09973264,-0.2656956,0.1315619
0.007340947,0.2281932,0.9685936,0.01869584,-0.02844924,0.003399066,0.09240999,-0.2644502,0.1298802
0.006153519,0.2304261,0.9692351,0.01702066,-0.02649864,0.004275682,0.09242864,-0.2609141,0.1263556
0.006282773,0.2295035,0.9686684,0.01664097,-0.02765696,0.003932975,0.0928572,-0.2606761,0.1294267
0.007592146,0.2268874,0.9682908,0.01742225,-0.0304636,0.003768158,0.09122356,-0.2665502,0.1319883
0.01086898,0.2273742,0.9683702,0.02015379,-0.03012323,0.004049189,0.0916094,-0.2644681,0.1307928
0.01063904,0.2258804,0.9674812,0.01936311,-0.03172078,0.00335079,0.09113378,-0.2635455,0.1277983
0.01066304,0.2249903,0.9671983,0.01881261,-0.03267301,0.003247474,0.088323,-0.2622075,0.1250294
0.01620298,0.2260577,0.9667254,0.02376583,-0.0316274,0.002943403,0.08416837,-0.2567367,0.1230118
0.01863966,0.2270261,0.9664786,0.02560494,-0.03064165,0.002854672,0.08171472,-0.249224,0.120555
0.0190003,0.2302583,0.968936,0.02535834,-0.02735435,0.00545962,0.08099481,-0.2414252,0.1190988
0.0175922,0.2297255,0.969898,0.02333443,-0.02779554,0.006558805,0.08116986,-0.2447235,0.1171144
0.01359419,0.2281797,0.9693711,0.01871311,-0.02921484,0.00615882,0.0845391,-0.2493789,0.1158333
0.01454367,0.2308864,0.9700081,0.01903292,-0.02634805,0.006912526,0.08756387,-0.2431522,0.1166217
0.0126484,0.2306987,0.9721558,0.01650283,-0.0263435,0.009166798,0.08935645,-0.2432963,0.1156175
0.008401275,0.2302339,0.9755153,0.01161696,-0.0265854,0.01262273,0.09494217,-0.2591664,0.1117279
0.01367429,0.2313296,0.973183,0.01624856,-0.02523775,0.01037658,0.09734022,-0.2736766,0.108324
0.01871992,0.2319607,0.962782,0.02065129,-0.024327,5.168847e-05,0.08918017,-0.2653431,0.1120757
0.01642333,0.2340849,0.9562241,0.01771126,-0.02189694,-0.006440124,0.08214343,-0.2352803,0.1191794
0.01404205,0.2335807,0.9680314,0.01468687,-0.02207069,0.005423978,0.08760107,-0.2187481,0.1180954
0.01344558,0.2326871,0.982592,0.01344852,-0.02261067,0.02003245,0.0926758,-0.2429445,0.1098976
0.01274705,0.2338453,0.9747736,0.01211026,-0.02107737,0.01225294,0.08651671,-0.2655967,0.1021822
0.01429227,0.2333441,0.9657709,0.01301882,-0.02118335,0.003280107,0.08298365,-0.2364385,0.1007401
0.01893613,0.2346326,0.9679501,0.01702992,-0.01948087,0.005480105,0.08337206,-0.2100733,0.1031043
0.02065273,0.237941,0.965465,0.01811836,-0.01574131,0.003007256,0.07983329,-0.2296521,0.1011313
0.02008988,0.2388543,0.9667851,0.01693243,-0.01438126,0.004331335,0.07813712,-0.2333279,0.0959138
0.02214432,0.2355623,0.9692162,0.01836932,-0.01721223,0.006758454,0.07581811,-0.2164536,0.09133946
0.02367442,0.2318947,0.9684712,0.01928776,-0.02040626,0.006001973,0.07136896,-0.2117097,0.09038774
0.02345547,0.2340583,0.9719962,0.01846333,-0.01775757,0.009508119,0.06704788,-0.1991293,0.09070651
0.02279781,0.2356028,0.9674394,0.01720662,-0.01571776,0.004925297,0.06137603,-0.1869527,0.08604867
0.02149863,0.2322805,0.9610902,0.01531508,-0.01853576,-0.001456648,0.05574487,-0.1732995,0.08280413
0.02018401,0.2313508,0.9613296,0.01341509,-0.01895333,-0.001256494,0.04789073,-0.1520905,0.08282632
0.0184261,0.2321634,0.9621074,0.01107914,-0.01762177,-0.0005237057,0.04369923,-0.1497904,0.08193424
0.0181127,0.2322682,0.9679663,0.01019548,-0.01699211,0.005284932,0.04404423,-0.1490139,0.08271052
0.01951269,0.233765,0.9708762,0.01103338,-0.01496558,0.008139761,0.0409506,-0.137876,0.0817114
0.0195834,0.235204,0.9691059,0.01055058,-0.01299292,0.006309745,0.04025682,-0.1322517,0.08056891
0.01988126,0.2347971,0.9692861,0.01030385,-0.01286324,0.006425748,0.04001632,-0.1326597,0.08356798
0.01923721,0.232908,0.9690616,0.009124448,-0.01421394,0.006132695,0.0357823,-0.1371441,0.08476523
0.01483881,0.2303113,0.9718693,0.004200242,-0.01627119,0.008867655,0.03177918,-0.1376415,0.08071538
0.01101465,0.2273677,0.975483,-0.0001397395,-0.01867516,0.01240449,0.02882096,-0.1383713,0.07405573
0.009423495,0.2261861,0.9764714,-0.00223618,-0.01931742,0.01331201,0.02985056,-0.1382439,0.07180055
0.008617421,0.2265693,0.9755658,-0.003536335,-0.01839582,0.01232121,0.0323531,-0.1324545,0.07403986
0.008525716,0.2252335,0.9753592,-0.004110241,-0.01919439,0.01202506,0.0351487,-0.1347667,0.0745893
0.008922385,0.2246608,0.9772752,-0.004183245,-0.01923165,0.01384714,0.03947158,-0.1379758,0.0732198
0.0102099,0.2252326,0.9769414,-0.003352295,-0.01812642,0.01341489,0.04050348,-0.1408558,0.07156949
0.00990569,0.2248221,0.9764249,-0.004099466,-0.01800594,0.0127953,0.04234753,-0.1473164,0.07217502
0.009563724,0.2252948,0.9739189,-0.004870359,-0.01700498,0.01018162,0.0483803,-0.1454518,0.07235669
0.01194859,0.2258878,0.9706766,-0.002900022,-0.01588682,0.006827029,0.05563473,-0.142885,0.06988361
0.01290476,0.2263618,0.9720019,-0.002343687,-0.01489106,0.008035638,0.06124716,-0.1419483,0.06820962
0.01219354,0.2258038,0.9699623,-0.003439889,-0.01493122,0.00587509,0.05841015,-0.1425271,0.06608408
0.01009147,0.224682,0.966521,-0.005911923,-0.01553934,0.002309069,0.04697307,-0.1447436,0.06459603
0.006383551,0.2268879,0.967717,-0.009974612,-0.01282427,0.003376861,0.0385053,-0.1349716,0.06534621
0.004780704,0.22877,0.9694167,-0.01191676,-0.01043789,0.004945289,0.04283385,-0.1273029,0.06799581
0.005432231,0.2285426,0.9704779,-0.01158873,-0.0101664,0.005872518,0.04806015,-0.13441,0.07186597
0.006016266,0.2296082,0.970919,-0.01131205,-0.008607551,0.006177201,0.04142882,-0.1370564,0.072091
0.005319194,0.2312071,0.972325,-0.01230006,-0.006521624,0.007444758,0.03782337,-0.1240706,0.0690685
0.005403844,0.2315744,0.9746697,-0.01248973,-0.005673959,0.009648927,0.04095548,-0.1177241,0.06581218
0.005937862,0.2285928,0.9747073,-0.01221323,-0.008182362,0.00954412,0.04094818,-0.1441529,0.06366136
0.005560916,0.2249977,0.9738987,-0.01283076,-0.01131187,0.008591345,0.04231349,-0.1679967,0.06201382
0.007832241,0.2260577,0.971985,-0.01078303,-0.009794049,0.006531683,0.04207836,-0.1497483,0.05973797
0.01114488,0.2266089,0.968166,-0.00767704,-0.008793097,0.002565067,0.03942474,-0.132146,0.05960034
0.01337151,0.2222456,0.9687436,-0.005640284,-0.01271469,0.002993678,0.03917533,-0.1393736,0.0582064
0.01435212,0.2198511,0.9707611,-0.004833115,-0.0146756,0.004861232,0.03593154,-0.1318865,0.05477634
0.01245957,0.2223092,0.9690174,-0.006883108,-0.01179209,0.002966963,0.03418188,-0.1171541,0.05297028
0.01031859,0.2255172,0.9711383,-0.009165936,-0.008166643,0.004936731,0.03492642,-0.1140481,0.05094946
0.008557355,0.2271304,0.9723887,-0.01105375,-0.006144065,0.006035741,0.03153768,-0.1054474,0.05122039
0.005977529,0.2266178,0.965578,-0.01374513,-0.006255504,-0.0009263328,0.02864599,-0.1048299,0.05173265
0.003491703,0.2269063,0.9587339,-0.01632762,-0.005574237,-0.00792145,0.02733048,-0.1062943,0.04959857
0.003446875,0.2281582,0.9578712,-0.01645428,-0.003938161,-0.008934319,0.0272246,-0.09720568,0.04945725
0.005032272,0.2265689,0.9649419,-0.01493592,-0.005151984,-0.002012284,0.02863033,-0.1007409,0.05042481
0.003926479,0.2240269,0.9723728,-0.01609403,-0.00732735,0.005272124,0.028339,-0.104683,0.05172604
0.003763831,0.2235589,0.9730872,-0.01629439,-0.007437553,0.005842352,0.02591034,-0.104962,0.05121304
0.004993609,0.225329,0.9716754,-0.01508784,-0.005318652,0.004288734,0.02251283,-0.1059949,0.04810282
0.004584737,0.2271708,0.9700981,-0.01550566,-0.003136898,0.002571893,0.02285083,-0.09708971,0.0473488
0.005561374,0.2261166,0.9695797,-0.01452388,-0.003860106,0.001916162,0.02486504,-0.09533,0.04481656
0.004138376,0.2241448,0.971024,-0.01592793,-0.005509843,0.003225615,0.02569717,-0.0956831,0.0407853
0.001599915,0.2234054,0.9728624,-0.01843387,-0.005936172,0.004931568,0.02859134,-0.09394997,0.04162868
0.003745004,0.2233577,0.972473,-0.0162429,-0.005679665,0.004412125,0.02829091,-0.09643828,0.04155355
0.006651095,0.2238408,0.9707233,-0.0132778,-0.004901114,0.002534806,0.02677522,-0.0899843,0.03914309
0.008309576,0.2232877,0.9719162,-0.01154754,-0.005167581,0.003602399,0.02741104,-0.08859186,0.03877385
0.005450739,0.2215959,0.973018,-0.01432227,-0.006581179,0.004581249,0.02673093,-0.09906278,0.03804024
0.0009495772,0.2201634,0.9747213,-0.01872741,-0.007743941,0.00616394,0.03450491,-0.1050966,0.03944405
0.003613648,0.2187422,0.9774671,-0.01595572,-0.008903557,0.008791388,0.04693678,-0.09566996,0.04243514
0.00552555,0.2185592,0.9746299,-0.01392488,-0.00883282,0.005837812,0.04307344,-0.08192306,0.03989876
0.003313304,0.2213931,0.967004,-0.01600723,-0.005752728,-0.001902628,0.02082705,-0.08430112,0.03692727
0.004082253,0.2250349,0.9606757,-0.01509777,-0.001872041,-0.008343556,0.003920377,-0.0779317,0.03769853
0.003138991,0.2248737,0.9643169,-0.01589029,-0.001801701,-0.004812662,0.01699996,-0.06806306,0.03667273
-0.0006832995,0.2232821,0.9711856,-0.01955193,-0.003168871,0.001948495,0.03243149,-0.09074438,0.03374303
-0.001447033,0.2240479,0.9685926,-0.02014535,-0.002185772,-0.0007490988,0.0194482,-0.1069086,0.03324096
0.001125671,0.2232883,0.9678461,-0.01739285,-0.00273525,-0.001597264,0.01358965,-0.08645572,0.03510157
0.003945048,0.2223776,0.9710222,-0.01438443,-0.003442913,0.001480317,0.02166787,-0.07158111,0.03523719
0.003014285,0.2221902,0.9708295,-0.01511725,-0.003434143,0.00119214,0.01914099,-0.08644309,0.03541939
0.002281394,0.2198497,0.9725955,-0.01564371,-0.00558535,0.002865903,0.02312622,-0.09586289,0.03626448
0.005213988,0.2192177,0.972142,-0.0124966,-0.006034537,0.002323131,0.02753825,-0.08614932,0.03367339
0.005639144,0.2188633,0.9678111,-0.0118493,-0.00621245,-0.002094091,0.02093302,-0.08554609,0.03192851
0.003637322,0.2166662,0.9662399,-0.01362185,-0.008239009,-0.003748585,0.01945672,-0.08554299,0.03135124
0.002850307,0.2156957,0.9680193,-0.01417296,-0.009044713,-0.00204933,0.01785399,-0.07997561,0.0286458
0.005077566,0.2190305,0.9738447,-0.01170358,-0.005550369,0.003699027,0.0184174,-0.08120787,0.02591159
0.008361742,0.2244044,0.9793135,-0.008171559,-2.190318e-05,0.009094012,0.02097234,-0.07826953,0.02369383
0.006984917,0.2222104,0.9807635,-0.009295361,-0.002066236,0.01047293,0.01719122,-0.07802409,0.02421331
0.005790569,0.2189101,0.9793253,-0.0102321,-0.005221732,0.00896592,0.01825174,-0.08141192,0.02652466
0.005732402,0.220002,0.9731357,-0.01002861,-0.003989714,0.002709495,0.01903486,-0.07695742,0.02829438
0.002417496,0.2177705,0.9677591,-0.0130783,-0.006085554,-0.002732335,0.01978149,-0.07345318,0.02644957
0.002153141,0.2170542,0.970626,-0.01307425,-0.006670611,7.103439e-05,0.02440551,-0.07145202,0.02173887
0.003644201,0.2176015,0.975094,-0.01131193,-0.00599596,0.004477151,0.02074002,-0.07500489,0.02320359
0.003474332,0.2167423,0.9735434,-0.011208,-0.006731674,0.002866418,0.01818189,-0.08109699,0.02383832
0.005720329,0.216994,0.97155,-0.00868602,-0.00635987,0.0008144189,0.01774833,-0.07423463,0.02115309
0.007905835,0.2152006,0.9682968,-0.006222769,-0.008036499,-0.002495862,0.0139827,-0.06786297,0.02149982
0.008181817,0.2150826,0.9629123,-0.005667769,-0.008040561,-0.007935787,0.01702137,-0.07068246,0.01571993
0.006832712,0.21618,0.9703357,-0.006737109,-0.006831964,-0.0005659024,0.01861727,-0.0723617,0.01096934
0.005204976,0.2174628,0.9801088,-0.008084821,-0.005440333,0.009155668,0.01744456,-0.07454635,0.01670547
0.008119312,0.220697,0.975596,-0.004890633,-0.002099413,0.004593236,0.02169554,-0.07638765,0.02224674
0.01111432,0.2195907,0.9721177,-0.001616393,-0.003101145,0.001066822,0.02292462,-0.07733774,0.02218635
0.008686729,0.2183084,0.9718949,-0.00376589,-0.004281007,0.0007973123,0.0238116,-0.08166397,0.01903912
0.004564392,0.2183573,0.9700044,-0.007611764,-0.004131689,-0.001138373,0.02775209,-0.08080137,0.01608889
0.001018729,0.2158069,0.9729695,-0.01088293,-0.006583522,0.001782856,0.02602497,-0.07798431,0.0128994
0.000936208,0.2165786,0.976189,-0.01069309,-0.005715182,0.004959807,0.02537885,-0.08467109,0.01467483
0.004890546,0.2187666,0.9813395,-0.006468591,-0.003432141,0.01006911,0.03564006,-0.08879907,0.0197257
0.006301061,0.220697,0.9895572,-0.004790272,-0.001408162,0.01824631,0.0507165,-0.08649187,0.01688282
0.005916956,0.2239808,0.98437,-0.004909172,0.001967584,0.01301881,0.05450283,-0.08986573,0.01546123
0.008209089,0.2229023,0.9632368,-0.002354726,0.0009792551,-0.008154943,0.03550127,-0.09172712,0.01644715
0.01051567,0.2193327,0.9502315,0.0002109358,-0.002501956,-0.02120107,0.01935559,-0.07566797,0.01222549
0.009760503,0.2182049,0.9674185,-0.0002887741,-0.003543347,-0.004054592,0.0333685,-0.06085621,0.01222872
0.007285429,0.2182063,0.9884379,-0.002512427,-0.003457469,0.01692525,0.04534144,-0.0807559,0.01619509
0.006985326,0.2199585,0.9783775,-0.002565467,-0.001622543,0.006826029,0.03573556,-0.09970216,0.01913467
0.008793617,0.2226668,0.9713345,-0.0005147262,0.001166693,-0.0002553462,0.03458583,-0.08028023,0.02000408
0.01036664,0.2236018,0.9804429,0.001295872,0.002180648,0.00881484,0.03839223,-0.07104306,0.01856204
0.01099798,0.225038,0.9741777,0.002159599,0.00369379,0.002511387,0.03347075,-0.09091665,0.01693024
0.01135713,0.2281589,0.9720876,0.00274561,0.006889403,0.000383044,0.03405091,-0.09864071,0.01257296
0.01428307,0.2293726,0.9758437,0.005892519,0.008175282,0.004100783,0.03453082,-0.08860405,0.01122196
0.01720508,0.2266405,0.9691668,0.009029205,0.005512333,-0.002614558,0.03194072,-0.08211133,0.01289074
0.01777982,0.2232117,0.9694074,0.009811808,0.002149477,-0.00241238,0.03396952,-0.08455815,0.009935435
0.01825673,0.2222133,0.9679931,0.01048923,0.00121366,-0.003864778,0.0320648,-0.08306768,0.008685362
0.01783394,0.2205741,0.9667255,0.01025908,-0.0003664232,-0.005170117,0.0285865,-0.07497142,0.007920113
0.01694045,0.2192056,0.9709584,0.00954986,-0.001679126,-0.000974198,0.02742536,-0.07236836,0.006357328
0.01560431,0.2209892,0.9683259,0.008389222,0.0001570235,-0.003642756,0.02670921,-0.07468325,0.008177028
0.01474641,0.2220348,0.9694131,0.007697757,0.00125207,-0.002590388,0.02865345,-0.07763344,0.007808485
0.01607487,0.2235316,0.9688345,0.009183352,0.002795271,-0.003202557,0.02875442,-0.0740293,0.008977018
0.01795371,0.2264694,0.9669958,0.0112098,0.005776419,-0.005073451,0.02920496,-0.06040988,0.01298458
0.02012968,0.2283022,0.9700422,0.01352364,0.00764927,-0.002057539,0.02877095,-0.051113,0.0135696
0.01993548,0.229413,0.9656518,0.01345726,0.008796817,-0.006476712,0.02296072,-0.05397989,0.01238003
0.01867174,0.2263747,0.9647901,0.01231099,0.005791494,-0.007365124,0.0202636,-0.06039862,0.009350669
0.02038271,0.2227019,0.9674112,0.01412884,0.002147997,-0.004768457,0.02237266,-0.05652768,0.007078416
0.02221867,0.2236095,0.9666359,0.01606087,0.003080962,-0.005565832,0.02398141,-0.04879372,0.006264657
0.02404645,0.2238556,0.9707201,0.01797364,0.00334859,-0.001501105,0.01966459,-0.04795721,0.002653936
0.02396236,0.2234071,0.9733008,0.01796317,0.002917894,0.001062711,0.01462859,-0.04357708,-0.0004797282
0.02099784,0.2240897,0.9722929,0.01506063,0.003614612,4.051847e-05,0.01731487,-0.03996651,0.0009341839
0.02110538,0.2253188,0.9711544,0.01521834,0.004854187,-0.00110995,0.01768007,-0.04172023,0.003707633
0.02360379,0.2269982,0.9686819,0.017755,0.006540427,-0.003592189,0.01567162,-0.04206436,0.003023329
0.02566841,0.2267385,0.965195,0.01984585,0.0062839,-0.007086544,0.01819066,-0.04443915,0.003428691
0.02610994,0.2270445,0.9622342,0.02030143,0.006589367,-0.0100524,0.02201772,-0.04593133,0.006095548
0.02683053,0.2292017,0.9611042,0.02102373,0.008742165,-0.01118481,0.02603516,-0.04494815,0.0053966
0.03035008,0.2295369,0.9613912,0.02453243,0.009069112,-0.01089722,0.02411846,-0.04496739,0.004412954
0.02975391,0.2287529,0.9684567,0.02391265,0.00827274,-0.003827783,0.02100817,-0.0472988,0.002690185
0.02793132,0.2283037,0.9795404,0.02205344,0.007807066,0.007263216,0.02562644,-0.04716734,8.982107e-05
0.03002922,0.2275952,0.9820542,0.02410156,0.007077866,0.009787314,0.02434207,-0.03435457,0.0008545701
0.02817154,0.22774,0.9716208,0.02218085,0.007197722,-0.0006332825,0.00915951,-0.01412364,0.001695599
0.02419949,0.2289416,0.9606003,0.01813249,0.008370118,-0.01163893,-0.005349854,0.0002415804,0.001493453
0.02156102,0.2295196,0.9647653,0.01540458,0.008914552,-0.00745679,-0.005334488,0.004312094,0.0003934285
0.02151427,0.230071,0.9674156,0.01525555,0.009428184,-0.004787085,-0.00413687,0.01431917,-0.002010501
0.02521301,0.2308073,0.9590742,0.01883956,0.01012224,-0.01310656,-0.01496847,0.03949496,-0.002526715
0.02504589,0.230431,0.9573436,0.0185456,0.00969937,-0.01481244,-0.02313966,0.05119307,-0.0001546761
0.02354436,0.2295459,0.956955,0.01690543,0.00876315,-0.01517311,-0.02757539,0.04142604,0.00170691
0.02318047,0.2285827,0.9572969,0.01639139,0.007744327,-0.01479973,-0.03065622,0.03603047,-0.0009814419
0.02255003,0.2271152,0.9643634,0.01559969,0.006216791,-0.007697662,-0.0277776,0.03802884,-0.003761148
0.02604568,0.2251298,0.9678465,0.01892338,0.004166983,-0.004174935,-0.0270171,0.03656882,-0.002619623
0.02672783,0.2244053,0.9675752,0.01942319,0.003374025,-0.004402443,-0.02164174,0.03597347,-0.00335405
0.02278876,0.2251305,0.9667345,0.01529174,0.004027036,-0.005195393,-0.01829409,0.03810871,-0.006885056
0.01935959,0.2241774,0.9680182,0.01166052,0.002998064,-0.003860139,-0.02606983,0.03842612,-0.008967622
0.01578273,0.2228982,0.9682168,0.007872501,0.001639899,-0.003606403,-0.02613733,0.04139797,-0.009228714
0.0148656,0.2232058,0.9651475,0.006735831,0.001865524,-0.00661727,-0.02277912,0.04511788,-0.009123536
0.01483324,0.2240282,0.9673302,0.006476346,0.002603389,-0.004372788,-0.02201622,0.04355801,-0.01033894
0.01356586,0.2261728,0.9684323,0.004975093,0.004661242,-0.003205881,-0.02411617,0.03813224,-0.01079959
0.01216243,0.2268274,0.969099,0.003331894,0.005226955,-0.002471514,-0.02893824,0.03144043,-0.007739397
0.01189841,0.2236297,0.9724317,0.002823065,0.001938473,0.0009314995,-0.02127457,0.03021096,-0.005808108
0.01322855,0.2203182,0.9705342,0.003904221,-0.001465509,-0.0008933874,-0.01529563,0.02949363,-0.006437441
0.01259981,0.2187521,0.970965,0.003023136,-0.003125375,-0.000388044,-0.01939825,0.02299716,-0.006398833
0.01433626,0.2192149,0.9718359,0.004504624,-0.002757208,0.0005590729,-0.01890425,0.0215894,-0.00905667
0.01821547,0.2200033,0.9697278,0.008126929,-0.002063878,-0.001471491,-0.01750581,0.02368046,-0.01186498
0.01738006,0.2191203,0.9716784,0.007033202,-0.003041903,0.0005576378,-0.01781825,0.02360117,-0.008930605
0.0136171,0.2197231,0.9733385,0.003010989,-0.002533721,0.002296972,-0.0193804,0.02548849,-0.006324085
0.008957539,0.2212109,0.9759489,-0.001908226,-0.001139757,0.004986961,-0.01944179,0.02396323,-0.006796936
0.006728911,0.2206333,0.9778942,-0.004396205,-0.001810217,0.007011863,-0.01627667,0.01910968,-0.006964654
0.004894924,0.2192876,0.9755097,-0.00648841,-0.003247361,0.004706367,-0.0135481,0.01619829,-0.00670069
0.002802621,0.218685,0.9759111,-0.008836889,-0.003939821,0.005185793,-0.01053007,0.01159356,-0.005592502
0.005965823,0.2187877,0.9754728,-0.005926907,-0.003925121,0.004824029,-0.01088009,0.00905101,-0.005282768
0.007283715,0.2171867,0.9727541,-0.004858442,-0.005611799,0.002180196,-0.0103329,0.01008151,-0.006805844
0.007776735,0.2165219,0.9731951,-0.004610351,-0.006359725,0.002693982,-0.003237737,0.008489789,-0.007689565
0.01206881,0.2183616,0.9728324,-0.0005581445,-0.004600296,0.002401771,0.004092767,0.007213804,-0.006444482
0.01260271,0.2178564,0.9716551,-0.0002586122,-0.005182524,0.001292725,0.008208765,0.006602075,-0.005060891
0.0107493,0.2175781,0.9693991,-0.002340607,-0.005534462,-0.0008975463,0.004219233,0.000782351,-0.006895719
0.009154227,0.2171015,0.965444,-0.004158188,-0.006081045,-0.0047895,-0.01166418,-0.001860956,-0.01024081
0.008886074,0.2154256,0.9673337,-0.004642444,-0.007823081,-0.002838845,-0.02556559,0.01669641,-0.01262974
0.008433915,0.2162072,0.9719991,-0.005303956,-0.007103419,0.001885244,-0.01704408,0.03540895,-0.01299704
0.004068028,0.2143003,0.9767756,-0.00987208,-0.009067957,0.006718285,-0.004632823,0.01711301,-0.009477878
0.003370449,0.2131602,0.9811786,-0.01076435,-0.01026093,0.01117536,-0.01362133,0.0001573881,-0.005077481
0.004858721,0.2165004,0.9767869,-0.009462746,-0.006968734,0.006834948,-0.01659976,0.02051072,-0.00395105
0.003760209,0.2169491,0.972871,-0.01073945,-0.00656287,0.002967309,-0.01027038,0.02704974,-0.00464774
0.004850968,0.2166475,0.9742352,-0.009818002,-0.006901988,0.004376346,-0.01517864,0.001996976,-0.004320701
0.007435842,0.2170948,0.9733959,-0.007393241,-0.006486928,0.003578447,-0.01402257,-0.01000148,-0.005590011
0.01163495,0.218183,0.9755711,-0.003344849,-0.005425672,0.005791623,-0.01107614,0.006691068,-0.008088488
0.01318775,0.2199904,0.9772601,-0.001933367,-0.003639791,0.007514981,-0.01292144,0.02299105,-0.007156858
0.008204649,0.2176294,0.9756218,-0.007048468,-0.006017076,0.005907244,-0.009405124,0.0151495,-0.006952225
0.004429607,0.2157054,0.9747847,-0.01094625,-0.00795206,0.005096843,-0.01110792,0.01183559,-0.008179831
0.003489194,0.2170636,0.9731343,-0.01200005,-0.006599813,0.003469159,-0.01382835,0.02236034,-0.007575615
0.002981568,0.2177278,0.9743161,-0.0126115,-0.005936192,0.004669761,-0.01383686,0.01990055,-0.008544459
0.004279484,0.2172784,0.9761584,-0.01140763,-0.006381112,0.006526891,-0.01435469,0.01821145,-0.0103625
0.006283917,0.2136993,0.9764455,-0.009487319,-0.009950658,0.006824767,-0.01123868,0.01831571,-0.01091166
0.006059928,0.2098125,0.978499,-0.009785448,-0.01382267,0.008884902,-0.01144334,0.01420608,-0.008555001
0.005578748,0.2116744,0.9786473,-0.01033079,-0.0119407,0.009035655,-0.01140114,0.02118051,-0.004827296
0.006921655,0.2150887,0.9774893,-0.009042118,-0.008500813,0.007875767,-0.01019888,0.02264622,-0.006066137
0.006350273,0.2155322,0.9776504,-0.009657869,-0.008026154,0.00803057,-0.01238774,0.01425713,-0.008681959
0.006491998,0.2161563,0.9773559,-0.009550755,-0.007365381,0.007725132,-0.01183274,0.009859471,-0.009127007
0.0076483,0.2138455,0.9755106,-0.008419436,-0.009634096,0.005864364,-0.01077428,0.01326045,-0.01153312
0.005504171,0.2095444,0.9742508,-0.01057907,-0.01388765,0.004584443,-0.01067924,0.02043879,-0.01377376
0.005222497,0.2127746,0.9761871,-0.01086692,-0.01060451,0.006496264,-0.01115297,0.01732905,-0.01217209
0.005943276,0.2155691,0.977182,-0.01014312,-0.007751601,0.00746229,-0.01177334,0.0165502,-0.01065188
0.00518785,0.2130712,0.9770181,-0.01088644,-0.01018567,0.007265218,-0.009982287,0.02039748,-0.0113645
0.005813944,0.2136905,0.9790992,-0.01023933,-0.009497104,0.009308827,-0.008551684,0.0175565,-0.01042042
0.00548819,0.213602,0.9790944,-0.0105353,-0.009511084,0.00926221,-0.008306001,0.01873193,-0.00849542
0.005420665,0.2126638,0.9759947,-0.01056446,-0.01036969,0.006116417,-0.008493691,0.01687027,-0.008796664
0.005819527,0.2143405,0.9728707,-0.01011883,-0.008608176,0.002941943,-0.00697033,0.01243514,-0.00999687
0.00528258,0.2139504,0.9703382,-0.01060083,-0.008908589,0.0003550021,-0.004685599,0.01183737,-0.009621459
0.005727958,0.2126036,0.9708758,-0.01009251,-0.01016082,0.0008343703,-0.002804371,0.007928639,-0.009086196
0.005538184,0.2126188,0.9780277,-0.01021158,-0.01004632,0.007924698,0.003141789,0.008341969,-0.01138873
0.005432571,0.213297,0.9851377,-0.01023897,-0.009264258,0.01496991,0.006506418,0.008524763,-0.01260633
0.006108328,0.2133553,0.9782118,-0.009477682,-0.009097592,0.00797586,-0.0003991313,0.006832813,-0.01123657
0.00715859,0.209532,0.9692677,-0.008334864,-0.01280817,-0.001039722,-0.005525388,0.01679017,-0.01119457
0.008447671,0.2058455,0.9751333,-0.006946503,-0.01637766,0.004751106,0.002014285,0.02461677,-0.0110442
0.005512862,0.2092509,0.9798198,-0.009775651,-0.01285077,0.009359924,0.00756695,0.01364812,-0.01072097
0.001053524,0.2129959,0.9798925,-0.01412323,-0.008979872,0.009352067,-1.086807e-05,0.001633166,-0.01083854
0.0008614517,0.2107767,0.9819569,-0.01419759,-0.01106867,0.01133303,-0.004988977,0.003999583,-0.01116391
0.001761731,0.2104227,0.9782502,-0.01317371,-0.01128813,0.007539948,-0.002184975,0.0008354705,-0.01196565
0.001330408,0.2121196,0.9759827,-0.0134756,-0.009452562,0.005183083,-0.002087913,-0.01235411,-0.009979638
0.001446605,0.2115756,0.976205,-0.01322423,-0.009853832,0.005313091,-0.002741114,-0.01492663,-0.008037787
0.00259771,0.2127006,0.9753246,-0.01193231,-0.008582363,0.004337826,-4.49328e-05,-0.003758734,-0.009369602
0.003882804,0.2128117,0.9775987,-0.01050091,-0.00832121,0.006514471,0.00341444,0.008297673,-0.009921339
0.004874852,0.2109783,0.9765936,-0.009357295,-0.01000109,0.005409616,0.005727773,-0.001574071,-0.009240978
0.005933025,0.211193,0.9783828,-0.008142571,-0.009629708,0.007096927,0.004989451,-0.01930188,-0.009205973
0.007301659,0.2110333,0.9823715,-0.006612746,-0.009629671,0.01098166,0.00237335,-0.01652256,-0.009706734
0.007170379,0.2106689,0.9790015,-0.006578582,-0.009831515,0.007505492,0.002296366,-0.01537521,-0.009696293
0.00556217,0.2097521,0.9784341,-0.0080175,-0.01058307,0.006829844,0.005138514,-0.01813408,-0.009525595
0.005432608,0.2084026,0.9788233,-0.007974286,-0.01176457,0.007108814,0.01014407,-0.01626748,-0.008991497
0.00565528,0.2101215,0.9770628,-0.007575682,-0.009875322,0.00523612,0.01333048,-0.01990018,-0.004709055
0.005413282,0.2113388,0.9774854,-0.007638898,-0.008485179,0.005544696,0.01048331,-0.01621321,-0.001471361
0.005894934,0.212226,0.9754339,-0.006975922,-0.007422919,0.003377534,0.009206176,-0.01390096,-0.005872856
0.006530552,0.2158083,0.9741732,-0.006156746,-0.003663536,0.001999632,0.01193809,-0.02215276,-0.009902809
0.008443998,0.2174781,0.9747494,-0.004057843,-0.001815028,0.002457577,0.0122514,-0.02505104,-0.008957392
0.01080864,0.2166255,0.9721281,-0.001506243,-0.002487706,-0.0002828153,0.01103586,-0.02068263,-0.008734008
0.01227877,0.2164158,0.967656,0.0001518845,-0.002516774,-0.004874578,0.01019757,-0.01482227,-0.008866994
0.01301027,0.2169774,0.9657646,0.00107186,-0.001774166,-0.006885686,0.01063874,-0.01835699,-0.007835294
0.01229805,0.216923,0.9667842,0.0005480418,-0.001647666,-0.005985073,0.01166408,-0.02205516,-0.008029779
0.01236064,0.2145816,0.9667983,0.0007983969,-0.003808562,-0.006088813,0.01162591,-0.01773512,-0.01239924
0.01279292,0.2116423,0.9666102,0.001417301,-0.006568299,-0.006393096,0.01169068,-0.01705824,-0.0162205
0.01260708,0.2122148,0.9666614,0.001416467,-0.005817036,-0.006455749,0.009869055,-0.01401842,-0.01245954
0.01438425,0.2151228,0.9666124,0.003376537,-0.002731422,-0.006615809,0.008675581,-0.01454111,-0.009563623
0.01606271,0.21559,0.9675429,0.005235333,-0.002087944,-0.005793239,0.01375944,-0.02107045,-0.01054079
0.01622925,0.2156457,0.9702092,0.005579099,-0.001857446,-0.003231412,0.01874543,-0.02099759,-0.009204208
0.01668705,0.218132,0.9750635,0.006210504,0.0008018595,0.001522278,0.01815596,-0.02279594,-0.008612398
0.01723164,0.2197196,0.9778906,0.006924558,0.002560357,0.004252622,0.02234073,-0.03077637,-0.008535143
0.01869978,0.2180697,0.9791946,0.008557492,0.00107878,0.005463485,0.03404447,-0.04209378,-0.007384632
0.02170782,0.215574,0.9766494,0.01172516,-0.001251426,0.002828699,0.03538818,-0.044093,-0.006713907
0.02312806,0.2169014,0.9642075,0.01329925,0.0002383539,-0.009699493,0.02299664,-0.02697007,-0.006274213
0.02174888,0.2192396,0.9568333,0.01206753,0.002735601,-0.01715653,0.01513943,-0.007488315,-0.006650553
0.02091485,0.2194555,0.9691381,0.01137399,0.003106979,-0.004930489,0.01913408,-0.0002399793,-0.008731561
0.02007277,0.2213171,0.9812114,0.01066495,0.0051201,0.007068435,0.02466237,-0.01543608,-0.01183007
0.01877718,0.2236348,0.9722595,0.009494564,0.007585135,-0.001953446,0.02387471,-0.03235312,-0.01172637
0.01960152,0.2252528,0.9654009,0.01043595,0.009345671,-0.008877831,0.02315517,-0.02498637,-0.009950677
0.0196907,0.2238879,0.9741867,0.01063379,0.008118216,-0.0001535119,0.02327518,-0.02332893,-0.009607427
0.02032352,0.2205128,0.9735666,0.01136663,0.004874982,-0.0008307466,0.02109223,-0.0299563,-0.00761463
0.02632493,0.2217755,0.9649684,0.01745918,0.006263702,-0.009481809,0.02192391,-0.0233629,-0.007119064
0.03278496,0.221743,0.9622681,0.02400108,0.006351048,-0.01223055,0.02192846,-0.01814708,-0.008863101
0.03332345,0.2200769,0.9656489,0.02461159,0.004798567,-0.008893507,0.02189491,-0.01415574,-0.009246553
0.03177426,0.2214335,0.9723584,0.02312388,0.006262269,-0.002222808,0.02631994,-0.01624081,-0.01149454
0.03320062,0.2215605,0.9693317,0.02460054,0.006489848,-0.00528323,0.02752365,-0.02585577,-0.01338329
0.0311747,0.2231432,0.9652479,0.02261319,0.008166401,-0.009395751,0.02523955,-0.02213839,-0.0110425
0.02651059,0.2258172,0.9661606,0.01797548,0.0109274,-0.008506663,0.02308352,-0.02129712,-0.008510624
0.0276986,0.2268463,0.9613731,0.01917747,0.01203641,-0.0133125,0.02340664,-0.02663732,-0.008014028
0.02840489,0.226767,0.9625542,0.01988519,0.01202968,-0.01214427,0.02491346,-0.02090268,-0.01047112
0.02714254,0.2257001,0.966458,0.01861163,0.01102767,-0.008247601,0.02265861,-0.01291885,-0.01354433
0.02815709,0.2265961,0.9667086,0.01960229,0.01198075,-0.007998277,0.01937746,-0.002876838,-0.01209636
0.02860093,0.2256513,0.9704636,0.02000954,0.01108488,-0.004238704,0.01545184,-0.0004850282,-0.01070276
0.03207636,0.2241782,0.9709559,0.02343567,0.009652577,-0.003736118,0.01258442,-0.00136464,-0.01188197
0.03654054,0.2255005,0.9695038,0.02783776,0.01100748,-0.005172352,0.008178717,0.0164357,-0.01020018
0.03589319,0.2244874,0.9639893,0.02711531,0.0100187,-0.01066561,-0.004858037,0.03275065,-0.008671732
0.0351373,0.2229203,0.957146,0.0262711,0.008467593,-0.01748231,-0.01675281,0.04626332,-0.01040582
0.03492897,0.2210715,0.9614431,0.02596103,0.006626702,-0.01315309,-0.02254222,0.06097199,-0.01228171
0.03268885,0.2203575,0.964324,0.02360569,0.005912561,-0.0102343,-0.02629437,0.0593363,-0.01414391
0.03225797,0.223393,0.9618778,0.0230461,0.00894014,-0.01263673,-0.02895472,0.05912499,-0.01555703
0.03147769,0.2250959,0.9641738,0.02212375,0.01062756,-0.01029096,-0.03296829,0.06302797,-0.01672967
0.02758601,0.2263294,0.9691974,0.01807686,0.01183811,-0.005211633,-0.03259499,0.06283262,-0.01672938
0.02652576,0.2276234,0.9729847,0.0168486,0.01310166,-0.001362841,-0.02921252,0.06471867,-0.01340735
0.02502516,0.2274644,0.9723958,0.01516768,0.01290479,-0.001885,-0.03058581,0.06221097,-0.01157708
0.02132053,0.2258937,0.969814,0.01127097,0.01128866,-0.00439503,-0.02972908,0.06206332,-0.01157953
0.02351216,0.2223758,0.9690928,0.01325943,0.00771801,-0.005039985,-0.0236194,0.06021209,-0.009041272
0.0264092,0.2217342,0.9694007,0.01594293,0.007016381,-0.004651637,-0.01616573,0.05129961,-0.007425322
0.02702869,0.2234692,0.9674704,0.01633908,0.008684424,-0.006497517,-0.01390658,0.05037042,-0.008488924
0.02769987,0.2238056,0.9586258,0.01677764,0.008947265,-0.015254,-0.02543688,0.05804813,-0.008618923
0.02432179,0.2235235,0.9525425,0.01315812,0.00858511,-0.02124533,-0.03754356,0.07413623,-0.006676051
0.01896862,0.2225243,0.9667212,0.007555279,0.007499646,-0.006970469,-0.0356102,0.08320452,-0.006204375
0.0137873,0.2220438,0.983125,0.002116806,0.00692708,0.009533534,-0.02942691,0.07022464,-0.009051578
0.01381125,0.2228994,0.9746882,0.001877079,0.007684861,0.001200615,-0.02723194,0.06161675,-0.01038429
0.01721473,0.2258245,0.9663161,0.005011406,0.01050689,-0.007064596,-0.02858618,0.07227131,-0.01173193
0.01454199,0.2282357,0.9715952,0.002065013,0.01280989,-0.001676154,-0.03161685,0.07816698,-0.01599205
0.01481834,0.2243117,0.9677234,0.002064112,0.008772606,-0.005436325,-0.0319651,0.06448947,-0.01572382
0.01745329,0.2195083,0.9620703,0.004419103,0.00385104,-0.01097587,-0.03014473,0.05434328,-0.01360562
0.01587099,0.220544,0.9605019,0.002554928,0.00476396,-0.01242863,-0.02916111,0.05871499,-0.0143212
0.01712925,0.2214446,0.9623749,0.003530156,0.005537716,-0.01043797,-0.02826996,0.0596926,-0.01235495
0.01683338,0.2194179,0.9717061,0.002950783,0.003380437,-0.0009869961,-0.02806443,0.056214,-0.01261633
0.0158111,0.219194,0.9705494,0.001645187,0.00302266,-0.002021979,-0.03101389,0.05054826,-0.01411762
0.01603561,0.2196676,0.9681087,0.001587209,0.003359387,-0.004339266,-0.03202382,0.04351407,-0.009908472
0.01179731,0.2197889,0.9730885,-0.002932111,0.003341412,0.0007651512,-0.02750957,0.04543761,-0.00715248
0.0106039,0.2222613,0.9707691,-0.004404343,0.005672371,-0.001428606,-0.02533759,0.04855947,-0.006267239
0.01314445,0.2238584,0.9738763,-0.002139693,0.007126266,0.001804761,-0.02660399,0.0415049,-0.00651524
0.01421583,0.2208129,0.9777968,-0.001340583,0.003935895,0.005851575,-0.02616464,0.03761167,-0.009360532
0.01336275,0.2163773,0.9711337,-0.002461698,-0.0006458539,-0.0006856272,-0.02454767,0.04346257,-0.007503114
0.01119586,0.21594,0.9683554,-0.004891861,-0.001230203,-0.003338691,-0.02252904,0.04462175,-0.006091592
0.01135544,0.217303,0.9713565,-0.004990231,-1.475951e-05,-0.0002134642,-0.02145963,0.03790142,-0.01108281
0.01092379,0.2166055,0.9753221,-0.005673936,-0.0008597796,0.003875054,-0.02181725,0.03220536,-0.01299025
0.01064042,0.2174451,0.9754924,-0.006202926,-0.0001671826,0.004166811,-0.02273118,0.03386067,-0.009951046
0.01103874,0.2186287,0.9743295,-0.006043288,0.0008702555,0.003123351,-0.02248819,0.0370873,-0.007995008
0.009403612,0.2176774,0.9756265,-0.007909689,-0.0002261629,0.004537475,-0.01898301,0.03522321,-0.007351711
0.0100423,0.2169625,0.974605,-0.007494412,-0.001084597,0.003630334,-0.01482366,0.03573139,-0.007415195
0.009075612,0.2157623,0.9750355,-0.008676204,-0.002426538,0.004172277,-0.01190015,0.03448494,-0.007956491
0.005595201,0.2155323,0.9753149,-0.01236299,-0.00279617,0.004559796,-0.01326247,0.0301337,-0.008910691
0.004153891,0.2163993,0.9744862,-0.01400148,-0.002066227,0.003835711,-0.01999691,0.03052318,-0.01009896
0.005046535,0.2156829,0.9758494,-0.01329628,-0.002917004,0.005299635,-0.0242319,0.02914548,-0.007465638
0.008337664,0.2145753,0.977931,-0.01018238,-0.004155698,0.007477884,-0.02135457,0.02602422,-0.004199419
0.007147419,0.2129131,0.9854605,-0.01153929,-0.005945715,0.01509955,-0.01138714,0.02013505,-0.005909604
0.006144682,0.2117437,0.9910098,-0.01269783,-0.007239016,0.02073622,-0.0006046484,0.01243915,-0.007681006
0.009875336,0.2127419,0.986091,-0.009111908,-0.006360542,0.01589901,0.003275983,0.01338968,-0.008277018
0.009754197,0.2125796,0.9795718,-0.009366544,-0.006638068,0.009455043,0.004802833,0.01473855,-0.009865761
0.009530606,0.2110196,0.9718447,-0.009712349,-0.00830838,0.001796452,0.005556371,0.01388105,-0.01030676
0.008755475,0.2103745,0.9637622,-0.0105984,-0.009058592,-0.006224222,-0.0009172163,0.01983253,-0.009670571
0.005716035,0.2106115,0.970559,-0.01373744,-0.008921006,0.0006279827,-0.008489499,0.0237091,-0.008918144
0.005473649,0.2130528,0.9822706,-0.01406803,-0.006573394,0.01238903,-0.0064943,0.01847433,-0.009137739
0.005074211,0.2150884,0.9768567,-0.01454416,-0.004625245,0.007018459,-0.005785081,0.01760195,-0.01073334
0.004875254,0.2144778,0.9735661,-0.01480819,-0.005317178,0.003765244,-0.01163444,0.02833218,-0.01050758
0.004065548,0.215317,0.9788669,-0.01567125,-0.004553031,0.009097228,-0.01017106,0.03421689,-0.006346434
0.003394009,0.2152437,0.975453,-0.01638435,-0.004695213,0.005708421,-0.00841573,0.02351791,-0.001872484
0.004007156,0.2120948,0.9761574,-0.01580088,-0.007906661,0.006431933,-0.01128354,0.01051965,-0.001996138
0.002819326,0.2104986,0.9786964,-0.01700646,-0.009559091,0.008983969,-0.009766069,0.01356864,-0.003903006
0.00615447,0.2103582,0.9743856,-0.01367713,-0.009749372,0.004680257,-0.01003219,0.02416385,-0.005767868
0.009546126,0.2087917,0.9745315,-0.01027943,-0.0113591,0.004827437,-0.01123664,0.02702313,-0.009992916
0.005436556,0.2064295,0.9766403,-0.01437132,-0.01375778,0.006931613,-0.01099499,0.02340678,-0.009465046
0.002683277,0.2081507,0.9796238,-0.0170955,-0.01206607,0.009904915,-0.01140891,0.01662673,-0.005181705
0.003377539,0.2110561,0.9822314,-0.01636085,-0.009182815,0.01249661,-0.006876206,0.01657005,-0.005871592
0.003019333,0.2085365,0.9834966,-0.01666745,-0.01171727,0.01374017,-0.004573818,0.01949525,-0.005410914
0.002263421,0.2074835,0.9834047,-0.01736064,-0.01277777,0.0136207,-0.009002621,0.01465653,-0.00407187
0.002973061,0.2093566,0.9767562,-0.01657726,-0.01090458,0.006938571,-0.01136744,0.01178975,-0.005515194
0.00337937,0.2098356,0.9737024,-0.01608635,-0.01041806,0.003845003,-0.0100502,0.008117317,-0.005618974
0.004823142,0.2121464,0.9753907,-0.01454728,-0.008092115,0.005487704,-0.009413554,0.006279685,-0.006932235
0.01003041,0.2142444,0.9768353,-0.009234293,-0.005971501,0.006881147,-0.01202544,0.008567417,-0.007178126
0.0121677,0.2148556,0.9785832,-0.006981309,-0.005330658,0.00857247,-0.01444384,0.006456993,-0.006414615
0.009299629,0.21317,0.9764184,-0.009724279,-0.006979622,0.006346024,-0.01541343,0.01842215,-0.009330843
0.005609488,0.2087599,0.9761054,-0.01328047,-0.0113464,0.005966311,-0.01637968,0.03202475,-0.01051041
0.002247775,0.2097026,0.9763027,-0.01649979,-0.01035393,0.00609203,-0.01567847,0.0227865,-0.008292174
-0.0004403698,0.2133796,0.974219,-0.01903735,-0.006620758,0.003932375,-0.01367522,0.01521575,-0.004893147
-0.003605303,0.2131348,0.9740929,-0.0220436,-0.006803137,0.003725924,-0.0102312,0.01756126,-0.00281831
-0.003649025,0.2098809,0.9756525,-0.0219205,-0.009988609,0.00520121,-0.008046527,0.01638476,-0.002426465
-0.001724556,0.2052534,0.97917,-0.01982104,-0.01454192,0.008630765,-0.01005307,0.01315187,-0.0004486132
-0.002239815,0.2067856,0.9779069,-0.02015312,-0.01292967,0.007276109,-0.01117498,0.01065403,-0.00111272
0.001342059,0.2111726,0.9757195,-0.01637995,-0.008456742,0.004993901,-0.006311961,0.007582094,-0.004814887
0.006139197,0.2110889,0.9771824,-0.01138361,-0.008448887,0.006358631,0.000390839,0.005153584,-0.006310513
0.004797195,0.2123457,0.9758208,-0.01251887,-0.007094944,0.004895924,0.001259143,0.006446648,-0.00471772
0.00588104,0.2128557,0.9764181,-0.01122122,-0.00648264,0.005389356,0.0009064351,0.009493483,-0.002866665
0.009898813,0.2118619,0.9768539,-0.006983107,-0.007369092,0.005718563,0.004898648,0.009635325,-0.0058443
0.008153474,0.2120915,0.9739388,-0.008502148,-0.007027527,0.002694612,0.01170378,0.004804018,-0.008484373
0.005608393,0.2105245,0.9679956,-0.01081559,-0.008478231,-0.003359562,0.01473738,0.0007353794,-0.005840271
0.005754038,0.2109973,0.9600969,-0.0104335,-0.007884968,-0.01137082,-0.002664698,0.006592636,-0.004191623
0.005177695,0.2110995,0.9655729,-0.01076905,-0.007658364,-0.006008214,-0.02007504,0.02426836,-0.002761875
0.004411142,0.2082234,0.9788744,-0.01129088,-0.0104063,0.007179725,-0.0009847889,0.03386582,-0.0006652048
-0.0004332383,0.208266,0.9849627,-0.01588698,-0.01023192,0.01315455,0.01823071,0.005777667,-0.003800554
-0.005605,0.2102518,0.9873416,-0.0208071,-0.008111037,0.01541999,0.007490392,-0.02718995,-0.006895482
-0.0001434497,0.2121461,0.9836564,-0.01509061,-0.006078276,0.01162089,0.004336483,-0.01812713,-0.002041519
0.005559185,0.2126469,0.9779013,-0.009129804,-0.005435961,0.005751234,0.009485396,-0.01314859,0.002356524
0.002747056,0.2123121,0.9767032,-0.0116808,-0.005626445,0.004437763,0.006322259,-0.03328452,-3.357757e-05
0.00390078,0.2117982,0.9749666,-0.01026336,-0.005993724,0.002585162,0.01194879,-0.02961136,-0.0007968108
0.008961482,0.2101405,0.9738854,-0.004936727,-0.007502458,0.001387282,0.01516719,-0.01095812,0.0004575
0.008854858,0.2094717,0.9745039,-0.00477571,-0.008020431,0.001888969,0.00910838,-0.0001187462,-0.001108799
0.008766178,0.2080113,0.9770722,-0.004595607,-0.009328163,0.004340345,0.008526412,-0.004767497,-0.002346326
0.01035556,0.2077294,0.9780497,-0.002736892,-0.009455734,0.005201024,0.008124276,-0.02199888,-0.003089019
0.009095752,0.2089374,0.9747087,-0.003727391,-0.008091777,0.001743434,0.008615898,-0.01596598,-0.002058829
0.006317801,0.2073805,0.9769912,-0.006236603,-0.009491216,0.003909661,0.007562865,-0.00979421,0.002085972
0.002291247,0.2082031,0.9792774,-0.009995406,-0.008509564,0.006080015,0.004970548,-0.0181453,0.003969248
0.0002614676,0.2098483,0.9781941,-0.01175867,-0.006704128,0.004881312,0.009826951,-0.02092241,0.002287758
0.0031965,0.2089142,0.9800308,-0.00855848,-0.007476608,0.006603162,0.01440652,-0.03547527,-0.0001619164
0.006227119,0.2098548,0.9765428,-0.005264198,-0.006373454,0.003000882,0.01857057,-0.03459269,-5.554961e-05
0.008456644,0.2112111,0.9735168,-0.002772755,-0.004853678,-0.0001389555,0.0189229,-0.02616544,0.001703982
0.01062962,0.212191,0.9740042,-0.0003399852,-0.003709622,0.000235302,0.01423748,-0.03806569,0.001864918
0.0136517,0.2137605,0.97236,0.002939279,-0.001975598,-0.001521031,0.0148894,-0.03288466,0.002210568
0.0191509,0.2140317,0.9722054,0.008692458,-0.001539783,-0.001786445,0.01434847,-0.02469647,0.0007302043
0.02060543,0.2128891,0.9684095,0.01039701,-0.002518092,-0.005691664,0.01447453,-0.02082453,-0.002446095
0.01762607,0.2121439,0.9674373,0.007662875,-0.003099652,-0.00677126,0.01550025,-0.01656092,-0.003729948
0.01654701,0.2125394,0.9727243,0.006823464,-0.002541312,-0.001589333,0.01214443,-0.02899996,-0.003579521
0.01469276,0.2129604,0.9737885,0.005202669,-0.001958592,-0.000627482,0.01141559,-0.02917624,-0.0007244118
0.01215444,0.2143779,0.9722924,0.002891112,-0.0003808424,-0.002223102,0.008998907,-0.01827236,0.000823212
0.01215996,0.2167422,0.9701479,0.003116339,0.002142132,-0.004464069,0.008202653,-0.01235663,-0.0001849528
0.01176868,0.2171619,0.9726532,0.002937474,0.002718425,-0.00205206,0.01155698,-0.01492081,0.0006197926
0.01077306,0.2163534,0.9766726,0.002146755,0.00206424,0.001877431,0.0117217,-0.02875151,0.001071187
0.01119571,0.216112,0.9741842,0.002766648,0.001974223,-0.0006974093,0.01552982,-0.02891026,0.002016671
0.01220009,0.2141981,0.9723683,0.003960488,0.0002087504,-0.0025964,0.01800975,-0.0244643,0.003292525
0.01269778,0.211297,0.9735711,0.004639723,-0.002547286,-0.00147329,0.01703835,-0.02761457,0.002962294
0.0137847,0.2113624,0.9810897,0.005900145,-0.002340244,0.005969077,0.02524561,-0.03997355,0.002847412
0.01867384,0.2115337,0.9893855,0.01095453,-0.002030752,0.01419187,0.03701747,-0.05856014,0.002774731
0.02432426,0.2110751,0.984577,0.01676164,-0.002354585,0.009313239,0.03709066,-0.04495068,0.00364569
0.02372804,0.2140291,0.9743892,0.01631306,0.0007306326,-0.0009425075,0.01638765,-0.01625926,0.003880436
0.02095471,0.216439,0.9680316,0.01367776,0.003268277,-0.007365865,-0.002313936,-0.00073207,-0.0001512921
0.02009861,0.2161305,0.9676377,0.01294966,0.003083743,-0.00782335,0.01097821,0.008538846,-0.009968236
0.01724881,0.2164439,0.9692108,0.01021749,0.003517184,-0.00631117,0.0231206,0.0005437615,-0.02024625
0.01682048,0.2160814,0.9667024,0.009896266,0.003270512,-0.008877546,0.006315032,-0.002578346,-0.02139447
0.01758558,0.2149994,0.9701619,0.01075788,0.002300036,-0.005472709,-0.004243198,0.004297889,-0.01861495
0.01491518,0.2163864,0.9749772,0.008173375,0.003794015,-0.0007085173,-0.00140999,0.002467931,-0.01624004
0.01951534,0.2190798,0.9662101,0.01284884,0.006589755,-0.009523112,-0.002667398,0.01375442,-0.009593721
0.0256826,0.2189879,0.9593027,0.01908079,0.006595425,-0.01647418,0.0005893319,0.03694343,-0.00630125
0.02318997,0.2149518,0.9657782,0.01664203,0.002651764,-0.010038,0.002321075,0.05401885,-0.00789183
0.02146353,0.2115567,0.9750396,0.01495842,-0.0006559738,-0.0008113289,-0.00487139,0.05385344,-0.006002824
0.01896004,0.2155691,0.9809568,0.01248659,0.003438546,0.005075895,-0.01080052,0.04514543,-0.003122736
0.01512002,0.2230703,0.9782528,0.008667086,0.01101687,0.002346206,-0.01309302,0.05424906,-8.941403e-05
0.01585415,0.2246811,0.9721575,0.009410773,0.01269942,-0.003770668,-0.01737052,0.06056249,0.00253208
0.01383246,0.2233545,0.9736009,0.00738797,0.01143887,-0.00234505,-0.03021016,0.05587182,-0.0002442029
0.01004478,0.2233306,0.9738486,0.003588888,0.011475,-0.002111452,-0.03902871,0.04624361,-0.003824243
0.01338877,0.2223817,0.9700104,0.006911648,0.01057968,-0.005960109,-0.03735349,0.02882899,-0.003834428
0.01685271,0.2202922,0.9702738,0.01034498,0.00853717,-0.005703571,-0.03782637,0.04325688,-0.002186067
0.01240054,0.2177641,0.9755239,0.00585319,0.006049329,-0.0004567591,-0.03482346,0.06018415,-0.001486536
0.007687198,0.2142624,0.9849862,0.001091624,0.002581111,0.009005764,-0.02583401,0.0313612,-0.001397578
0.006891481,0.2080295,0.9877601,0.0002396256,-0.003624745,0.01178275,-0.00970516,0.004833334,0.001170451
0.008555348,0.2052012,0.9790519,0.001839819,-0.006432227,0.003080012,0.0171154,0.002088964,0.002300179
0.01267782,0.2099179,0.9704982,0.005891848,-0.001700208,-0.005466363,0.03111612,0.02301281,0.001628189
0.01207377,0.2124527,0.9691108,0.005211093,0.0008449597,-0.006844668,0.01970767,0.05373224,0.0002691484
0.006523079,0.2123791,0.9827203,-0.0004221256,0.0007769779,0.006775574,0.009246168,0.04566233,-0.005028395
0.003646271,0.2135405,0.9939139,-0.003386749,0.001939752,0.01798147,0.0168643,0.01248591,-0.007630207
0.007651706,0.2149093,0.9727769,0.0005262447,0.003305857,-0.003142412,0.0168149,-0.004806211,-0.007005889
0.01557156,0.2184664,0.9516097,0.008349631,0.006856234,-0.02429568,0.0004007876,0.0158825,-0.006268231
0.01569459,0.2189216,0.9619311,0.008372512,0.007300877,-0.01395939,-0.0124249,0.05132246,-0.003300868
0.01022735,0.2160363,0.9694326,0.002801633,0.004401186,-0.006441182,-0.02175092,0.04994876,-0.003381973
0.006289615,0.2129714,0.9666016,-0.00124294,0.001317919,-0.009253302,-0.02061139,0.04317523,-0.004045435
0.003265514,0.2072877,0.9747551,-0.004376619,-0.004387777,-0.001078508,-0.01052904,0.04596872,-0.002027861
0.004451125,0.2075371,0.9770851,-0.003302714,-0.004163706,0.001275204,-0.005465005,0.03208176,-0.001680313
0.005487327,0.2126068,0.9723751,-0.002379712,0.000877944,-0.003408912,-0.004293652,0.03459011,-0.002610975
0.005183846,0.212452,0.9712969,-0.002797313,0.0006925674,-0.004459116,-0.011829,0.03977595,-0.006203899
0.006205481,0.211438,0.961934,-0.001890207,-0.0003542009,-0.01379193,-0.01792302,0.03295334,-0.008736378
0.004046717,0.2101332,0.9588877,-0.004163429,-0.00169366,-0.01680579,-0.01833451,0.05029802,-0.007104596
-0.000362233,0.209269,0.9728236,-0.00868627,-0.002594126,-0.002834761,-0.01830147,0.05847618,-0.008110967
-0.006681404,0.2122286,0.9859881,-0.01511813,0.0003277695,0.01036767,-0.01319248,0.03303223,-0.008111034
-0.008951411,0.2138424,0.988227,-0.01749881,0.001902738,0.01264681,-0.01460215,0.01209646,-0.001473178
-0.005601823,0.2141089,0.9810411,-0.01425694,0.002129482,0.005502925,-0.01289015,0.01768679,0.003737317
-0.006883859,0.2134716,0.9785516,-0.01564285,0.00145161,0.003056408,-0.001861571,0.0246704,0.003968112
-0.006414003,0.2108309,0.9791906,-0.01527222,-0.001230554,0.003738889,0.003502782,0.01266584,0.003891295
-0.0018685,0.2094471,0.9757757,-0.0108206,-0.002656313,0.0003675678,0.003703845,0.01311817,0.003246869
0.0008321262,0.2101549,0.9749787,-0.008207996,-0.001990948,-0.0003858186,-0.004177209,0.01734868,0.0008103472
0.00382098,0.2116971,0.9736331,-0.00530098,-0.0004911983,-0.001687892,-0.008045144,0.009200555,-0.001228816
0.002288528,0.2103255,0.9761773,-0.006908935,-0.001905205,0.0008994929,-0.005879618,0.008942723,-0.001408446
-0.0003068955,0.2086171,0.9807769,-0.009573431,-0.00365572,0.005541908,-0.008895204,0.00246413,-0.003172613
0.0001224417,0.2093686,0.9796182,-0.0092066,-0.002945835,0.004425377,-0.007453877,0.0001212328,-0.006905825
-0.002803172,0.2078199,0.9798086,-0.01218797,-0.004535505,0.004657149,-0.006993201,0.007621184,-0.005589054
-0.003694913,0.2070577,0.9741778,-0.0131285,-0.00533753,-0.0009334325,-0.00768257,0.01322315,-0.003897891
-0.001987803,0.2072887,0.9675037,-0.01146296,-0.005145123,-0.007568616,-0.006588325,0.03403718,-0.006060279
-0.003077642,0.2070918,0.97161,-0.01258692,-0.005379078,-0.003424402,-0.01055233,0.04770472,-0.004981
-0.002904142,0.2108698,0.9719535,-0.01243991,-0.001636289,-0.003043934,-0.01439699,0.04317085,-0.00542949
-0.001742363,0.2136245,0.9709404,-0.01129684,0.001085096,-0.004020743,-0.01914638,0.03591813,-0.01024313
0.0004981305,0.2124268,0.9760326,-0.009067192,-0.0001439496,0.001107102,-0.02037944,0.02666512,-0.01354039
0.004017815,0.2109914,0.9775054,-0.00555052,-0.00160886,0.002614986,-0.01629521,0.02513184,-0.0138285
0.002687447,0.2100786,0.9782979,-0.006876227,-0.002549291,0.003441782,-0.009293538,0.02591768,-0.01090011
-0.0008620397,0.209574,0.9815094,-0.01041358,-0.003079611,0.006686735,0.0004397245,0.02691544,-0.00947957
-0.002177609,0.2094834,0.9827979,-0.01170968,-0.003193953,0.008007407,-0.003756092,0.0261494,-0.007850959
-0.004515492,0.2109023,0.9822939,-0.01402078,-0.001796831,0.007534008,-0.01124937,0.01775831,-0.000572529
-0.007071301,0.2141265,0.9803553,-0.01654242,0.001407781,0.005624041,-0.00719938,0.01242574,0.008340047
-0.007401955,0.2178277,0.97772,-0.01683137,0.005091354,0.003015259,-0.009489297,0.01126781,0.01417467
-0.007121113,0.2173508,0.976047,-0.01650111,0.004598418,0.001366435,-0.01261115,0.01688643,0.01174116
-0.008550417,0.2139322,0.9764933,-0.01787312,0.001165342,0.001834567,-0.007165285,0.01912883,0.006643734
-0.01019275,0.2125588,0.9767468,-0.0194501,-0.0002213229,0.002107494,-0.005902569,0.006285605,0.006380082
-0.008013341,0.20873,0.9768926,-0.01719712,-0.004062196,0.00227045,-0.009704872,-0.005181305,0.005411711
-0.005359904,0.206668,0.978237,-0.01446175,-0.006135088,0.003629659,-0.01257519,-0.006164661,0.004010935
-0.00448637,0.207617,0.9768618,-0.01349795,-0.005195629,0.002266955,-0.01253759,-0.001992928,-0.0009329142
-0.002231376,0.2019499,0.9757467,-0.01114447,-0.01087061,0.001161933,-0.0144089,-0.003257596,-0.0080409
-0.002124131,0.1984951,0.9772677,-0.01093075,-0.01433129,0.002690785,-0.01650712,-0.004507148,-0.006105779
-0.003578576,0.2021213,0.9789668,-0.012271,-0.01070848,0.004395417,-0.002808161,-4.270669e-05,-0.004105106
-0.002464355,0.2036867,0.981351,-0.01103517,-0.009143587,0.006782933,0.01169702,0.0005088431,-0.005347213
-0.002927983,0.2032471,0.9809643,-0.01137002,-0.009580537,0.006397055,0.00326586,0.003723291,-0.002662825
-0.006425316,0.2051951,0.9803362,-0.0147317,-0.007626384,0.005767199,-0.004235027,0.005589862,-0.002481877
-0.01290068,0.2090355,0.9836922,-0.02106468,-0.003776229,0.009118725,0.00164321,-0.002491809,-0.003051033
-0.01755483,0.2094459,0.9844643,-0.02556965,-0.003352495,0.00988337,0.0001788428,-0.01641022,-0.001262503
-0.009203387,0.2101789,0.9794041,-0.01706205,-0.002602598,0.004812672,-0.002440094,-0.02584798,-0.001415349
-3.743732e-06,0.2138448,0.9744474,-0.007699184,0.001083569,-0.0001576713,0.000245536,-0.01137496,-0.0007584372
-0.004320569,0.2127475,0.9762197,-0.01184596,9.646591e-06,0.00159788,-0.004324956,0.00243602,0.001114024
-0.006231649,0.2108972,0.9799248,-0.01358055,-0.001814478,0.005283189,-0.007173601,-0.01011889,0.002547229
-0.00335163,0.2096239,0.9806385,-0.01051794,-0.003059037,0.005974389,-0.002899368,-0.01776893,0.00340813
-0.006356367,0.2052985,0.9824437,-0.01333431,-0.007353184,0.007754254,-0.001346127,-0.01225856,0.002763474
-0.006199595,0.2045263,0.9815473,-0.01298368,-0.008091634,0.006829563,-0.0009101587,-0.01163863,0.002924438
-0.004385637,0.2048054,0.9793162,-0.01097066,-0.007776187,0.004567263,0.0009374869,-0.01129421,0.001247355
-0.006418581,0.2030854,0.9811347,-0.01279964,-0.009457232,0.00635159,0.003190181,-0.01064315,-0.00606919
-0.005360105,0.2036275,0.9806901,-0.01153258,-0.008873288,0.005869881,0.001875733,-0.01348979,-0.01046816
-0.005350279,0.2028258,0.9803694,-0.01130985,-0.009630134,0.005509042,-0.0005486021,-0.01229902,-0.00330277
-0.007080772,0.2020342,0.982927,-0.0128234,-0.01037375,0.008023701,0.003047846,-0.01431872,0.00517154
-0.006327896,0.2033185,0.9835165,-0.01184982,-0.009038263,0.008567219,0.008503084,-0.03045094,0.003238049
-0.005485659,0.201648,0.983946,-0.01078337,-0.01065414,0.008947637,0.01533826,-0.04658746,0.001892631
-0.003531682,0.2011961,0.9849286,-0.008601971,-0.01104787,0.009878096,0.01984871,-0.04859921,0.002737159
-0.003358742,0.2043163,0.9856232,-0.008198744,-0.00786586,0.01051732,0.01996351,-0.04753038,-0.003285593
-0.00286024,0.2080225,0.9813583,-0.007467485,-0.004094174,0.006193709,0.02213678,-0.05424143,-0.003714594
0.00152479,0.2111194,0.9725268,-0.002847671,-0.0009282524,-0.002699812,0.01985825,-0.05268325,-0.000422294
0.001711771,0.2098134,0.9707113,-0.002424399,-0.002162052,-0.004580431,0.0183956,-0.04242639,-0.002054833
-0.0009264626,0.2087037,0.9734408,-0.004825411,-0.003196567,-0.001918528,0.02652329,-0.04415732,7.177075e-05
-0.001134779,0.2094031,0.9743708,-0.004796102,-0.002419346,-0.00105809,0.0338224,-0.06009917,0.0006881616
0.0009868214,0.2068943,0.9752358,-0.002436934,-0.004847943,-0.0002642154,0.03650971,-0.07767325,0.001568327
0.004183668,0.2063812,0.9762758,0.0009969405,-0.005278737,0.0007034433,0.03751006,-0.0694326,0.005826294
0.003856803,0.2074532,0.9796171,0.0009060067,-0.004122284,0.003971446,0.04238707,-0.05804244,0.002329387
0.003619463,0.2066684,0.9800514,0.0009029077,-0.004820775,0.004331669,0.04959689,-0.0831094,-0.0006362591
0.005298855,0.2073576,0.9750603,0.002814272,-0.004043522,-0.0007342768,0.05111857,-0.09700724,0.0008756813
0.00573622,0.2091768,0.9720076,0.003480772,-0.002134637,-0.003862263,0.0469076,-0.08240227,0.0008941598
0.008437176,0.2119026,0.9665936,0.006407432,0.000682164,-0.009351819,0.03271905,-0.06668448,0.001849676
0.01014894,0.2132279,0.9626213,0.008340844,0.002099656,-0.01339916,0.02090922,-0.05125494,0.001995239
0.009245049,0.2113062,0.9754346,0.007653861,0.0002707325,-0.0006598884,0.03116319,-0.05606815,0.002552386
0.01005565,0.2110155,0.9887719,0.008675985,7.328333e-05,0.01260482,0.04154504,-0.06871516,0.001843697
0.01027093,0.2131072,0.9814389,0.00909679,0.002258158,0.005200571,0.03239111,-0.0669674,-0.0007518295
0.0122687,0.2147831,0.9705432,0.01129348,0.004027022,-0.005765274,0.02714199,-0.06366659,0.0001279501
0.01599929,0.2160115,0.9690169,0.01521579,0.005347652,-0.007360505,0.03317995,-0.05810534,0.0005015945
0.01613311,0.2179046,0.9686331,0.01553343,0.007331856,-0.007811532,0.03395748,-0.05640151,0.0009717528
0.01748317,0.2198183,0.9696632,0.01705872,0.009334985,-0.006846665,0.03507136,-0.05250855,0.001583154
0.02052562,0.2203674,0.9689758,0.02026709,0.009971428,-0.007596879,0.03288839,-0.03694442,-0.00239822
0.01955433,0.2208089,0.9658047,0.01945169,0.01049747,-0.01082787,0.01881294,-0.02474793,-0.006769123
0.01802283,0.219879,0.9670553,0.01806535,0.009648834,-0.009633986,0.004663628,-0.004429391,-0.01049811
0.01907088,0.2169979,0.9660474,0.01924723,0.006845202,-0.01069491,-0.01092638,0.0161931,-0.0124298
0.01969274,0.2158394,0.9625267,0.01999108,0.005759993,-0.01426442,-0.01910056,0.02137727,-0.01084531
0.01905288,0.2149687,0.960795,0.01946087,0.004958293,-0.01604033,-0.01502827,0.0474044,-0.007131879
0.01713393,0.2135721,0.9613224,0.01763885,0.003626116,-0.01555206,-0.01798489,0.07442815,-9.70058e-05
0.01303699,0.2145855,0.9690893,0.01362583,0.004699339,-0.0078186,-0.02086722,0.06129779,0.004563347
0.009715923,0.2160438,0.976731,0.01037559,0.006212737,-0.000204398,-0.01805989,0.04019816,0.006599744
0.009302308,0.216884,0.9801616,0.01001983,0.007103376,0.003204422,-0.01270763,0.0171126,0.00923585
0.01019026,0.2203879,0.9799782,0.01095288,0.01065267,0.003004573,-0.004944773,-0.002294064,0.006734517
0.01164532,0.2245608,0.9728408,0.01244056,0.01486591,-0.004144255,-0.01001947,0.008194056,0.002088368
0.01341598,0.2231908,0.9674956,0.01423154,0.01353073,-0.009496324,-0.01686132,0.01892385,-0.000938754
0.01544971,0.2183477,0.9692131,0.01627346,0.008716534,-0.007780951,-0.01339613,0.02360013,-0.000983864
0.01624581,0.2157764,0.9732501,0.01706567,0.006167989,-0.003741367,-0.01608965,0.02925941,0.002058566
0.01259294,0.2157749,0.9732151,0.01339692,0.006183174,-0.003769111,-0.01947197,0.02348202,0.0009273727
0.00793465,0.2156066,0.9711393,0.008710901,0.006025438,-0.005833237,-0.015361,0.02928215,0.0002997297
0.009568483,0.2130301,0.9708523,0.0103055,0.003453573,-0.006104013,-0.01496446,0.04077353,0.00150498
0.01285147,0.2119708,0.9699258,0.01353816,0.002393067,-0.007009979,-0.01984556,0.04849636,-0.0007404485
0.01130214,0.2111236,0.9758149,0.01192774,0.001539183,-0.001096025,-0.02261966,0.05808299,2.00117e-05
0.008182579,0.2070543,0.9836008,0.008736666,-0.002541945,0.006718706,-0.01636394,0.03298972,0.001425227
0.004471017,0.2080616,0.9823319,0.004943602,-0.001551273,0.005482362,-0.003358109,-0.007218849,0.0006053162
0.004441235,0.211502,0.9796993,0.004822905,0.001868167,0.002885222,0.002584513,-0.01389787,0.001260649
0.006767773,0.2121159,0.9778604,0.007049755,0.002457226,0.001084252,-0.001616024,-0.005777832,0.002209642
0.003064275,0.214521,0.9756896,0.003238425,0.004833707,-0.001046569,-0.005589261,0.003141665,0.003013914
0.002175423,0.2144646,0.9750792,0.002234238,0.004745155,-0.001615156,-0.008519963,0.01349766,0.0002729408
0.005391202,0.2130786,0.9725145,0.005327854,0.003323669,-0.004136459,-0.01495351,0.01467698,-0.003020089
0.005538129,0.2143256,0.9681362,0.005346418,0.004531856,-0.008469696,-0.01597621,0.01959981,-0.001257467
0.00582869,0.2139076,0.9694205,0.005502962,0.004071882,-0.007138733,-0.008755625,0.03840492,0.001427724
0.004360713,0.2134412,0.9727003,0.003895823,0.003560504,-0.003810565,-0.0002808118,0.04537614,0.002067955
0.004417239,0.2130974,0.970073,0.003808554,0.003168858,-0.00638768,0.007947338,0.04208771,0.0007320404
0.00821935,0.2111826,0.9705679,0.007462733,0.001203597,-0.005840845,0.00138052,0.04989918,0.002232931
0.01002347,0.2116264,0.97527,0.009115192,0.001594313,-0.001085035,-0.009286636,0.04456252,0.004916516
0.008274613,0.2157668,0.9840474,0.007211234,0.005679489,0.007747794,0.008310723,0.01380143,0.0021336
0.003602412,0.2188879,0.9960198,0.00238079,0.008743078,0.01977672,0.03121091,-0.02948832,9.546828e-05
0.002655196,0.2156503,0.9913507,0.001272597,0.005445904,0.01516456,0.04158187,-0.05281259,-0.001015139
0.003289376,0.2112045,0.9773739,0.001743576,0.0009383631,0.001243919,0.04792058,-0.02012336,-0.00228516
0.00185179,0.2129351,0.9673699,0.0001410995,0.002605131,-0.008704913,0.03950924,0.007439989,0.0003968697
0.002419108,0.2158819,0.9584251,0.0005423634,0.005486337,-0.01759563,0.03217073,-0.007509591,0.001039106
0.001241892,0.2171986,0.9632436,-0.0008015502,0.006735588,-0.01272358,0.03302124,-0.00721807,0.003333847
0.00177727,0.2190289,0.9716336,-0.0004330037,0.008496747,-0.004279928,0.02458668,0.001140918,0.007581526
0.004398665,0.2195104,0.9716572,0.0020219,0.00890732,-0.004202347,0.01509907,-0.003412787,0.004840004
0.005300965,0.2196035,0.9736633,0.002758436,0.008927569,-0.002141893,0.008211734,-0.001186361,0.002940013
0.009527588,0.2193276,0.9713764,0.00682029,0.008576782,-0.004373926,0.001851019,-0.0002134153,0.00162922
0.01127385,0.2182215,0.9687518,0.008402905,0.007393631,-0.006943196,-0.005648424,0.004240622,-0.003518923
0.01033116,0.2174301,0.9668371,0.007297699,0.006523028,-0.008802009,-0.01600619,0.02836079,-0.006832012
0.01112565,0.214226,0.9603553,0.007930754,0.003237637,-0.01522708,-0.01732566,0.06700835,-0.007943911
0.006514559,0.2120104,0.9634195,0.003159327,0.0009386335,-0.01210492,-0.01925053,0.09222623,-0.00481666
-0.0007593718,0.2149864,0.9692785,-0.004273734,0.003829521,-0.006186483,-0.02807175,0.06577248,-0.001181976
-0.003881059,0.2179291,0.9765867,-0.007552972,0.00668547,0.001182795,-0.02439102,0.01243463,-0.0006450022
-0.002448729,0.2168888,0.9908892,-0.006276049,0.005557047,0.01554802,-0.01576571,-0.01541445,-0.0001435255
-0.0001626284,0.2158,0.9942499,-0.004142619,0.004378653,0.01897225,-0.004055872,-0.0163895,-0.0008936287
-0.00179088,0.2178018,0.9863067,-0.005920297,0.006289479,0.01109236,0.01952183,-0.009762532,-4.825437e-06
-0.00286546,0.2192009,0.9736994,-0.007140605,0.007596382,-0.00145256,0.02451743,-0.01488053,0.0006463903
-0.002125713,0.2202392,0.9626755,-0.006542435,0.008541142,-0.0124155,0.01313521,-0.02064902,-8.042067e-05
-0.002043081,0.2201173,0.9616684,-0.006596797,0.008324427,-0.01336266,0.01118564,-0.01546805,0.0005697967
0.0008027629,0.2181463,0.9691831,-0.003882997,0.00625708,-0.005788634,0.004619633,-0.0177378,-0.0004263186
0.002347017,0.219069,0.9787795,-0.002465574,0.007082106,0.003866699,0.004053809,-0.01120983,0.001917048
0.001425189,0.2181282,0.9740534,-0.003508862,0.006042243,-0.0008008303,0.01038723,0.002169834,0.003286909
0.004155291,0.2172792,0.9658792,-0.000894761,0.00509279,-0.008916916,-0.003118018,0.01107525,-0.001540767
0.006154584,0.2199576,0.9675925,0.0009940065,0.007669409,-0.007145818,-0.0146568,0.03334763,-0.001525734
0.003866758,0.2192535,0.9657404,-0.001398936,0.00686234,-0.008940238,-0.0167544,0.04281894,0.0003697955
0.001831117,0.2186274,0.9657353,-0.003534351,0.006132059,-0.008887456,-0.02601388,0.04189933,0.0004877328
0.0027048,0.216308,0.9632831,-0.002755109,0.003707226,-0.01128142,-0.03133632,0.05461795,0.0009434035
0.003391292,0.2125584,0.9581484,-0.002157709,-0.000148875,-0.01635703,-0.0325187,0.05717182,-0.001803408
0.002254216,0.216083,0.9677345,-0.003378532,0.003268491,-0.006710658,-0.03361732,0.045319,-0.002796858
0.002175325,0.219318,0.9784575,-0.003535836,0.006395604,0.004074164,-0.0286057,0.03047565,-0.002124146
-0.000518073,0.2178091,0.9806955,-0.006302299,0.004778503,0.006375215,-0.02183675,0.02121932,-0.003193001
-0.004489283,0.2161788,0.9792744,-0.01034113,0.003039498,0.005018078,-0.02287982,0.0183581,-0.002958081
-0.0044541,0.21608,0.9770088,-0.01036793,0.002831729,0.002816764,-0.02607658,0.02509275,-0.001142368
-0.007303639,0.2161799,0.9747734,-0.01327353,0.002822601,0.0006455482,-0.02283502,0.04123615,0.001824198
-0.0109202,0.2138528,0.9696578,-0.01693985,0.0003864436,-0.004406055,-0.02352448,0.03838167,0.002159696
-0.007149095,0.2133596,0.9734906,-0.01321182,-0.0002154268,-0.0005097868,-0.02555751,0.03247095,0.0008569137
-0.004189127,0.2141867,0.9804152,-0.01028785,0.0005033735,0.006477864,-0.02520988,0.03750682,0.0009601779
-0.0076971,0.2127418,0.977337,-0.01382451,-0.001048879,0.003461973,-0.02800574,0.0267002,0.0002907097
-0.008903943,0.2122656,0.978029,-0.01505254,-0.001631471,0.004215293,-0.02234152,0.01414822,0.0005377479
-0.005167237,0.2125001,0.9799095,-0.0113293,-0.001501985,0.006155603,-0.01322444,0.009669182,-0.001987178
-0.004005202,0.2123612,0.9758328,-0.01017287,-0.001744346,0.002137129,-0.00517894,0.0119747,-0.004323848
-0.007876915,0.211661,0.9742608,-0.01404229,-0.002546228,0.0006213392,0.006241735,0.0188818,0.002681082
-0.01224556,0.2108782,0.9761578,-0.01840065,-0.003428538,0.002572561,0.004519429,0.007017534,0.008178067
-0.01254456,0.2120346,0.9815779,-0.01868118,-0.002369294,0.008044668,-0.002191749,-0.01272233,0.004285173
-0.01189735,0.2125668,0.9858399,-0.01800702,-0.001931594,0.0123563,0.001655694,-0.02427809,0.000838135
-0.01256667,0.210671,0.981129,-0.01864066,-0.003919194,0.007692115,0.003492681,-0.02382044,0.001733809
-0.00930676,0.2094032,0.97411,-0.01533614,-0.005275638,0.0007166186,0.002943502,-0.01030417,-6.486488e-05
-0.005423065,0.2115615,0.9733388,-0.01139883,-0.003202853,-1.436816e-05,0.001059232,0.002569505,-0.001942408
-0.005193055,0.2143802,0.9746891,-0.0111063,-0.000466236,0.001372802,-0.008504775,0.01771724,0.001005476
-0.005565598,0.2138979,0.976304,-0.01140761,-0.001027011,0.003021344,-0.01343962,0.01490622,0.0002743155
-0.005785918,0.2125083,0.9814601,-0.01154823,-0.002491549,0.008207901,-0.01080435,-0.008394774,-0.001415938
-0.006100077,0.2110109,0.9841903,-0.01177448,-0.004060344,0.01096516,-0.009521708,-0.01377769,-0.0008006559
-0.009078349,0.2079779,0.9856688,-0.01465684,-0.007160998,0.01246719,-0.005330354,-0.01353529,-0.002598312
-0.01225815,0.2070888,0.9883795,-0.01773286,-0.008113873,0.01519728,-0.001699744,-0.01071981,0.0005182609
-0.01037238,0.2112757,0.9798458,-0.01573551,-0.003986567,0.006678494,-0.002994424,0.0004533144,0.003946243
-0.008784916,0.215473,0.9692541,-0.0140287,0.0001554477,-0.003902905,-0.003788085,0.006692699,0.002398758
-0.01020935,0.2121053,0.973365,-0.01532611,-0.003263305,0.0002137374,-0.005286325,0.01146178,0.003987993
-0.0108335,0.2048004,0.977062,-0.0158157,-0.01061496,0.003912301,-0.006950739,-0.0001991176,0.004985472
-0.01085662,0.2024418,0.9748185,-0.01569687,-0.01301593,0.001666475,-0.00453944,-0.008326506,0.003705878
-0.01033065,0.2066982,0.9783283,-0.01502163,-0.008797105,0.005170059,-0.001704226,0.003650113,0.002491717
-0.008048708,0.211895,0.9789997,-0.0125833,-0.003632856,0.005831626,-0.005812901,0.007778071,0.0007860839
-0.006061418,0.2101394,0.9754693,-0.01043273,-0.005415851,0.002287725,-0.00947618,0.01079495,0.0007450842
-0.005895932,0.2077741,0.9775226,-0.01009742,-0.007803515,0.00432395,-0.004664738,0.01095822,-0.001948127
-0.008273644,0.2091489,0.9779272,-0.01229914,-0.00644592,0.004707984,-0.001945495,0.007986722,-0.006376055
-0.01300633,0.2069479,0.9778513,-0.01684998,-0.008659027,0.004608135,-0.001916764,0.001410167,-0.00514401
-0.0151433,0.2095942,0.980567,-0.01879944,-0.006019581,0.007296668,0.003347856,-0.02728558,-0.0009816651
-0.01477676,0.2151826,0.9797311,-0.01823974,-0.0004328756,0.006430214,0.01094126,-0.05155786,0.002624459
-0.01377321,0.2128969,0.9811365,-0.01703741,-0.002715263,0.00780176,0.01834721,-0.05004633,0.004614207
-0.0105757,0.2134009,0.9841987,-0.01363554,-0.002203319,0.01082683,0.02362028,-0.03473352,0.00154118
-0.009479345,0.214475,0.9825157,-0.01232944,-0.001116659,0.009103053,0.02209331,-0.02463685,-0.0006730166
-0.008515195,0.2096111,0.9778997,-0.01115041,-0.00596388,0.004442772,0.01747286,-0.01973475,0.004807896
-0.003971593,0.2056205,0.9728876,-0.006387199,-0.00993364,-0.0006171878,0.01704806,-0.0045641,0.008582703
-0.001850036,0.2033362,0.9707467,-0.004041788,-0.01219294,-0.002809227,0.01277541,0.007088489,0.004770881
-0.002829193,0.2056881,0.9696012,-0.004793468,-0.00981181,-0.004008574,0.003548762,0.009971711,0.0005012208
-0.004242171,0.2089778,0.9722369,-0.005975979,-0.006488434,-0.001429149,0.002340513,0.007845669,-0.001115879
-0.00560729,0.20925,0.9775839,-0.007108211,-0.006178044,0.003859613,0.005262355,0.004490414,-0.001565874
-0.007447516,0.2125971,0.9760837,-0.008713601,-0.002788385,0.002299637,0.00604321,0.009102271,-0.001479736
-0.009688078,0.2136127,0.9738821,-0.01071775,-0.001726162,3.673177e-05,0.006204667,0.01336117,-0.0004280306
-0.0105549,0.2117238,0.9706016,-0.01134685,-0.003564456,-0.003306249,0.007817689,0.02031185,0.002070828
-0.01137149,0.2140427,0.9657549,-0.01192459,-0.00119145,-0.008216402,0.01058355,0.02268408,0.003865604
-0.01079979,0.2162141,0.9697153,-0.01111305,0.001037339,-0.004319795,0.006395357,0.01282673,0.002058106
-0.01063971,0.2171966,0.9743291,-0.0107123,0.002080046,0.0002302534,-0.0006638423,0.006556067,-0.0004356954
-0.01378875,0.2188397,0.9804794,-0.01361996,0.003785889,0.00631715,-0.002404778,-0.001260135,0.0006222048
-0.01406527,0.219546,0.9889466,-0.01365448,0.004556805,0.01472128,-0.001840075,-0.01166051,0.002328367
-0.01181483,0.2189065,0.9830455,-0.01116144,0.003983415,0.008757003,-0.003118691,-0.01358127,0.00267126
-0.008091839,0.2147553,0.9757175,-0.007195359,-0.0001007817,0.001365573,-0.01024827,0.002611674,0.0006021029
-0.003939476,0.2113526,0.9774428,-0.00279965,-0.003435898,0.003026864,-0.01632073,0.02350201,-0.003590354
-0.006287265,0.214115,0.9748563,-0.004904225,-0.000605453,0.0003760265,-0.01516524,0.01524403,-0.003523739
-0.008060787,0.2161878,0.9745609,-0.006435085,0.001535687,1.59866e-05,-0.01501936,0.006552209,-0.001213376
-0.005315997,0.2129287,0.9780759,-0.003448549,-0.001655024,0.003466253,-0.01785265,0.01724278,-0.001149447
-0.006045516,0.2096972,0.9770055,-0.003937585,-0.00481822,0.002331057,-0.01856224,0.01321497,-0.002110512
-0.009356248,0.20875,0.981192,-0.007009434,-0.005697184,0.006452798,-0.01735158,0.008085438,-0.007105386
-0.01202733,0.2069002,0.9865438,-0.009443477,-0.007478751,0.01173974,-0.01353844,0.01021081,-0.01205419
-0.01202744,0.2066765,0.980772,-0.009208499,-0.007634103,0.005902838,-0.004434247,0.007021003,-0.009661964
-0.01215872,0.2104326,0.9750257,-0.009106685,-0.003809313,9.085924e-05,0.0007548047,0.009062687,-0.0044553
-0.01576487,0.2108717,0.9752406,-0.01248173,-0.003301243,0.0002396725,-0.003125047,0.003307344,0.0003416985
-0.01578201,0.208566,0.974032,-0.01226969,-0.005537498,-0.001035418,-0.004538113,-0.005169025,0.00412041
-0.01353903,0.2099736,0.9720806,-0.00979933,-0.004060176,-0.003053217,-0.003591855,-0.0006540496,0.002986583
-0.01392461,0.2102511,0.9729818,-0.009959265,-0.003712513,-0.00221828,-0.005136076,-0.0009575136,0.001679653
-0.01287357,0.2089908,0.976799,-0.008684279,-0.004902244,0.001533096,-0.004593293,-0.004018904,0.003596827
-0.01212328,0.2105135,0.9804527,-0.007711761,-0.003308569,0.005121707,-0.003841649,-0.006053717,0.002344098
-0.01180022,0.21155,0.9795748,-0.007168239,-0.002200726,0.004179271,-0.004723389,-0.01128098,0.001726595
-0.00791012,0.2126531,0.9772224,-0.003059572,-0.00102603,0.001762964,-0.005438573,-0.01214008,0.004039478
-0.004822311,0.2130087,0.978333,0.0002447081,-0.0005986539,0.002810119,-0.005741219,-0.01398195,0.003429748
-0.007670022,0.2105257,0.9797428,-0.002388956,-0.003009949,0.00415702,-0.001888981,-0.02012327,0.003228179
-0.01151401,0.2092837,0.9804684,-0.00602163,-0.004180239,0.00482011,0.006158578,-0.02737876,0.002355915
-0.01003543,0.2081616,0.9797962,-0.004334662,-0.0052308,0.004085938,0.01160258,-0.03579599,-0.0001408249
-0.01051098,0.2086572,0.9745206,-0.004604864,-0.00466364,-0.001251374,0.01324131,-0.04145982,-0.0004285511
-0.01404841,0.2107983,0.9687974,-0.007940062,-0.002450989,-0.00703593,0.01765794,-0.04414115,-0.001384103
-0.01231123,0.2093853,0.966601,-0.006003774,-0.003792516,-0.009292779,0.02430796,-0.0487996,0.000602856
-0.01146862,0.2097749,0.9721805,-0.004965191,-0.003331441,-0.0037725,0.02552951,-0.05482568,0.004805665
-0.01154488,0.2120842,0.9805368,-0.004848605,-0.0009507063,0.004526093,0.0276269,-0.05735332,0.003643796
-0.007935549,0.212542,0.9801904,-0.001049623,-0.0004216503,0.004123587,0.03298396,-0.05974596,0.0008188381
-0.00601966,0.2131314,0.9793915,0.001052564,0.0002387004,0.003270167,0.02515363,-0.05913001,-0.0003684075
-0.003931876,0.21303,0.9786405,0.003323042,0.0002078213,0.002465971,0.01478589,-0.04389797,0.0007634014
-0.00402201,0.2141135,0.9741038,0.003411659,0.001361281,-0.002122627,0.01924729,-0.02899408,0.003991163
-0.006574089,0.2142114,0.9735258,0.001034042,0.001528267,-0.002751203,0.01799282,-0.0358636,0.004883746
-0.003520086,0.2126705,0.9713298,0.004257915,5.544465e-05,-0.004996276,0.008779679,-0.04385349,0.00390027
-0.001632393,0.2140616,0.9744656,0.006310591,0.001513487,-0.001907954,0.008857733,-0.03675595,0.003464234
-0.003191651,0.213597,0.982882,0.004911088,0.001114493,0.006462834,0.01014932,-0.03803541,0.003928961
-0.001783681,0.2097132,0.9781348,0.006473241,-0.00270511,0.001671767,0.0100633,-0.04571479,0.006922696
-0.000966373,0.2061935,0.973877,0.007438834,-0.00616205,-0.002628415,0.01307876,-0.04476655,0.009271287
-0.001502487,0.2055078,0.9750036,0.007044783,-0.006786322,-0.001542528,0.01435165,-0.04135833,0.003935972
-0.001403083,0.2093021,0.9747581,0.007279721,-0.002931643,-0.001827093,0.01356633,-0.03487417,-0.003512137
-0.001409782,0.2123333,0.9794629,0.007401756,0.0001589731,0.002840267,0.01093601,-0.03490195,-0.001369897
-0.001307622,0.2120864,0.9778636,0.007625616,-2.942709e-05,0.001205313,0.008585388,-0.03772871,0.003981773
-0.00147044,0.2139692,0.9733741,0.007577252,0.001910783,-0.003318384,0.009435105,-0.03213336,0.003725424
-0.001370621,0.2180836,0.9742821,0.0077841,0.006081519,-0.002442885,0.01117828,-0.03448053,0.004066251
-0.001325512,0.2173318,0.9723757,0.007928662,0.005384483,-0.004380023,0.01071435,-0.03484456,0.004706013
-0.00150283,0.2151385,0.9720722,0.007843096,0.003244261,-0.004712476,0.005491527,-0.02507883,0.001356365
-0.001279927,0.2165991,0.9708713,0.008149948,0.004755957,-0.005940205,0.0003788261,-0.01701551,-0.0009948915
-0.001444781,0.2152634,0.9697847,0.008061165,0.003469096,-0.007051482,-0.0006320628,-0.009027162,-0.00166372
-0.00140509,0.2155314,0.9730086,0.008168995,0.003783564,-0.003849797,-0.003502828,-0.007464273,-0.001745147
-0.0007798903,0.2186818,0.9719629,0.008854369,0.00697791,-0.004915011,-0.007673365,-0.003014507,-0.001175678
0.001553072,0.2167626,0.9719767,0.0112395,0.005099897,-0.004918124,-0.007556333,0.008502553,-0.003895756
0.005458462,0.2150116,0.9721802,0.01518895,0.003387125,-0.004728644,-0.009139582,0.01593038,-0.005097133
0.006392256,0.2135079,0.9675042,0.01615849,0.001918529,-0.009415702,-0.01366236,0.02279529,-0.002113923
0.005123286,0.2115575,0.9643362,0.01491669,3.075648e-07,-0.01259167,-0.01044342,0.0194981,-0.00246208
0.005504463,0.2127907,0.9628167,0.0153162,0.001262539,-0.01411561,-0.006705131,0.01513311,-0.001226195
0.004747999,0.2126168,0.9656044,0.01456905,0.001114824,-0.01132857,-0.008939578,0.01697795,0.004665654
-2.307179e-05,0.2122546,0.9717825,0.009798163,0.0007759699,-0.005146808,-0.005693447,0.008630556,0.006632708
-0.003283753,0.2127334,0.9775277,0.00652858,0.001275498,0.0006063498,-0.0004999676,0.005057014,0.003688483
0.002021234,0.2123214,0.9799883,0.01181578,0.0008813948,0.003079016,0.003251193,0.00696508,-0.0007277073
0.008304024,0.2129706,0.9769175,0.01807206,0.00154607,2.392873e-05,0.004715467,0.008499443,-0.0007174486
0.00569036,0.2144235,0.9742974,0.01542315,0.003011947,-0.002576973,-0.01005417,0.01832946,0.000657982
0.003133488,0.2166826,0.970885,0.01282221,0.005281515,-0.005967023,-0.02427582,0.02350463,-0.002071107
0.002360304,0.2167161,0.9742994,0.01199617,0.005322934,-0.002527313,-0.01062886,0.02676294,-0.001931361
-0.003033503,0.2135466,0.9829676,0.006540869,0.002158822,0.006169152,0.002324707,0.02736979,-0.003741279
-0.00249971,0.2117993,0.9779217,0.007004843,0.0004143352,0.001154125,-0.01189463,0.02243267,-0.006612352
0.0003578897,0.2122922,0.9755862,0.009784692,0.0009073882,-0.001148441,-0.0211276,0.02829178,-0.003138067
-0.003812356,0.2129371,0.9797125,0.00552915,0.00155019,0.003012725,-0.01669493,0.03016415,7.919934e-05
-0.004878516,0.2123388,0.9745662,0.004370559,0.0009474592,-0.00209703,-0.0198648,0.02110296,0.003700135
-0.005324671,0.2123157,0.9697919,0.003825329,0.0009177976,-0.006833453,-0.01961766,0.01860302,0.0004648791
-0.00661155,0.2128339,0.9665379,0.002433277,0.001427415,-0.01004814,-0.01605517,0.02597968,-0.007072172
-0.004572011,0.2122472,0.9706456,0.004362097,0.0008302251,-0.005899518,-0.01715524,0.03381264,-0.003877506
-0.005873099,0.2129043,0.9803692,0.002945275,0.001474993,0.003866772,-0.01412,0.02442095,-0.003900606
-0.006125137,0.214432,0.9810743,0.002572996,0.00298874,0.004616085,-0.01323778,0.01361277,-0.007064255
-0.005685408,0.2155883,0.9877905,0.002888478,0.004129273,0.01137752,-0.01394692,0.01863104,-0.004354394
-0.008278359,0.2153378,0.9940031,0.0001677812,0.003861411,0.01763585,-0.01288723,0.01753758,-0.004997516
-0.008495546,0.2128078,0.9826657,-0.0001801224,0.001312366,0.006343887,-0.01673968,0.01159629,-0.004001173
-0.009784019,0.2110453,0.9758607,-0.001601716,-0.0004708073,-0.0004166893,-0.0193338,0.01136214,-0.001090569
-0.009202766,0.209947,0.9805247,-0.001155409,-0.001591271,0.004290433,-0.01850695,0.01400486,0.0001084651
-0.005393361,0.2093716,0.9816643,0.002517765,-0.002190105,0.005471702,-0.01750191,0.01981493,0.003284856
-0.005906829,0.2095773,0.9783971,0.001867221,-0.002008917,0.002244467,-0.01635365,0.0183534,0.002216699
-0.008286664,0.2075008,0.9758771,-0.0006501738,-0.004110707,-0.0002373266,-0.01640769,0.01257386,-0.0004116673
-0.009922786,0.2049382,0.973798,-0.00242395,-0.006699058,-0.002280062,-0.01598418,0.01190982,-0.001072963
-0.00757752,0.2053097,0.9730545,-0.0002160014,-0.006353343,-0.002988977,-0.01611449,0.01495379,-0.004982621
-0.003833706,0.2078901,0.9761227,0.003391218,-0.003798563,0.0001121117,-0.01720553,0.02505785,-0.007135698
-0.006107208,0.2093013,0.9779501,0.0009821124,-0.0024123,0.001970887,-0.01662796,0.02894411,-0.005955439
-0.008048127,0.2094848,0.9777039,-0.001093196,-0.002252999,0.001754535,-0.01268282,0.01453634,-0.00572136
-0.008630096,0.2102798,0.97806,-0.001808067,-0.00148125,0.002138827,-0.007464352,0.0004693179,-0.004521018
-0.01163358,0.2095059,0.9776436,-0.004942632,-0.002277416,0.001748954,-0.00675943,0.00189319,0.0006050859
-0.01293154,0.2088989,0.9796765,-0.006369439,-0.002905574,0.003806664,-0.004982487,0.006841466,0.00549275
-0.0121989,0.2079374,0.9840689,-0.005762959,-0.003886988,0.008222004,0.0002842781,0.006820294,0.0007422086
-0.009606422,0.2057356,0.9872363,-0.003293515,-0.006107385,0.01141028,4.568427e-05,0.01445149,-0.005988338
-0.007385199,0.2065192,0.9848273,-0.001191867,-0.005340688,0.009019606,-0.0007509031,0.02006717,-0.003799898
-0.00836926,0.2041105,0.9751435,-0.002291828,-0.007764569,-0.0006485562,-0.0001312394,0.01141964,-0.0002072079
-0.00865026,0.1999994,0.9699791,-0.002684896,-0.01188876,-0.005800091,-0.003468467,0.008317741,0.003847431
-0.008271672,0.2019463,0.9779827,-0.002414397,-0.009952588,0.002213702,-0.004152631,0.009866359,0.005735461
-0.00946679,0.2031734,0.9867892,-0.003713479,-0.008733265,0.011028,-0.004228231,0.00458603,0.001613728
-0.01110278,0.2050573,0.9810212,-0.00544915,-0.006854045,0.005265163,-0.009064884,0.003681423,0.002620594
-0.01270685,0.2084542,0.9748056,-0.007148429,-0.003458549,-0.0009478312,-0.01253593,0.0191908,0.003344493
-0.01444915,0.206801,0.979424,-0.008981185,-0.005109827,0.003670411,-0.01129983,0.03423336,0.001163111
-0.01568111,0.2063226,0.9788869,-0.01029854,-0.00558286,0.003130647,-0.008488724,0.01634051,0.003905034
-0.01397784,0.2072613,0.9781642,-0.008675272,-0.004635549,0.002402718,-0.00932767,-0.003399844,0.001052384
-0.01052782,0.2048062,0.9814258,-0.005299568,-0.007078578,0.005656602,-0.009240888,0.009236056,-0.001911181
-0.009443364,0.2034327,0.9823501,-0.004283582,-0.00843666,0.006570571,-0.00668102,0.01603573,0.0009316788
-0.01153983,0.2038217,0.9895593,-0.006442627,-0.008028801,0.01376695,-0.008089265,0.01172107,-0.0004239373
-0.01430727,0.2048033,0.9915637,-0.009266715,-0.00702472,0.01575549,-0.006938818,0.01055156,-0.001274831
-0.0144073,0.204942,0.9841971,-0.00941734,-0.006859785,0.008369613,-0.003661975,-0.000662175,-0.001959732
-0.01486253,0.2023704,0.9815389,-0.009916954,-0.009401506,0.005688581,-0.003663955,-0.003349987,-0.00273391
-0.01850297,0.2018874,0.9813152,-0.01359536,-0.009850843,0.005438253,-0.004338306,0.004337814,-0.0009870619
-0.01980997,0.2035888,0.9815252,-0.01493367,-0.00811189,0.005617974,-0.006712503,0.004823109,-0.001309956
-0.01672362,0.2032029,0.9776697,-0.01187168,-0.008456293,0.001728522,-0.006770261,0.008747152,-0.0003166142
-0.01414875,0.2050143,0.9729398,-0.009313983,-0.006599431,-0.003038761,-0.003878625,0.008343237,-0.0001216
-0.01442967,0.2077717,0.9757484,-0.009604806,-0.003792582,-0.000270564,-0.00175012,0.0009193029,-0.002117433
-0.01239419,0.2041246,0.9783137,-0.007571952,-0.007386405,0.002251671,-0.002259242,-0.0003881363,-0.004752335
-0.008124165,0.2001782,0.9790366,-0.003297398,-0.01127585,0.002929046,-0.005219496,-0.001138873,-0.009188869
-0.009509054,0.2005417,0.9775946,-0.004670827,-0.01085161,0.00143923,-0.003942861,0.001409125,-0.006518367
-0.0119565,0.2000071,0.9730759,-0.007100166,-0.01132155,-0.003129256,-0.003712742,0.005020625,-0.0005282015
-0.01180018,0.1996528,0.9716647,-0.00691934,-0.01160725,-0.00459191,-0.00470641,0.004448211,0.0001854229
-0.01513562,0.2006627,0.9731326,-0.01022402,-0.01052464,-0.003176719,-0.001229624,0.006249325,0.001316057
-0.01794638,0.2016894,0.977946,-0.01299787,-0.00942107,0.001583092,-0.002858708,0.006782423,0.002139524
-0.01793759,0.203247,0.9837374,-0.01294597,-0.007782433,0.007320278,-0.006454251,0.006849114,0.001367601
-0.01733659,0.2031257,0.984871,-0.01229558,-0.007818708,0.008398952,-0.006889157,0.004821038,0.0009667647
-0.01513222,0.2022665,0.9846146,-0.0100355,-0.008588803,0.008086765,-0.005782277,-0.002061105,-0.001802177
-0.01496794,0.2022893,0.9843656,-0.009809224,-0.008473068,0.00778101,-0.000527215,-0.005335697,-0.004019599
-0.01563014,0.1993244,0.9818947,-0.01040324,-0.01134119,0.005252236,0.004478623,-0.005836433,-0.001237081
-0.01499221,0.1958455,0.9797715,-0.009691053,-0.01471961,0.00306978,0.007676697,-0.002679914,0.001664251
-0.01562343,0.1975658,0.9803114,-0.01024206,-0.01289495,0.003549153,0.007349633,0.002016901,0.00141175
-0.01615103,0.2006712,0.9796305,-0.01068364,-0.009681222,0.002806626,0.004605859,0.002309399,0.002505032
-0.01682429,0.201689,0.9731943,-0.01126517,-0.008551073,-0.003692238,0.004277992,0.008028552,0.003410272
-0.01714518,0.2017378,0.9680112,-0.01148873,-0.008386145,-0.008938771,0.00578286,0.01249371,0.001307352
-0.01716158,0.2008806,0.9733506,-0.0114023,-0.009123398,-0.003663087,0.008266774,-0.003084965,0.0007399788
-0.01854698,0.2004676,0.9792037,-0.01267943,-0.009412925,0.002126475,0.003244155,-0.01690494,0.001660956
-0.01819621,0.2003869,0.9770147,-0.01221504,-0.009366696,-0.0001256409,-0.002790054,-0.001622719,0.002485997
-0.01746315,0.2013573,0.9799908,-0.01136308,-0.008266076,0.002787957,0.0006752416,0.008657256,0.003372622
-0.01715021,0.2036742,0.9877177,-0.01092605,-0.005815698,0.01045285,0.001271368,-0.01628384,0.002817479
-0.01430417,0.2029737,0.9851306,-0.007950896,-0.006379809,0.007804059,4.258607e-05,-0.03084487,0.002607555
-0.01226589,0.2019133,0.9768989,-0.005778713,-0.007301146,-0.0004891646,0.001722174,-0.004708063,0.002441978
-0.01257666,0.2022633,0.9723392,-0.00595114,-0.006809587,-0.005110171,0.001432286,0.01522001,0.001607101
-0.01396675,0.2000714,0.975458,-0.007198811,-0.008857671,-0.002052468,0.001801771,-0.000676174,0.00176754
-0.01689687,0.1995861,0.9848172,-0.009982779,-0.009197062,0.007246312,0.002243399,-0.01499263,0.0005121468
-0.01890861,0.2015445,0.9868601,-0.01184485,-0.007090674,0.009229329,0.001851813,-0.01314777,-0.001439116
-0.01837398,0.2023439,0.9812186,-0.01115716,-0.006141491,0.003528312,0.001857925,-0.01914762,-0.0009114104
-0.01845781,0.2031478,0.977787,-0.01108461,-0.00518608,3.74571e-05,0.002329908,-0.0215714,2.229997e-05
-0.02000089,0.2028157,0.9785427,-0.0124681,-0.005365301,0.0007341246,0.003517927,-0.01673981,0.0002608122
-0.01944417,0.2024939,0.980393,-0.01174862,-0.005532961,0.002525719,0.003910642,-0.02016425,0.0004802114
-0.0175266,0.2030697,0.9778861,-0.009665209,-0.004802105,-3.943984e-05,0.003662859,-0.02078049,0.00135109
-0.01529498,0.2022684,0.9751817,-0.007264805,-0.005447531,-0.002801693,0.003053084,-0.02610313,0.005249568
-0.01182768,0.2009746,0.9736737,-0.003626009,-0.006585058,-0.004366818,0.002545637,-0.03494794,0.00666147
-0.01084552,0.2006572,0.973359,-0.002470031,-0.006745776,-0.004737702,0.003014395,-0.02627989,0.0005844872
-0.01083371,0.204983,0.9773597,-0.002282546,-0.002262995,-0.0007919454,0.004528998,-0.01825068,-0.001620856
-0.009866365,0.2099719,0.9771626,-0.001138163,0.002882828,-0.001042561,0.007186324,-0.01995054,0.003543678
-0.01162384,0.2055141,0.9775886,-0.002717712,-0.001418506,-0.0006684704,0.009598393,-0.01892298,0.006077633
-0.01233225,0.1992986,0.9794229,-0.00324776,-0.007478289,0.001115465,0.009853031,-0.02026947,0.003893776
-0.01137022,0.2006868,0.9726705,-0.002107313,-0.005935277,-0.005685623,0.007738362,-0.02683031,-0.0002538094
-0.01259129,0.204723,0.968646,-0.003150263,-0.00174531,-0.009756847,0.009002625,-0.03032714,-0.001587334
-0.01426066,0.2075204,0.9697559,-0.004642112,0.001204665,-0.008691623,0.01667936,-0.02928589,0.002102606
-0.01612286,0.2050423,0.9771118,-0.006327635,-0.001122355,-0.001377845,0.02704496,-0.03973367,0.01026491
-0.01682947,0.2020037,0.9961728,-0.006858571,-0.004011639,0.01764374,0.05145777,-0.07613081,0.0217447
-0.01801442,0.2092436,1.012114,-0.007868895,0.003375743,0.03354777,0.09885737,-0.1273466,0.03196091
-0.02061041,0.2150042,1.01674,-0.01029134,0.009281479,0.03813656,0.1311568,-0.1700607,0.03795238
-0.01547481,0.208775,1.001605,-0.004983241,0.003194691,0.02296425,0.1153286,-0.1953604,0.02719985
0.002287091,0.2002338,0.9605937,0.01294999,-0.005207105,-0.01808618,0.09085013,-0.1861973,0.005731447
0.02353659,0.1957355,0.9307014,0.03436896,-0.00956942,-0.04801951,0.08841992,-0.127184,0.003958413
0.02555135,0.2007106,0.9461755,0.03654986,-0.004461315,-0.03258663,0.09545263,-0.06756082,0.01254491
0.01028985,0.2150555,0.9700114,0.02144938,0.01001347,-0.008790307,0.1130089,-0.05199498,0.01729959
0.006669436,0.2260004,0.9703736,0.01798333,0.02108507,-0.008464735,0.1185873,-0.05495348,0.02424191
0.009202863,0.2278779,0.9770126,0.0206634,0.023085,-0.001859044,0.1042804,-0.05896817,0.01877554
0.00866114,0.2275489,0.979113,0.02025974,0.0228733,0.0002114691,0.09117406,-0.06871774,0.01019927
0.01510506,0.2309901,0.9626596,0.0268323,0.02642532,-0.01626843,0.0721986,-0.06422504,0.01511366
0.02226025,0.2326476,0.9618774,0.03410577,0.02818617,-0.01707338,0.08033549,-0.03811119,0.01378467
0.02726184,0.2297386,0.9649138,0.03921416,0.02537188,-0.01405555,0.1079138,-0.02188193,0.005173937
0.02844674,0.2290055,0.9636957,0.04049305,0.02472399,-0.01528742,0.1041193,-0.02049089,-0.0006797658
0.02496795,0.2310618,0.964038,0.03709414,0.02685485,-0.01495361,0.105521,-0.01012994,-0.006405083
0.02255136,0.2335713,0.9584282,0.0347421,0.02942774,-0.02056624,0.1098905,0.003727965,-0.008854208
0.01787064,0.2333402,0.9697289,0.03010975,0.02924798,-0.009262279,0.1079624,-0.00489992,-0.009064286
0.01375926,0.2291497,0.9796861,0.02602988,0.02509604,0.0007045975,0.1418488,-0.03130831,-0.002400805
0.01261476,0.2242135,0.9717157,0.02489975,0.02018496,-0.007249947,0.1854741,-0.03589838,0.007261482
0.01699638,0.2216413,0.9713644,0.0292784,0.01762438,-0.007579404,0.2136684,-0.009917709,0.001734377
0.02557643,0.228795,0.9705601,0.03783795,0.02477584,-0.008356083,0.2310903,0.02718779,-0.006821165
0.02517225,0.2404667,0.9604059,0.03739539,0.03643156,-0.01847694,0.2350925,0.05051864,-0.007227641
0.02072983,0.2437238,0.9432628,0.03289623,0.03965811,-0.03558054,0.2200654,0.05818017,-0.00589112
0.01821891,0.2445627,0.9375814,0.03030992,0.04045141,-0.04121571,0.2031419,0.0891122,0.009539743
0.01605174,0.2562229,0.9554376,0.02804862,0.05204989,-0.02330519,0.2378403,0.1045366,0.04063987
0.01302922,0.2799624,0.9704361,0.02491333,0.07571042,-0.008243497,0.2961001,0.03605893,0.0682051
0.001912349,0.3000659,0.9722789,0.01366543,0.0957158,-0.006328679,0.3304434,-0.052653,0.08270456
-0.006861544,0.309584,0.9646311,0.004742945,0.1051139,-0.01389587,0.3693929,-0.06190705,0.09548875
7.614035e-05,0.3149551,0.9548095,0.01151559,0.1103401,-0.02362854,0.39972,-0.04665099,0.1090532
0.01347913,0.3129249,0.9411831,0.02473816,0.1081367,-0.03715744,0.3661262,-0.05719184,0.09312546
0.0170519,0.3124062,0.9271404,0.02811584,0.1074134,-0.0510935,0.2899749,0.03247514,0.0554972
0.006068447,0.3218335,0.9469331,0.016923,0.1166021,-0.03118381,0.2657483,0.1208821,0.03507129
-0.01666962,0.3243696,0.9694456,-0.006038107,0.1188627,-0.008543102,0.2742854,-0.02417867,0.03079378
-0.03330917,0.3110515,0.9457299,-0.022913,0.1052298,-0.03211939,0.2133962,-0.2029621,0.03326569
-0.008137989,0.3013517,0.9293842,0.002012501,0.0951739,-0.04831433,0.1139366,-0.2058753,0.03270203
0.03948947,0.3226058,0.9502936,0.0493855,0.1160293,-0.02724228,0.07385879,-0.1795805,0.02841372
0.05971508,0.3512396,0.956258,0.0693479,0.14422,-0.02110267,0.09467304,-0.1765945,0.02611153
0.05870744,0.3478647,0.9414407,0.06806692,0.1403558,-0.03573235,0.06262111,-0.1213651,0.01496607
0.04899182,0.3402079,0.938832,0.05806596,0.1321608,-0.03814086,-0.02866714,-0.07803008,0.01610302
0.03674285,0.3466689,0.9520985,0.04551811,0.1380328,-0.02466115,-0.05995862,-0.08338454,0.03963465
0.03364278,0.3537342,0.963516,0.04210471,0.1444565,-0.01301769,-0.06073414,-0.1103148,0.05715045
0.03123888,0.3707046,0.9526499,0.03937261,0.1607309,-0.02364527,-0.09228572,-0.1720754,0.06152429
0.03107439,0.37919,0.9425552,0.03886491,0.1684639,-0.03348945,-0.1219329,-0.2029516,0.07265504
0.03307093,0.3619506,0.9569884,0.04050322,0.1504137,-0.01879409,-0.1191962,-0.2125886,0.1141186
0.02987334,0.3412464,0.966845,0.03693241,0.1288385,-0.008663909,-0.08760237,-0.2681338,0.1609352
0.02820192,0.324533,0.9669081,0.03487291,0.1111934,-0.008316563,-0.05384328,-0.3037392,0.1993476
0.02583305,0.3168341,0.9667736,0.03210141,0.1025031,-0.008157194,-0.0222309,-0.3340516,0.2433133
0.005649965,0.2843041,0.9628726,-0.00273632,-0.01018799,0.01623359,0.2157633,-0.1006476,0.2302005
0.00599055,0.2803218,0.9631209,-0.001946151,-0.01217924,0.01610172,0.2248026,-0.1100835,0.217328
0.00517561,0.2758344,0.9589323,-0.002336406,-0.01475538,0.0115441,0.1991756,-0.1204761,0.2115626
0.005424549,0.2789874,0.9580887,-0.001686924,-0.009769693,0.01034211,0.1773794,-0.1332672,0.2118003
0.00349351,0.2849954,0.9599925,-0.003240793,-0.002006339,0.01189774,0.1955219,-0.1257786,0.2144554
0.001341533,0.2885934,0.9620378,-0.005038167,0.003270668,0.0136047,0.2113763,-0.1173745,0.2177986
0.0009664577,0.2884803,0.9611149,-0.005080334,0.004761347,0.01235295,0.1952765,-0.1307734,0.2144808
0.002487807,0.2868362,0.9600883,-0.003246869,0.004646643,0.01100647,0.1895615,-0.1324897,0.2127117
0.00614462,0.2908215,0.9585249,0.0007021109,0.01008793,0.009131824,0.1919933,-0.1240031,0.217502
0.01032437,0.2948877,0.9541694,0.005154775,0.01553757,0.004473368,0.1828342,-0.1201181,0.2217441
0.01075452,0.2944048,0.9532081,0.005839113,0.01636643,0.003217399,0.182666,-0.1140442,0.2189501
0.008539474,0.2949859,0.9544311,0.003859943,0.0181884,0.004153842,0.1781067,-0.1107853,0.214366
0.008688113,0.2962797,0.9530172,0.004226585,0.02065311,0.002461634,0.1682087,-0.1017976,0.217255
0.006581078,0.2983596,0.9541698,0.002320173,0.02383481,0.00334404,0.1693667,-0.09188473,0.2173658
0.003120473,0.2973067,0.958111,-0.0009566233,0.02381542,0.007023268,0.1647489,-0.0880634,0.2118356
0.003482662,0.2898151,0.9581678,-0.0004267719,0.01729002,0.006826028,0.1588983,-0.08442993,0.2076924
0.002651266,0.2841112,0.9585699,-0.001105921,0.01248615,0.006981924,0.1594599,-0.08691578,0.2037177
0.001610913,0.281747,0.9625669,-0.002008689,0.01095754,0.01074028,0.1610405,-0.09026606,0.2043888
-0.0001957771,0.2793938,0.9625714,-0.003691683,0.009377076,0.01051328,0.1662085,-0.1026868,0.20493
-0.004259399,0.2786838,0.9615733,-0.00764466,0.009378879,0.009290445,0.168772,-0.1192161,0.1991741
-0.00315558,0.281171,0.9633867,-0.006442328,0.01251904,0.01088549,0.1689005,-0.1163997,0.194883
-0.0008257301,0.2840282,0.9621039,-0.004025166,0.01597218,0.009390344,0.1688674,-0.1148407,0.1933066
0.0009369191,0.2868742,0.9608071,-0.002185562,0.01935885,0.007886769,0.1666805,-0.1181602,0.190579
0.005654943,0.2918277,0.959578,0.002599743,0.02479937,0.00645627,0.165559,-0.1106942,0.1864939
0.005034086,0.2912857,0.9557188,0.002037019,0.02469221,0.002400793,0.1634785,-0.1070799,0.18377
0.002850977,0.288781,0.9541123,-9.667577e-05,0.02257155,0.0006030771,0.1597829,-0.1054948,0.1831184
0.005701777,0.2921081,0.9524309,0.002795245,0.02623323,-0.001264336,0.1572622,-0.09759596,0.1824213
0.004902945,0.2917083,0.9526692,0.00202965,0.02612007,-0.001206817,0.1551383,-0.09327721,0.1803064
0.002385035,0.2888407,0.9573297,-0.0004625132,0.02349238,0.003278452,0.1513047,-0.09079048,0.1763864
0.002920844,0.2866706,0.9591743,9.197718e-05,0.02151704,0.004953165,0.146319,-0.09035461,0.1728441
0.002630806,0.2820999,0.9597805,-0.0001859889,0.01709755,0.005394823,0.1468968,-0.09651619,0.1709786
0.002809808,0.2803029,0.9615516,-1.072513e-06,0.01540985,0.007006446,0.1568374,-0.09615481,0.1743443
0.002938852,0.2797053,0.9622603,0.0001281616,0.01488167,0.00756064,0.1678697,-0.09264735,0.1791082
0.002487025,0.2799894,0.9594034,-0.0003287828,0.01519721,0.004553788,0.1641885,-0.09742984,0.1746171
0.003052944,0.2829036,0.9553014,0.0002271127,0.01810661,0.0003061799,0.1414429,-0.09608977,0.1694809
0.00246839,0.2836382,0.9577595,-0.0003719849,0.01880207,0.002623045,0.125695,-0.08573761,0.1678666
0.00182508,0.282491,0.9596506,-0.001033976,0.01758302,0.004377141,0.1397422,-0.08069982,0.15895
0.001498331,0.2814491,0.9571053,-0.001383161,0.01643821,0.001699066,0.1537659,-0.08583648,0.1493538
0.001929542,0.2820626,0.9567454,-0.0009777489,0.01691939,0.001210462,0.140269,-0.09149149,0.147323
0.003262398,0.2836012,0.9559947,0.0003263105,0.01829789,0.0003351453,0.1314182,-0.08832001,0.1473876
0.001834704,0.2849859,0.9584757,-0.001132854,0.01949615,0.002695508,0.138239,-0.09106172,0.1468825
0.0009672618,0.2869445,0.9629905,-0.002034124,0.02124364,0.007093788,0.136396,-0.1062246,0.1465856
0.002912383,0.2860281,0.9606116,-0.0001248644,0.02009257,0.004602056,0.136957,-0.1126979,0.1451289
0.00481279,0.2841022,0.9575078,0.001737931,0.01790989,0.001389011,0.1392308,-0.1025508,0.1418413
0.005782738,0.282132,0.9569123,0.002668712,0.01566206,0.000687748,0.132006,-0.09158049,0.1392379
0.003846609,0.278687,0.9563928,0.0006919924,0.01192011,6.583429e-05,0.1329334,-0.09165471,0.1377773
0.001864803,0.2797566,0.9573343,-0.001331682,0.01267475,0.0009083997,0.1332269,-0.09270604,0.1369848
0.002853032,0.2825968,0.9577477,-0.0003863938,0.0151836,0.001226174,0.1252161,-0.08863945,0.1369336
0.003121986,0.282782,0.9593911,-0.0001612264,0.01502243,0.002777469,0.1225672,-0.08743171,0.1351201
0.001937359,0.2839343,0.961318,-0.001390278,0.01581459,0.004615359,0.1208015,-0.08531085,0.1333669
0.0001720982,0.2853007,0.9605836,-0.00320038,0.01680824,0.003795116,0.1202192,-0.08255436,0.1332032
-0.001733528,0.2859767,0.9638665,-0.005150987,0.0171,0.006995101,0.1211793,-0.08185742,0.1323527
0.0002619555,0.2844096,0.965255,-0.003200301,0.01513814,0.008303248,0.1204518,-0.07986895,0.1306066
0.004454094,0.2805331,0.9587264,0.0009475106,0.01085758,0.00169648,0.1202655,-0.08551079,0.1276912
0.004441528,0.2804513,0.9574675,0.0008912461,0.01036334,0.0003616161,0.1193997,-0.0949462,0.1246661
0.002858573,0.2836554,0.9599045,-0.0007347155,0.01314781,0.002724753,0.1217092,-0.09968868,0.1201309
0.002757643,0.2852331,0.9597047,-0.0008778956,0.01429982,0.002453024,0.1228762,-0.1032104,0.1154069
0.002570168,0.2839306,0.9617528,-0.001106772,0.01256645,0.004431163,0.1220682,-0.1030816,0.1140005
0.002777358,0.2816441,0.9646835,-0.0009400324,0.009844729,0.007293725,0.1271223,-0.106203,0.1109571
0.00190921,0.2817718,0.9664805,-0.001847581,0.009533837,0.009024065,0.129213,-0.1112343,0.1084108
0.000906268,0.282242,0.9611193,-0.002888764,0.009563033,0.003597501,0.1268815,-0.109248,0.1078953
0.001720444,0.2816664,0.9532041,-0.002111537,0.00854486,-0.004381991,0.1263639,-0.1125721,0.1040702
0.003033951,0.2821043,0.9552177,-0.000833564,0.008539438,-0.002431628,0.1265837,-0.1202285,0.1022457
0.00688758,0.2824832,0.9573958,0.002985995,0.008475173,-0.0003153004,0.1346292,-0.1211691,0.1037821
0.01141014,0.2844829,0.9566838,0.007475861,0.01003251,-0.001087645,0.1494344,-0.1233945,0.1040006
0.01179491,0.2864159,0.9564514,0.007829055,0.01152482,-0.001378769,0.149411,-0.1280945,0.1020574
0.01048344,0.2826923,0.9541188,0.006486777,0.007362472,-0.003768332,0.1234044,-0.1248653,0.09915542
0.01021137,0.2792652,0.9556156,0.006184324,0.003499416,-0.00232657,0.1020147,-0.1176174,0.09822071
0.009707195,0.2822656,0.9545591,0.005649914,0.006067293,-0.003436176,0.116274,-0.1124263,0.09611057
0.009727973,0.2850704,0.9506037,0.005640371,0.008443521,-0.007442377,0.1304311,-0.1090882,0.09426703
0.01179482,0.2843593,0.9516981,0.007676594,0.007308464,-0.00639632,0.1147371,-0.1117823,0.09585426
0.01304078,0.2844901,0.9500866,0.008891378,0.007020278,-0.008053427,0.1093673,-0.1140003,0.09384946
0.01284194,0.2836045,0.9508043,0.008660519,0.005721077,-0.007378308,0.1203801,-0.1141218,0.091153
0.01415434,0.2823021,0.9545247,0.009939768,0.004010924,-0.003697108,0.120181,-0.1188542,0.09275858
0.015854,0.284895,0.952301,0.01160481,0.006202369,-0.005956495,0.1196919,-0.1192166,0.09335281
0.01628163,0.2879098,0.9527083,0.01199601,0.00882224,-0.005581253,0.119114,-0.1112293,0.0914298
0.01835772,0.290991,0.9554561,0.01403347,0.01151541,-0.002861907,0.1170419,-0.1015828,0.08615289
0.02212199,0.2909815,0.9564246,0.01775651,0.01112476,-0.001918111,0.1198074,-0.1001173,0.08026736
0.02144357,0.2860037,0.9578657,0.01703373,0.005772597,-0.0004980112,0.1159346,-0.1033326,0.0796418
0.01963167,0.2850159,0.9575648,0.01517383,0.004417575,-0.0008164061,0.1122499,-0.1024004,0.07950166
0.0217254,0.2858096,0.9576761,0.01721548,0.004851122,-0.0007192672,0.1107403,-0.1081508,0.07721926
0.02180931,0.2867249,0.9553107,0.01724282,0.005413742,-0.003095626,0.1085774,-0.1121009,0.0767082
0.02188271,0.2886373,0.9509059,0.01725475,0.006980908,-0.00750828,0.1133145,-0.1052979,0.07505823
0.02318897,0.2876301,0.951743,0.01849428,0.005636226,-0.006675861,0.1150589,-0.09739532,0.07314766
0.02251324,0.2909253,0.9520381,0.0177462,0.00860155,-0.006382099,0.11316,-0.08847453,0.07464845
0.023971,0.2942476,0.9503765,0.01912566,0.01160165,-0.008041735,0.1105499,-0.08858292,0.07314235
0.02480382,0.290074,0.9508761,0.01987392,0.007113297,-0.007536549,0.1068601,-0.09267991,0.0697221
0.02642245,0.2880799,0.9505988,0.02140141,0.004811823,-0.007804644,0.1068568,-0.09078052,0.06935604
0.03080003,0.2906836,0.9530353,0.02568091,0.007115443,-0.005355247,0.1047244,-0.09104914,0.06701929
0.0289499,0.2927173,0.9567024,0.02372532,0.008856294,-0.001671502,0.102956,-0.08344584,0.06527875
0.0253881,0.2914039,0.9526999,0.02005031,0.007257198,-0.005653641,0.1025333,-0.07477885,0.06460933
0.02520527,0.2901938,0.9476242,0.01974623,0.005768522,-0.01070542,0.1017063,-0.08242383,0.0624487
0.0253552,0.2910327,0.9476245,0.01976675,0.006335702,-0.01067759,0.1060099,-0.0916865,0.06443063
0.02700665,0.291947,0.9477207,0.02128054,0.006985094,-0.01055001,0.107446,-0.09213647,0.06318484
0.02664007,0.2955489,0.9495942,0.02076796,0.01032883,-0.008641059,0.104422,-0.0899305,0.0575276
0.02678031,0.2964832,0.9525582,0.02075381,0.01101141,-0.005637617,0.1059808,-0.0895402,0.05603854
0.03303064,0.2933623,0.9509915,0.02684126,0.007644999,-0.00716074,0.1129455,-0.08796468,0.05228632
0.03975902,0.2927486,0.9480574,0.03339806,0.006791743,-0.01004726,0.1184743,-0.07988071,0.04966682
0.0418014,0.2929118,0.9468724,0.03525976,0.006721088,-0.01118067,0.1105933,-0.07105364,0.05258726
0.04020925,0.29432,0.9471998,0.03347724,0.007901128,-0.01079749,0.08807463,-0.06817214,0.05231754
0.04149188,0.2984677,0.9494019,0.03455928,0.01182608,-0.008535403,0.07049005,-0.05713612,0.05002014
0.04388863,0.3023722,0.9501678,0.03674473,0.01551301,-0.007705265,0.07845448,-0.03088603,0.04721332
0.03957815,0.3004228,0.9479605,0.03221179,0.01335075,-0.009844097,0.08751171,-0.01609793,0.04379031
0.03491269,0.2956991,0.9457032,0.02731238,0.00841837,-0.01202875,0.06459995,-0.01851349,0.04675384
0.03459332,0.2973477,0.9453848,0.02674751,0.009862169,-0.01227026,0.04320955,-0.01056753,0.05111414
0.03653977,0.2981586,0.9454465,0.02843697,0.01047201,-0.01212738,0.04262237,0.007585406,0.04672269
0.03937594,0.2971358,0.9422509,0.03100475,0.009251698,-0.01523728,0.03382554,0.01563759,0.04286395
0.03874365,0.2991936,0.9393255,0.03009272,0.01111513,-0.01807241,0.0258735,0.02044684,0.04380145
0.03583476,0.296635,0.942253,0.02689279,0.008365142,-0.01504976,0.02868061,0.03637553,0.04041071
0.03141658,0.2938256,0.9460702,0.02217244,0.005367298,-0.01113233,0.02619263,0.04552195,0.03891535
0.02740633,0.2946411,0.947059,0.01784927,0.005997057,-0.01003822,0.02222982,0.03791971,0.04186148
0.02855172,0.2939286,0.9500784,0.01867156,0.005101657,-0.006908516,0.02100124,0.0332649,0.04116178
0.02722133,0.2927856,0.9543838,0.01700854,0.003778527,-0.002488123,0.01948307,0.03021689,0.03845611
0.02219346,0.2912918,0.9545881,0.01163926,0.0021075,-0.00216444,0.02060437,0.0211033,0.03431938
0.02140665,0.2921989,0.9551231,0.01050306,0.002840371,-0.001506159,0.02604435,0.0158049,0.03072892
0.02089829,0.2939935,0.9581765,0.009638283,0.004463786,0.001673768,0.02995117,0.01713952,0.03282357
0.01975348,0.2923555,0.9571089,0.008130989,0.002657814,0.0007353914,0.02718837,0.02171996,0.03557441
0.02214729,0.2914772,0.9560612,0.01015722,0.001614681,-0.0001809352,0.02517149,0.02502344,0.0342863
0.02347766,0.2915054,0.9571939,0.01111578,0.001481468,0.001084787,0.0255683,0.02726016,0.03313061
0.02189192,0.2912976,0.9540039,0.009154815,0.001115733,-0.001971154,0.02289705,0.02801786,0.03299586
0.02093568,0.2899837,0.9517054,0.007820701,-0.0003526718,-0.004134848,0.02027433,0.02565051,0.03219478
0.02063489,0.2872882,0.9529612,0.007140166,-0.003198843,-0.00274383,0.01945561,0.02860353,0.03302982
0.0199021,0.2880726,0.9529528,0.006026552,-0.002561197,-0.002616813,0.01785566,0.03119283,0.03315742
0.01880046,0.2892073,0.9528477,0.004543791,-0.001569066,-0.002586618,0.01627317,0.02905825,0.03105231
0.01741978,0.2871159,0.9547029,0.002782497,-0.003798588,-0.0005963784,0.01648427,0.02875702,0.0289797
0.01489045,0.2858287,0.9604103,-0.0001261205,-0.005219399,0.005245461,0.01725272,0.02050176,0.02623704
0.01177207,0.2855271,0.9669252,-0.003621583,-0.005649623,0.01189367,0.01949637,0.008738282,0.02520323
0.009765534,0.2849608,0.9663862,-0.006002021,-0.006339548,0.01148618,0.0244102,0.004516311,0.02481844
0.01041701,0.2843635,0.9584887,-0.00572025,-0.007054949,0.003717733,0.0303047,0.002727634,0.02365029
0.01622227,0.2828962,0.9515078,-0.0002795503,-0.008634731,-0.003137164,0.03857523,0.006086341,0.02648667
0.02153427,0.2809849,0.9518282,0.004673808,-0.01065244,-0.002693941,0.04055215,0.0107426,0.02882077
0.0191068,0.2803799,0.9540259,0.001894082,-0.01135753,-0.0003767306,0.02253338,0.007370959,0.02510961
0.014166,0.2806532,0.9533498,-0.00339218,-0.01117759,-0.0009365169,0.006889892,0.004648373,0.02172656
0.01078188,0.2810638,0.954104,-0.007114479,-0.01085336,-6.928002e-05,0.02162496,0.009115727,0.02184069
0.008599437,0.2811585,0.9549811,-0.009627157,-0.01083763,0.0009174508,0.03474128,0.01128548,0.01953904
0.009685829,0.2812195,0.9550555,-0.008862329,-0.01084793,0.00109815,0.01959386,0.009395466,0.01564586
0.0104258,0.2837504,0.9589629,-0.008434546,-0.008380666,0.00510826,0.01145026,0.007808526,0.01652907
0.009101394,0.2841714,0.9627283,-0.01006112,-0.008015348,0.008972603,0.01838586,0.001928492,0.01883849
0.009686036,0.2813768,0.9620198,-0.009768059,-0.01085769,0.008359026,0.01814479,-0.002325803,0.01901527
0.009135876,0.2816492,0.9589145,-0.01059867,-0.0106251,0.005344234,0.01985682,0.001009307,0.0171826
0.007755644,0.2804409,0.9564609,-0.01224772,-0.01186513,0.002976475,0.02237138,0.00300978,0.01246599
0.009486827,0.2783117,0.9601113,-0.01077327,-0.014018,0.006707722,0.0185029,0.001931684,0.01223987
0.0101155,0.2804823,0.9641956,-0.01038883,-0.01186278,0.01086796,0.01892595,-0.0001466325,0.01778048
0.009541424,0.2819128,0.9603464,-0.01119432,-0.01043927,0.007089432,0.01969412,-0.005633512,0.01714143
0.009800682,0.2820461,0.9574484,-0.01115339,-0.01030463,0.004256532,0.0185998,-0.009939204,0.0119198
0.009281275,0.2816957,0.9585084,-0.01187782,-0.0106454,0.005376053,0.01893886,-0.007825498,0.009902169
0.008027203,0.2790427,0.956514,-0.01332341,-0.01328049,0.003435642,0.01783017,-0.007650987,0.005082529
0.006355338,0.2743465,0.9520571,-0.01517309,-0.01795066,-0.0009728523,0.01959977,-0.01169925,0.001196578
0.007040906,0.2716402,0.9498014,-0.01465141,-0.02062255,-0.003185553,0.02154315,-0.01003028,0.005752378
0.009275669,0.2774116,0.9548781,-0.01256643,-0.0148081,0.001929169,0.01943703,-0.004587899,0.008080529
0.009905525,0.2831621,0.9609684,-0.01207217,-0.009005981,0.008052745,0.01785665,-0.001605127,0.00777922
0.00997314,0.2804528,0.9584523,-0.01212597,-0.01165491,0.005565215,0.01708406,-0.005149893,0.008867959
0.009502767,0.2794375,0.95691,-0.01270364,-0.01260153,0.00404662,0.01644636,-0.01050805,0.00668696
0.009489179,0.2815188,0.9605861,-0.0128105,-0.01044342,0.00774177,0.01528181,-0.005766846,0.0062383
0.008918089,0.2801395,0.9634124,-0.01346094,-0.01173787,0.01058218,0.0141007,-0.001326832,0.006445
0.00706006,0.2792967,0.9672801,-0.0153845,-0.01248805,0.01445909,0.01457987,-0.002479086,0.004833646
0.007421976,0.2792705,0.964856,-0.01507439,-0.01241409,0.01203897,0.0144578,0.0003755515,0.004971698
0.007328731,0.2779656,0.957181,-0.01520578,-0.01361153,0.004362374,0.01377324,-0.001245532,0.003209016
0.004018601,0.2782983,0.9583159,-0.01854049,-0.01316404,0.005490204,0.01477312,-0.008262743,1.497665e-05
0.002070903,0.2774919,0.9609156,-0.02049924,-0.01384868,0.008077426,0.0182755,-0.01274087,-0.002018735
0.005020674,0.2748929,0.9608336,-0.01754697,-0.01631891,0.00797754,0.02431853,-0.01462232,-0.0008088866
0.009384936,0.274577,0.9622695,-0.0131667,-0.01649923,0.009390261,0.03068368,-0.009878963,0.001790675
0.01030184,0.2751865,0.9622949,-0.01222052,-0.01574739,0.009387116,0.03365408,-0.005835245,0.000229997
0.009656393,0.2756318,0.9640627,-0.01282377,-0.01515285,0.01112108,0.03074365,-0.00926261,0.000498574
0.009604793,0.2771627,0.9628737,-0.01282064,-0.01346616,0.009892846,0.02216367,-0.009117875,0.002575043
0.009370979,0.2785955,0.9592386,-0.01298761,-0.01187112,0.006213207,0.01443114,-0.00208739,0.0002515075
0.007539198,0.2780694,0.9601987,-0.01474081,-0.01222875,0.007123394,0.01666778,0.00353649,-0.001531989
0.003557825,0.278855,0.9571578,-0.0186322,-0.0112687,0.004027443,0.02062657,0.002614788,0.0004257145
0.001805872,0.2809779,0.9539087,-0.02028297,-0.008965762,0.0007183855,0.01530018,0.002049797,0.003384875
0.002952593,0.2790422,0.9569486,-0.01902399,-0.01071618,0.003693867,0.01044866,0.003832638,0.002606868
0.003919253,0.276896,0.9602468,-0.01793412,-0.01267213,0.006923542,0.006624949,-0.00517325,-0.0007139509
0.007023851,0.2763194,0.9629504,-0.01469553,-0.01305394,0.009554555,0.00199275,-0.01471573,-0.002869596
0.01110358,0.2757792,0.960238,-0.01047137,-0.01339492,0.006765831,0.006208088,-0.006627153,-0.006588515
0.01038364,0.2770017,0.9546165,-0.01103693,-0.01196898,0.001064202,0.008673745,0.003222508,-0.006984142
0.008548849,0.2762631,0.9555457,-0.01270793,-0.01250012,0.001909763,0.005319785,0.00311211,-0.005023568
0.01027396,0.2761742,0.9579745,-0.01081015,-0.01237784,0.004251884,0.006193035,0.0005763389,-0.00685601
0.009107786,0.2780859,0.958419,-0.0117953,-0.01025137,0.004606982,0.006353655,-0.004763936,-0.004940551
0.004543132,0.2782607,0.9581686,-0.01617105,-0.009858458,0.004264472,0.006192416,-0.008928616,-0.003608049
0.002042037,0.2789924,0.955516,-0.01847572,-0.008905724,0.001517494,0.006583682,-0.00618364,-0.005806209
0.002378904,0.2777879,0.9542216,-0.01793512,-0.00988653,0.0001267076,0.005861786,-0.004891564,-0.004329537
0.005388722,0.2759406,0.9557996,-0.01471446,-0.01150772,0.001606553,0.008196733,-0.007309382,-0.004957639
0.006054416,0.2764555,0.9564881,-0.01383107,-0.0107647,0.002195495,0.009039417,-0.00720436,-0.005835197
0.005107595,0.276491,0.957896,-0.01455365,-0.01049917,0.003502859,0.007861958,-0.005577793,-0.005202743
0.005965636,0.274983,0.9609255,-0.0134652,-0.01177543,0.006430859,0.008388679,-0.00487091,-0.006433874
0.005284487,0.271167,0.9620074,-0.01391013,-0.01535822,0.007410386,0.008806465,-0.005896657,-0.005488269
0.0055568,0.2704805,0.9615312,-0.01339614,-0.01580999,0.006831037,0.008476982,-0.006708069,-0.006275553
0.005839882,0.2721761,0.9594922,-0.01286629,-0.01387811,0.004688062,0.00629167,-0.003097527,-0.008270166
0.005115685,0.2717962,0.9556548,-0.01333897,-0.0140203,0.0007459794,0.001781214,0.0005292188,-0.00769866
0.005949361,0.2718733,0.9572907,-0.01224941,-0.01370406,0.002276641,-0.002233183,-0.001547599,-0.008245322
0.005374199,0.2704329,0.964178,-0.01256467,-0.01490387,0.009058231,0.0004786426,-0.006513763,-0.01033982
0.005467249,0.2717514,0.9688247,-0.01220806,-0.01334335,0.01359891,0.00639605,-0.01169706,-0.01245194
0.005850037,0.2751284,0.9705859,-0.01155841,-0.009722978,0.01525342,0.008274079,-0.01696136,-0.01206138
0.005195513,0.2745006,0.9683628,-0.01194312,-0.01010629,0.01292267,0.01214235,-0.02222479,-0.01170099
0.006367334,0.2735769,0.9666159,-0.01049888,-0.01078448,0.01106679,0.01565712,-0.02766536,-0.01243202
0.00831711,0.2715316,0.9671603,-0.008274466,-0.01258352,0.01150067,0.01672844,-0.03365932,-0.009826622
0.01151565,0.2720771,0.9640663,-0.004799498,-0.01179119,0.008294437,0.02154734,-0.03809684,-0.00759222
0.01282638,0.2748317,0.9630025,-0.003211101,-0.00878923,0.007116672,0.02650837,-0.03639983,-0.007470008
0.01199724,0.2738759,0.9629859,-0.003761948,-0.009497314,0.006984281,0.03631794,-0.03464286,-0.00558555
0.01289568,0.2737588,0.9610977,-0.002585225,-0.009366561,0.004978574,0.04174323,-0.03743532,-0.004748987
0.01209982,0.2741246,0.9610626,-0.003103397,-0.008752987,0.004824534,0.02211618,-0.03591162,-0.007960471
0.01043843,0.2770095,0.9570548,-0.004488242,-0.005620659,0.0006963049,0.005763097,-0.03227824,-0.009364428
0.009565232,0.2807861,0.9536274,-0.00508654,-0.001597174,-0.002852417,0.01843398,-0.03295806,-0.008287634
0.009215571,0.2790244,0.9536808,-0.005163321,-0.003113134,-0.002921083,0.02799957,-0.04093596,-0.009997982
0.01093847,0.2786348,0.9521531,-0.00316992,-0.003258368,-0.004570833,0.01752156,-0.05090004,-0.01067913
0.01355855,0.2791358,0.9541689,-0.000282087,-0.002514986,-0.002676623,0.01407506,-0.04258041,-0.009979349
0.01785442,0.2762498,0.956635,0.004278318,-0.005160771,-0.0003312453,0.01892544,-0.03317745,-0.01084457
0.01947453,0.2742116,0.9569891,0.006159165,-0.00696142,-9.668976e-05,0.01619277,-0.04421611,-0.01271374
0.01710901,0.2750768,0.9572557,0.004049925,-0.005861267,5.1979e-05,0.01666977,-0.04793331,-0.01503997
0.0181217,0.277384,0.9555484,0.005313796,-0.003322029,-0.001771536,0.01850321,-0.03987596,-0.01233565
0.0185932,0.2783768,0.9554192,0.006030799,-0.002100189,-0.002015068,0.01667321,-0.03659491,-0.009080393
0.01756443,0.2794644,0.9555323,0.005241308,-0.000786894,-0.002013988,0.01878159,-0.03569519,-0.01203192
0.01938531,0.2801855,0.9544137,0.007294751,0.0001563818,-0.003242107,0.01798494,-0.03802864,-0.01523902
0.01965444,0.2789298,0.954545,0.007789242,-0.000881105,-0.003217523,0.01702913,-0.0408849,-0.01675818
0.01930499,0.2789094,0.955636,0.007657489,-0.0006876031,-0.002230324,0.01916294,-0.04353087,-0.0151322
0.01961397,0.2797651,0.9575476,0.00817605,0.000377697,-0.0004193841,0.0212648,-0.0447709,-0.01214108
0.01958135,0.2809086,0.9559643,0.00834451,0.00172592,-0.002099996,0.02572629,-0.03763237,-0.01446648
0.02177676,0.2824136,0.9524206,0.01073212,0.003430752,-0.005737486,0.02413154,-0.03200706,-0.01628862
0.02448888,0.2822194,0.9509036,0.01362719,0.003431088,-0.007344743,0.02112369,-0.03218694,-0.01448718
0.02567105,0.2813755,0.9494787,0.01498258,0.002776105,-0.008855837,0.02366273,-0.03278695,-0.01472363
0.02552846,0.2813394,0.9507729,0.01500301,0.002923052,-0.007643585,0.02283278,-0.03609495,-0.01427884
0.02743594,0.2813567,0.9522161,0.01706281,0.003117214,-0.006277753,0.02071638,-0.03436512,-0.01197004
0.03130409,0.2820171,0.9509886,0.02107212,0.003948235,-0.007577691,0.02009385,-0.02866667,-0.01338803
0.03080299,0.2833154,0.9515642,0.02070043,0.005410699,-0.007069382,0.01892311,-0.02907508,-0.01796236
0.02902131,0.2829698,0.9524907,0.0190359,0.00522244,-0.006205015,0.01808494,-0.02822945,-0.020317
0.02928553,0.281532,0.9528123,0.01940454,0.003935151,-0.005940108,0.01904761,-0.02942728,-0.0204934
0.02935048,0.2805376,0.9530527,0.01956082,0.003084142,-0.005750924,0.02069379,-0.03609477,-0.02178026
0.03101956,0.2822214,0.9525027,0.02130782,0.004904187,-0.006346638,0.02015796,-0.03708022,-0.02182641
0.03240458,0.2864539,0.9528601,0.02275704,0.009265726,-0.00602939,0.02329722,-0.03631406,-0.02147876
0.03108135,0.2875514,0.9528914,0.02148401,0.01048492,-0.006032613,0.029015,-0.03732382,-0.02177189
0.03003417,0.2871312,0.9522187,0.02047276,0.01017854,-0.00673432,0.02986542,-0.03787941,-0.01881936
0.03093236,0.2868214,0.951162,0.02139248,0.009974745,-0.007814434,0.02798429,-0.0367061,-0.0193352
0.0326078,0.2845988,0.9493862,0.02307492,0.007849889,-0.009607986,0.02580652,-0.03426406,-0.02077699
0.03435025,0.284983,0.9513505,0.02480973,0.008323461,-0.00765571,0.02809634,-0.03893615,-0.01556685
0.03717855,0.2876645,0.9585667,0.02761559,0.01108599,-0.0004457446,0.03535379,-0.0411373,-0.01452305
0.03968097,0.2891407,0.9639153,0.03008054,0.01263462,0.004902043,0.04025725,-0.03062505,-0.01818641
0.03915508,0.287587,0.9589974,0.02950188,0.01114469,-1.161377e-05,0.03486207,-0.02178513,-0.02069398
0.03739171,0.2855572,0.9497236,0.02767019,0.009169737,-0.009276463,0.01961915,-0.02179259,-0.02125187
0.03736477,0.289782,0.9488937,0.02755923,0.01344059,-0.01009294,0.01209348,-0.01405752,-0.01940926
0.03698359,0.2935672,0.9508033,0.02707824,0.01726281,-0.008165414,0.01275324,0.009665687,-0.02050696
0.03372336,0.2921064,0.9490564,0.02370246,0.0158298,-0.009889631,0.00486712,0.02395426,-0.0195368
0.03096978,0.2919737,0.947274,0.02081775,0.01571544,-0.0116446,-0.009614968,0.02407189,-0.01426846
0.03244129,0.2917717,0.9442075,0.02214286,0.01552214,-0.0146788,-0.01962819,0.03255102,-0.01239796
0.0372621,0.290136,0.9435964,0.02680235,0.01388541,-0.01525244,-0.02502203,0.04324185,-0.01541091
0.04093414,0.2893231,0.9454678,0.0302984,0.01306175,-0.01333818,-0.0325388,0.05060024,-0.02004648
0.04024948,0.2886055,0.9456786,0.02942319,0.01232349,-0.01307891,-0.03619863,0.06379044,-0.01825545
0.03660664,0.288756,0.9495692,0.02557531,0.01244373,-0.009134042,-0.03643308,0.07405167,-0.01653299
0.03225765,0.2891743,0.952611,0.02100704,0.01282237,-0.006032386,-0.04091502,0.07092392,-0.02062821
0.0291197,0.2887138,0.9494168,0.01763598,0.0123127,-0.009160987,-0.04171488,0.06860377,-0.02170416
0.02761179,0.2890443,0.9479494,0.01588175,0.01258486,-0.01055743,-0.04267255,0.07277122,-0.02346783
0.02673155,0.2899397,0.9505871,0.01474275,0.01341296,-0.007843522,-0.04665367,0.0687878,-0.02349377
0.02565223,0.2900241,0.952274,0.01339303,0.01342114,-0.006075176,-0.04695168,0.06371248,-0.01974341
0.02356827,0.2877921,0.952315,0.01102792,0.01110437,-0.005947752,-0.04337532,0.05722096,-0.0199541
0.02164456,0.2823066,0.9564272,0.008813222,0.005525588,-0.001744516,-0.03651769,0.04722297,-0.01899092
0.02213805,0.2791517,0.9617367,0.009006869,0.002269481,0.003660219,-0.03625356,0.05210686,-0.01695595
0.02456825,0.2816733,0.9608768,0.01112936,0.004682514,0.002899178,-0.03546386,0.05616621,-0.01385956
0.0254234,0.2837501,0.9620317,0.01166981,0.006643982,0.00415596,-0.02703022,0.05083472,-0.009195483
0.02489939,0.2830486,0.9660669,0.01082491,0.005820946,0.008295273,-0.02662102,0.05120521,-0.01109414
0.02467789,0.2823887,0.9604103,0.01027709,0.005033789,0.002744248,-0.02876247,0.05212616,-0.01466494
0.02313241,0.2818167,0.9539072,0.008400614,0.004329221,-0.00365226,-0.02853326,0.05530003,-0.01724677
0.0215677,0.281695,0.9572841,0.006501006,0.004070288,-0.0001682787,-0.03289239,0.05885635,-0.0204052
0.02060695,0.2823899,0.958116,0.005202257,0.004623668,0.0007708733,-0.0361237,0.05636601,-0.01937602
0.018158,0.2827803,0.9557228,0.002413058,0.004868828,-0.001515121,-0.03433811,0.05479378,-0.01799817
0.01572427,0.2834554,0.9581876,-0.0003622416,0.00539522,0.00105667,-0.03203426,0.05202815,-0.01821563
0.01650553,0.2836642,0.9607112,7.706453e-05,0.005452391,0.003686586,-0.03460898,0.04492505,-0.01775364
0.01817044,0.2829713,0.9628422,0.001400594,0.004605275,0.005922801,-0.0356954,0.03965534,-0.01897788
0.01696659,0.2832696,0.9625869,-0.0001431974,0.004747095,0.005771454,-0.03155941,0.03825515,-0.01977306
0.01569008,0.2824171,0.9597211,-0.001757413,0.003736272,0.0030076,-0.02784992,0.03682029,-0.01860496
0.01325749,0.2803165,0.9613786,-0.004524627,0.001475788,0.00476487,-0.02292553,0.03500302,-0.02001999
0.01070507,0.2793423,0.9617421,-0.007407742,0.0003405477,0.00522546,-0.01710174,0.03642207,-0.02097988
0.01572749,0.2778394,0.960226,-0.002711212,-0.001324118,0.003803592,-0.006760122,0.04394376,-0.01731827
0.02192923,0.2765282,0.9604639,0.003170208,-0.002797118,0.004132525,0.0002528363,0.05028873,-0.01471306
0.0207097,0.2762571,0.9547593,0.001636412,-0.003229563,-0.001484425,-0.02069918,0.04032545,-0.01508432
