accx,accy,accz,body_accx,body_accy,body_accz,body_gyrox,body_gyroy,body_gyroz
-0.07428186,0.5901563,0.8207004,-0.05477443,-1.519692e-05,0.008141604,-0.03173006,-0.1022852,0.1611766
-0.06337238,0.5887236,0.8187834,-0.04367987,-0.001235558,0.005777346,-0.0327928,-0.09639523,0.1540154
-0.05458837,0.5875662,0.8141852,-0.03468402,-0.002184199,0.0007350671,-0.037355,-0.08480579,0.1485455
-0.0585768,0.5817413,0.8190308,-0.03843424,-0.007804171,0.005140554,-0.04286678,-0.08548523,0.1477163
-0.06174478,0.57538,0.8254002,-0.04133825,-0.01396445,0.01107453,-0.0461789,-0.0789427,0.1439756
-0.06080528,0.5765631,0.8228005,-0.04010958,-0.01258386,0.008044453,-0.04444403,-0.07462081,0.1428704
-0.06355453,0.5753921,0.8293636,-0.04254499,-0.01356064,0.01418272,-0.04169382,-0.07800009,0.1389028
-0.06506802,0.5695013,0.8403601,-0.04372047,-0.01926001,0.02475992,-0.03697455,-0.08976679,0.1363606
-0.0643051,0.569969,0.8409898,-0.04259584,-0.01860313,0.02497563,-0.02904471,-0.1060389,0.141636
-0.06161491,0.5707378,0.8391572,-0.03952077,-0.01764694,0.02273388,-0.02383872,-0.1002355,0.1428565
-0.05866837,0.5629944,0.8387748,-0.0361668,-0.02520396,0.02194682,-0.0220845,-0.08465469,0.1362212
-0.0561104,0.5584261,0.8371562,-0.03317965,-0.02958625,0.01992755,-0.02081978,-0.0816395,0.1232675
-0.05275509,0.5649378,0.8367205,-0.02937437,-0.02288819,0.019095,-0.008910404,-0.06955867,0.1143806
-0.05464484,0.5706425,0.8356814,-0.03079447,-0.0169959,0.01766266,0.006853619,-0.06540085,0.1182237
-0.06505354,0.5698225,0.8292029,-0.0407149,-0.01762659,0.01079434,0.006986171,-0.07272946,0.1214068
-0.079061,0.5748302,0.8289558,-0.05421625,-0.01242769,0.010161,0.008093024,-0.06453516,0.118238
-0.09112395,0.5848043,0.8392382,-0.06575547,-0.002260379,0.02006086,0.01458422,-0.07990089,0.1245225
-0.09564979,0.5813611,0.8395568,-0.06973963,-0.005508681,0.02000066,0.01693815,-0.1298779,0.1397472
-0.07428137,0.5732605,0.8321866,-0.04781109,-0.01341299,0.0122552,0.02586466,-0.1698341,0.1422726
-0.03810887,0.5749039,0.8321229,-0.01106014,-0.01157214,0.01181967,0.02610968,-0.1620952,0.1359371
-0.03380625,0.5786964,0.8293977,-0.006162011,-0.00758094,0.008726316,0.01451319,-0.1273934,0.1343707
-0.0396466,0.5843898,0.8260329,-0.01139195,-0.001687947,0.004997175,0.00892291,-0.114023,0.1285736
-0.02970882,0.5835983,0.8325466,-0.000831201,-0.002279154,0.01115067,-0.001504571,-0.08852954,0.1166688
-0.04027109,0.5734904,0.8365973,-0.01076021,-0.01218648,0.01484554,-0.009234434,-0.07699312,0.1072766
-0.05067938,0.5680984,0.8369896,-0.020527,-0.01737785,0.01488638,-0.006059583,-0.1045847,0.1022585
-0.0466381,0.5648996,0.8379799,-0.01583763,-0.02037579,0.01552956,-0.004022663,-0.09784157,0.0975846
-0.05381224,0.5650633,0.8322875,-0.02235841,-0.02001068,0.009494098,0.005188874,-0.08818791,0.09010079
-0.05324035,0.5693691,0.8288399,-0.02112906,-0.0155023,0.005707751,0.01207074,-0.08510282,0.0857123
-0.05541582,0.577562,0.8310309,-0.02264399,-0.007105724,0.007564337,0.009264697,-0.07170401,0.0875294
-0.0653577,0.5889971,0.8306433,-0.03192306,0.004534265,0.006847001,0.01252083,-0.0860649,0.091764
-0.05949266,0.5862951,0.8291999,-0.02539359,0.002037788,0.005078685,0.01372905,-0.08599671,0.100954
-0.05546557,0.5832758,0.8243232,-0.02070098,-0.0007760564,-0.0001178616,0.01318375,-0.08046089,0.1113369
-0.05407958,0.5897729,0.8192395,-0.01864907,0.00592587,-0.005515952,0.0157418,-0.08407374,0.1076575
-0.05175997,0.5847209,0.8221953,-0.01566395,0.001077285,-0.002868452,0.009453345,-0.06856932,0.09550662
-0.05415103,0.5815119,0.8264621,-0.01739082,-0.001930216,0.001096596,-0.001910952,-0.06464101,0.08794601
-0.05298523,0.5874108,0.8258618,-0.015563,0.004167819,0.0002016378,-0.0107298,-0.0643807,0.08066409
-0.05468749,0.5876145,0.8261646,-0.01660621,0.004567875,0.0002170704,-0.01620188,-0.06412336,0.07833544
-0.05673518,0.5853832,0.8281193,-0.01799857,0.002529562,0.001892044,-0.01964622,-0.06441158,0.07944265
-0.05647761,0.582288,0.8275105,-0.01709002,-0.0003764289,0.001011107,-0.02039924,-0.05638519,0.07533405
-0.05783192,0.5801292,0.8287027,-0.01779829,-0.002350048,0.001939065,-0.01797586,-0.05843242,0.07444534
-0.05567572,0.5777299,0.833119,-0.01500148,-0.004568461,0.006098959,-0.0186056,-0.05713651,0.07290894
-0.05382459,0.5712893,0.8382189,-0.01251573,-0.01083238,0.01095024,-0.01732807,-0.06060986,0.06808302
-0.0529906,0.5692682,0.8397993,-0.01105368,-0.01268074,0.01228943,-0.01013895,-0.06697092,0.06928787
-0.05262416,0.5706815,0.8332205,-0.01006636,-0.01109835,0.005476522,-0.001654313,-0.0637028,0.07208439
-0.05214467,0.5724294,0.8284494,-0.008973824,-0.009184591,0.0004781337,0.005911174,-0.06539346,0.07048974
-0.05014193,0.5763161,0.82887,-0.006366478,-0.005134898,0.0006780597,0.00491384,-0.05981962,0.06505517
-0.05318107,0.575975,0.8282008,-0.008810084,-0.005315884,-0.0002049514,0.003245965,-0.0569159,0.06273716
-0.05547479,0.5755661,0.8281767,-0.01051789,-0.005567284,-0.0004361006,0.01088539,-0.05641587,0.06205385
-0.05501443,0.5792389,0.8292016,-0.00948168,-0.001739775,0.0003886709,0.01335922,-0.05101805,0.05801688
-0.05632918,0.5791105,0.8312744,-0.01023097,-0.00171628,0.00226836,0.009768258,-0.05459779,0.05703901
-0.05411669,0.5793578,0.8306439,-0.007463693,-0.001319859,0.001451634,0.008097929,-0.04993274,0.0550265
-0.05384695,0.5819354,0.8282084,-0.006650159,0.00140388,-0.001163225,0.005197014,-0.04744636,0.05304805
-0.05574383,0.5810935,0.8289893,-0.00801453,0.0007049777,-0.0005547851,0.00529273,-0.0551844,0.05498255
-0.05481182,0.5809434,0.8271808,-0.006561552,0.0006944401,-0.002528939,0.006241111,-0.05639768,0.05385583
-0.05410368,0.5782504,0.824184,-0.005344224,-0.00186245,-0.005684533,0.002614197,-0.0535524,0.05288029
-0.05112247,0.5737895,0.8247006,-0.001865839,-0.006190856,-0.005319664,-0.0006968797,-0.04154339,0.05179975
-0.05135614,0.5793942,0.8263557,-0.001614661,-0.0004572371,-0.003809046,-0.004276,-0.03373085,0.05052089
-0.0558629,0.5854458,0.8266139,-0.005649176,0.005719754,-0.00368801,-0.00509599,-0.0382487,0.0520179
-0.057427,0.5826229,0.8250788,-0.006753822,0.003018582,-0.005352962,-0.002613162,-0.04206392,0.05223869
-0.05700402,0.5797892,0.8247872,-0.005884231,0.0003027079,-0.005766941,-0.004632589,-0.04637343,0.05225496
-0.05365053,0.5781018,0.8242287,-0.002096951,-0.001270994,-0.006440343,-0.00555385,-0.0481202,0.05202017
-0.05193726,0.5769495,0.8255538,3.722166e-05,-0.002313624,-0.005222617,-0.005068378,-0.04428616,0.05074501
-0.0532441,0.5785191,0.8326334,-0.0008617355,-0.0006383618,0.001757317,-0.006393589,-0.03749437,0.04633318
-0.05371526,0.5797418,0.8376938,-0.0009381668,0.0006860698,0.006725261,-0.003961458,-0.03801831,0.04171006
-0.0555011,0.5808415,0.8342047,-0.002342516,0.001883557,0.00315075,-0.002191887,-0.04474469,0.04582866
-0.05474562,0.5820187,0.8290257,-0.001218779,0.0031546,-0.002107228,0.0001508721,-0.04509467,0.04809942
-0.05003096,0.5817088,0.8287522,0.003850893,0.002934536,-0.002453603,0.004429365,-0.04468609,0.04029451
-0.0457496,0.5820977,0.8236064,0.008473935,0.003409025,-0.007666131,0.004863659,-0.03840116,0.03492529
-0.04867432,0.5820928,0.8196999,0.005877328,0.003485487,-0.01163334,0.004653469,-0.03112218,0.03938285
-0.06031533,0.5810479,0.8315696,-0.005449326,0.002517597,0.0001818489,0.003917094,-0.04104031,0.04490405
-0.06665228,0.579597,0.8391815,-0.01148553,0.001139277,0.007745314,0.007690295,-0.04947765,0.04439043
-0.0592318,0.5772039,0.8320275,-0.003777412,-0.001185575,0.0005485499,0.0126387,-0.04230032,0.04323644
-0.05017423,0.5790978,0.8260497,0.005555124,0.0007723783,-0.005466635,0.005813681,-0.03710739,0.03848433
-0.05358487,0.5816716,0.8257859,0.002406975,0.00340604,-0.005762804,0.001473573,-0.04131995,0.03107027
-0.05590939,0.5783768,0.825828,0.0003325237,0.0001671336,-0.005748043,0.007455416,-0.04453536,0.0314747
-0.05029003,0.5766741,0.826746,0.006189629,-0.001483754,-0.004852235,0.01025821,-0.04415226,0.03011791
-0.05388178,0.5776096,0.8300542,0.002823376,-0.0005003075,-0.001561295,0.006624869,-0.03515375,0.02490482
-0.05763474,0.5780952,0.8266113,-0.0007162352,2.964051e-05,-0.005016516,0.003225641,-0.02160594,0.0275154
-0.05724994,0.5812896,0.8213886,-0.0001300076,0.003264859,-0.01024679,0.004150779,-0.02555128,0.03112335
-0.05829797,0.5859412,0.8242764,-0.0009882221,0.007953823,-0.007361797,0.004071642,-0.03061793,0.03166769
-0.05385091,0.589355,0.8256069,0.003637366,0.01140131,-0.006029207,0.002700523,-0.02555956,0.03238076
-0.05514918,0.5891063,0.8249122,0.00250661,0.01118249,-0.006716902,0.001971814,-0.02951492,0.02992051
-0.05722318,0.5855475,0.825947,0.0005893329,0.007649209,-0.005670205,-0.001847102,-0.02898179,0.02843026
-0.05385973,0.5834484,0.8291865,0.004098956,0.005571191,-0.002414186,-0.00522626,-0.02385033,0.02854224
-0.05644302,0.5820754,0.8337139,0.001651535,0.004214715,0.002134365,-0.004044801,-0.02658343,0.02697491
-0.0556917,0.5795847,0.8320147,0.00252867,0.001735983,0.000460597,0.00172624,-0.02750537,0.02982609
-0.05450503,0.577994,0.8298282,0.003831361,0.0001528481,-0.001696746,0.00624812,-0.03055765,0.03281379
-0.05557123,0.575481,0.8301935,0.002871607,-0.002356744,-0.001298901,0.004781925,-0.03041152,0.02915577
-0.05218163,0.5713508,0.8287408,0.006358326,-0.00648729,-0.002715751,0.005216133,-0.02344623,0.022388
-0.05303552,0.570232,0.8301311,0.005592372,-0.0076098,-0.001286729,0.01129645,-0.02380571,0.01728441
-0.05492831,0.5720996,0.8321722,0.003778496,-0.005748544,0.0007958636,0.01612097,-0.02964406,0.01998515
-0.05560267,0.5740446,0.8328163,0.003174233,-0.003811998,0.001483925,0.01547558,-0.03474487,0.02441342
-0.05628155,0.5767193,0.835937,0.002556885,-0.00114756,0.004650634,0.01412825,-0.02882167,0.02444705
-0.05511577,0.5797769,0.8375269,0.003775927,0.001898249,0.006288103,0.01365054,-0.01920111,0.02572992
-0.05768483,0.5814753,0.8335289,0.001252167,0.003583534,0.002338876,0.01093405,-0.02313045,0.02539294
-0.05908836,0.5820818,0.828424,-0.0001136947,0.004175611,-0.002716481,0.01129038,-0.02116071,0.02396421
-0.05799941,0.5823602,0.8253402,0.0010057,0.004438228,-0.005750279,0.01251154,-0.01473,0.0247106
-0.05902271,0.5826662,0.8248692,6.044065e-06,0.004726914,-0.006170597,0.00855528,-0.02023689,0.02412155
-0.06087157,0.5835339,0.8286183,-0.001825574,0.00557578,-0.002370197,0.005164765,-0.02106456,0.02402467
-0.0628945,0.5831246,0.8295753,-0.003837173,0.005146017,-0.001361208,0.002321676,-0.0159101,0.02018647
-0.06014309,0.5802608,0.8290472,-0.001079835,0.002259925,-0.001836747,-0.001259552,-0.01238439,0.01359515
-0.05674073,0.5784843,0.8343311,0.002323526,0.0004595642,0.003500203,-0.00407953,-0.01088532,0.01458755
-0.05820949,0.5784701,0.8340084,0.0008511731,0.0004197223,0.003230745,-0.008467103,-0.01241427,0.01706328
-0.0565218,0.5768088,0.8299866,0.002530966,-0.001268594,-0.0007377551,-0.008537335,-0.008649239,0.01887617
-0.05180526,0.5741275,0.831072,0.007235497,-0.003978126,0.0004006644,-0.001813936,-0.007608729,0.01933413
-0.05109356,0.5744717,0.8303282,0.007931177,-0.003663178,-0.0002904532,0.004512227,-0.01612708,0.01350548
-0.05426322,0.5756976,0.8313393,0.004741471,-0.002467085,0.0007728281,0.01035225,-0.01956394,0.011952
-0.05657981,0.5736963,0.8324829,0.002400847,-0.004498583,0.001967928,0.01634833,-0.01663281,0.0121899
-0.05563996,0.5731145,0.8294785,0.003312834,-0.005110589,-0.0009857686,0.01739318,-0.01470554,0.01122873
-0.05555708,0.5747927,0.8293171,0.003364189,-0.003462291,-0.001097273,0.01563851,-0.01424038,0.01506689
-0.05859338,0.5768672,0.8312933,0.000292935,-0.001417136,0.0009278656,0.01802734,-0.01325396,0.01548488
-0.06019951,0.5803614,0.8352758,-0.001351334,0.002048391,0.004958309,0.01871726,-0.01196329,0.01380047
-0.05799557,0.5797128,0.8368595,0.0008116122,0.001371831,0.006588708,0.01377474,-0.01373303,0.01036495
-0.05640509,0.5784176,0.8326541,0.002358556,4.936873e-05,0.002428499,0.01080388,-0.01556519,0.004189796
-0.05870424,0.5818474,0.8295679,1.358223e-05,0.003452604,-0.0006141821,0.006220173,-0.0160403,0.003078962
-0.06073873,0.5835138,0.826587,-0.002068755,0.005092987,-0.003553369,-0.000676639,-0.01590954,0.005827663
-0.05939258,0.5842946,0.8241644,-0.0007721927,0.005848124,-0.005935907,-0.0009457653,-0.01223885,0.00891801
-0.05719248,0.5848564,0.8257918,0.001376911,0.006384414,-0.004269936,-2.976655e-05,-0.008870454,0.003796027
-0.05224992,0.5817925,0.8307693,0.006267262,0.003294994,0.0007450268,-0.002084127,-0.008472364,-0.003560254
-0.04691371,0.5766254,0.8348021,0.01155005,-0.001897754,0.004814134,-0.00101705,-0.009402416,-0.002235905
-0.05105333,0.5717091,0.8323632,0.007355644,-0.00683994,0.002410245,0.001953697,-0.009728173,-0.00364498
-0.05713603,0.571956,0.8286478,0.001216627,-0.006618802,-0.001271637,0.0022878,-0.007860383,-0.008777546
-0.05667272,0.5756769,0.8274225,0.001622096,-0.002923236,-0.002464773,0.001667651,-0.005782673,-0.01163943
-0.05856919,0.5769045,0.8267543,-0.0003335612,-0.001720166,-0.003102152,0.003912109,-0.003061254,-0.009568351
-0.06114144,0.5767706,0.828927,-0.002966106,-0.001877626,-0.000899803,0.00725168,-0.00323816,-0.004031486
-0.06017426,0.576965,0.8336638,-0.002060005,-0.001705845,0.00386552,0.01078991,-0.006977531,-0.0001670205
-0.06122445,0.5786109,0.8362462,-0.003171726,-8.141441e-05,0.00647522,0.01474942,-0.00854886,0.004955048
-0.06088218,0.5808306,0.8314254,-0.002891096,0.002117772,0.00168033,0.01247698,-0.01035504,0.003400581
-0.05700164,0.5818604,0.8251605,0.0009279918,0.00312818,-0.004560255,0.005530973,-0.01158539,-0.004192072
-0.05473307,0.5807766,0.8277985,0.003135502,0.002025918,-0.001899332,0.00152183,-0.01030376,-0.00607968
-0.05516518,0.5780703,0.831207,0.002642778,-0.0006981662,0.00153079,0.001952726,-0.007450277,-0.00573207
-0.05581366,0.5787564,0.829506,0.001934142,-2.917716e-05,-0.0001497652,0.003704845,-0.004435917,-0.003934943
-0.05341897,0.5791757,0.8291287,0.004269109,0.000373867,-0.0005078956,-0.0006542242,-0.004698934,-0.005274932
-0.05102525,0.5767312,0.8277153,0.006603513,-0.002086306,-0.001903301,-0.004179818,-0.003622903,-0.01141915
-0.05192487,0.5780783,0.82806,0.005644848,-0.0007541166,-0.001541645,-0.0004425257,-0.00269818,-0.01489537
-0.05404777,0.5793595,0.8323598,0.003463034,0.0005129958,0.002774133,0.001071217,-0.003800288,-0.01639492
-0.05639335,0.5796703,0.8320976,0.00105859,0.0008104287,0.002526884,0.0007997228,-0.002782011,-0.01348352
-0.05647941,0.5810367,0.8312878,0.0009137505,0.002164189,0.001731101,0.0002516271,-0.003923017,-0.0106253
-0.05744769,0.5785556,0.830281,-0.0001131414,-0.0003289571,0.0007370324,0.000858354,-0.00283732,-0.01160231
-0.06139243,0.5769378,0.8261056,-0.004116154,-0.001958149,-0.003426626,0.003713101,0.0008430712,-0.009244916
-0.0618342,0.5780468,0.8253062,-0.004615631,-0.0008599216,-0.004215368,0.003258671,-0.0006410186,-0.006431982
-0.06206848,0.5777984,0.825943,-0.004906733,-0.001118384,-0.003568617,0.005325944,-0.005648105,-0.00477151
-0.06219872,0.577563,0.8275541,-0.005092569,-0.001363242,-0.001948244,0.008072963,-0.01068173,-0.00562191
-0.05567406,0.5768648,0.8292699,0.001377993,-0.00207008,-0.0002235139,0.006314664,-0.007267403,-0.008947512
-0.05112919,0.5761393,0.8283965,0.005870361,-0.002803443,-0.001088293,0.006710605,-0.0025762,-0.007550353
-0.05435109,0.5764965,0.8300628,0.00259748,-0.002453169,0.0005862534,0.006385596,-0.005358753,-0.006154903
-0.05681274,0.5777413,0.8336209,8.621486e-05,-0.001214277,0.004152248,0.003564511,-0.002617327,-0.007154537
-0.05445437,0.5798678,0.8354135,0.002396259,0.0009072184,0.005952283,0.001584097,0.001833491,-0.008471751
-0.05324666,0.5808898,0.832724,0.003556896,0.00192522,0.003269617,0.002112702,0.002294167,-0.0120582
-0.05495141,0.5798044,0.8288224,0.001806225,0.0008366072,-0.0006260059,0.004299749,0.004130741,-0.01276372
-0.05588885,0.5785412,0.8290921,0.0008239384,-0.0004290322,-0.0003511036,0.003466823,0.003657878,-0.0123986
-0.0599554,0.5790473,0.830074,-0.003286386,7.519136e-05,0.0006350837,0.003024102,0.002956324,-0.0137729
-0.06390119,0.5786009,0.8328354,-0.007274762,-0.0003723331,0.003399937,0.003799832,0.00386135,-0.01080614
-0.0592692,0.5771241,0.834137,-0.002683923,-0.001849754,0.004704152,0.004911991,0.003311337,-0.006832571
-0.05398495,0.5778767,0.8296924,0.002560834,-0.001097103,0.0002612683,0.008819608,0.001648627,-0.00575023
-0.05373912,0.5780163,0.8293158,0.002768824,-0.0009568151,-0.0001147375,0.009197432,-0.002128325,-0.006847629
-0.05390996,0.5774776,0.8313217,0.002561692,-0.001494239,0.001890828,0.006928386,-0.005875224,-0.01164558
-0.05250368,0.5779774,0.8275242,0.003933066,-0.0009924688,-0.001908006,0.006730694,-0.00477671,-0.01411356
-0.05143662,0.5778998,0.8257948,0.004966426,-0.001067421,-0.00363946,0.005740997,0.001448273,-0.01438549
-0.0549423,0.5789731,0.8303699,0.001428053,9.220382e-06,0.0009328147,0.005337776,0.006325098,-0.01932927
-0.05941913,0.5813334,0.8332189,-0.003080562,0.002373421,0.00377834,0.00499467,0.003947174,-0.01955578
-0.05872731,0.5819564,0.8320275,-0.00241959,0.003000774,0.002582953,0.002798656,0.0007972873,-0.01522209
-0.05759961,0.5793389,0.8313773,-0.001321678,0.0003880963,0.001927972,0.002065719,0.002987173,-0.01659135
-0.05874395,0.5766257,0.8322391,-0.002494638,-0.002320196,0.002784199,0.002630712,0.003478149,-0.0166325
-0.05801918,0.5780377,0.8315588,-0.001797226,-0.0009029366,0.002097592,0.0013012,0.002151635,-0.01646618
-0.05623526,0.5802032,0.829788,-3.931565e-05,0.001268071,0.0003195765,0.0003565856,0.003621766,-0.01778131
-0.05533233,0.5802533,0.8309972,0.0008389601,0.001323797,0.001520681,0.003501614,0.002862069,-0.0159599
-0.05518353,0.5790689,0.832695,0.0009644295,0.0001452343,0.003209595,0.007178781,0.002985444,-0.01788802
-0.0562819,0.5766862,0.8317129,-0.000156011,-0.002231561,0.002217804,0.006948754,0.008058544,-0.01827503
-0.05785674,0.5756689,0.8326688,-0.001751718,-0.003242746,0.003163059,0.004457444,0.0106592,-0.01598877
-0.06126714,0.57552,0.8334054,-0.005181736,-0.003385432,0.00388799,0.003214724,0.006576296,-0.01632334
-0.06390112,0.5761055,0.8266504,-0.007833932,-0.002793284,-0.002879644,0.003920647,0.001395766,-0.01408184
-0.06218208,0.5787426,0.8212606,-0.006131465,-0.0001491346,-0.008282897,0.004505302,0.003431185,-0.01519991
-0.06117038,0.5781274,0.8254456,-0.00513443,-0.0007567424,-0.004111896,0.004263375,0.004954867,-0.01522383
-0.05810048,0.5770365,0.8295279,-0.002077102,-0.001839628,-4.387092e-05,0.004291901,0.00200691,-0.01201627
-0.05112655,0.5793823,0.8300472,0.004886386,0.0005146381,0.0004612018,0.004748691,0.004834842,-0.01527096
-0.05009822,0.5787545,0.8294561,0.005906208,-0.0001042204,-0.0001441691,0.004347898,0.006418555,-0.01565888
-0.05228788,0.5762491,0.8282086,0.003709637,-0.002600266,-0.001405833,0.001903992,0.004682423,-0.0158739
-0.05123325,0.5743435,0.8290613,0.004758617,-0.004496089,-0.0005671858,-0.0006725858,0.006480048,-0.01972473
-0.05109475,0.5734395,0.8291002,0.004892414,-0.005389793,-0.0005420654,0.0002643637,0.007690158,-0.02037051
-0.05228268,0.5739962,0.8293815,0.003700432,-0.004822036,-0.0002743687,0.003376403,0.010002,-0.02215795
-0.05441504,0.5723103,0.8315958,0.001564433,-0.006496086,0.001926706,0.005758068,0.01159303,-0.02158214
-0.05920793,0.5721858,0.8325123,-0.003231811,-0.006607553,0.0028301,0.008976024,0.01058886,-0.02136734
-0.0617315,0.5746226,0.8324537,-0.005758429,-0.004156465,0.002758702,0.01105318,0.009291884,-0.02371405
-0.06019845,0.5762233,0.8303928,-0.00422793,-0.002539994,0.0006850161,0.01011742,0.005000707,-0.02109213
-0.06004483,0.5780017,0.8294152,-0.004076159,-0.000744387,-0.0003054476,0.009383803,0.004975468,-0.01776143
-0.06062032,0.5781138,0.8276726,-0.00465261,-0.0006136585,-0.002060791,0.007734229,0.007041591,-0.01363164
-0.05937438,0.5796005,0.8232895,-0.003406599,0.000892918,-0.006456486,0.005920279,0.00220145,-0.01166039
-0.05762812,0.5823278,0.8248226,-0.001659104,0.003641166,-0.00493563,0.00658199,0.0008178035,-0.01231508
-0.05387146,0.5820342,0.8260466,0.002099972,0.003369403,-0.003723173,0.006179237,0.005160479,-0.01101613
-0.05006067,0.5813688,0.8245893,0.005914254,0.002726459,-0.00519119,0.004351372,0.007467818,-0.01674397
-0.05216968,0.579243,0.8282734,0.003809547,0.0006234648,-0.001516844,0.001821286,0.007619268,-0.0212097
-0.0559381,0.5767443,0.8316923,4.596579e-05,-0.00185223,0.001893552,-0.002592487,0.0076838,-0.01856178
-0.05558764,0.5767145,0.8336226,0.0004016288,-0.001859023,0.003816297,-0.003940311,0.009985571,-0.02051486
-0.05541838,0.5758111,0.8337095,0.0005763945,-0.002739154,0.003896631,-0.002410387,0.010396,-0.02142594
-0.05584161,0.5729359,0.8306038,0.0001589001,-0.005590972,0.0007850364,-0.002885185,0.008445129,-0.01991757
-0.05574873,0.5715587,0.8312638,0.0002577037,-0.006944416,0.001439662,-0.002088055,0.007846199,-0.02077773
-0.05845792,0.5738837,0.8332571,-0.002445398,-0.004595093,0.003428047,-0.0007045956,0.004850863,-0.02077429
-0.06037092,0.5746805,0.8322111,-0.004352114,-0.003773319,0.002377383,-8.13255e-05,0.004128201,-0.02090808
-0.0589304,0.5735111,0.8325517,-0.00290499,-0.004916881,0.002713417,0.002856643,0.006911973,-0.02002184
-0.0582765,0.5745674,0.8333163,-0.002244037,-0.003833912,0.003473407,0.005679976,0.005940608,-0.01972665
-0.06097241,0.5737771,0.8328519,-0.004932351,-0.004596409,0.003004295,0.008309035,0.005154182,-0.02273179
-0.06301543,0.5728166,0.8330421,-0.006967069,-0.005528057,0.003189561,0.009184076,0.003388726,-0.02334715
-0.05853696,0.5740581,0.8284138,-0.002479408,-0.004256551,-0.001444148,0.008137737,0.0008044782,-0.01979677
-0.05349639,0.5726221,0.8190302,0.00257134,-0.00566125,-0.01083348,0.009212644,0.005080759,-0.0159921
-0.05355982,0.5725009,0.8158752,0.002518998,-0.00574985,-0.01399416,0.007987183,0.00808742,-0.01588121
-0.05365724,0.577231,0.8236787,0.002433404,-0.0009856225,-0.006195763,0.005651006,0.006429894,-0.01759426
-0.05244495,0.5813115,0.8347983,0.003658018,0.00313032,0.004919657,0.004394705,0.008248885,-0.01708469
-0.05323658,0.5814835,0.8365342,0.002878995,0.003338863,0.006652355,0.002258308,0.01030695,-0.01807651
-0.05689343,0.5806657,0.8330295,-0.0007651629,0.00255844,0.003145187,0.003389887,0.009005631,-0.0187784
-0.06017734,0.5823479,0.8323505,-0.004036373,0.004278597,0.00246411,0.004453221,0.006990212,-0.01561215
-0.05975379,0.5821406,0.8302781,-0.003600057,0.004109425,0.0003899974,0.004630491,0.006638919,-0.01577731
-0.05658774,0.5788149,0.8318381,-0.0004210455,0.0008216422,0.0019483,0.007926086,0.008389094,-0.02018293
-0.05470887,0.5760528,0.8355805,0.001471013,-0.001902807,0.005689092,0.009901948,0.00879293,-0.02419742
-0.05486433,0.5722476,0.8337335,0.001328917,-0.005670664,0.003840426,0.008972993,0.008786328,-0.02611658
-0.05227531,0.5720333,0.8327696,0.003931344,-0.005848008,0.002874395,0.006266566,0.01280283,-0.02437029
-0.0501275,0.5767166,0.8333976,0.006092414,-0.001127742,0.003499899,0.00433305,0.01578419,-0.02220578
-0.05675516,0.5792559,0.8320411,-0.0005223485,0.001448427,0.00214027,0.00474893,0.01103104,-0.02063886
-0.06399871,0.5789237,0.8298946,-0.007753458,0.001152985,-1.014738e-05,0.005214858,0.006297435,-0.01851883
-0.06044615,0.5770679,0.8282931,-0.004188783,-0.0006663029,-0.001616152,0.006735973,0.008854433,-0.01759969
-0.05653361,0.5775102,0.8281466,-0.0002642063,-0.0001878152,-0.001767716,0.008164086,0.011515,-0.0165692
-0.0582123,0.5787256,0.8267197,-0.001930824,0.001063308,-0.003200235,0.007336156,0.01017771,-0.0161005
-0.05523519,0.5780095,0.8250192,0.001058412,0.0003824151,-0.00490647,0.006270522,0.005573489,-0.01558706
-0.05179427,0.5798263,0.8258328,0.004511472,0.002233933,-0.004098757,0.006699691,0.0005278657,-0.01451401
-0.05172913,0.5802454,0.8281239,0.004588615,0.002686948,-0.001813278,0.006753043,0.00452753,-0.01666868
-0.05202611,0.5790392,0.8336112,0.004303255,0.001513822,0.003668709,0.005024665,0.01062888,-0.01721713
-0.05627084,0.57834,0.8380953,6.955967e-05,0.0008466259,0.008147738,0.004435355,0.007609726,-0.01681339
-0.05819647,0.5750051,0.8312621,-0.001845713,-0.0024573,0.001309491,0.0031566,0.007341397,-0.01991536
-0.0572736,0.573618,0.8224297,-0.0009131293,-0.003814413,-0.007528076,-2.709942e-05,0.01146738,-0.01963326
-0.05883894,0.5738094,0.8258856,-0.002469301,-0.003593973,-0.004077377,-0.0006314782,0.01261837,-0.02013164
-0.0583558,0.5743549,0.8298364,-0.001977437,-0.003020151,-0.0001315595,-3.618893e-05,0.01549679,-0.02229114
-0.0584437,0.5765908,0.8299036,-0.002056957,-0.0007564657,-6.895522e-05,-0.0003175275,0.01539788,-0.01841524
-0.06040331,0.5766935,0.8338174,-0.004008395,-0.0006266034,0.003840514,5.417782e-05,0.01035144,-0.0180392
-0.06087421,0.5771437,0.8334052,-0.004471182,-0.0001496419,0.003424244,0.001945792,0.006061795,-0.01994933
-0.0588242,0.5783965,0.8316291,-0.002412946,0.001129242,0.001644243,0.00491879,0.00358442,-0.01519993
-0.05562546,0.578571,0.8330823,0.0007942517,0.001329335,0.003093449,0.007110636,0.005359836,-0.01162072
-0.05680172,0.5794215,0.8325115,-0.0003732835,0.002204679,0.002518462,0.007473704,0.005527071,-0.01011037
-0.05777874,0.5791009,0.8343107,-0.001341343,0.001908208,0.004313142,0.006659573,0.00357488,-0.007804284
-0.05622143,0.578249,0.8340448,0.0002251342,0.001079434,0.004042347,0.008049364,0.004228908,-0.007818491
-0.05719837,0.5779976,0.832158,-0.0007424211,0.0008502464,0.002149975,0.008519552,0.00274694,-0.009435968
-0.05711995,0.5766026,0.8316422,-0.0006544298,-0.0005234572,0.001627989,0.001875407,0.003871298,-0.01190446
-0.05621307,0.5745058,0.8254919,0.0002621951,-0.002600043,-0.004529261,-0.002620219,0.009465022,-0.01507395
-0.05549668,0.5747206,0.8234202,0.0009884663,-0.002365966,-0.006608399,-0.00018965,0.01283335,-0.01781934
-0.05398963,0.5776583,0.8293007,0.002505457,0.0005902746,-0.0007355304,0.0008031438,0.01220829,-0.01850263
-0.05660868,0.579069,0.8356294,-0.0001036758,0.002018688,0.005585401,0.0006141218,0.008265972,-0.01849358
-0.0593609,0.5792863,0.8372268,-0.002846081,0.002253007,0.007174818,0.001143387,0.007032168,-0.0192154
-0.05648286,0.579389,0.8346783,4.170289e-05,0.002371809,0.004617927,0.002246802,0.005795513,-0.0181813
-0.05461047,0.5788069,0.8362791,0.001923791,0.001804809,0.006209749,0.003797704,0.001600299,-0.01691824
-0.05673505,0.5792029,0.8329569,-0.0001911937,0.002214925,0.002877662,0.003048151,0.001831254,-0.01621683
-0.05751061,0.5783294,0.8254863,-0.0009572884,0.00135431,-0.00460372,0.002665654,0.004047455,-0.01688301
-0.05665498,0.5772385,0.8261425,-9.234858e-05,0.0002752528,-0.003959146,0.004243937,0.005740859,-0.01926403
-0.0567649,0.5779861,0.8326353,-0.0001930848,0.001033409,0.002521464,0.005190862,0.007303355,-0.01783626
-0.0561897,0.5777786,0.8414775,0.0003911405,0.0008354415,0.01135088,0.005305547,0.007851407,-0.01448486
-0.05514212,0.5776965,0.8396741,0.001447586,0.0007616591,0.009533954,0.005617434,0.009853242,-0.01319871
-0.05570209,0.5778833,0.8332826,0.0008962507,0.0009557589,0.003127774,0.006094856,0.01039269,-0.01387719
-0.0566559,0.577666,0.8338585,-4.919634e-05,0.0007445771,0.003687686,0.004761763,0.009039049,-0.01492374
-0.05688895,0.5784145,0.8297861,-0.0002741922,0.001498159,-0.0004021696,0.002743081,0.00685351,-0.01419268
-0.0561777,0.5796779,0.827124,0.0004448158,0.002765539,-0.003082879,0.00210532,0.006090248,-0.01657543
-0.05550089,0.5797334,0.8287701,0.00112906,0.002823887,-0.001456563,0.001739649,0.01281155,-0.02074903
-0.05725497,0.5778174,0.8315898,-0.0006179262,0.0009095611,0.001342426,0.0009455604,0.01493127,-0.0199351
-0.05881379,0.577543,0.8344668,-0.002169979,0.000635704,0.004197903,0.0003332397,0.00814039,-0.01341016
-0.05637485,0.5767835,0.8302781,0.0002754453,-0.000124511,-1.293555e-05,0.0019396,0.008031597,-0.00741718
-0.05335851,0.5736464,0.8315659,0.003298009,-0.003263293,0.00125184,0.003742776,0.009427227,-0.01282587
-0.05205042,0.5747638,0.833392,0.004611979,-0.00214848,0.003054365,0.003018416,0.01028398,-0.02000208
-0.05035612,0.5757257,0.8280694,0.006311626,-0.001189928,-0.002292555,0.003565451,0.0158766,-0.0191599
-0.05081513,0.5763456,0.8288835,0.005857199,-0.0005738267,-0.001503278,0.005732431,0.01616987,-0.02201813
-0.05502432,0.5820037,0.8279169,0.001651574,0.005079822,-0.002495091,0.007980072,0.01544048,-0.02251354
-0.05849285,0.5818579,0.8262681,-0.001814503,0.004929143,-0.004169216,0.008818069,0.01428528,-0.0145696
-0.05964681,0.5782706,0.827444,-0.002967075,0.001336142,-0.003018662,0.005523219,0.009775302,-0.0121197
-0.05990995,0.5786776,0.8266644,-0.00322971,0.00173675,-0.003823178,0.004498472,0.009957775,-0.01479821
-0.05949173,0.5762052,0.8292897,-0.002811655,-0.0007429531,-0.001222296,0.005079083,0.008510369,-0.01573354
-0.05878415,0.5770477,0.8276832,-0.002104715,9.157976e-05,-0.002852491,0.002322083,0.00895867,-0.01287166
-0.05812806,0.5808775,0.8256339,-0.001449576,0.003912596,-0.004924641,0.001359963,0.0113977,-0.008805595
-0.05728672,0.5778923,0.8276933,-0.000609375,0.0009179835,-0.002887047,-0.003073173,0.01083105,-0.01109282
-0.05409159,0.5768062,0.8291449,0.002584464,-0.000178286,-0.001456099,-0.006799845,0.01407069,-0.0142883
-0.04993136,0.5782715,0.8344638,0.006743207,0.001276094,0.003843423,-0.002849369,0.009565871,-0.01497932
-0.05078891,0.57558,0.8349348,0.005883782,-0.001426862,0.004296218,-0.004750632,0.006218313,-0.01604248
-0.0525748,0.5746104,0.8326668,0.004095361,-0.00240857,0.002011058,-0.005686436,0.01223471,-0.01512994
-0.05146255,0.5761567,0.8303903,0.005204212,-0.000874661,-0.0002819118,-0.001648874,0.01178933,-0.01572922
-0.05498365,0.5775964,0.8260253,0.001678694,0.0005522865,-0.004662591,-0.0004093351,0.0120629,-0.01612808
-0.05954457,0.578415,0.8309245,-0.00288772,0.001358067,0.0002217119,0.005427497,0.008907044,-0.01545421
-0.05843935,0.5782048,0.8326984,-0.001788978,0.00113478,0.001981641,0.005498326,0.005734564,-0.01792125
-0.05786473,0.5791304,0.8263544,-0.001221631,0.002047059,-0.004375466,0.001853397,0.01304196,-0.01876671
-0.0588478,0.5806047,0.8231778,-0.002212626,0.003507904,-0.007564234,0.005482073,0.01406355,-0.01802319
-0.05929718,0.5831178,0.8231218,-0.002670396,0.006007111,-0.007631276,0.005679285,0.012229,-0.01591196
-0.06067866,0.5844516,0.8272902,-0.004060552,0.007326587,-0.003472446,0.0077465,0.0100409,-0.01128021
-0.06012496,0.5824474,0.8280768,-0.003515603,0.005307243,-0.002693745,0.004298945,0.006037685,-0.009337736
-0.05645121,0.5822127,0.8254625,0.0001495057,0.005056385,-0.005314175,-0.00477409,0.008732264,-0.01175087
-0.05328684,0.580964,0.8239595,0.003305447,0.00379048,-0.006821427,-0.001076443,0.009387809,-0.01495727
-0.05195265,0.5777903,0.822431,0.004631345,0.0005983037,-0.008352138,-0.00220553,0.008050866,-0.01303348
-0.05048818,0.5767781,0.8239685,0.006087472,-0.0004335452,-0.006814549,-0.004083495,0.007991494,-0.01014661
-0.05004111,0.5732228,0.8245753,0.006525913,-0.004009617,-0.006205141,0.000514942,0.00856479,-0.01090348
-0.05124441,0.5701749,0.827283,0.005313428,-0.007078995,-0.003492227,-0.004742407,0.01268113,-0.01095596
-0.05103135,0.574099,0.8314523,0.005516513,-0.003176861,0.0006848921,-0.004222674,0.01368409,-0.01213925
-0.05227874,0.5781887,0.8323644,0.004258157,0.0008907801,0.00160741,0.0007747432,0.01211551,-0.01371066
-0.05552699,0.5763712,0.8338685,0.0009978367,-0.0009487154,0.00312425,0.001884577,0.01234265,-0.01426171
-0.05619406,0.5744192,0.8315135,0.0003175472,-0.002922683,0.0007838771,0.004936035,0.01288912,-0.0127585
-0.057045,0.5760864,0.8304701,-0.0005476744,-0.001277113,-0.0002432462,0.002842763,0.01269146,-0.00778936
-0.0582716,0.577499,0.8333383,-0.001789502,0.0001143153,0.00264279,0.003008868,0.01050456,-0.006245292
-0.05743689,0.5796564,0.8325789,-0.0009708092,0.00225085,0.001902525,0.00295338,0.006829802,-0.006634519
-0.05662646,0.5804511,0.8301587,-0.0001770079,0.0030252,-0.0004974852,0.001010479,0.004582942,-0.007432819
-0.05357343,0.5794561,0.8277733,0.002858859,0.00201017,-0.00286189,0.003601641,0.007457803,-0.009436676
-0.05040873,0.5811772,0.8286122,0.006005883,0.003711361,-0.002001097,-0.0003122026,0.009220285,-0.009341406
-0.05385253,0.578645,0.8263808,0.00254379,0.001159444,-0.004209812,-0.002426557,0.004468237,-0.01143038
-0.0572948,0.5750522,0.8231493,-0.0009174761,-0.002452942,-0.007417696,-0.001245337,0.001887598,-0.01309372
-0.05522843,0.5755658,0.8286832,0.001129218,-0.001958851,-0.001859258,-0.004604086,0.005656562,-0.01527501
-0.05514307,0.5745476,0.8311175,0.001194302,-0.002996306,0.0006007189,-0.004644847,0.009303599,-0.0197832
-0.0571653,0.5769749,0.8329047,-0.0008487367,-0.000587791,0.002414563,-0.00254776,0.007894724,-0.01706544
-0.05667425,0.5785612,0.8343398,-0.0003789591,0.0009801715,0.003877178,0.002521291,0.005376307,-0.01269626
-0.05590933,0.5750779,0.8292344,0.0003643519,-0.002520807,-0.001200304,0.005689008,0.003412381,-0.01056356
-0.05469579,0.5738865,0.8293145,0.001556017,-0.003729328,-0.001091914,0.003911325,0.0006555577,-0.009508844
-0.05442039,0.5729573,0.8309472,0.0018093,-0.00467478,0.0005693281,0.005820367,0.001711262,-0.01421206
-0.0565387,0.57293,0.8320066,-0.0003313508,-0.004717453,0.001657459,0.007339028,0.003489158,-0.01687815
-0.05708293,0.5738071,0.8312964,-0.0008980848,-0.003854511,0.0009760564,0.006764485,0.004557249,-0.01490019
-0.05703092,0.5758517,0.8254335,-0.0008686819,-0.001822732,-0.004858115,0.005973409,0.008223858,-0.01349469
-0.05720715,0.5793678,0.8248998,-0.001067485,0.001681888,-0.005363129,0.003216984,0.007656242,-0.01284049
-0.05736255,0.5776713,0.8270415,-0.001245312,-2.468767e-05,-0.003192753,-0.000399967,0.005917344,-0.01374519
-0.05819496,0.5769877,0.8296997,-0.002099905,-0.0007170921,-0.0005055119,-0.001594904,0.007966412,-0.01378574
-0.05684967,0.5786689,0.8305983,-0.0007764294,0.0009565146,0.0004222528,-0.0007339085,0.007489528,-0.01286239
-0.05493237,0.5769037,0.8292848,0.001119521,-0.0008152252,-0.000861911,-0.002920047,0.007421594,-0.01303576
-0.0536561,0.5760314,0.8347082,0.002374917,-0.001692838,0.004590817,-0.0031676,0.006882002,-0.01222255
-0.05313871,0.5747532,0.8358549,0.002871854,-0.002975405,0.005766747,-0.002139174,0.003099729,-0.009362936
-0.05494242,0.5741935,0.831737,0.001048019,-0.003538259,0.001677617,-0.004073912,0.005093915,-0.006564079
-0.05573982,0.5748601,0.8318873,0.0002307532,-0.002873555,0.001856013,-0.002808564,0.008038695,-0.007321383
-0.05607807,0.5727995,0.8321334,-0.0001270883,-0.004934826,0.002129397,-0.0014922,0.006265632,-0.008606341
-0.05736303,0.5724927,0.8338686,-0.001431356,-0.005240879,0.003891001,-0.0009035594,0.00741788,-0.006623955
-0.05765885,0.5734479,0.834465,-0.001746107,-0.00428333,0.004512712,0.0002440208,0.008310096,-0.006814327
-0.05448746,0.5760705,0.8301727,0.001406784,-0.001656745,0.0002443952,0.0009275031,0.007907587,-0.01101631
-0.0502943,0.5807487,0.8261736,0.005581896,0.003027188,-0.00373201,0.004692619,0.008912433,-0.01380997
-0.05558829,0.5781131,0.8263006,0.0002701923,0.0003987163,-0.00358362,0.005051969,0.006588816,-0.01181234
-0.06207544,0.5725672,0.827308,-0.006234393,-0.005138632,-0.002555844,0.003158207,0.005489748,-0.008505548
-0.05937341,0.5728191,0.8258258,-0.003549396,-0.004876732,-0.004018543,0.003975539,0.006873371,-0.009310572
-0.0588731,0.5764233,0.8272729,-0.003065483,-0.001261263,-0.002552622,0.001691768,0.006685438,-0.01031307
-0.05962828,0.5807084,0.828682,-0.003836244,0.003036684,-0.001125175,-0.0006704079,0.00707963,-0.00878137
-0.05757748,0.5797409,0.8271135,-0.001800046,0.0020832,-0.002675842,-0.0006999791,0.004749189,-0.006324373
-0.05797132,0.5764159,0.8282183,-0.002207399,-0.001226707,-0.001553575,0.0009481129,0.001135155,-0.002752283
-0.05672452,0.5766137,0.8291432,-0.0009729703,-0.001012863,-0.0006114467,0.003198103,0.001214322,-0.005489678
-0.05378706,0.5744653,0.8305073,0.00195329,-0.003144407,0.0007696017,-3.110185e-05,0.002987523,-0.01262557
-0.05346571,0.5741954,0.8308796,0.002264535,-0.003396621,0.00115866,-0.003325029,0.004568079,-0.01372288
-0.05271525,0.5763776,0.8263432,0.003005827,-0.00119585,-0.003361358,-0.001853414,0.004096149,-0.01205168
-0.05092706,0.5747857,0.8245301,0.004785617,-0.002768239,-0.005158375,-0.001988755,0.004919501,-0.01020142
-0.05214196,0.5750491,0.8265353,0.003562838,-0.002484423,-0.003137163,-0.002663681,0.008443499,-0.008629471
-0.055065,0.5744728,0.831072,0.000632262,-0.003039507,0.001415506,0.0002382468,0.009462557,-0.007713807
-0.05690396,0.5733739,0.8363403,-0.001214012,-0.004116143,0.00669984,0.005687831,0.008669752,-0.006331967
-0.05898065,0.5757719,0.8331757,-0.003297785,-0.00169503,0.00355107,0.01052289,0.008327061,-0.006960871
-0.05921654,0.576785,0.8268333,-0.003540408,-0.0006577556,-0.002776005,0.009633571,0.008068386,-0.005052068
-0.05931717,0.580269,0.825752,-0.003647264,0.002851255,-0.003842335,0.006001859,0.005992488,-0.002421783
-0.06187851,0.5827317,0.8253176,-0.006214147,0.005339673,-0.004262181,0.006033303,0.001874774,-0.004689531
-0.06057356,0.5807315,0.8271049,-0.004913845,0.003365603,-0.002460496,0.006226941,-0.0003741546,-0.005644564
-0.05857752,0.5797246,0.8308899,-0.002921353,0.00238485,0.001338881,0.005971114,-0.0004210582,-0.005872156
-0.06026651,0.5770965,0.8298675,-0.004612639,-0.000217196,0.0003308145,0.006616891,-0.0005664687,-0.007239805
-0.05926358,0.5781578,0.8293004,-0.003610631,0.0008699082,-0.0002219892,0.005376274,-0.0002835239,-0.006820978
-0.0564603,0.5815326,0.8308885,-0.0008068222,0.004270135,0.001380178,0.003930918,0.0009770408,-0.006767733
-0.0542665,0.5799438,0.8310256,0.001388963,0.002706213,0.001531165,0.001184474,0.002102684,-0.008508317
-0.05367998,0.5794928,0.8325391,0.001978807,0.002279384,0.003058305,-0.002500858,0.004568489,-0.01019116
-0.05685317,0.5778009,0.8321642,-0.001189882,0.0006108407,0.002696546,-0.003966939,0.007791964,-0.009053155
-0.05932239,0.574224,0.8312602,-0.003653503,-0.002943688,0.00180514,-0.004551001,0.008013966,-0.007112678
-0.05950734,0.5729691,0.8324031,-0.003831771,-0.004177077,0.002959922,-0.001782785,0.008497451,-0.007492082
-0.05697082,0.571039,0.8307848,-0.001287406,-0.006086329,0.001352751,0.001437219,0.01006215,-0.008700124
-0.05246314,0.569294,0.8304889,0.003229284,-0.007810836,0.001067127,0.0004852775,0.0105761,-0.00895675
-0.05289344,0.5697985,0.833001,0.002809001,-0.007285955,0.003588613,0.0009180498,0.01088699,-0.007885792
-0.05685355,0.5747465,0.8354394,-0.001140284,-0.002317468,0.006035327,0.004733454,0.002986642,-0.00729109
-0.059014,0.577889,0.835613,-0.003289211,0.0008459506,0.006215993,0.007609902,-0.01153515,-0.007270046
-0.05755448,0.5729184,0.8281538,-0.001817472,-0.004103305,-0.001237373,0.006800085,-0.01224853,-0.008694565
-0.05409719,0.5700493,0.8198693,0.001652734,-0.006950717,-0.009517533,0.005805527,0.006620148,-0.01252905
-0.05527426,0.5719102,0.8201508,0.000489211,-0.00506748,-0.009232688,0.004532733,0.02197127,-0.01448334
-0.06156067,0.5752452,0.8244988,-0.005783087,-0.001709534,-0.004881981,-0.0008154662,0.01322878,-0.01166548
-0.06704346,0.5792261,0.8257581,-0.01125111,0.002295162,-0.003620138,-0.004547268,-0.000500249,-0.002605579
-0.06458147,0.5780507,0.8247596,-0.00877342,0.001144285,-0.004616005,-0.005279374,-0.001720518,0.006266044
-0.05662647,0.5756711,0.8253386,-0.000801459,-0.001210436,-0.004034179,-0.005558065,-0.003879082,0.004324086
-0.05270362,0.5758384,0.8271992,0.003139712,-0.001017751,-0.002170286,-0.004538161,-0.0001456794,-0.002796014
-0.05065063,0.5748299,0.8300533,0.005212213,-0.002000555,0.0006877181,-0.004229255,0.009348216,-0.006648777
-0.05179955,0.5755851,0.8310501,0.004083674,-0.001219307,0.001689014,-0.002919911,0.005913904,-0.008343968
-0.05577734,0.5771807,0.8284347,0.0001268082,0.0004027156,-0.000921507,-0.001876,0.003044761,-0.007154399
-0.05636831,0.5759915,0.8273258,-0.0004428946,-0.0007600052,-0.002025153,-0.003866308,0.003581335,-0.004108184
-0.05812191,0.5749249,0.8286849,-0.002174987,-0.001799861,-0.0006602645,-0.003883567,0.001367898,-0.005106007
-0.05482829,0.5731098,0.829666,0.001140358,-0.003588008,0.0003269875,-0.002184481,0.005456121,-0.01020426
-0.04895541,0.5704237,0.828987,0.007035083,-0.006246973,-0.000345481,-0.001832339,0.00686675,-0.01161536
-0.05406368,0.5707978,0.8284959,0.001948549,-0.005845401,-0.0008295802,0.0003784933,0.006418464,-0.006196707
-0.05914144,0.5732823,0.8296121,-0.003107799,-0.0033328,0.0002938173,0.005545207,0.008349569,-0.0006436385
-0.06176117,0.5788899,0.8276972,-0.00570646,0.002303426,-0.001613462,0.008557684,0.004837466,0.002281007
-0.06554909,0.5858369,0.8223018,-0.009473466,0.009279594,-0.007000877,0.007122925,-0.0002339314,0.002776724
-0.06383087,0.5858219,0.8206194,-0.007734164,0.009293906,-0.008674899,0.005093957,-0.004070529,0.0006581615
-0.0624209,0.5822568,0.823638,-0.006302623,0.005757716,-0.005646978,0.00143223,0.001881043,0.001485461
-0.06102705,0.578907,0.8251749,-0.004886422,0.002436075,-0.004099678,-0.00415506,0.01224879,0.0009721022
-0.05695501,0.5733906,0.8263344,-0.0007911096,-0.003053102,-0.002928626,-0.003592395,0.007945106,-0.001363487
-0.0578041,0.5740159,0.8279964,-0.001615964,-0.00240173,-0.001253791,-0.001349095,0.001291825,0.0006964436
-0.05943492,0.5790582,0.8284117,-0.003221641,0.002665753,-0.0008243361,-0.004634334,-0.0001201932,-0.001450581
-0.05769697,0.5792745,0.8320591,-0.001457646,0.002906236,0.002838415,-0.004256528,0.0004008866,-0.002442562
-0.05807016,0.5804766,0.8323816,-0.001803922,0.004131479,0.003177263,-0.002648133,0.008431352,0.0002477126
-0.05796181,0.5797142,0.8286927,-0.00166784,0.003391018,-0.0004944706,-0.004968621,0.01241529,-0.00243595
-0.05614348,0.5753073,0.8300215,0.0001789947,-0.0009953547,0.000852094,-0.002794962,0.007903077,-0.0003603141
-0.05743237,0.5746341,0.8284554,-0.001080723,-0.001649306,-0.0006957646,0.00166158,0.003543674,0.004224762
-0.05905411,0.571729,0.8265026,-0.00267268,-0.004536503,-0.002629929,0.006014477,-0.003305386,0.005674399
-0.05982414,0.5711923,0.8286854,-0.003412369,-0.005056327,-0.0004281209,0.008569903,-0.008523777,0.006580586
-0.06008051,0.5757879,0.8274815,-0.003637809,-0.0004447195,-0.001612569,0.006724863,-0.0009887045,0.00434156
-0.05831091,0.5757269,0.8275692,-0.001836655,-0.0004904214,-0.001505101,0.007868399,0.009657951,0.005214091
-0.05816477,0.5765421,0.8284294,-0.001658333,0.0003394847,-0.0006247361,0.007610087,0.005827496,0.004626498
-0.0585238,0.5768273,0.828536,-0.001984566,0.0006388307,-0.0004975979,0.003819336,0.001415744,0.001345899
-0.05808689,0.5747507,0.8312025,-0.001514307,-0.001424327,0.002189622,0.00300708,0.002929259,0.001549227
-0.0580457,0.5763014,0.8307134,-0.001439237,0.000139171,0.001721487,0.003148214,-0.004176919,-0.001024959
-0.0549762,0.5767653,0.8279724,0.001664576,0.0006153662,-0.0009985976,0.004761796,-0.00370628,-0.0004272845
-0.05063976,0.578492,0.8262065,0.006035623,0.002353807,-0.002743535,0.004033702,0.004785665,0.0007419275
-0.04975237,0.581794,0.8245815,0.006957603,0.005666811,-0.004347659,0.000387745,0.008670437,-0.004895865
-0.05399615,0.5822131,0.8242673,0.002748026,0.006096088,-0.004640908,-0.001853639,0.0148217,-0.007766104
-0.05894148,0.5821811,0.8239256,-0.00216377,0.006073183,-0.004961298,-0.004101333,0.007236624,-0.007519208
-0.05844621,0.5808537,0.8238485,-0.001635717,0.004753563,-0.005016737,-0.003385567,-0.003302921,-0.004172723
-0.05609182,0.5783113,0.8277189,0.0007507155,0.002217376,-0.001124112,-0.002239006,0.002958273,-0.000155012
-0.05502088,0.5746529,0.833865,0.001852944,-0.00143642,0.005044901,-0.0008275172,0.002049136,-0.0002173693
-0.05372866,0.5734821,0.8365259,0.003175606,-0.002604128,0.007729054,0.001876657,-0.003287091,0.0004976038
-0.0506916,0.5743582,0.8364392,0.006242105,-0.001726386,0.00766555,0.0004959201,-0.003183944,0.000893596
-0.04723359,0.5716487,0.8350957,0.00972827,-0.004435244,0.006344853,0.0003909416,-0.004205777,0.001470807
-0.04955571,0.5737762,0.8308274,0.007432677,-0.002308137,0.002098596,0.001340034,0.002483609,0.0004516944
-0.0558331,0.5788451,0.8253607,0.001179844,0.002759794,-0.00334701,0.0006240157,0.009274611,-0.00381704
-0.05919836,0.5794611,0.8227115,-0.002162976,0.003374038,-0.005976166,0.001019609,0.004307441,-0.002280195
-0.05737145,0.5809342,0.825727,-0.0003156582,0.004844694,-0.002941371,-0.0004635295,-0.0007189955,0.0002270309
-0.05375125,0.5800096,0.8301146,0.003323002,0.003916763,0.001464983,-0.001872419,0.0003063013,-0.002050838
-0.05449976,0.5783542,0.8326957,0.002591055,0.002257064,0.00406437,-0.002365129,-0.0009916128,-0.003065826
-0.05402484,0.5805214,0.832881,0.003080596,0.004418791,0.004267204,-0.002379626,-0.003649589,-0.004273888
-0.05169548,0.5810275,0.8306269,0.005422569,0.004918237,0.002029839,-0.0007423522,-0.001638138,-0.003820531
-0.05511129,0.5805815,0.8311799,0.002017277,0.004464246,0.002598557,-5.279951e-05,-0.0007682293,-0.00121327
-0.0561172,0.5787241,0.8299961,0.001019753,0.002597476,0.001429422,0.0005962089,-0.001718977,-0.003902931
-0.05315497,0.5749542,0.8277887,0.003988233,-0.001183296,-0.0007645208,0.0005964872,0.0002822687,-0.007249195
-0.05257143,0.5740779,0.8298658,0.004575899,-0.002071831,0.001324999,-0.0008152384,0.00406373,-0.009041164
-0.0524217,0.5737408,0.8281818,0.004727567,-0.002422378,-0.0003477385,-0.001535421,0.006838691,-0.009889156
-0.05315039,0.5721437,0.8269802,0.003998549,-0.004033805,-0.001539155,-0.001145065,0.00370406,-0.005609834
-0.0533226,0.5728673,0.8284388,0.003823687,-0.003325174,-7.130361e-05,-4.567824e-05,-0.000178681,-0.004112028
-0.0550616,0.5759371,0.8273463,0.002079689,-0.0002708417,-0.001155492,1.682506e-05,0.001534539,-0.00445501
-0.05829022,0.5786588,0.8283111,-0.00115622,0.002435252,-0.0001831011,0.001131183,0.001951561,-0.003972226
-0.05689585,0.5782,0.8296467,0.0002287163,0.00196051,0.001159179,0.003705448,0.00162862,-0.006708764
-0.05637011,0.5761978,0.8308118,0.0007430553,-5.785605e-05,0.002330314,0.002492657,0.00288559,-0.003726524
-0.05768254,0.5778324,0.8315083,-0.0005825802,0.001560321,0.003032066,0.0003659589,0.0002380349,0.001443751
-0.05755733,0.5809909,0.8315927,-0.0004722146,0.004702133,0.003120776,0.001462721,-0.003001516,0.003762773
-0.05844489,0.5819054,0.8340766,-0.001376063,0.005599606,0.00560807,0.0009863003,-0.00317437,0.005083274
-0.05749033,0.5797438,0.8327709,-0.0004390593,0.00342042,0.004304568,-0.0004653014,-0.003996428,0.002574997
-0.05542386,0.5763275,0.8301069,0.001608764,-1.40741e-05,0.001641412,-0.001328263,-0.005829169,0.001682919
-0.05538844,0.5772641,0.8284134,0.001624555,0.0009037209,-5.253371e-05,-0.004484323,-0.005571223,-0.002196016
-0.05545905,0.5769866,0.8226018,0.001533379,0.0006067103,-0.005865925,-0.003961294,-0.001224147,-0.006891023
-0.05467378,0.573903,0.8214008,0.002297204,-0.002496815,-0.007069691,-0.001320469,0.002402265,-0.003829234
-0.05385354,0.5769077,0.8273597,0.003095108,0.0004876218,-0.001114271,-0.002308869,0.002664779,-0.002791109
-0.05408481,0.5789906,0.8324231,0.00284063,0.002549845,0.003945164,-0.0006867933,0.004770809,-0.002591753
-0.05473456,0.5777554,0.8344599,0.002166776,0.001293799,0.005977558,0.001531535,0.006671518,-0.001198692
-0.05618289,0.5805098,0.8329587,0.0006934505,0.004027045,0.004471366,0.002033595,0.006767159,-0.0008075753
-0.05926884,0.5827197,0.8309528,-0.002418311,0.006215386,0.002459645,0.002821181,0.005290125,0.001572367
-0.06056798,0.5808768,0.8305336,-0.003743893,0.004350461,0.002033677,0.002948306,0.0006550899,0.0009606218
-0.05943569,0.5781471,0.8300322,-0.002638446,0.001598053,0.001524535,0.005922295,-0.0002986623,-5.021478e-05
-0.05918576,0.5778953,0.8298597,-0.002415486,0.001322823,0.00134326,0.007791431,-0.001572765,0.001045784
-0.05789219,0.5781967,0.8285013,-0.001148808,0.001600117,-2.481979e-05,0.007398151,-0.006452007,0.0007384766
-0.05405012,0.5780006,0.8251457,0.002666585,0.001379166,-0.003390887,0.006830765,-0.003885438,0.00190289
-0.05164068,0.5811636,0.8211094,0.005049579,0.004516819,-0.007438382,-0.0001568804,0.0006415753,0.003048813
-0.05134313,0.5826388,0.8206543,0.005320789,0.005965928,-0.007904973,-0.006696555,0.001541773,0.002755769
-0.05229651,0.5788534,0.8262655,0.004341002,0.00215367,-0.002305213,-0.005282682,0.001792961,0.003087478
-0.05419106,0.5766919,0.8266542,0.002419806,-3.553425e-05,-0.001927612,-0.003718127,-0.00121239,0.00223884
-0.0544579,0.577896,0.8235061,0.002126003,0.001140022,-0.005086261,-0.005490343,-0.00334361,-0.001119701
-0.05414264,0.5781567,0.8295602,0.002413937,0.001371552,0.0009578823,-0.005414882,-0.003682565,-0.004240022
-0.05496396,0.5768963,0.8359064,0.001564927,8.129455e-05,0.007294842,-0.002598904,-0.001757699,-0.003905272
-0.05492701,0.5751879,0.8382273,0.001573818,-0.001657411,0.009607035,0.001185253,0.002877488,-0.00247073
-0.05397153,0.5736378,0.8369798,0.002500886,-0.003238159,0.008350769,0.006497442,0.001971502,-0.002449037
-0.05443199,0.5766538,0.8277546,0.002011663,-0.0002530528,-0.0008833964,0.007097442,0.0003937645,-0.003622738
-0.05711102,0.5808618,0.8212001,-0.0006964776,0.003924108,-0.007447317,0.004014575,0.0008907434,-0.006723735
-0.05912508,0.5783494,0.8225737,-0.00273991,0.001380926,-0.006083285,0.00281844,-0.001905361,-0.006220259
-0.05830442,0.5764875,0.8290207,-0.001948716,-0.0005117695,0.0003541906,-0.0007945151,-0.002006475,0.0001935004
-0.05684595,0.5785443,0.8339196,-0.0005196228,0.001514344,0.005243768,-0.002142676,-0.001077286,0.003343979
-0.05579827,0.5777374,0.8298383,0.0004989065,0.0006767702,0.001153361,-0.0009599617,-0.002330817,0.002325423
-0.05437098,0.5771926,0.826179,0.001897332,0.0001014405,-0.002514974,-0.001851959,-0.001693667,0.001731196
-0.05396265,0.5768306,0.8244783,0.00227709,-0.0002908902,-0.004224619,-0.002134454,-0.001493479,0.0009732183
-0.05520887,0.5731384,0.8218144,0.001002561,-0.004013208,-0.006897177,-0.004787495,-0.0015432,0.0004003245
-0.05588794,0.5716854,0.82592,0.0002954105,-0.005495809,-0.002799595,-0.006424424,-0.0005709991,-0.0002721538
-0.0551631,0.5742485,0.832666,0.0009924327,-0.002961617,0.003939014,-0.004235518,0.001167012,9.743197e-05
-0.05368191,0.5768894,0.8346445,0.002446062,-0.0003487561,0.005910875,-0.0003315256,0.004983147,0.0004674739
-0.05228685,0.5776212,0.8342334,0.00381378,0.0003560858,0.005493511,0.002095989,0.006988038,-0.002393744
-0.05329002,0.578188,0.8332845,0.00278342,0.0008970067,0.004538502,-2.947883e-05,0.005079573,-0.004400878
-0.05708524,0.5807632,0.830892,-0.001038933,0.003447348,0.002139815,0.002193779,0.0008663447,-0.002580975
-0.06102236,0.582237,0.8302724,-0.005003079,0.004897086,0.001513737,0.003676477,-0.002983133,0.000674406
-0.06202697,0.5803887,0.8316005,-0.006034397,0.00302548,0.002835108,0.002955359,-0.0005863406,0.002065255
-0.06067305,0.5777244,0.8305082,-0.004706568,0.0003382836,0.001735562,0.007535684,0.002844508,0.001786856
-0.06094802,0.5766718,0.8278719,-0.005006716,-0.0007366345,-0.0009083052,0.004096246,-0.001120839,0.002979034
-0.06135528,0.5762848,0.8249656,-0.005437972,-0.0011455,-0.003822628,-0.0002952885,-0.003514123,0.003679954
-0.05917305,0.5760591,0.8248285,-0.003278335,-0.001392485,-0.003967923,0.0009248458,-0.001504873,0.002280426
-0.05594956,0.5771377,0.826354,-7.585537e-05,-0.000334578,-0.002450756,-0.001002202,-0.003057313,0.001934415
-0.05312681,0.5777115,0.8261655,0.002727474,0.0002191575,-0.002647284,0.001839725,-0.003930732,0.002082476
-0.05369186,0.5780366,0.8269989,0.0021445,0.0005248861,-0.00182172,0.002778534,-0.001545907,-0.001547823
-0.05474855,0.5779142,0.8270963,0.001071222,0.0003838749,-0.001731676,-0.000103091,0.0005800633,-0.004909974
-0.0523873,0.5776492,0.8277882,0.003417056,0.0001008459,-0.001046699,-0.0006997453,0.002907234,-0.00311621
-0.0534122,0.5800142,0.8279176,0.002377759,0.002448491,-0.0009235396,-0.004633612,0.004960411,-0.002121543
-0.05702607,0.5806457,0.8243314,-0.001249629,0.003063245,-0.004515466,-0.004283212,0.00553244,-0.003218599
-0.05755366,0.578682,0.8235269,-0.001789921,0.001083175,-0.005324977,-0.002897491,0.002591996,-0.004279998
-0.05831517,0.5769707,0.8252266,-0.002563296,-0.0006440839,-0.003629356,-0.004127223,-0.0002984807,-0.006125626
-0.05919647,0.5758904,0.8270411,-0.003455514,-0.001740037,-0.001817788,0.0001489512,0.001621666,-0.004434179
-0.05976014,0.5772787,0.8268876,-0.004029052,-0.0003669252,-0.00197313,0.001142421,0.002829419,0.001665998
-0.06148179,0.5795948,0.8254464,-0.005759366,0.001934469,-0.003414956,-1.425136e-05,0.001029726,0.005975192
-0.06029212,0.5811388,0.8270221,-0.004576982,0.003464215,-0.001838694,0.003410826,-0.002060198,0.00472631
-0.05685392,0.5789271,0.8267432,-0.001144534,0.001238633,-0.002115736,0.005725,-0.005950915,0.00324169
-0.05478581,0.576383,0.8280171,0.0009193987,-0.001319144,-0.0008387141,0.007396239,-0.006144982,0.005142144
-0.05096504,0.5783635,0.8321891,0.004737466,0.0006478568,0.003337707,0.007161627,-0.003188905,0.004756691
-0.04690586,0.5779233,0.8320054,0.008795172,0.000194503,0.003159422,0.003033711,-0.0001729488,0.002504123
-0.04745568,0.5772565,0.8310036,0.00824468,-0.0004851628,0.00216393,-0.003367536,0.004963064,-0.002190003
-0.04836871,0.5783449,0.8302823,0.007331335,0.0005906667,0.001449528,-0.009801925,0.008260276,-0.01078762
-0.04940973,0.5775623,0.8308438,0.00628993,-0.0002041773,0.002018353,-0.008488088,0.006108544,-0.01249457
-0.05402048,0.5784405,0.833733,0.001678398,0.0006620817,0.004915261,-0.004913953,0.00474148,-0.007336557
-0.05719487,0.5777789,0.8356648,-0.001497333,-1.124745e-05,0.006854805,-0.005838407,0.003283745,-0.004737735
-0.05831091,0.5753088,0.8378604,-0.002615257,-0.002492623,0.00905787,-0.001415865,-0.00186724,-0.004330583
-0.05808919,0.5741392,0.837799,-0.002395829,-0.003673182,0.009003334,0.004353245,-0.00467443,-0.005156992
-0.05511829,0.5719222,0.8320619,0.0005725127,-0.005900656,0.003271993,0.006963044,-0.004336274,-0.006934809
-0.05529943,0.5719581,0.8264843,0.0003886124,-0.005874323,-0.002301155,0.01016423,-0.003366018,-0.008318194
-0.05803733,0.5751238,0.8320368,-0.002352206,-0.002717175,0.003254551,0.009163728,-0.0001145394,-0.008302296
-0.06113481,0.5762158,0.8404132,-0.005452674,-0.00163263,0.01163288,0.008856823,0.001451599,-0.00609673
-0.06446959,0.5761509,0.837743,-0.0087903,-0.001703634,0.008963021,0.006780294,-0.003076286,-0.001100209
-0.0590517,0.5783491,0.8368307,-0.003374803,0.0004896026,0.008049223,0.0009485132,-0.007617214,0.004484662
-0.05203209,0.5784157,0.8371273,0.003643094,0.000552595,0.008341962,0.002327051,-0.005975906,0.002270706
-0.0531957,0.5768485,0.8323555,0.002478435,-0.001017198,0.003563983,0.001801775,-0.004005548,-0.001359359
-0.05186452,0.5782856,0.8329417,0.003809074,0.0004183961,0.004141366,-0.0003440533,-0.003159375,0.004118912
-0.05119507,0.5784176,0.8294411,0.004478267,0.0005499303,0.0006293207,0.002199087,0.002332691,0.00567572
-0.05592148,0.5799456,0.8221018,-0.0002482981,0.002078313,-0.006723791,0.001276379,0.005694726,-0.0004359831
-0.05608027,0.5833343,0.8223474,-0.0004072556,0.005468072,-0.006494069,0.0007866036,0.004471611,-0.003449779
-0.05532512,0.5817375,0.8257273,0.0003476893,0.003872912,-0.003131612,-0.001862396,0.004117223,-0.003292208
-0.05778404,0.5804429,0.8329271,-0.002111436,0.002580168,0.00404949,-0.00604804,0.002439864,-0.003477093
-0.05865963,0.5804925,0.8362176,-0.002987194,0.002631711,0.007320088,-0.002539934,0.003210478,-0.005637752
-0.05852851,0.5771636,0.8313202,-0.002856085,-0.0006953163,0.002401612,0.0002323961,0.005326908,-0.004947531
-0.05811544,0.5711531,0.8286303,-0.002442737,-0.006704061,-0.0003105534,0.0009906173,0.00262409,-0.002497636
-0.05863086,0.5667085,0.8284546,-0.002957462,-0.01114676,-0.0005097919,0.006340455,0.001251138,-0.001921052
-0.06041264,0.5716304,0.8276659,-0.004738026,-0.006222407,-0.001323012,0.01075269,0.0003873591,0.001844379
-0.06098909,0.5788401,0.8244838,-0.005312569,0.0009904943,-0.004530462,0.007869834,-0.00379735,0.002101835
-0.05967826,0.5784606,0.8224144,-0.003998964,0.000615045,-0.006625843,0.00485406,-0.00820009,0.002901433
-0.05710426,0.579007,0.8232252,-0.001421162,0.001166394,-0.005841161,0.008404622,-0.009378158,0.01033803
-0.05628982,0.5808512,0.8263839,-0.0006018457,0.00301636,-0.002708255,0.009325711,-0.004121209,0.009190349
-0.05577952,0.5769275,0.8355218,-8.561682e-05,-0.0009011451,0.006404127,0.006564715,-0.0001996552,0.005142609
-0.05455636,0.5735415,0.8392667,0.00114444,-0.004280451,0.01012398,0.003683836,-0.001426356,0.005172794
-0.05520895,0.5750884,0.8332947,0.0004996202,-0.002726247,0.004126958,-0.002661638,-0.0004887445,0.003417767
-0.05380801,0.576763,0.8307781,0.001909075,-0.001043806,0.001585114,-0.005973272,0.001618133,0.00285483
-0.05296013,0.5771207,0.8338061,0.002766054,-0.0006775703,0.004587625,-0.004931214,0.002958211,-0.0003400572
-0.05549071,0.578085,0.8352264,0.000244996,0.0002958531,0.00598204,-0.005350856,0.003439524,-0.002805455
-0.05748989,0.5777028,0.8306613,-0.001744346,-7.652618e-05,0.00139043,-0.004332568,0.001450092,-0.001562724
-0.06048131,0.5756941,0.8269298,-0.004725631,-0.00207504,-0.002368021,-0.001365569,-0.0003402914,-0.002724074
-0.06193302,0.5756294,0.8291558,-0.006166787,-0.002128962,-0.000169509,-0.0001983125,-0.000466729,-0.001933046
-0.06217125,0.5765011,0.8323894,-0.006393853,-0.001245928,0.003036228,-7.387498e-05,-0.0006434411,-0.001158407
-0.06204245,0.5766156,0.8336159,-0.006253014,-0.001119577,0.004234656,0.0005101358,9.351494e-06,-0.002198689
-0.05875553,0.5764952,0.8307161,-0.002952999,-0.00122753,0.001306316,-0.0004044836,0.001544673,-0.0007329878
-0.05953328,0.577093,0.827887,-0.003716458,-0.0006168334,-0.00155168,-0.0008250961,-8.043475e-05,0.002019827
-0.06212258,0.5783245,0.8292306,-0.006290182,0.0006281678,-0.0002372099,0.001033974,-0.002393552,0.00566201
-0.06079203,0.577741,0.8296637,-0.004942662,5.850095e-05,0.0001666352,0.001793459,-0.001225581,0.005641741
-0.06005788,0.577668,0.8282379,-0.004190043,-3.070517e-07,-0.001288612,0.002218761,-0.0002245113,0.003498389
-0.05919767,0.5790224,0.8265357,-0.003309766,0.00136863,-0.003020004,0.001087118,0.00074609,0.003433357
-0.05763367,0.5790253,0.8243798,-0.001724091,0.001386184,-0.005204928,-0.001587442,0.003143631,0.0007891005
-0.0557435,0.5784333,0.8244492,0.0001893008,0.0008088455,-0.005164038,-0.001912912,0.005515624,0.0004967915
-0.05503223,0.5775824,0.8259038,0.0009252266,-2.734771e-05,-0.003737178,-0.00298944,0.007665257,0.002140351
-0.05724807,0.5784743,0.8263662,-0.00126472,0.0008791744,-0.003301318,-0.003835916,0.007175902,-0.0006982596
-0.05914727,0.5793444,0.8299408,-0.003136905,0.001763721,0.0002478398,-0.00260758,0.003464127,-0.00140871
-0.06103571,0.575897,0.8333033,-0.004997261,-0.001669457,0.003586189,-0.0020029,-0.0004443037,-0.0006155506
-0.06115376,0.5722684,0.8299884,-0.005086111,-0.005284078,0.0002483491,-0.0006952771,-0.001948276,0.0009464128
-0.05782533,0.5721449,0.8279616,-0.001727301,-0.005393757,-0.001800348,0.0003750969,-0.00459648,0.005188014
-0.05535338,0.5750961,0.829634,0.0007761934,-0.002428528,-0.0001486714,0.002404003,-0.00903587,0.004233953
-0.05489562,0.5772491,0.8292621,0.001266546,-0.0002613103,-0.0005402263,0.006011612,-0.005645573,0.002005415
-0.05497448,0.5754797,0.8292726,0.001221115,-0.002016156,-0.0005483292,0.006156369,0.0003337856,0.002036514
-0.05415468,0.5743081,0.8311122,0.002074965,-0.003172905,0.001273727,0.005079972,0.002004144,-0.0006945614
-0.05498625,0.5753921,0.8324686,0.001277856,-0.002073661,0.002613752,0.005103446,0.004549332,-0.001724267
-0.05813577,0.5760468,0.8326445,-0.001836992,-0.001403374,0.002774023,0.004311911,0.0009857728,-0.0007164352
-0.05875263,0.5766141,0.8342468,-0.002419058,-0.0008200169,0.004361574,0.002733937,-0.003976699,0.0006427632
-0.05821549,0.5776711,0.8369674,-0.001847026,0.0002535091,0.007067867,0.0002725464,-0.0003712851,0.001245345
-0.05835102,0.5786111,0.83557,-0.00194755,0.001210396,0.005656421,-0.0005511876,0.0002718414,-0.002156281
-0.05825208,0.5786177,0.8336467,-0.001813499,0.001234048,0.003719146,-0.000460386,-0.002161636,-0.002637339
-0.0581131,0.5775671,0.8342133,-0.001639314,0.0002007207,0.004271484,-0.001084119,-0.002161314,0.0005976514
-0.05644714,0.5775871,0.8304944,6.191344e-05,0.0002379285,0.0005379316,-0.00112027,-0.002918793,0.001955535
-0.055002,0.5790749,0.8259491,0.001542332,0.00174304,-0.004022422,-0.004367375,-0.002526856,0.002483898
-0.05492234,0.5793315,0.8275896,0.001657145,0.00201671,-0.002397242,-0.00714521,-0.001742473,0.00331551
-0.05312783,0.5789008,0.8283839,0.003486502,0.001602943,-0.001618337,-0.004104056,-0.001360284,0.005696545
-0.05049973,0.5778451,0.8253217,0.006148935,0.0005636757,-0.004695885,-0.0008558232,-0.0001738145,0.004559045
-0.05147107,0.5746915,0.8255741,0.005211117,-0.00257387,-0.004458502,0.002253355,0.001131868,0.001456612
-0.05577227,0.5727758,0.8305171,0.0009423471,-0.004473877,0.0004700442,0.006013038,0.001959718,0.003353259
-0.06043924,0.5736908,0.8337054,-0.003693419,-0.003543364,0.003644442,0.006101529,0.0004699943,0.002277375
-0.06400561,0.5749102,0.8277503,-0.007229751,-0.002308636,-0.002323995,0.003924078,-0.001397231,-0.0001254606
-0.06292073,0.5754407,0.8216525,-0.006115758,-0.001762667,-0.008434549,0.004005803,-0.002628705,0.0006313908
-0.06110685,0.5774722,0.8297483,-0.00427338,0.0002842772,-0.0003507622,0.004594762,-0.002723319,-0.001433781
-0.06244923,0.5819764,0.8369926,-0.005587622,0.004804087,0.006882316,0.003345545,-0.0008708154,-0.00175547
-0.06081497,0.5838099,0.8323991,-0.003925406,0.006652985,0.002278486,0.001953976,-0.003115432,0.001304303
-0.059864,0.5798344,0.8296081,-0.002946462,0.002692599,-0.0005223723,-0.0002569558,-0.005115422,0.004820596
-0.05940346,0.5761051,0.8240247,-0.002457844,-0.001022246,-0.006115111,-0.000464825,-0.002403095,0.007910414
-0.05551695,0.5777041,0.8154459,0.001456884,0.0005904493,-0.01470251,0.0004534372,-0.002173043,0.006876843
-0.05593126,0.5787037,0.8216024,0.00107089,0.001603166,-0.008553509,-0.002248831,2.832649e-05,0.004458719
-0.05443418,0.5770025,0.8288184,0.00259624,-8.573739e-05,-0.001343495,-0.003686671,0.00401083,0.002109573
-0.0497513,0.5779554,0.8244945,0.007307148,0.0008787314,-0.005671445,-0.004710067,0.004227013,-0.0006194968
-0.05326135,0.5781248,0.8273439,0.003824586,0.001059026,-0.002824299,-0.004864996,0.004607929,-0.0006950913
-0.05680898,0.5768751,0.8351304,0.0003036545,-0.000180563,0.004961848,8.296471e-06,0.003476249,0.001465798
-0.05624689,0.5764143,0.8347943,0.0008914916,-0.0006320312,0.004627163,0.002169478,0.002709987,0.004694619
-0.05843355,0.574326,0.8322638,-0.001270406,-0.002711649,0.002099407,0.0002195957,0.002846828,0.004530984
-0.06071541,0.5749824,0.8284475,-0.00352846,-0.002047126,-0.001712962,-0.0001556096,-0.0006459438,0.0008187328
-0.06134031,0.577524,0.8245213,-0.00413039,0.0005020192,-0.005634085,0.004047986,-0.003513325,0.0003753436
-0.06133343,0.5779809,0.8240276,-0.004101204,0.0009661547,-0.006121711,0.008876414,-0.004119421,-3.495435e-05
-0.06084024,0.5788077,0.8238005,-0.003586166,0.001799704,-0.006341327,0.006956291,-0.004237479,-3.736111e-05
-0.06081098,0.5785366,0.8266008,-0.003535355,0.001534891,-0.003532084,0.005740217,-0.00463158,0.00347099
-0.05947603,0.5781848,0.8308911,-0.002179017,0.001188799,0.0007687782,0.006981902,-0.003837319,0.003409877
-0.05757706,0.5785897,0.8324613,-0.0002587065,0.00159881,0.002351035,0.002796371,-0.001638827,0.003009645
-0.05824548,0.5775827,0.8342167,-0.0009058379,0.00059627,0.004119884,-0.000510131,-4.363148e-05,0.003598043
-0.0584099,0.5775459,0.8341897,-0.001049019,0.0005632455,0.004107297,0.0004029307,0.00262156,0.0004769831
-0.05585738,0.5780216,0.831437,0.001524654,0.001042118,0.001369804,0.000380725,0.002851697,-2.069301e-05
-0.05329632,0.5776907,0.8310684,0.004106715,0.0007137347,0.001016808,-0.000618903,0.002465749,0.0002816482
-0.05303851,0.5782818,0.8327636,0.00438518,0.001306712,0.002728039,-0.001181231,0.003967135,-0.002854034
-0.05761251,0.5805088,0.8318851,-0.0001687054,0.00353485,0.001865658,-0.001088562,-3.965649e-06,-0.004861966
-0.06322294,0.5822177,0.8312013,-0.00575965,0.005244095,0.00119806,4.789683e-05,-0.003337969,-0.00286384
-0.0625418,0.5795533,0.8315529,-0.005059531,0.002579129,0.001565659,0.0007203997,-0.0004472414,0.0008419183
-0.05819715,0.5765521,0.8283179,-0.0006962355,-0.0004236589,-0.001653415,-9.638585e-05,0.001435526,8.533013e-05
-0.05607363,0.5786478,0.8251001,0.001445732,0.001669508,-0.004855652,0.001273856,0.0001121044,-0.002229044
-0.05652692,0.5801576,0.823433,0.001010662,0.003175648,-0.006507193,0.003453158,-0.002539235,-0.002989694
-0.05657258,0.5784955,0.8250856,0.0009829093,0.001508924,-0.004838924,0.00336865,-0.003471672,-0.003633284
-0.05507826,0.5783703,0.8306476,0.00249473,0.001378126,0.0007390446,0.003524132,0.0004257626,-0.001826994
-0.05562225,0.5785984,0.83157,0.001967736,0.001599435,0.001677805,0.00127978,0.004787216,-0.001238056
-0.05824631,0.578249,0.8320378,-0.0006399431,0.001242303,0.002162313,-0.002269303,0.0006768845,-0.001017885
-0.06032294,0.5787102,0.8351233,-0.002700812,0.001694753,0.005264564,-0.002345498,-0.004226263,0.003040578
-0.06149212,0.5781783,0.8349228,-0.003854783,0.001153214,0.005080608,-0.002196842,-0.001486728,0.006394142
-0.05869336,0.5776854,0.834401,-0.001041236,0.0006496181,0.00457508,-0.003475841,-0.003137448,0.005730883
-0.0536655,0.5777396,0.83314,0.00400107,0.0006922622,0.003329493,-0.004911632,-0.00585588,0.002845388
-0.05232747,0.5776817,0.8301649,0.005353128,0.0006219062,0.0003690777,-0.00619774,0.0001382648,0.001614357
-0.05439566,0.5779954,0.8304628,0.003298341,0.0009224451,0.0006806862,-0.007399774,0.003742244,-0.00151782
-0.05653936,0.5774246,0.8348968,0.001167236,0.0003376556,0.005127422,-0.007215322,0.0004585783,-0.006024878
-0.05564064,0.5767084,0.8352621,0.002077608,-0.000393044,0.005504335,-0.005885902,-0.002738465,-0.004334107
-0.05523394,0.5753997,0.8281139,0.002494978,-0.001716971,-0.001633578,-0.00573723,-0.002494823,-0.003422394
-0.05813984,0.5741845,0.8248375,-0.000401298,-0.00294771,-0.004900872,-0.004266279,-0.001652262,-0.004332411
-0.05992728,0.5744147,0.8263714,-0.002180144,-0.002733362,-0.003358904,-0.002604565,-0.0004868477,-0.001035586
-0.0617718,0.5735577,0.8255708,-0.004016987,-0.003606251,-0.004152406,-0.001238569,0.00439503,0.0007429459
-0.06281943,0.5741616,0.8240051,-0.005057668,-0.003017959,-0.005711464,0.001676617,0.006245694,0.001096766
-0.06052178,0.5761053,0.8242334,-0.002753539,-0.001089675,-0.005476896,0.0008473115,-0.0002327835,9.918683e-05
-0.05895902,0.5766038,0.827378,-0.001184588,-0.0006060449,-0.002326009,0.0005147926,-0.007881732,-0.003342181
-0.0586882,0.5784905,0.8285703,-0.0009077268,0.001266345,-0.001127332,0.003951684,-0.007564724,-0.002217271
-0.05894495,0.5800562,0.8277031,-0.001158541,0.002818243,-0.001987956,0.003327623,-0.0001834891,-0.0002551534
-0.06078869,0.5801352,0.8297147,-0.002996388,0.002883833,3.060761e-05,-0.0004344899,0.003249791,-0.0002421067
-0.06297025,0.5788941,0.8310815,-0.005171986,0.001629572,0.001404553,-0.003637297,-0.001269352,0.004124302
-0.06021004,0.5751448,0.8303545,-0.002405592,-0.002132692,0.0006848862,-0.003156724,-0.005266562,0.006857031
-0.05287841,0.5743198,0.8290216,0.004932548,-0.002970335,-0.0006405634,-0.001877225,-0.0005453556,0.004044302
-0.05001964,0.5771611,0.8297483,0.00779806,-0.0001413423,9.370052e-05,-0.006869749,0.004481857,0.001351593
-0.05188093,0.580109,0.8321081,0.005943414,0.002794633,0.002461178,-0.009088634,0.002004263,-6.540762e-05
-0.05470155,0.5826348,0.8317369,0.003129026,0.005308892,0.002097568,-0.005623836,0.002440639,0.0003923313
-0.05716438,0.5806222,0.8323844,0.0006717963,0.003284825,0.002752544,-0.005727202,0.004619001,0.0008207185
-0.05739878,0.5776858,0.8341866,0.0004422831,0.000337131,0.004561859,-0.005064865,0.002632614,-0.0001388591
-0.05773756,0.5793249,0.8325233,0.0001076632,0.00196469,0.002905299,0.0008614179,0.002833478,-0.000282238
-0.0586899,0.5783968,0.8300939,-0.0008411985,0.001025057,0.0004819305,0.004993396,0.003390156,-0.001221749
-0.05941662,0.5750549,0.8306542,-0.001565071,-0.002328481,0.001047593,0.003378506,0.0006516489,-0.002519356
-0.0598552,0.5747616,0.8338582,-0.002001326,-0.002633553,0.004256196,0.001074729,-0.002967088,-0.002957859
-0.05972741,0.5753105,0.8346438,-0.001871634,-0.002096293,0.005045637,0.001056171,-0.005455887,-0.002752782
-0.05977626,0.5768689,0.8332305,-0.001918861,-0.00054932,0.00363509,0.0009829871,-0.00637059,-0.0002237897
-0.05959613,0.5783913,0.8350471,-0.00173729,0.0009620074,0.005453406,0.001407275,-0.006264674,0.004079415
-0.05927744,0.5777925,0.8342517,-0.001417234,0.0003524116,0.004658296,0.001810845,-0.005196594,0.007354984
-0.05672176,0.5775633,0.8273169,0.00113981,0.0001126961,-0.002277565,0.0007747131,-0.004412004,0.00457159
-0.05278652,0.5780718,0.8228428,0.005076385,0.0006110415,-0.006754113,-0.0003127915,-0.002364683,-0.001731359
-0.0528367,0.5786959,0.8236918,0.005027372,0.001225175,-0.005908676,-0.00262815,0.002007441,-0.002700289
-0.0566072,0.5791878,0.8263507,0.001257658,0.001707365,-0.003253972,-0.004637272,0.005108488,-0.001757563
-0.05956007,0.5780533,0.8275601,-0.001694909,0.0005632969,-0.002049276,-0.003161871,0.003869795,-0.002765011
-0.05835994,0.5755525,0.8300689,-0.0004949546,-0.001946839,0.0004546798,-0.002176891,-0.0003692333,-0.003526659
-0.05686593,0.5743669,0.8337756,0.0009984648,-0.003141599,0.004156313,-0.002833144,-0.001664429,-0.003685084
-0.05772947,0.5752835,0.8322128,0.0001339399,-0.002233884,0.002588268,-0.002731035,-0.0004098599,-0.002601554
-0.05666426,0.5760753,0.8339262,0.001197797,-0.001450527,0.004296018,-0.002578453,-0.0002441413,-0.004755966
-0.05504422,0.5764721,0.8394986,0.002816087,-0.001061589,0.009862275,-0.0001207309,0.0003893149,-0.007509019
-0.05573384,0.5763987,0.8400347,0.002124256,-0.001142251,0.01039129,0.002859567,0.002182708,-0.007847478
-0.05760593,0.575658,0.8415207,0.0002494372,-0.001889613,0.01186902,0.001074364,0.004204825,-0.01129575
-0.05938469,0.5765665,0.8391427,-0.001532587,-0.0009870896,0.00948102,-0.001542702,0.003009025,-0.006682261
-0.06105524,0.5782968,0.8320315,-0.00320685,0.0007378919,0.002357769,-0.002512469,5.660736e-05,0.001944173
-0.0627375,0.5780712,0.8307595,-0.004893107,0.0005076486,0.001071547,-0.004412067,-0.000627837,-0.002102368
-0.06099272,0.5775331,0.8303925,-0.003152396,-3.438114e-05,0.0006882005,-0.004644423,-0.002338432,-0.003041241
-0.05747598,0.5788098,0.8281822,0.0003603936,0.001238903,-0.001540442,-0.003592412,-0.003798768,0.001845221
-0.05702626,0.5796006,0.8262372,0.0008063683,0.002026826,-0.003505494,-0.0042702,-0.003680096,0.00247738
-0.05625229,0.5790055,0.8248044,0.001576789,0.001429202,-0.004959709,-0.003647168,-0.002310715,0.004548381
-0.05501299,0.5791382,0.8270397,0.002812652,0.001559629,-0.002746977,-0.003536424,0.001314158,0.001319486
-0.05663682,0.5790872,0.8313619,0.001185403,0.001506639,0.001551902,-0.00617524,0.0005539652,-0.004186761
-0.05744271,0.5781723,0.8329282,0.0003760286,0.0005897691,0.003094311,-0.005620614,-0.001815014,-0.002169052
-0.05670537,0.5775799,0.8307583,0.001109784,-4.476202e-06,0.0008998892,-0.002769191,-0.0008472916,-0.002020541
-0.05715417,0.5776325,0.8270868,0.0006572715,4.628455e-05,-0.002796677,-0.001394787,-0.001497526,-0.00366014
-0.05807324,0.5779857,0.8232721,-0.0002656503,0.000397713,-0.006636826,-0.0001597242,-0.0003910245,-0.003437232
-0.05942488,0.5775304,0.8234394,-0.00162127,-5.937452e-05,-0.006495075,-4.3895e-05,0.001212221,-0.003943884
-0.06052483,0.5767898,0.8262983,-0.002725259,-0.0008017582,-0.003661355,-0.0005975343,-4.821446e-05,-0.001750986
-0.06135782,0.5764653,0.8252091,-0.003562213,-0.001127891,-0.004775035,-0.0007042219,0.0007056884,0.0009129782
-0.06296785,0.577036,0.8261411,-0.005175975,-0.0005588067,-0.003866769,-0.0005252531,-0.0002058056,-5.147627e-05
-0.06285666,0.5786585,0.8296431,-0.005068056,0.001062215,-0.0003873566,0.00185415,-0.003179602,-0.000324933
-0.06198328,0.5796263,0.8296779,-0.004197272,0.00202866,-0.0003739696,0.003450804,-0.003953628,0.002695954
-0.06237713,0.5807362,0.8298407,-0.004592853,0.003137289,-0.0002314664,0.0006996895,-0.004409573,0.005577046
-0.06064008,0.5809248,0.8285434,-0.002856485,0.003324434,-0.00154778,-0.001842162,-0.004634834,0.004401817
-0.0576547,0.5789391,0.8270613,0.0001293418,0.00133704,-0.00304773,-0.002364849,-0.003973847,-0.001407872
-0.05665048,0.5781251,0.8277469,0.00113515,0.0005209833,-0.002378737,-0.003634095,-0.0001989194,-0.005637851
-0.05649354,0.5774957,0.82572,0.001294686,-0.0001107696,-0.00442088,-0.004670709,0.004285745,-0.004086168
-0.05644019,0.5763849,0.8264677,0.001351536,-0.0012243,-0.003686902,-0.006647866,0.005447249,-0.003434916
-0.05664248,0.5756382,0.8300443,0.00115349,-0.001973918,-0.000122413,-0.009932019,0.005078799,-0.003660607
-0.05824119,0.5744106,0.8297104,-0.0004403595,-0.003204619,-0.0004668758,-0.00752194,0.0008904586,0.001382581
-0.05939441,0.5753738,0.8265969,-0.001588152,-0.00224461,-0.00358935,-0.0005499243,-0.002620954,0.005992342
-0.05769988,0.5771741,0.8232354,0.0001123426,-0.0004472737,-0.006958157,0.002514375,-0.002197995,0.004108614
-0.05827632,0.5778731,0.8291951,-0.0004576256,0.0002488744,-0.001004066,0.00230276,-0.002070757,-0.0003600086
-0.06032918,0.5784304,0.837659,-0.002503525,0.0008034654,0.007455975,0.002618286,0.001679555,-0.001881309
-0.06110989,0.578265,0.8332254,-0.003276755,0.0006356461,0.003020046,0.004151491,0.003291129,-0.0003146519
-0.06336968,0.5790728,0.8290069,-0.005528467,0.001441107,-0.00119954,0.005888226,-0.0006957591,0.002925214
-0.06188769,0.5778518,0.829769,-0.004037644,0.000217807,-0.0004374676,0.006972708,-0.001269183,0.005828859
-0.05717779,0.5753636,0.8293088,0.0006819755,-0.002272585,-0.0008967426,0.006850641,-0.001016821,0.004478141
-0.05494326,0.5774518,0.831081,0.002927082,-0.0001865406,0.0008775068,0.003810842,-0.001967099,0.001922716
-0.05474331,0.5788642,0.8299223,0.003138313,0.00122379,-0.0002783426,0.000989541,-0.00140231,0.0008745128
-0.05602765,0.5791177,0.8281297,0.001865764,0.001475393,-0.002067246,-0.0003152604,-0.0008730884,0.0003614813
-0.05374501,0.5812345,0.8301159,0.004160475,0.003590362,-7.655056e-05,-0.002105635,-0.0005091909,0.001439873
-0.05189117,0.5800996,0.8310357,0.006026433,0.002453502,0.0008484257,-0.002845633,0.0006527477,0.001014516
-0.05557664,0.5762822,0.8333348,0.00235288,-0.001366141,0.003153527,-0.003189523,0.001327108,0.0008013215
-0.0583199,0.5731509,0.8350569,-0.0003788751,-0.00449974,0.004882017,-0.002761358,0.0001599172,0.002813384
-0.06152028,0.5720085,0.8343872,-0.003568219,-0.005644568,0.004219036,-0.002473036,-0.001746249,0.002753355
-0.06300026,0.5725097,0.8344539,-0.00503753,-0.005145495,0.004292394,-0.001327298,-0.003283739,0.002640229
-0.05915175,0.5719024,0.8312972,-0.001178544,-0.005754567,0.00114217,0.003292122,-0.002097941,0.001191635
-0.05568008,0.5712022,0.8266783,0.002303518,-0.006455736,-0.003470592,0.004254214,-0.00067018,-0.002998682
-0.05494582,0.5717324,0.827455,0.003048051,-0.005925471,-0.002688093,0.001736053,0.0004842089,-0.004233997
-0.05718263,0.5754912,0.8316099,0.0008212944,-0.002165428,0.001472441,0.001155125,0.006480037,-0.003452828
-0.05952175,0.5820973,0.8312354,-0.001508108,0.004443245,0.001103474,0.002371667,0.008518034,-0.003374647
-0.06170626,0.5833022,0.8274699,-0.003683206,0.005651783,-0.002656729,0.004138058,0.00322795,-0.003070893
-0.06349956,0.5809868,0.8276693,-0.005467276,0.003340907,-0.002452099,0.002554856,0.0009811425,-0.0005545017
-0.06180622,0.5819452,0.8280503,-0.003764692,0.004304386,-0.002065954,0.001126355,0.004225502,0.00367386
-0.06050912,0.580675,0.8282132,-0.002458137,0.003039587,-0.001897818,0.0008924007,0.006184989,0.005083455
-0.05958965,0.5762428,0.8327106,-0.001528888,-0.001387184,0.002604916,-0.001582534,-0.002451699,0.004081808
-0.05896479,0.5741245,0.8349552,-0.0008938509,-0.003499969,0.004854977,-0.002679994,-0.009874928,0.003860937
-0.0594412,0.5747002,0.8306907,-0.001359686,-0.002918666,0.000595783,-0.004485512,-0.00214943,0.003433402
-0.05784138,0.5756098,0.8257374,0.0002511138,-0.002003195,-0.004352334,-0.00609791,0.003823368,0.0007438934
-0.05802657,0.5747591,0.8274998,7.726641e-05,-0.002847777,-0.002584894,-0.003190743,0.0001197517,-0.0009142148
-0.05894855,0.574762,0.8307573,-0.0008330597,-0.002838268,0.0006776493,-0.001470376,-0.0005426261,-0.0002467445
-0.05786458,0.575639,0.8309666,0.0002628368,-0.001954067,0.0008919814,-0.002151097,0.001093525,-0.004009349
-0.05846209,0.5755292,0.8343832,-0.0003225025,-0.002056214,0.004313608,-0.0006075198,1.074214e-05,-0.007899674
-0.05867939,0.5769253,0.8334563,-0.0005274554,-0.000651747,0.003391617,0.001526893,0.0008657087,-0.005099017
-0.05892667,0.5775779,0.8282371,-0.000762209,9.861025e-06,-0.001823066,0.001236813,0.001871773,-0.003371673
-0.06043665,0.577695,0.8277651,-0.002259513,0.00013645,-0.002290812,0.001937817,0.002399146,-0.00336511
-0.0611334,0.5793506,0.8277173,-0.002943391,0.001802041,-0.00233458,0.004050342,0.005225705,-0.0008885169
-0.06382522,0.5800304,0.8306963,-0.005622056,0.002492327,0.0006482586,0.001877194,0.003629267,0.002293987
-0.06626166,0.5805127,0.8323557,-0.008044869,0.002985213,0.002311356,-0.001053975,0.0009427335,0.00611033
-0.06420044,0.5786417,0.8269033,-0.005969321,0.001124866,-0.003137488,8.682681e-05,-0.001844612,0.005897578
-0.06202136,0.5753205,0.823768,-0.003774949,-0.002185721,-0.006269218,0.000517554,-0.008872145,0.00427802
-0.06057313,0.5769407,0.8248952,-0.002310327,-0.0005550359,-0.005138454,-0.0006439514,-0.008347875,0.006587697
-0.05550907,0.5811157,0.8276163,0.00277123,0.00363041,-0.002413415,-0.000712898,-0.002136776,0.00353894
-0.051482,0.582471,0.8281333,0.006816757,0.004995933,-0.001891962,-9.570085e-05,0.002166645,-8.390903e-05
-0.05531147,0.5790154,0.827606,0.003006385,0.001550201,-0.002414124,0.001632315,0.003779213,0.002202326
-0.05973047,0.5755182,0.8291101,-0.001393173,-0.001937634,-0.0009043797,0.003048957,0.0008045192,0.0005536137
-0.05826976,0.5761687,0.8294012,8.718366e-05,-0.001278236,-0.0006068878,0.00190211,0.0009487024,-0.0007629841
-0.05774993,0.5758077,0.8311925,0.0006267794,-0.00163087,0.001191462,0.001120091,0.001342138,0.002552208
-0.05929488,0.5744625,0.8323289,-0.0008983416,-0.002967969,0.002335366,0.002494776,0.0003292683,0.004561068
-0.06001525,0.5746705,0.8305288,-0.001598866,-0.002752194,0.0005432581,0.002858202,0.001198453,0.00425749
-0.06264495,0.5739256,0.8286318,-0.004208683,-0.003489266,-0.001345492,0.002279802,-0.002586191,0.003806334
-0.06418214,0.5742332,0.8261868,-0.005725852,-0.00317386,-0.003781958,0.00357392,-0.004043158,0.005818539
-0.06353477,0.5771674,0.8243836,-0.005058147,-0.0002316736,-0.005576154,0.004295611,-0.002166853,0.004946556
-0.06328193,0.5780981,0.8227099,-0.004784493,0.0007071766,-0.007240378,0.002348243,-0.002561535,0.002437022
-0.05887056,0.5771534,0.8279035,-0.0003516735,-0.0002290241,-0.002036421,0.002227167,-0.001854115,0.005974692
-0.05265971,0.5784705,0.8368929,0.005881245,0.001096663,0.006964113,0.003382954,-0.001986909,0.007697621
-0.05193624,0.5797727,0.8353969,0.00662718,0.002407427,0.00547993,0.002336913,-0.0002172605,0.006166219
-0.05450455,0.5805641,0.8332896,0.00408138,0.003207475,0.003384879,0.001887825,0.001683111,0.005941832
-0.056392,0.5810744,0.83587,0.002216147,0.003726221,0.005977455,0.000583975,0.001549953,-0.0004125671
-0.05738681,0.5790827,0.8350635,0.00124306,0.001742566,0.00518297,-0.001696666,0.005752826,-0.005960628
-0.05843966,0.578727,0.8338981,0.0002113222,0.00139445,0.004029095,-0.00198922,0.007722018,-0.00150184
-0.06011937,0.5786486,0.8315949,-0.001447945,0.001322967,0.001736607,-0.002176942,0.0002055624,0.0005375984
-0.0614128,0.5767382,0.8292535,-0.002721567,-0.0005809777,-0.00059495,-0.0004117814,-0.007092624,0.00161132
-0.0595665,0.5765419,0.8309341,-0.0008560163,-0.0007715678,0.001094675,0.002208192,-0.0006731306,0.005043645
-0.05718954,0.576386,0.8305877,0.001539698,-0.000922244,0.0007564026,0.003558461,0.006350484,-0.00136429
-0.05833752,0.5781693,0.8281479,0.0004099437,0.0008657655,-0.001676138,0.005864439,-0.0001516446,-0.00658208
-0.05787655,0.5801486,0.8276575,0.0008885888,0.002849247,-0.002159977,0.008711113,-0.001629385,-0.002539191
-0.05612917,0.5788185,0.8274976,0.002653008,0.001522841,-0.002314037,0.01086499,0.00262963,-0.001438232
-0.05734514,0.5794543,0.8276119,0.001453367,0.00216176,-0.002194437,0.0072987,0.001727825,-0.002329741
-0.05801138,0.5808293,0.8257646,0.0008026698,0.003539202,-0.004036792,0.001733997,0.002364529,-0.00204183
-0.05885674,0.580624,0.8223196,-2.799057e-05,0.003335458,-0.007477007,0.000204448,0.001943807,-0.001907235
-0.06133883,0.5795914,0.821789,-0.002496199,0.002303602,-0.008002698,-0.0026163,0.0007674494,-0.001778977
-0.06283413,0.5786223,0.822304,-0.003978352,0.001334193,-0.007482237,-0.003824242,0.001045517,-0.001435186
-0.06167001,0.5797958,0.8226673,-0.002801658,0.002506464,-0.007112793,-0.003459832,-0.001534809,-0.0009047307
-0.05852635,0.5806088,0.8239967,0.0003541538,0.003317078,-0.005776086,-0.005421331,-0.002976365,-0.001971808
-0.05780129,0.5804886,0.825593,0.001091013,0.003193422,-0.004171074,-0.00502637,-0.002403631,-0.00268581
-0.058612,0.5789586,0.8262985,0.0002917262,0.001658853,-0.003455528,-0.004301363,-0.002990467,-0.002609161
-0.05822854,0.5773764,0.8261162,0.0006861947,7.094116e-05,-0.003626153,-0.005444241,-0.003621504,-0.002264038
-0.05801185,0.5782634,0.8266955,0.0009134435,0.0009509959,-0.00303358,-0.005455573,-0.001257434,-0.001122726
-0.05655879,0.5775775,0.8263951,0.002376581,0.0002571091,-0.003319119,-0.002929319,0.002877695,-0.00134594
-0.05529881,0.5773273,0.8260711,0.003646058,-2.110478e-06,-0.003626528,-0.001293442,0.004521623,-0.001465152
-0.05724073,0.5774415,0.8271473,0.00171295,0.0001021912,-0.002532253,-0.002565425,0.003436935,-0.0005493502
-0.0597133,0.5756122,0.8281072,-0.0007515938,-0.00173785,-0.001552582,-0.002281715,0.001170877,-0.0003198289
-0.06109734,0.5766618,0.8307655,-0.002128373,-0.0006996731,0.001126923,-0.002710483,0.001840575,-0.000928686
-0.06263537,0.5776427,0.8325326,-0.003659817,0.0002692518,0.002916701,-0.003208003,0.002666859,-0.001377872
-0.06177001,0.5773885,0.8337299,-0.002788369,2.631078e-06,0.004137735,-0.001189522,0.000251703,-0.0002062481
-0.05750669,0.5773568,0.8374086,0.001480679,-4.187794e-05,0.007840997,-0.001423707,-7.31352e-05,0.003041765
-0.05625359,0.5764813,0.837796,0.0027392,-0.0009306062,0.008253231,-0.002092248,-0.001744761,0.006137902
-0.05817449,0.5798821,0.8344379,0.0008233471,0.002456826,0.004919899,-0.003233049,-0.004720444,0.003775815
-0.05856563,0.5834951,0.8298321,0.0004368058,0.006056038,0.0003384416,-0.004848319,-0.004160962,0.0005061392
-0.05805919,0.5819157,0.8261873,0.0009473798,0.004462596,-0.003282761,-0.003715214,-0.002056723,0.001736055
-0.05637733,0.5809905,0.8276478,0.002632875,0.003522603,-0.001799289,-0.003327101,0.002210158,-0.001779645
-0.05502881,0.580587,0.8286384,0.003984459,0.003103767,-0.0007862096,-0.004283151,0.003662238,-0.007249133
-0.05569858,0.5782427,0.8271314,0.003317065,0.0007431727,-0.002271273,-0.005928239,0.001684775,-0.005120611
-0.05660058,0.57693,0.8275247,0.002416617,-0.0005864853,-0.001856391,-0.007458922,0.003009519,-0.002882033
-0.0572088,0.5764999,0.8262855,0.001809034,-0.001034248,-0.003074355,-0.006342747,0.003366096,-0.003911733
-0.05693821,0.5758911,0.8244272,0.002079297,-0.00166128,-0.004911702,-0.004106394,0.002160832,-0.003553747
-0.05683168,0.5766213,0.8268066,0.002184499,-0.0009496811,-0.002511444,-0.002033829,0.002938398,-0.002295352
-0.05707007,0.5766101,0.8287359,0.001943747,-0.0009797752,-0.0005612307,0.0001364227,0.002386836,4.196704e-05
-0.05702255,0.5764686,0.8281551,0.001987848,-0.001140261,-0.001121074,0.002031626,0.001390327,0.002544974
-0.05843819,0.5794327,0.8301718,0.0005677359,0.001804753,0.0009166079,0.002968566,0.0004728457,0.001808068
-0.06126311,0.5813021,0.8330534,-0.002262686,0.003655129,0.003819156,0.004157518,-0.003700635,0.0007678379
-0.06304384,0.5803006,0.8321711,-0.004049805,0.002634485,0.002957582,0.004920569,-0.006845388,0.001421682
-0.0607144,0.5785042,0.8303448,-0.001727419,0.0008187949,0.00115168,0.002309204,-0.003623531,0.0004828653
-0.05713794,0.5772299,0.8277509,0.001841481,-0.0004749773,-0.001422308,-0.001237917,0.001103654,-0.0001307494
-0.05559472,0.5783494,0.8227698,0.003376721,0.0006249485,-0.006384044,-0.00288726,0.0008589296,-0.0008072223
-0.05380202,0.5809692,0.8224591,0.005160934,0.003225041,-0.006675696,-0.00385167,-0.0004383258,-0.003789061
-0.05448631,0.5840597,0.8261707,0.004467504,0.006295693,-0.002945039,-0.005313899,0.0003959764,-0.005231973
-0.0567716,0.5840594,0.8293645,0.002172282,0.006275254,0.0002677735,-0.004122431,-0.0008076482,-0.006428722
-0.05622525,0.5816411,0.8334586,0.002707799,0.00383623,0.004381158,0.000501215,-0.001930002,-0.007165571
-0.05700662,0.582276,0.8276952,0.00191466,0.004449761,-0.00136305,0.001939678,-0.001899142,-0.004284351
-0.05812672,0.5812264,0.8179316,0.0007818572,0.003377977,-0.0111075,-0.0008389624,-0.002528459,-0.0008721489
-0.05662646,0.5777085,0.8228604,0.002268486,-0.0001630053,-0.006159453,-0.002809024,-0.002288018,0.001639172
-0.05703537,0.5773121,0.8272298,0.001845045,-0.0005833659,-0.001770256,0.0009891695,-0.004593192,0.0006390991
-0.05870591,0.5768658,0.826193,0.0001590882,-0.001054215,-0.002786751,0.006145328,-0.006916719,-0.002449297
-0.05848876,0.5751056,0.8302866,0.0003599881,-0.002839555,0.001327869,0.003594931,-0.003524368,-0.006195232
-0.05717039,0.5747439,0.8307711,0.001661347,-0.003226733,0.001833866,0.001398171,0.002760792,-0.01263443
-0.05712093,0.5750139,0.8321087,0.001693091,-0.002982325,0.003193314,0.001831217,0.007134608,-0.01129917
-0.06016944,0.575106,0.8345365,-0.001373807,-0.002915569,0.005643229,-0.002064804,0.004640316,-0.006037996
-0.06369143,0.5754785,0.8305698,-0.004914736,-0.002568138,0.001698445,-0.004163138,0.000372344,-0.003721482
-0.0644817,0.5779869,0.8285753,-0.005724266,-8.430842e-05,-0.000274456,-0.00381373,2.357112e-06,0.001717582
-0.06256985,0.5818831,0.8247894,-0.003831671,0.003788025,-0.004039187,-0.00370305,-0.001482679,-0.000149437
-0.0608806,0.5820044,0.8226531,-0.002161394,0.003885857,-0.006154558,-0.003910279,-0.001735936,-0.00185889
-0.05991502,0.5774445,0.8271877,-0.001214309,-0.0006969505,-0.001599194,-0.006406866,-0.0005130133,0.002371243
-0.05749236,0.5725684,0.8256062,0.001190428,-0.005595689,-0.003159876,-0.006993707,-0.00290388,-0.001220665
-0.05656008,0.5720961,0.8255144,0.002105372,-0.006089913,-0.003230792,-0.003254869,-0.004049214,-0.001328057
-0.05793154,0.5772045,0.8282157,0.0007171037,-0.001002692,-0.0005084587,0.0007461475,-0.003036868,-0.0007312099
-0.0585034,0.5816689,0.8260639,0.0001288997,0.003441568,-0.002639027,-0.001187933,-0.003233202,-0.003458956
-0.05754191,0.5806172,0.8287837,0.001074503,0.002370587,0.0001022451,-0.003820615,-0.002628914,-0.001220393
-0.05655249,0.5780596,0.8312633,0.002048443,-0.0002054748,0.002603573,9.156124e-05,-0.0005821325,-0.003827929
-0.05881372,0.5775543,0.8307821,-0.0002278955,-0.0007284545,0.002144084,0.001151747,0.0008182912,-0.0041689
-0.06332405,0.5776984,0.8296444,-0.004752968,-0.0006013053,0.001028067,-0.0005586483,-0.002141702,-0.001344002
-0.0660641,0.5778492,0.8249476,-0.007507234,-0.0004666053,-0.003647296,-0.000151202,-0.005717851,-0.002018251
-0.06368469,0.5780327,0.828563,-0.005141265,-0.000298451,-1.071889e-05,-0.001460562,-0.00375825,0.001114566
-0.05899627,0.5783369,0.8330521,-0.0004652271,-8.855948e-06,0.004499355,-0.00118551,-0.002336912,0.002534769
-0.05853362,0.5788305,0.8296113,-1.379919e-05,0.0004709519,0.001079285,0.001081137,-0.002381766,0.004552685
-0.05851728,0.5783433,0.831698,-7.535665e-06,-2.929699e-05,0.003186118,0.002543555,0.0001407266,0.006418456
-0.05779745,0.5781089,0.8343405,0.0007033155,-0.0002760126,0.00584812,0.00174568,0.000395426,0.002910618
-0.05883088,0.5780759,0.8326759,-0.0003380643,-0.0003206593,0.004202203,-0.00043498,-0.0004715843,0.00333175
-0.05779817,0.5772971,0.8309916,0.0006876601,-0.001110281,0.002535375,0.0003336136,0.0003972475,0.004447111
-0.05619104,0.5775858,0.8296025,0.002288684,-0.0008317687,0.001162626,-0.0002257521,-0.0004552288,0.004199043
-0.0546767,0.5762234,0.8308209,0.003797683,-0.002203572,0.002395965,-0.002245654,-0.0004173684,0.004336845
-0.05491324,0.5740423,0.8298868,0.003556375,-0.004393243,0.001475547,-0.002164391,0.001519315,0.002054145
-0.06009357,0.5751076,0.8283037,-0.001628326,-0.003335573,-9.528409e-05,-0.002620633,0.001843871,0.001303706
-0.06304733,0.5756977,0.8296229,-0.004586107,-0.002752113,0.00123484,-0.001985536,0.002848215,0.002084056
-0.0615403,0.5764168,0.828741,-0.003082643,-0.002038374,0.0003625184,-0.001153067,0.004047763,0.005664023
-0.05959485,0.5785259,0.827212,-0.001140165,6.648181e-05,-0.001158216,0.0006807681,0.002600579,0.008286109
-0.05839365,0.5779689,0.8269959,5.872881e-05,-0.0004934629,-0.00136716,0.004714951,0.001226955,0.004519981
-0.05854672,0.5772762,0.8303976,-9.597569e-05,-0.001188006,0.002040558,0.00387694,0.000967036,0.002613042
-0.05923612,0.5784532,0.8347367,-0.0007863698,-1.171241e-05,0.006384613,0.001263714,0.0008058215,0.002930076
-0.06131295,0.5797363,0.8309396,-0.002863561,0.001271644,0.00259131,0.002336554,-6.899048e-05,0.003610946
-0.06341118,0.581985,0.8271631,-0.004961468,0.003521552,-0.001182683,0.00292218,-0.002972063,0.004362354
-0.06407312,0.5835254,0.828827,-0.005622252,0.005063961,0.0004824551,0.003014468,-0.005641505,0.003298064
-0.0636981,0.583026,0.825187,-0.005245044,0.004567001,-0.003157377,0.004176586,-0.007063929,0.005330167
-0.05995055,0.5823264,0.8201409,-0.001494124,0.003869983,-0.008204426,0.004025,-0.008483076,0.004018453
-0.05448852,0.5806954,0.8224661,0.003972525,0.002241562,-0.005880742,0.002875669,-0.005269924,0.001295868
-0.05171515,0.5790741,0.8248719,0.006751596,0.0006226941,-0.003476691,0.002510125,0.002000191,0.003909681
-0.05462981,0.5797205,0.82386,0.003843398,0.001271216,-0.004490356,0.001112806,0.003385934,0.001612064
-0.05889913,0.5817801,0.8236745,-0.0004189954,0.003332586,-0.004677423,-0.0004121164,-0.0008511703,0.001398862
-0.05875641,0.5834206,0.8231119,-0.000269044,0.004974471,-0.005241116,-0.0008808266,-0.0052834,0.0064451
-0.05990592,0.580225,0.8217351,-0.001411072,0.001779524,-0.006618286,-0.003190021,-0.008794195,0.007743452
-0.06126884,0.5758656,0.8214757,-0.002766232,-0.002579756,-0.006877088,-0.003344647,-0.007403568,0.00702755
-0.05739034,0.5777967,0.8251534,0.001120325,-0.0006492955,-0.003197657,0.0008969452,-0.003988117,0.002912933
-0.05430586,0.5787221,0.8316243,0.004213147,0.0002750225,0.003276294,0.004743613,-0.003395744,0.0007732305
-0.05546099,0.5772645,0.8324515,0.003066481,-0.001184178,0.004107851,0.00772342,-0.001997364,0.0003070899
-0.05738194,0.5798779,0.8303294,0.001153942,0.001427173,0.001991004,0.007555925,-0.0006264996,0.0002486093
-0.05792673,0.5813111,0.8288845,0.0006173645,0.002857946,0.0005522264,0.005065723,-0.0007399734,0.006404164
-0.0593759,0.580322,0.8242752,-0.0008238374,0.001865848,-0.004050383,0.003874097,-0.001277066,0.007597532
-0.060441,0.5803514,0.8237535,-0.001881219,0.0018918,-0.004564712,0.0004895588,-0.00282359,0.003278941
-0.05907485,0.5797006,0.8253941,-0.0005075405,0.00123698,-0.00291591,-0.0003894711,-0.004169161,0.0006741162
-0.05872724,0.579263,0.8230496,-0.000152562,0.0007947571,-0.005251311,0.001967647,-0.005993291,0.001410052
-0.05740621,0.5808277,0.8251729,0.001175709,0.002354184,-0.003117917,-0.0002505095,-0.00604019,0.00715186
-0.05600436,0.5826728,0.827713,0.002584601,0.004193306,-0.0005666254,-0.0004036081,-0.003686741,0.008914319
-0.05595887,0.5821325,0.825889,0.002636868,0.003646422,-0.002378368,0.0006026333,-0.0031417,0.006698178
-0.05253591,0.5813927,0.8255779,0.006066172,0.002899069,-0.002676113,-0.001119792,-0.001032162,0.003989057
-0.05046159,0.5821528,0.8231194,0.008146186,0.003650624,-0.005120067,0.0008945339,0.002872563,0.002342077
-0.05262175,0.5803119,0.8201911,0.005990772,0.001800214,-0.008032704,0.0008543761,0.004514673,0.002720109
-0.05439827,0.5764579,0.8241226,0.004217763,-0.002064301,-0.004084077,-0.0002719023,0.004951521,-0.0002522898
-0.0552371,0.5743079,0.8277422,0.003381023,-0.004225822,-0.0004458523,0.001317079,0.005648321,0.0002613111
-0.05569504,0.5756265,0.8236967,0.002923638,-0.002919306,-0.004471257,0.0002481535,0.006955293,0.00243541
-0.05626028,0.578863,0.8211748,0.00235737,0.0003044952,-0.006971589,0.000818637,0.005131591,0.001603509
-0.05803533,0.580506,0.8268293,0.0005796892,0.001934599,-0.001293889,0.001718534,0.002131809,0.003817214
-0.06038982,0.5822359,0.8314407,-0.001778955,0.003651198,0.003342236,0.002566304,0.00306892,0.002909957
-0.05930948,0.5814527,0.8302,-0.0007041869,0.002854326,0.00212764,0.005817388,0.002577675,0.002038002
-0.0573797,0.5775477,0.8279691,0.001218788,-0.001064774,-7.598392e-05,0.003869146,0.000318639,0.005692997
-0.05978003,0.5776975,0.8269012,-0.001189491,-0.00092953,-0.001115786,-0.0006200113,0.0001859894,0.007379952
-0.06100916,0.578942,0.8250399,-0.002427568,0.0003001278,-0.002948163,-0.003026743,7.723978e-05,0.007847163
-0.05950315,0.5789374,0.8250358,-0.0009313498,0.0002804275,-0.002922616,-0.002512142,-0.0004051699,0.006974267
-0.05693814,0.5787212,0.8319995,0.001623181,4.887499e-05,0.00407139,0.0005293606,-0.00102137,0.005983611
-0.05347347,0.5774263,0.8365598,0.005076732,-0.001261541,0.008662544,-0.001212636,-0.001301707,0.002539241
-0.05380337,0.5795705,0.8327707,0.004734994,0.0008670854,0.00490447,-0.004481539,0.0002926681,-0.003094554
-0.05478139,0.5811969,0.8307793,0.003744272,0.002477857,0.002943799,-0.004892024,0.003074306,-0.002898282
-0.0533806,0.5784514,0.8321655,0.005131371,-0.0002833021,0.004360123,-0.006350897,0.004415272,-0.00437478
-0.05285605,0.5769771,0.832495,0.005641103,-0.001773295,0.004718929,-0.006566792,0.003980343,-0.008433355
-0.05311221,0.5766455,0.8325008,0.005368862,-0.002120559,0.00475308,-0.003962856,0.004527453,-0.006309847
-0.05605282,0.5751793,0.8335878,0.002410776,-0.003602244,0.005867036,-0.002122318,0.004156794,-0.005619318
-0.05833134,0.5726895,0.8335828,0.0001133527,-0.00610722,0.00588736,-0.001515083,0.001730213,-0.007143588
-0.0566009,0.5723489,0.8318567,0.001823527,-0.006462233,0.004184829,0.0001789546,0.001733084,-0.00505086
-0.05754556,0.5761715,0.8319694,0.0008573099,-0.002653181,0.004319131,0.001349206,0.001798514,-0.002914563
-0.05920795,0.5801213,0.8319582,-0.0008277942,0.001284125,0.004327446,0.0005393127,-0.0008094968,-0.001611844
-0.05797272,0.5816191,0.8312102,0.0003836789,0.0027705,0.003596564,-0.000139931,-0.001385922,-0.001912808
-0.05826087,0.5817997,0.829253,7.088125e-05,0.002940727,0.001654256,-0.001184366,-0.0008519645,-0.00152738
-0.05859853,0.5822967,0.8246782,-0.0002921975,0.003428153,-0.002907999,-0.002083487,-0.0009252292,0.001957927
-0.05753867,0.5818989,0.823364,0.000741607,0.003021224,-0.004211884,-0.001457584,0.001268046,0.002652899
-0.05580252,0.5816118,0.8236916,0.002451152,0.002725531,-0.003875762,-0.0006816104,0.003712425,0.001540087
-0.05386481,0.5823957,0.8224258,0.004361736,0.003501067,-0.005134601,-0.0005748801,0.003952687,-0.002103653
-0.05644842,0.5814954,0.8221527,0.001750434,0.00259253,-0.005402003,-0.0008652774,0.002475166,-0.007299007
-0.05989301,0.579931,0.8222406,-0.001722405,0.001019814,-0.005309251,-0.00130399,0.001871034,-0.005308319
-0.05824386,0.575234,0.8232444,-0.0001019903,-0.003685602,-0.004301124,-0.00336374,0.003089525,-0.004260441
-0.05710405,0.5708014,0.823932,0.00100875,-0.008126523,-0.003609618,-0.005902955,0.002825819,-0.006366994
-0.05613409,0.5756425,0.8244138,0.001949375,-0.00329346,-0.003123882,-0.004699344,0.001753319,-0.004060293
-0.05222691,0.5799551,0.8289872,0.005826965,0.00101163,0.001453493,-0.0003383294,-0.0009427858,-0.003326525
-0.05235725,0.577393,0.8363464,0.005666688,-0.001557304,0.008816718,0.003513099,-0.004242398,-0.003897718
-0.05562509,0.5769129,0.8387346,0.00236842,-0.002043653,0.01120871,0.004232949,-0.001782651,-0.002687867
-0.05712598,0.5777987,0.8328758,0.0008365305,-0.001163303,0.005353122,0.003366649,0.003881377,7.555854e-05
-0.05999337,0.5767539,0.8281236,-0.002062398,-0.002212907,0.0006030223,0.004150569,0.007253155,0.0037708
-0.06183998,0.5777192,0.8300373,-0.00394091,-0.001251589,0.002517779,0.003311027,0.004025761,0.002940583
-0.05996423,0.5785166,0.8327904,-0.002097189,-0.0004574002,0.005270795,0.00079512,-0.001944731,0.001535663
-0.05796111,0.5774991,0.8324741,-0.0001260126,-0.001477233,0.004953113,-9.611783e-05,-0.0008229775,0.002176805
-0.05613803,0.5796933,0.8311884,0.001665364,0.0007154466,0.003664612,-0.003710954,0.0003299249,0.0001873653
-0.05423393,0.5814356,0.8321756,0.003538021,0.002456961,0.004647452,-0.006955598,-0.001707025,-0.0006289805
-0.05352901,0.5802583,0.8319362,0.004211713,0.001279544,0.004402108,-0.004279266,-0.000381353,-0.0008747018
-0.05311043,0.5805291,0.8294006,0.004599132,0.001550739,0.001858852,-0.003091083,-0.0001686764,-0.003065319
-0.05085441,0.5804781,0.8281502,0.006823932,0.00150051,0.0005990069,-0.005520297,-0.0001558842,-0.002037709
-0.04960535,0.5795689,0.8281179,0.008041488,0.0005923665,0.000555622,-0.006443787,0.001942163,-0.0009836642
-0.05288542,0.5791683,0.8322921,0.004729379,0.0001931256,0.004717255,-0.005405279,0.001802966,-0.0007808456
-0.05561934,0.5798419,0.8363183,0.001962732,0.0008682021,0.008729246,-0.003125607,0.001995799,0.001692433
-0.05607776,0.580608,0.8329443,0.00147082,0.001635808,0.005339339,-0.0008535391,0.003706242,0.0009044393
-0.05817496,0.5778171,0.8278805,-0.000660565,-0.00115344,0.0002577993,-0.0009296195,0.003959862,-0.0002441329
-0.06015601,0.5758459,0.8252607,-0.002676366,-0.003123009,-0.002381628,-0.001049554,0.002367887,-0.002945645
-0.06042629,0.5790498,0.8252672,-0.002981748,8.270332e-05,-0.002396375,0.003106701,0.0005098458,-0.007811242
-0.06039568,0.5819935,0.8263702,-0.002986347,0.00302842,-0.001315867,0.006267512,-0.001386345,-0.001993776
-0.05953498,0.5814941,0.8267322,-0.002160707,0.002531036,-0.0009775634,0.003454378,-0.002639317,0.00323127
-0.0583844,0.5815437,0.8292416,-0.001044817,0.002582631,0.001507354,0.001255543,-0.0002366081,0.0006260375
-0.05786098,0.5825941,0.8316284,-0.0005555749,0.003634848,0.003868844,0.001888699,0.001144052,0.002656206
-0.05521772,0.5816513,0.8311429,0.002054105,0.002693471,0.003357213,-0.0008432889,-0.0006182673,0.002355767
-0.05146455,0.58157,0.8302547,0.005774285,0.002613146,0.002442078,-0.005220345,1.527994e-06,-0.002494618
-0.05147686,0.5816923,0.8294564,0.005729447,0.002735751,0.001615979,-0.003968371,0.002621733,-0.00511448
-0.05515373,0.5805828,0.8290274,0.002020307,0.001626015,0.001158438,-0.00150619,0.00485913,-0.005111176
-0.05802422,0.5806624,0.8294876,-0.0008823049,0.001704513,0.001589349,-0.002816934,0.002687143,-0.002604536
-0.05627928,0.5771526,0.8308013,0.0008306692,-0.001807127,0.002873042,-0.002788044,-0.0004307799,-0.001253597
-0.05465635,0.5735441,0.8318169,0.00242185,-0.005418021,0.003857948,-0.001874546,0.002271559,8.591337e-05
-0.05743717,0.5769418,0.8307918,-0.0003904948,-0.002023334,0.00280146,-0.0003711406,0.003188166,-0.001129143
-0.06006145,0.579025,0.8290368,-0.003046029,5.663759e-05,0.001014353,0.002313404,0.0009219234,-0.004785582
-0.06160427,0.5773243,0.8275183,-0.004619685,-0.001647417,-0.0005369942,0.0001781483,0.0001308391,-0.001630422
-0.06159833,0.5775999,0.8275093,-0.004643936,-0.001375248,-0.0005793069,-0.002762609,-0.001192252,0.001345626
-0.05989798,0.5781303,0.8297318,-0.002972854,-0.0008483843,0.001609412,-0.001183231,-0.001150649,0.0004542527
-0.05871812,0.5773846,0.8296943,-0.001821167,-0.001597477,0.001537772,0.0009586213,0.0006071509,0.00246119
-0.0563184,0.5765232,0.8279125,0.0005516126,-0.002462175,-0.0002784189,0.003480555,0.001726307,0.002609568
-0.05618401,0.5744762,0.8268224,0.0006603096,-0.00451218,-0.001402998,0.004362747,0.001933367,0.0008143425
-0.05724727,0.5727965,0.8243067,-0.0004274208,-0.006194459,-0.003953284,0.002086763,0.001275627,0.0005763683
-0.05290442,0.5736882,0.824309,0.003892125,-0.005304708,-0.003985421,0.002014683,0.0003593908,-0.0007913099
-0.05061211,0.5748413,0.8259739,0.006162158,-0.004152673,-0.002354404,0.002234027,-0.001532985,-0.00139696
-0.05424317,0.5777317,0.8250659,0.002509638,-0.001262264,-0.003295641,-0.0002352345,-0.002022784,-0.0004200836
-0.05734869,0.5822459,0.8275031,-0.0006167245,0.003253115,-0.0008907678,-0.001216199,0.001508265,-0.0002780141
-0.05966075,0.5818625,0.8298111,-0.002949041,0.002871855,0.001385835,-0.001366721,0.003845051,0.0007093732
-0.06329771,0.5801176,0.8253949,-0.006605582,0.00112987,-0.003060649,-0.002662664,-0.0001369901,0.003034942
-0.065118,0.5808871,0.8226733,-0.008444515,0.001902958,-0.005811524,-0.004209489,-0.005178509,0.004025334
-0.06247254,0.5794642,0.8262571,-0.005816436,0.0004840479,-0.002255589,-0.004654506,-0.004383563,0.002916304
-0.06086627,0.5782656,0.8292502,-0.00422598,-0.000710127,0.0007110011,-0.0008038847,-0.002644777,0.0004437844
-0.05861311,0.5774313,0.828035,-0.001986867,-0.001539612,-0.0005292501,0.004344819,-0.002046123,-0.0002620386
-0.05286819,0.5738492,0.8288595,0.003745796,-0.005116557,0.000271735,0.005447012,0.0008607926,0.0006594553
-0.05389345,0.5733861,0.8310923,0.002709964,-0.005573915,0.002482362,0.004555582,0.001127516,-0.002226625
-0.05901787,0.5766662,0.8265752,-0.002423543,-0.002287433,-0.002055524,0.004000471,0.001896269,-0.003439081
-0.06282948,0.5785513,0.8215061,-0.006242818,-0.0003952399,-0.007144202,0.003198257,0.005945259,0.0004438636
-0.06669594,0.5780383,0.8218934,-0.0101154,-0.0009001885,-0.006774951,0.002536084,0.004059156,0.0003764023
-0.06324325,0.5773717,0.8242998,-0.006666991,-0.001557963,-0.004384837,0.002213509,0.001140812,-0.000411533
-0.0580419,0.5789696,0.831126,-0.001467841,4.953945e-05,0.00242698,0.001197131,0.001811194,0.002259119
-0.05865738,0.5799359,0.8387256,-0.002083341,0.001026102,0.010014,-0.000355406,-0.0009102956,0.004215648
-0.05995107,0.5806633,0.8374476,-0.003374911,0.001764378,0.00872484,-0.002690629,-0.004565052,0.006310951
-0.06117631,0.5823038,0.834406,-0.004595893,0.003416253,0.005673048,-0.005114736,-0.004738596,0.005492578
-0.05886195,0.5799499,0.8360082,-0.002275119,0.00107397,0.007265586,-0.005336833,0.000400935,0.002870037
-0.05533717,0.5763736,0.8329895,0.001258186,-0.002490511,0.004237475,-0.005310253,0.006079606,0.002774702
-0.05713848,0.5759724,0.8306617,-0.0005325961,-0.002879827,0.001900067,-0.005622995,0.00325442,0.001998169
-0.05719968,0.5763167,0.8334243,-0.0005814377,-0.002523482,0.004652909,-0.005046255,0.0006196336,0.001977581
-0.0541265,0.5756242,0.8312986,0.002505754,-0.003203574,0.002517029,-0.004044148,0.003519117,0.001322211
-0.05217968,0.5747568,0.8314376,0.004468025,-0.004058193,0.002645409,-0.001340813,0.0036184,-0.001757126
-0.05190226,0.5760096,0.833141,0.004762024,-0.00279206,0.004337636,0.00102131,0.002914977,-0.002856115
-0.05778262,0.5778321,0.8308075,-0.001100938,-0.0009557328,0.001992243,0.002251739,4.709822e-05,-0.002193434
-0.06457156,0.5779301,0.8319284,-0.007871824,-0.0008431655,0.003100548,0.003559023,-0.005245214,0.0003008753
-0.06413918,0.5777459,0.8295064,-0.007420641,-0.001012372,0.000665081,0.00299598,-0.002227809,0.002750917
-0.06387813,0.5777383,0.8256573,-0.007139797,-0.001004272,-0.003198118,0.003412338,0.001744222,0.003515631
-0.06628324,0.5783347,0.8254691,-0.009523849,-0.0003916992,-0.003401157,0.005164552,-0.001663654,0.004212666
-0.06530119,0.5806649,0.8221142,-0.008519197,0.001955112,-0.006771116,0.004664976,-0.004407284,0.003336537
-0.0639376,0.583417,0.822323,-0.007131202,0.004724074,-0.006577536,0.003277076,-0.005812471,0.001595481
-0.06125055,0.58309,0.8251505,-0.004417752,0.004414084,-0.003764853,-0.0003175463,-0.004472117,0.0001179231
-0.05303236,0.5807727,0.8262468,0.00382889,0.002113725,-0.002682876,-0.004490923,0.0001324634,0.0001206676
-0.0491512,0.5799582,0.8293052,0.007740309,0.001315669,0.00036207,-0.003409958,0.002053381,-0.0002271076
-0.0519755,0.5782031,0.8301271,0.004947642,-0.0004233337,0.001171275,-0.001511456,0.004253868,-0.002123903
-0.05239261,0.5768341,0.8300459,0.004563068,-0.001776821,0.001078066,-0.001406922,0.004798802,-0.0004023657
-0.05363868,0.5782698,0.8335302,0.003350004,-0.0003260446,0.004551074,0.001655985,0.002682831,0.001639632
-0.05755296,0.5778866,0.8350478,-0.000531091,-0.0006945743,0.006057885,0.005061152,0.004470423,0.00203541
-0.05759277,0.5769752,0.8300903,-0.0005377304,-0.001591709,0.00108989,0.006062936,0.004694821,0.003100752
-0.05604367,0.5766118,0.8263117,0.00104444,-0.001941204,-0.002699178,0.004258715,0.003164433,0.003585892
-0.05667256,0.5751319,0.8295394,0.0004484058,-0.003407523,0.0005182211,0.001021925,0.00365368,0.005041893
-0.05725885,0.5771027,0.8315338,-0.0001053155,-0.001423208,0.002502532,0.0042099,0.0009176463,0.004011154
-0.05838959,0.5807303,0.8282472,-0.001203864,0.002217737,-0.000794079,0.00745661,-0.002643581,0.003089735
-0.05905903,0.5819814,0.8259412,-0.001841506,0.003482082,-0.003109894,0.002743696,-0.004521504,0.006221911
-0.05773457,0.5808007,0.8266116,-0.0004856525,0.002314414,-0.002449064,0.00128292,-0.005101423,0.008182203
-0.05835958,0.5780193,0.8275172,-0.00107966,-0.0004545256,-0.001552766,0.00459721,-0.004570879,0.01067906
-0.05788781,0.5787663,0.828658,-0.0005772875,0.000304568,-0.0004206899,0.005552716,-0.005610821,0.008594687
-0.05312852,0.5792002,0.8284375,0.004212157,0.0007500254,-0.0006494732,0.003113838,-0.004372111,0.001446
-0.04965678,0.5770606,0.8254872,0.00771344,-0.001378492,-0.003607424,-0.0004909466,-0.002448997,-0.001123657
-0.0504453,0.5796978,0.8264464,0.006953534,0.001269211,-0.00265531,0.0005561053,-0.003741919,-0.003193129
-0.05427302,0.5814366,0.8358909,0.003153174,0.003018114,0.006782841,0.002308244,-0.003416114,-0.002572552
-0.05579917,0.5790282,0.8441714,0.001652874,0.0006192122,0.01505757,0.0007585378,-0.002344439,0.0008318855
-0.05504087,0.578042,0.838371,0.002435413,-0.0003582438,0.009251342,0.00049679,-0.0009418144,0.00116437
-0.05492241,0.5775015,0.8308411,0.002576419,-0.0008905396,0.001715105,0.0003442029,0.00126551,0.002445303
-0.05274979,0.5777582,0.835526,0.004769835,-0.0006261993,0.006392924,0.000136524,0.0004965103,0.002566222
-0.05229729,0.5774651,0.8352726,0.005241237,-0.0009122176,0.0061314,0.001361781,-0.0002082799,0.005149094
-0.05326508,0.5748364,0.8283544,0.004290321,-0.003534288,-0.0007959969,0.001648946,0.000586754,0.007043478
-0.05278173,0.5733304,0.8271634,0.004788366,-0.005033934,-0.001997345,0.002173847,0.0003952776,0.0007175291
-0.05562338,0.5753831,0.8254922,0.001959125,-0.00297511,-0.003679866,0.004094478,0.0002949014,0.001213793
-0.06059983,0.5792772,0.8250148,-0.003007211,0.0009253102,-0.004169352,0.003142907,-0.0001300611,0.004498378
-0.06388222,0.5797569,0.8270881,-0.006281604,0.001411283,-0.002108625,-0.0004571666,-0.001705158,0.001441949
-0.06289344,0.5786935,0.8280123,-0.005286613,0.0003543071,-0.001197243,-0.001984174,-0.003467688,0.002476368
-0.06087935,0.5797641,0.83011,-0.003267728,0.001431215,0.000887432,-0.001590563,-0.004891127,0.00321623
-0.06055303,0.5809037,0.8323692,-0.002937701,0.002577083,0.003133599,0.0006043546,-0.00467026,0.002719757
-0.0575005,0.5816896,0.8350269,0.0001176467,0.003368994,0.005778119,0.002928774,-0.0003828015,0.005462506
-0.05713925,0.5787517,0.8310946,0.0004809812,0.0004367105,0.001832356,0.001698547,0.00404099,0.004624732
-0.05745736,0.5748774,0.8248536,0.0001642602,-0.003432347,-0.004422537,-0.002267889,0.001508993,0.001418965
-0.05248827,0.5771957,0.8284612,0.005134047,-0.001109137,-0.000829032,-0.005950877,-0.000975496,-0.0008170844
-0.05178309,0.5789177,0.8298475,0.005839134,0.0006175347,0.0005429205,-0.005808632,0.003812675,-0.002745761
-0.05267663,0.5770175,0.8294305,0.004944537,-0.001278196,0.0001116009,-0.003663409,0.006502802,-0.003136883
-0.05082081,0.5770048,0.8331615,0.006798101,-0.001286679,0.003828154,-0.001714471,0.004545494,-0.004515638
-0.05356892,0.5775608,0.8316432,0.004046362,-0.0007264981,0.002295449,0.0007574907,0.004381487,-0.007112594
-0.05961657,0.5786674,0.8287625,-0.002006426,0.0003841266,-0.0005999855,-1.119356e-05,0.004971289,-0.006694656
-0.06399123,0.5809676,0.8281515,-0.006387643,0.002688307,-0.001225797,-0.002172285,0.005277964,-0.004700957
-0.06237551,0.5815916,0.8282589,-0.004779617,0.00331619,-0.001133239,-0.002175317,0.004758768,-0.003994554
-0.05939887,0.5823446,0.8287284,-0.001811455,0.004072648,-0.0006786968,-0.002347769,0.003926501,-0.002322669
-0.06173998,0.5842506,0.8272744,-0.004161564,0.005981603,-0.002147491,-0.0006962679,0.004791867,0.0008916749
-0.06157421,0.58561,0.8266637,-0.004005066,0.007343281,-0.00277266,0.002255751,0.004016311,0.004605777
-0.05984123,0.5858445,0.8266334,-0.002281417,0.007579022,-0.002817217,0.001959623,0.001789695,0.006808541
-0.05986996,0.5839178,0.8269592,-0.002319318,0.005652234,-0.002505096,0.0003732251,-0.001773771,0.003643544
-0.05596834,0.5825388,0.829034,0.001573376,0.004271571,-0.0004433411,-0.00213347,-0.006708149,0.001572254
-0.05261151,0.5815263,0.8313846,0.004921555,0.003255733,0.001894977,-0.005369787,-0.005062638,0.002627015
-0.05165783,0.5786275,0.8334084,0.005866713,0.000351868,0.00390706,-0.004436225,-0.0007484645,-0.001860582
-0.05317278,0.5779145,0.8300942,0.004343117,-0.0003679176,0.00058173,-0.003474605,-0.0002060835,-0.004938453
-0.05725259,0.5802487,0.8236168,0.0002543573,0.001957983,-0.005906448,-0.004946395,0.003949386,-0.005105256
-0.05660755,0.5820029,0.8225973,0.0008900466,0.003702304,-0.006936172,-0.004019726,0.008396845,-0.007101745
-0.0588781,0.578017,0.8229284,-0.001390231,-0.0002949781,-0.006614405,-0.003572619,0.006625527,-0.004075587
-0.06475167,0.572969,0.8232485,-0.0072738,-0.005355691,-0.006302445,-0.002256732,0.005511039,-0.00335241
-0.06171973,0.5771962,0.8260259,-0.004251898,-0.001142438,-0.00353193,0.001566356,0.006407801,-0.004555102
-0.05955233,0.5812932,0.8254625,-0.002094304,0.002939777,-0.004100474,0.003372019,0.004563658,0.0005422447
-0.06212423,0.5792706,0.8260871,-0.004675551,0.000901485,-0.003479452,0.00505141,0.000129313,0.002636146
-0.06093002,0.5763783,0.8327393,-0.003490072,-0.00200717,0.003170961,0.004330184,-0.005393328,0.002027987
-0.06039459,0.5723981,0.8355469,-0.002962578,-0.006004435,0.005978302,0.001499935,-0.007896745,0.001551098
-0.05945865,0.5738886,0.8311373,-0.002033649,-0.004531366,0.001569881,0.002784705,-0.005178417,0.0009474769
-0.055665,0.5774301,0.8266977,0.001753966,-0.001007325,-0.002867591,0.002608693,-0.004124141,0.00157263
-0.05488029,0.5751945,0.8283831,0.002533587,-0.003260291,-0.001179033,-0.0005320579,-0.004462608,0.0001727412
-0.05605306,0.5754672,0.8313784,0.001356535,-0.0030046,0.001820358,-0.002632531,0.0002367569,-0.00121624
-0.05646181,0.5770963,0.8302122,0.0009441589,-0.001392024,0.0006592295,-0.005677204,0.005730211,-0.005099042
-0.05709637,0.5759418,0.830692,0.0003065389,-0.002562419,0.001144771,-0.006252361,0.007869708,-0.009774271
-0.05712964,0.5755349,0.8318157,0.000270716,-0.002984517,0.002274801,-0.004535515,0.004936694,-0.008586871
-0.05691471,0.5749523,0.8318937,0.0004835254,-0.003581372,0.002359606,-0.004388609,-0.0009304794,-0.003590972
-0.05789557,0.5758719,0.8338806,-0.000499038,-0.002675125,0.004353714,-0.002075899,-0.004286793,0.001438565
-0.05833251,0.5778938,0.836297,-0.0009372952,-0.0006654223,0.00677734,4.976703e-05,-0.007856692,-0.00124978
-0.05652638,0.5779125,0.8401664,0.0008678937,-0.0006578197,0.01065363,-0.0002817191,-0.005528065,-0.004884984
-0.05488312,0.5777449,0.8407742,0.002510564,-0.0008353538,0.01126769,0.0002358502,0.003304874,-0.002192876
-0.05562332,0.5773944,0.8368186,0.00177002,-0.001194594,0.007317185,-0.001125102,0.004107151,-0.003254448
-0.05684211,0.5759865,0.8355611,0.000551031,-0.002610214,0.006063196,-0.002014252,0.00135857,-0.003417366
-0.05715602,0.5754123,0.8345026,0.0002369938,-0.003190934,0.005006306,-4.436384e-05,0.0003145817,0.0009875706
-0.05790902,0.5793336,0.8290675,-0.0005161042,0.0007251177,-0.0004291222,-0.0006943997,-0.001448217,0.002174437
-0.058603,0.5846969,0.8219749,-0.001210118,0.00608433,-0.007523874,-0.0022657,-0.001211366,-0.0007794319
-0.05833895,0.5835559,0.8230045,-0.0009460306,0.00494016,-0.00649809,-0.003686157,-0.002193455,-0.004419948
-0.05825214,0.5797774,0.8302463,-0.0008590601,0.001159188,0.0007387336,-0.005749954,-0.0019852,-0.002372914
-0.05766076,0.5770529,0.8323188,-0.0002673451,-0.001567335,0.002805242,-0.004346194,2.946362e-05,0.001064169
-0.05476179,0.5737182,0.8340472,0.002632112,-0.004903606,0.004526792,-0.002134484,0.001314154,0.001110951
-0.05257361,0.5749246,0.8348014,0.004820852,-0.003698161,0.00527315,-0.001313167,0.004752409,0.001627127
-0.05679994,0.5780573,0.8304254,0.0005950139,-0.0005657098,0.0008881258,-0.001133416,0.002936581,-0.0015685
-0.06195221,0.5784644,0.8275149,-0.004556933,-0.000158109,-0.002032565,-0.003340959,-0.00097125,-0.003803029
-0.0592847,0.579527,0.8269955,-0.001889204,0.0009057798,-0.002563221,-0.004978039,0.0006196596,-0.001005214
-0.0558352,0.5780807,0.8282976,0.001560538,-0.0005386602,-0.001273239,-0.005284843,-0.0006303123,-0.002389541
-0.05574865,0.5751092,0.8279984,0.001647385,-0.003507557,-0.001585156,-0.003813033,-0.001227997,-0.00335784
-0.05533729,0.5751125,0.8270461,0.00205901,-0.003500937,-0.002550625,0.0004243778,0.001498141,-0.002132741
-0.05846198,0.5761786,0.8288705,-0.001065515,-0.002430801,-0.0007398331,0.001809941,-0.0006135517,-0.002364084
-0.06367354,0.5795008,0.8292294,-0.006276994,0.0008962846,-0.0003946806,0.0007274169,-0.004843344,0.003262404
-0.06535595,0.5816361,0.8305597,-0.007959206,0.003037263,0.0009217841,0.0006769867,-0.00608029,0.009252154
-0.06141447,0.5802844,0.8295328,-0.004017127,0.001691913,-0.0001190227,0.001426873,-0.003001294,0.008451584
-0.05601822,0.5804099,0.8261953,0.001380359,0.001824304,-0.003470371,0.003075386,-0.0002082322,0.00794601
-0.05813893,0.5809138,0.8287198,-0.0007384291,0.002335406,-0.0009597495,0.003507618,-0.001886274,0.008947261
-0.0596144,0.5813575,0.8312465,-0.002211295,0.002786374,0.001553443,0.00207791,-0.001828297,0.007071856
-0.05614895,0.5819025,0.8334964,0.001257405,0.003338777,0.003789885,1.763163e-05,0.0001935291,0.003493838
-0.05673855,0.5802102,0.8338232,0.0006716651,0.001653708,0.004103452,-0.001492302,0.001264398,0.0006489495
-0.05545804,0.5784942,0.8276988,0.001956567,-5.540649e-05,-0.002034205,-0.003076648,0.002651901,-0.00142179
-0.05338282,0.5789803,0.8248147,0.004036565,0.0004373211,-0.004931589,-0.005196727,0.002173293,-0.0005838461
-0.05671237,0.5796491,0.8249169,0.0007120147,0.00111237,-0.004842534,-0.005703033,0.001801312,0.0002075111
-0.05931939,0.5788918,0.8241332,-0.001889904,0.0003609232,-0.005638953,-0.005253018,0.00244192,-0.002740409
-0.06046316,0.5792619,0.8261584,-0.003028485,0.0007364891,-0.003625685,-0.001667149,0.001086028,-0.004105644
-0.06116926,0.5803752,0.8306492,-0.003729202,0.001854815,0.0008539453,0.002819861,0.0004472357,-0.003251927
-0.06364502,0.5805034,0.8347689,-0.006199234,0.001987601,0.004963449,0.002201416,0.0009535389,-0.0009128026
-0.06630638,0.5802918,0.833625,-0.008854292,0.001780045,0.003810151,0.003945361,0.0003042759,0.002515827
-0.06281343,0.5775367,0.8301936,-0.005354189,-0.0009716547,0.0003698864,0.007975668,-0.001137216,0.002606941
-0.0587332,0.5745777,0.8293489,-0.001265689,-0.00392774,-0.0004832829,0.006045047,-0.002649058,0.0001092191
-0.05787507,0.5748684,0.8274339,-0.0003981045,-0.00363461,-0.002406337,0.003856483,-0.00274189,-0.001552782
-0.05813981,0.5762994,0.8266401,-0.0006522463,-0.002201469,-0.003207767,0.004076223,-0.001328172,0.002622148
-0.05874498,0.577603,0.8269889,-0.001245742,-0.0008957376,-0.002865951,0.002787094,4.274044e-05,0.007281113
-0.05775556,0.5779768,0.8249164,-0.0002436518,-0.0005197384,-0.004944717,0.001628353,-0.000316823,0.002716448
-0.05664857,0.5777939,0.8250808,0.0008769326,-0.0007004737,-0.004785708,-0.0004766021,-0.0006514932,-0.001256765
-0.05616297,0.5777134,0.8248649,0.001376944,-0.0007786704,-0.005005838,-0.003335781,0.003045732,-0.00126736
-0.05762983,0.5777526,0.8227918,-7.485502e-05,-0.000737096,-0.007081965,-0.00226704,0.005325896,-0.004299386
-0.06207965,0.5778968,0.8256116,-0.004509032,-0.0005903708,-0.004263631,-0.0006634881,0.0006121624,-0.004312277
-0.06484814,0.5776464,0.8273086,-0.007261255,-0.0008382074,-0.002566403,0.0005620337,-0.003774534,-0.001409523
-0.06378919,0.5776584,0.8249493,-0.006185249,-0.0008234081,-0.00492379,0.003816059,-0.003435031,-0.00183111
-0.06023654,0.5769318,0.8248128,-0.002614551,-0.001546995,-0.005056567,0.002526712,-0.003015653,-0.001985581
-0.05666161,0.5759895,0.8259324,0.0009795126,-0.002486056,-0.003931349,-0.001820853,-0.002892854,-0.001215961
-0.05363365,0.576246,0.8298068,0.004027619,-0.002226033,-4.931496e-05,-0.00249487,-0.001288294,-0.002047662
-0.007120817,0.6166866,0.7944036,0.05735092,0.008302906,-0.03235815,0.2208416,-0.1529644,0.2390534
-0.007247514,0.6135619,0.7984386,0.057158,0.005167138,-0.0277957,0.2206809,-0.1519065,0.2411364
-0.008474142,0.6190422,0.8062615,0.05578144,0.01062573,-0.01942538,0.2190212,-0.1542856,0.2443525
-0.009862279,0.624888,0.8114912,0.05416324,0.01643949,-0.01363011,0.2166049,-0.1477394,0.2438836
-0.007450684,0.6216954,0.8087585,0.05626823,0.0132046,-0.0157809,0.2139973,-0.1431477,0.239468
-0.00445326,0.6203522,0.804861,0.05888603,0.01180912,-0.0190821,0.2113831,-0.1410117,0.2339249
-0.00920316,0.6204349,0.7967098,0.05368691,0.01182973,-0.02662443,0.2118448,-0.1448234,0.2281996
-0.01466785,0.6187941,0.7964819,0.04770682,0.01011734,-0.02623238,0.2117554,-0.1523229,0.226733
-0.01533133,0.6192221,0.7998655,0.04646536,0.01046448,-0.02221877,0.2098293,-0.1532158,0.2273742
-0.01168399,0.618939,0.7917205,0.04947576,0.01009161,-0.02972508,0.2055889,-0.1582614,0.2240316
-0.007195456,0.6169101,0.7908845,0.05327192,0.007964441,-0.02991455,0.2036943,-0.1567236,0.2224854
-0.007801063,0.6150119,0.7958216,0.0519218,0.005959897,-0.02432399,0.2064233,-0.1505615,0.2206337
-0.00803035,0.6116065,0.7982897,0.05089899,0.0024406,-0.02119652,0.2063226,-0.1527287,0.2151504
-0.00508648,0.6104791,0.8038335,0.0530034,0.001192434,-0.01498837,0.2031825,-0.1473684,0.2115531
-0.004360969,0.6148465,0.8053306,0.05284646,0.005432843,-0.0128232,0.1973992,-0.1408348,0.2096061
-0.004221053,0.6189659,0.8046892,0.05206375,0.00941956,-0.01279428,0.1923942,-0.1415252,0.2081481
-0.004575136,0.6202571,0.8020843,0.05074961,0.01057299,-0.01472777,0.1915543,-0.1405932,0.2045501
-0.008367073,0.6204606,0.7991185,0.04596291,0.01063371,-0.01702236,0.1895673,-0.1413366,0.2011445
-0.01253158,0.6206422,0.8011011,0.04077171,0.01066775,-0.01436968,0.1877882,-0.1452868,0.2041699
-0.01263833,0.6212429,0.8023959,0.03960919,0.01111637,-0.01240705,0.185031,-0.1484571,0.2092543
-0.008148237,0.6203186,0.8036213,0.04301733,0.01003565,-0.01051691,0.1787153,-0.1481179,0.2101077
-0.003907275,0.6188428,0.798711,0.04615284,0.008399314,-0.0147666,0.1730042,-0.141796,0.2030178
-0.003964533,0.617896,0.7918194,0.0449691,0.007288042,-0.02100247,0.1680853,-0.133895,0.1948356
-0.006252327,0.6178833,0.7971898,0.04153609,0.007107364,-0.01498187,0.1670997,-0.1356889,0.1936123
-0.007373776,0.6203438,0.8008173,0.03925298,0.009396665,-0.01071016,0.1709113,-0.1400243,0.191366
-0.006075081,0.6213268,0.7977054,0.03937581,0.01020548,-0.01318439,0.1721863,-0.1368472,0.188035
-0.005330134,0.6206814,0.7984085,0.03893292,0.009383118,-0.01185099,0.1707592,-0.1390208,0.1873968
-0.007839935,0.6209158,0.7993486,0.03522542,0.009438015,-0.01028831,0.1703926,-0.1408092,0.1849891
-0.01081897,0.6198061,0.7991358,0.03104095,0.008146372,-0.00988693,0.1686482,-0.1368843,0.1838003
-0.01166732,0.6164858,0.8004678,0.02898154,0.004642067,-0.007949725,0.1649216,-0.1382638,0.1851621
-0.01102049,0.6125289,0.8021101,0.02841386,0.0004992965,-0.005711758,0.1626942,-0.1345683,0.1855842
-0.01107792,0.6137327,0.805679,0.02714056,0.001515952,-0.00155723,0.1610781,-0.1285291,0.1829491
-0.01205113,0.6180316,0.8092994,0.0249521,0.005626947,0.002638014,0.1588554,-0.1285484,0.1786059
-0.01161681,0.6192166,0.8051989,0.02417376,0.006623557,-0.0008992705,0.1578388,-0.1300896,0.1794136
-0.009634623,0.6208189,0.8004438,0.02494769,0.008037393,-0.00510344,0.1582098,-0.1344261,0.1816049
-0.00711955,0.6212298,0.8032043,0.02626064,0.008259746,-0.001804714,0.1575655,-0.1303759,0.1777826
-0.005060224,0.6203541,0.8030184,0.02712549,0.007195575,-0.001465542,0.152099,-0.1238304,0.1741608
-0.005210244,0.6210527,0.799157,0.02579,0.0077059,-0.004815392,0.1450345,-0.1264312,0.173136
-0.006738123,0.6195851,0.798301,0.02308689,0.006050377,-0.005173603,0.1421722,-0.1252237,0.1697721
-0.006538641,0.6183613,0.7983097,0.02212261,0.0046391,-0.004681072,0.1394432,-0.1247306,0.1675554
-0.005735042,0.6186891,0.79925,0.02177509,0.004780078,-0.003270852,0.1363872,-0.1264212,0.167488
