accx,accy,accz,body_accx,body_accy,body_accz,body_gyrox,body_gyroy,body_gyroz
-0.1156122,0.7712939,0.6440968,0.01181227,-0.01510577,-0.0192323,0.03168246,0.002073007,0.3760492
-0.1144809,0.7730685,0.648342,0.01482993,-0.01246662,-0.0153001,0.02989256,0.01693435,0.3750699
-0.1129715,0.7718858,0.6543957,0.01810929,-0.0128041,-0.009524195,0.02998768,0.004137182,0.3765435
-0.1140681,0.771811,0.6570922,0.01866901,-0.0120531,-0.007071495,0.04122852,-0.01639775,0.3796373
-0.1143441,0.7706821,0.6628437,0.01993853,-0.01237598,-0.001531156,0.04514781,-0.03703932,0.3819589
-0.1120266,0.7680742,0.6626332,0.02369344,-0.01419755,-0.00192161,0.04511314,-0.02886174,0.377706
-0.113157,0.7667917,0.6610891,0.0238953,-0.01471371,-0.003616306,0.04374159,-0.01039113,0.3685205
-0.1130762,0.7650893,0.6649762,0.02520579,-0.01566944,0.0001480756,0.04748005,-0.01927646,0.3641668
-0.113855,0.7665681,0.6620354,0.02555703,-0.01346352,-0.002889148,0.06010433,-0.01676712,0.3613117
-0.1136485,0.7692138,0.6566149,0.02679673,-0.01011023,-0.00838138,0.06618339,-0.004359388,0.3546538
-0.1124061,0.7685963,0.6570647,0.02897837,-0.01003946,-0.007979825,0.0688483,-0.001888364,0.3467892
-0.118353,0.7701364,0.6577367,0.02387952,-0.007830403,-0.00733384,0.06919168,-0.009102783,0.3423363
-0.1226004,0.7735529,0.6582019,0.02039212,-0.003764257,-0.006873542,0.07097149,-0.02898749,0.3428565
-0.1209998,0.7724387,0.6569748,0.02266753,-0.004248159,-0.008085651,0.06444368,-0.03263143,0.3405568
-0.1201166,0.7713401,0.65455,0.02414385,-0.004735898,-0.0104766,0.04693542,-0.01883608,0.3379773
-0.1210645,0.7729136,0.6575154,0.02371027,-0.002571095,-0.007459463,0.04626953,-0.01230559,0.3378909
-0.1214011,0.7726073,0.6621497,0.02381227,-0.002305464,-0.002756583,0.05208706,-0.014702,0.3335109
-0.1211209,0.7745971,0.6638695,0.02445858,0.0002366385,-0.0009525425,0.05443563,-0.02881159,0.3308319
-0.1226858,0.7773251,0.6599789,0.02319025,0.003497354,-0.00474443,0.05663787,-0.04639098,0.3294859
-0.1211551,0.7743736,0.6536342,0.02495096,0.001058901,-0.01097697,0.05375883,-0.05810411,0.3259681
-0.1181273,0.7714925,0.6553486,0.02814508,-0.001328923,-0.009138056,0.05481649,-0.06348614,0.3240328
-0.1175141,0.7710925,0.6580904,0.02886383,-0.00125532,-0.006260081,0.05381972,-0.06054207,0.320793
-0.1150279,0.7698412,0.6583124,0.03139742,-0.002052473,-0.005891111,0.05268932,-0.06001412,0.3178754
-0.1133416,0.7684452,0.6625048,0.0330755,-0.003013543,-0.001541656,0.05852786,-0.06266088,0.3139042
-0.1145413,0.7666498,0.662979,0.03181444,-0.004392928,-0.0009014735,0.06969936,-0.06573227,0.3077146
-0.1185903,0.7639535,0.6600395,0.02765319,-0.006691659,-0.003666934,0.0847869,-0.07308617,0.3058467
-0.1223554,0.7639524,0.6595234,0.02372756,-0.006313092,-0.004002016,0.0831853,-0.07611539,0.3053003
-0.1205827,0.7661723,0.6596065,0.02529396,-0.003730897,-0.003731597,0.0762364,-0.07495737,0.3021637
-0.1183786,0.7653437,0.6609371,0.02724851,-0.004214051,-0.002208274,0.07998451,-0.07427121,0.2988641
-0.1179454,0.7653975,0.6613643,0.02739156,-0.003831169,-0.001583596,0.07823708,-0.07366284,0.297873
-0.1176227,0.7694278,0.6607571,0.02738583,0.0005124495,-0.001989463,0.08082881,-0.07671456,0.2960546
-0.1167056,0.7716769,0.6593236,0.02793833,0.003059271,-0.003218471,0.0856602,-0.08007046,0.2897053
-0.112743,0.7713253,0.6539222,0.03150255,0.002990224,-0.008412728,0.08040032,-0.07703907,0.2849329
-0.1100168,0.7712202,0.6497297,0.03379839,0.00315259,-0.01239603,0.0775237,-0.06987524,0.2854318
-0.1119085,0.7718542,0.6513605,0.0314463,0.004039133,-0.01055414,0.07506668,-0.06628692,0.2850409
-0.1132316,0.7691191,0.6541615,0.02963455,0.001541998,-0.007540268,0.07428626,-0.06869001,0.2776812
-0.1113,0.7648972,0.6544302,0.03105094,-0.002456396,-0.007057312,0.07600323,-0.07318265,0.270165
-0.1105827,0.7669564,0.654285,0.03122843,-0.0001875117,-0.006986997,0.0710437,-0.07431597,0.2699766
-0.1116344,0.7694058,0.6531827,0.02961387,0.002458162,-0.007872968,0.06932502,-0.07239819,0.2697761
-0.1120673,0.7694879,0.652473,0.02859667,0.002723397,-0.008365668,0.0720375,-0.06897443,0.2670065
-0.1137971,0.7719511,0.6576147,0.02626284,0.005356936,-0.003006641,0.07288108,-0.06176473,0.2630372
-0.1152979,0.7732364,0.6613292,0.02413997,0.006800113,0.0009252524,0.07335017,-0.0616238,0.2594523
-0.1152899,0.7729982,0.660733,0.02350961,0.006707418,0.000545858,0.07359834,-0.07664977,0.2614341
-0.1145166,0.7719321,0.6624085,0.02362986,0.005774724,0.002437119,0.07881463,-0.08353103,0.2607585
-0.1106824,0.7704237,0.6620345,0.026798,0.004387719,0.002277165,0.08391381,-0.05550871,0.2535055
-0.107343,0.7693658,0.6621999,0.02945966,0.003439535,0.002654393,0.0844871,-0.02596551,0.2484827
-0.109683,0.7668376,0.6676115,0.02643164,0.001009743,0.008275,0.08654224,-0.04252231,0.2470988
-0.1120172,0.7660355,0.6698957,0.02340044,0.00029513,0.01076468,0.08567215,-0.0580282,0.2461929
-0.1082481,0.7667536,0.6643622,0.02646459,0.001090341,0.005432459,0.07760818,-0.0411903,0.243709
-0.1054625,0.7706532,0.655913,0.02853858,0.005057107,-0.002820268,0.06865716,-0.0384078,0.2434145
-0.1079081,0.777191,0.6539648,0.02537584,0.01165253,-0.004577153,0.06781807,-0.03618234,0.2420078
-0.1099072,0.7739711,0.6569082,0.02265492,0.008480851,-0.001447541,0.07058656,-0.02580323,0.2336168
-0.1114675,0.769695,0.6583459,0.02036938,0.004243556,0.000171221,0.06919545,-0.03362449,0.2305449
-0.1114039,0.7733782,0.6611688,0.01970525,0.00795648,0.003169956,0.06999501,-0.03360294,0.231831
-0.1085864,0.7721446,0.6620096,0.0217937,0.006743677,0.004181163,0.07188966,-0.02960926,0.2288325
-0.1080426,0.7692806,0.6601895,0.02160816,0.003891901,0.002525841,0.0701472,-0.03538994,0.2288027
-0.1085532,0.7689246,0.6604431,0.02036891,0.003539784,0.002938422,0.06739733,-0.03559943,0.2263906
-0.1093375,0.7671322,0.6598175,0.01885742,0.001743328,0.00246577,0.0636718,-0.04015112,0.218429
-0.111084,0.7684461,0.6603426,0.01638607,0.003045739,0.003137655,0.06219481,-0.04078907,0.2129323
-0.1112665,0.7693856,0.662588,0.01548209,0.003966679,0.005523578,0.06444214,-0.03719517,0.208434
-0.1114778,0.7688624,0.6619444,0.01455345,0.003418276,0.005014124,0.06525995,-0.04108303,0.2085301
-0.1132145,0.7691763,0.6620877,0.01210444,0.003700698,0.005284961,0.06427261,-0.03642604,0.210052
-0.1161653,0.7675982,0.6654787,0.008447343,0.002085095,0.008796777,0.064095,-0.03279534,0.2046661
-0.1175785,0.76875,0.6677126,0.006334839,0.003194005,0.0111446,0.06372415,-0.03763177,0.2007026
-0.1162999,0.7703499,0.6658272,0.006922118,0.00474574,0.009365813,0.06298901,-0.03994509,0.1982734
-0.1165409,0.7687828,0.661639,0.005998669,0.003125611,0.005276826,0.06328455,-0.04312644,0.1949302
-0.1169881,0.7687914,0.6589659,0.004878836,0.0030766,0.002695269,0.06351859,-0.04744699,0.194516
-0.1160307,0.7690451,0.6603926,0.005174256,0.00326852,0.004206044,0.06312514,-0.05148601,0.1930547
-0.1150104,0.7702273,0.6643154,0.005544077,0.004384943,0.00820545,0.06286097,-0.04680486,0.1945305
-0.1131831,0.7713085,0.6661409,0.006732934,0.00539672,0.01010018,0.06355313,-0.03663178,0.1981756
-0.1124935,0.7686968,0.666627,0.006796711,0.002712252,0.01064793,0.06577863,-0.03666653,0.1952913
-0.1117041,0.767392,0.6657299,0.006973442,0.001331373,0.009804795,0.0670752,-0.03534125,0.1906564
-0.1095317,0.7685288,0.6616142,0.008546703,0.002389282,0.005735331,0.06514577,-0.02801959,0.1839224
-0.1104036,0.7704905,0.6594302,0.007089327,0.004269483,0.003589896,0.062339,-0.02658923,0.1749085
-0.1144352,0.7740046,0.6598109,0.002486249,0.007699713,0.004001555,0.06225855,-0.03209215,0.1743261
-0.1173005,0.7756057,0.6605388,-0.0009363155,0.009214797,0.004753163,0.06301534,-0.04069024,0.1762181
-0.1144517,0.7732334,0.6611033,0.00137004,0.00675417,0.005334362,0.06186099,-0.03961701,0.1734345
-0.109917,0.7710159,0.658311,0.005377227,0.004446113,0.0025519,0.06158393,-0.03214364,0.1763053
-0.1116705,0.7714709,0.6561285,0.003111555,0.00480836,0.000372734,0.06275172,-0.03514631,0.1793589
-0.1127181,0.7704437,0.6578048,0.001567164,0.003686487,0.002046224,0.06529906,-0.03781261,0.1753191
-0.1098057,0.767391,0.6589743,0.003998289,0.0005374458,0.003207043,0.06862211,-0.03105202,0.1720258
-0.1093426,0.7654025,0.6588105,0.003995555,-0.001548981,0.003029195,0.06692155,-0.01885858,0.1624662
-0.1089643,0.7646285,0.6610333,0.003923487,-0.002421973,0.005232615,0.06450394,-0.01164596,0.1514241
-0.1111926,0.7660648,0.6654471,0.001260179,-0.00108527,0.009622051,0.06770019,-0.04082331,0.1535561
-0.1156954,0.7682244,0.6649772,-0.003662197,0.0009743729,0.009122879,0.06902847,-0.07545315,0.1550218
-0.1140617,0.7697744,0.6593309,-0.002432687,0.002424566,0.003442329,0.06794031,-0.05011362,0.1508276
-0.1128402,0.7706677,0.6555157,-0.001599825,0.003218178,-0.0004119672,0.07049106,-0.01793236,0.1497102
-0.1149199,0.7716124,0.6563526,-0.004052564,0.004063589,0.0003815277,0.07236308,-0.02831378,0.14843
-0.1145546,0.7754159,0.6580433,-0.00404467,0.007768167,0.002024633,0.06910985,-0.0379878,0.1474741
-0.1147256,0.7760602,0.656479,-0.004557392,0.00831381,0.0004091937,0.06485333,-0.04567615,0.1474363
-0.1131781,0.7727707,0.6571235,-0.003335932,0.004925862,0.0009991714,0.06355746,-0.0459134,0.1446291
-0.1097284,0.7701678,0.6603827,-0.0001966569,0.002224692,0.004200853,0.05995023,-0.03172863,0.1426121
-0.1109913,0.7654054,0.6612983,-0.001754535,-0.002635836,0.005056203,0.05324838,-0.03676042,0.1424888
-0.1119123,0.7666489,0.6616223,-0.002955338,-0.001489879,0.005317368,0.05240217,-0.03731107,0.1396418
-0.1107971,0.7720192,0.6607475,-0.002104907,0.003783518,0.004377158,0.05419838,-0.02953783,0.1357383
-0.1132747,0.7699505,0.6609146,-0.004832433,0.001618759,0.004476553,0.05389252,-0.03135864,0.1330366
-0.1158963,0.7679192,0.6613536,-0.007689542,-0.000507511,0.004845508,0.05563476,-0.02266077,0.1317368
-0.1171744,0.7668838,0.6587302,-0.009188571,-0.001636749,0.002149928,0.05607315,-0.02105797,0.1315604
-0.1185974,0.7675269,0.6578686,-0.01081808,-0.001086067,0.001214247,0.05535426,-0.02330866,0.1288776
-0.118156,0.7718533,0.6572141,-0.01056874,0.003149467,0.0004839221,0.05733411,-0.01678079,0.1265965
-0.1175622,0.7702262,0.6557391,-0.01015248,0.001433124,-0.001068361,0.05738519,-0.0177221,0.1257836
-0.1173687,0.7691161,0.6554687,-0.01012209,0.0002354551,-0.001417105,0.05472811,-0.01846439,0.1217822
-0.1160145,0.7709829,0.6547212,-0.008916573,0.002016451,-0.002243633,0.05218029,-0.02035463,0.1178889
-0.1146858,0.7688971,0.6532442,-0.007722351,-0.0001533367,-0.003800081,0.05162901,-0.01664321,0.1156589
-0.1141817,0.7691617,0.6516977,-0.00733872,2.914608e-05,-0.005426029,0.05309994,-0.01011705,0.1139438
-0.1162102,0.769983,0.6571114,-0.009473974,0.0007702478,-9.12469e-05,0.05376943,-0.0184367,0.1132641
-0.1190547,0.7688419,0.6638768,-0.01241179,-0.0004489864,0.006595893,0.05430586,-0.02166276,0.1115983
-0.117439,0.7685718,0.6602697,-0.01087612,-0.0007951669,0.002911318,0.05210249,-0.01750296,0.1090196
-0.1157246,0.7668774,0.6580569,-0.009228605,-0.002563539,0.0006217973,0.04948233,-0.01644121,0.1061868
-0.118217,0.766372,0.6607548,-0.01177504,-0.00314051,0.003243741,0.05213642,-0.01632104,0.1041821
-0.1195827,0.767791,0.6596424,-0.0131821,-0.001790747,0.002056183,0.05171154,-0.01742114,0.1029308
-0.1200478,0.7679549,0.6595967,-0.01367613,-0.001693403,0.001936214,0.05016633,-0.01695023,0.1010468
-0.1203719,0.7663233,0.6620417,-0.01401675,-0.003388917,0.00430774,0.04907321,-0.01829447,0.09958111
-0.1180962,0.764907,0.6633151,-0.01174533,-0.004866209,0.00550852,0.03869861,-0.01505673,0.0967247
-0.1171637,0.7675062,0.6644468,-0.01080526,-0.00232513,0.006568322,0.03317533,-0.01107626,0.09329674
-0.1166554,0.7717069,0.6630267,-0.01027764,0.001820454,0.005076866,0.0423655,-0.01856323,0.09070162
-0.1145906,0.7725859,0.6595246,-0.008182221,0.00264741,0.001503893,0.05118792,-0.0236282,0.08848277
-0.1153992,0.7703878,0.6607889,-0.008949285,0.0004001381,0.00269779,0.04874465,-0.02132743,0.09006373
-0.1177482,0.7684435,0.6641628,-0.01124627,-0.001590562,0.006001602,0.04282514,-0.0210539,0.09106909
-0.1193712,0.768544,0.6635247,-0.01280728,-0.001533903,0.005293925,0.04722655,-0.02409347,0.0920214
-0.1208191,0.7678446,0.661623,-0.01418332,-0.002274463,0.003322856,0.05348926,-0.02626299,0.0946856
-0.120088,0.7658099,0.6590945,-0.0133708,-0.004347536,0.0007252133,0.05507045,-0.02674466,0.09066375
-0.1162854,0.7650196,0.6579309,-0.009477433,-0.005173525,-0.0005071233,0.05571682,-0.02386559,0.08778724
-0.1140068,0.7651128,0.6628298,-0.007099062,-0.005113054,0.00432337,0.05306731,-0.01666448,0.08108637
-0.1208119,0.7654262,0.6679507,-0.01379592,-0.004829329,0.00937634,0.05525456,-0.02200082,0.06717626
-0.1300295,0.7653484,0.6682034,-0.02289696,-0.004933651,0.009561422,0.05774082,-0.04395322,0.07078291
-0.1272604,0.7650664,0.6637165,-0.02000307,-0.005238854,0.005006853,0.05301976,-0.05754184,0.07510017
-0.1189173,0.7659906,0.654657,-0.01152701,-0.004334617,-0.00412044,0.04942373,-0.03784385,0.06828611
-0.1155343,0.7679299,0.6505512,-0.008002893,-0.002411832,-0.008293968,0.04530732,-0.007106341,0.07090339
-0.1157926,0.7692472,0.6592403,-0.0081123,-0.001107647,0.0003278097,0.04505616,-0.01314832,0.07011221
-0.11784,0.76549,0.668546,-0.01000373,-0.004874796,0.009566916,0.0473475,-0.02933162,0.06747239
-0.1177159,0.760714,0.6647565,-0.009716933,-0.009657399,0.005711533,0.04447242,-0.02829448,0.06992554
-0.1183968,0.7641077,0.6578625,-0.01022883,-0.006266929,-0.00124792,0.04580523,-0.03259992,0.0655254
-0.1207894,0.7674123,0.6573572,-0.01244654,-0.0029621,-0.001818079,0.04865609,-0.03634558,0.06398356
-0.1190356,0.7664563,0.6596764,-0.01051235,-0.003914374,0.0004368684,0.05053872,-0.04731274,0.06289606
-0.120037,0.7693196,0.6668051,-0.01132813,-0.001043947,0.007502094,0.05402928,-0.05672315,0.0586776
-0.121923,0.7705301,0.6702745,-0.01302357,0.0001770028,0.01090876,0.05196226,-0.0454972,0.0595641
-0.1201146,0.7684193,0.6670922,-0.01101988,-0.001920297,0.007664064,0.05071701,-0.04420755,0.0566357
-0.121079,0.7687839,0.6685319,-0.01178466,-0.00153937,0.009041538,0.05227752,-0.04529154,0.05324067
-0.1208062,0.7682177,0.6680238,-0.0113081,-0.002086517,0.008470969,0.05136472,-0.04476223,0.05498326
-0.1197173,0.7685819,0.6660732,-0.01001159,-0.001700758,0.006457423,0.05252584,-0.05378235,0.05496591
-0.1205362,0.7709902,0.6665511,-0.01061928,0.0007313811,0.006871683,0.05373387,-0.04855483,0.05579864
-0.1206279,0.7699116,0.6598049,-0.01049652,-0.000321099,6.119205e-05,0.05412617,-0.03989154,0.05598047
-0.1213067,0.7676904,0.6546864,-0.01095784,-0.002514364,-0.005122227,0.05389899,-0.03856912,0.05414606
-0.120246,0.766108,0.6598773,-0.009676931,-0.004066919,3.372322e-06,0.04954104,-0.04362636,0.05520425
-0.1183157,0.7652017,0.6625567,-0.007524052,-0.00494164,0.002617308,0.04701038,-0.0520952,0.05546489
-0.1153056,0.7681092,0.6575076,-0.00428929,-0.002000808,-0.002497045,0.04753481,-0.04179692,0.05189016
-0.1125595,0.7714465,0.6548368,-0.001316804,0.001371395,-0.005232802,0.04476823,-0.03025063,0.04609
-0.1151277,0.7710219,0.6558023,-0.003657691,0.0009833121,-0.004331655,0.04065657,-0.03117333,0.04258727
-0.1158441,0.7694815,0.6557597,-0.004146167,-0.0005193203,-0.004437616,0.03856699,-0.03099212,0.04668198
-0.1138169,0.7693311,0.6578041,-0.001891072,-0.0006309425,-0.002455328,0.03528565,-0.03178112,0.04956399
-0.1142346,0.769476,0.6608622,-0.002081328,-0.0004463503,0.0005423232,0.03263082,-0.03128687,0.03983228
-0.1164266,0.7695764,0.6627645,-0.004046759,-0.00030557,0.00238573,0.04165842,-0.03387749,0.02934738
-0.1217962,0.7704227,0.6637435,-0.009191123,0.00058178,0.003307467,0.05711792,-0.04469321,0.03274922
-0.1252262,0.770857,0.6639716,-0.01239732,0.001057551,0.003479808,0.06238033,-0.05088496,0.04003444
-0.1231911,0.7700491,0.6651064,-0.01013979,0.0002913279,0.004560244,0.06428212,-0.0421676,0.0428089
-0.1208569,0.7690383,0.6646201,-0.00758465,-0.0006777277,0.004020834,0.06971664,-0.03318752,0.0432004
-0.1184018,0.7687921,0.6612052,-0.004910017,-0.000882068,0.0005539386,0.06474863,-0.04514862,0.03787969
-0.1146242,0.7667507,0.6558736,-0.0009144972,-0.002881882,-0.004828579,0.04774669,-0.05178116,0.03272215
-0.1129815,0.7624226,0.6531532,0.0009441024,-0.007168368,-0.007598653,0.03126386,-0.02839136,0.03209561
-0.1146048,0.7620109,0.6548663,-0.0004657138,-0.007538332,-0.005933646,0.02497564,-0.004167372,0.02904028
-0.1168087,0.7652251,0.656989,-0.002458761,-0.004282154,-0.003857209,0.0307937,0.001804955,0.0276444
-0.1185931,0.7674836,0.6653209,-0.00403554,-0.001981269,0.004430612,0.03525928,-0.001241937,0.03221993
-0.1185242,0.7686592,0.674412,-0.003762192,-0.00076286,0.01347958,0.03514045,-0.00872778,0.03577816
-0.1168865,0.768076,0.6696423,-0.001923481,-0.001302873,0.008669361,0.03898616,-0.01453359,0.03457746
-0.1156165,0.7671536,0.6598501,-0.0004559513,-0.00218166,-0.001162179,0.03933811,-0.000348398,0.03173532
-0.1138115,0.765534,0.6555008,0.001542639,-0.003757409,-0.005549886,0.03977852,0.01486076,0.02759481
-0.116371,0.7620609,0.6562933,-0.0008271859,-0.007186389,-0.004794748,0.04807085,-0.009999091,0.02090965
-0.1225209,0.7627001,0.6599376,-0.006791739,-0.006502611,-0.001186369,0.05062936,-0.03286972,0.01803971
-0.1229383,0.7676856,0.6601242,-0.007028057,-0.001472027,-0.001034172,0.04120463,-0.01625396,0.0201751
-0.1215011,0.7703492,0.6591593,-0.005413882,0.001237307,-0.002031895,0.02659904,-0.01001026,0.02118252
-0.121603,0.7689448,0.6604159,-0.005342824,-0.0001208269,-0.0008065288,0.02144527,-0.02061708,0.02105924
-0.1195596,0.767607,0.6603718,-0.003130376,-0.00141209,-0.0008801926,0.02676767,-0.01973544,0.01967289
-0.1162637,0.7708583,0.6612547,0.0003307068,0.001885847,-2.519303e-05,0.02761316,-0.01877725,0.01700211
-0.1124595,0.7732073,0.6616248,0.004296008,0.004281626,0.0003185673,0.02935933,-0.01828761,0.01582728
-0.1113176,0.7697846,0.6606227,0.005594854,0.0009053574,-0.0007081416,0.03234306,-0.01272699,0.01672237
-0.1126217,0.7666094,0.6623941,0.004443047,-0.002223855,0.001040163,0.02951383,-0.01067741,0.01790378
-0.1148444,0.7654359,0.6628119,0.00236769,-0.003351892,0.001436366,0.02659089,-0.01047435,0.01732203
-0.1192088,0.7651282,0.6611695,-0.001854455,-0.00361459,-0.0002262765,0.02457178,-0.005042036,0.01586823
-0.1172685,0.7663334,0.6573983,0.0002228662,-0.002364846,-0.004016365,0.02937666,0.01147087,0.01243785
-0.1133736,0.7669311,0.6526454,0.004249683,-0.001722874,-0.00878675,0.03660572,0.02399903,0.007719565
-0.1183582,0.7667062,0.6556284,-0.0006083512,-0.001903953,-0.005819507,0.03327602,0.006846625,0.006559698
-0.1220404,0.7670812,0.6594872,-0.004169164,-0.0014854,-0.001974609,0.03061927,-0.01093234,0.006273773
-0.1232203,0.7697261,0.6572945,-0.005232774,0.001202677,-0.004179175,0.0328669,0.0004332451,0.004354663
-0.1255727,0.7733605,0.6571014,-0.007473761,0.004879842,-0.004381944,0.03107891,0.005646289,0.003253995
-0.1246508,0.7734375,0.6589581,-0.006444801,0.004998898,-0.002532906,0.02927693,-0.001820688,0.002774601
-0.1250328,0.7714597,0.6606001,-0.006723928,0.00306213,-0.0008962671,0.0279594,0.0008871202,0.002785983
-0.1253518,0.7703983,0.6623902,-0.006943808,0.002040513,0.0008906852,0.02522416,-0.002738293,0.00401296
-0.1244383,0.7669014,0.6605749,-0.005934448,-0.001417926,-0.0009257786,0.02430275,-0.009197412,0.006122642
-0.1254863,0.7611579,0.6591395,-0.006889757,-0.007124228,-0.002360523,0.01788203,-0.001650791,0.00626393
-0.1248045,0.7608909,0.6622027,-0.006117922,-0.007355302,0.0007052015,0.004426667,0.002856405,0.003972306
-0.1246782,0.7662508,0.6647613,-0.005904137,-0.001960306,0.003268063,-0.0001450311,0.0007046422,0.003380816
-0.1244792,0.7695132,0.6669244,-0.005619847,0.001336537,0.005436806,0.01089616,-0.0006733753,0.003239012
-0.1229262,0.7692408,0.6659693,-0.003983631,0.001097862,0.004488555,0.02129138,-0.002126772,0.002520031
-0.1239604,0.7689763,0.6620275,-0.004936413,0.0008663269,0.000554399,0.01726107,0.001480358,0.003758756
-0.1246593,0.7698635,0.6632527,-0.005555551,0.001785608,0.001787824,0.01523148,0.005118512,0.002433256
-0.1250126,0.7691447,0.6603583,-0.005830517,0.001097993,-0.001097924,0.02142774,0.00103737,-0.002558703
-0.1253409,0.7663408,0.654182,-0.006081952,-0.001675678,-0.007265064,0.01942396,-0.005979845,-0.004798585
-0.1249945,0.7620975,0.6563066,-0.005659741,-0.005889858,-0.00513077,0.01780881,-0.008704976,-0.005889061
-0.1269525,0.758144,0.6565961,-0.007542893,-0.009814966,-0.004830783,0.02033498,-0.00365677,-0.008789986
-0.1283827,0.7608779,0.6564028,-0.008898915,-0.007053087,-0.005012652,0.01905581,0.002865953,-0.006138811
-0.1277974,0.7652652,0.6610459,-0.008240013,-0.002637962,-0.0003570815,0.02147917,0.001735235,0.003295039
-0.1272143,0.7647018,0.6632879,-0.007583377,-0.003173415,0.001898574,0.02184935,-0.005441148,0.006691341
-0.1264154,0.7629402,0.6666119,-0.00671103,-0.004906886,0.005237125,0.0200678,-0.0106312,0.000450819
-0.1263573,0.7607143,0.6687121,-0.006579283,-0.007104307,0.007352501,0.02267847,-0.01011512,-0.004668769
-0.1281092,0.7635141,0.6647141,-0.008257218,-0.004275589,0.003369971,0.02063544,-0.009010566,-0.004290867
-0.129408,0.7690516,0.6599168,-0.009481629,0.001291487,-0.001411838,0.01952814,-0.01503323,-0.001365697
-0.1283085,0.7679873,0.6558157,-0.00830693,0.0002573766,-0.005497513,0.02337944,-0.02240982,0.00163193
-0.1256924,0.7665808,0.6561155,-0.005614803,-0.001118445,-0.005182377,0.02299895,-0.01876768,-0.001388064
-0.1199828,0.7657697,0.6606788,0.0001717353,-0.001898415,-0.000603494,0.01800178,-0.002350434,-0.01113368
-0.1175299,0.7636248,0.6625699,0.002702338,-0.004011912,0.001303465,0.01495733,0.005383119,-0.01730713
-0.1265214,0.7639465,0.6642723,-0.006210786,-0.003658368,0.003021964,0.02399189,-0.03087807,-0.01494621
-0.1333396,0.7642099,0.6644351,-0.01295033,-0.003362709,0.003200885,0.03393901,-0.06932735,-0.01029399
-0.1288626,0.7652421,0.6608321,-0.008394019,-0.002297712,-0.0003861601,0.02628466,-0.04104677,-0.01027611
-0.1258626,0.765816,0.6601023,-0.005313797,-0.001690552,-0.001100143,0.01822789,-0.01362208,-0.01017285
-0.1284574,0.7641878,0.6596188,-0.007827561,-0.003284831,-0.001568197,0.02191015,-0.03572309,-0.007592235
-0.1280998,0.7654707,0.6592026,-0.007387859,-0.001967584,-0.001968984,0.02337934,-0.03721692,-0.009674597
-0.1260034,0.7679261,0.6603062,-0.005208262,0.0005225782,-0.0008502564,0.02269376,-0.02880505,-0.01041837
-0.1265028,0.7694139,0.6584949,-0.005623338,0.00204565,-0.002646446,0.02351898,-0.03723815,-0.008162388
-0.1254048,0.7713448,0.6589604,-0.004440014,0.004011981,-0.002165843,0.02204778,-0.03047522,-0.008681112
-0.1239367,0.7700618,0.6603297,-0.002885571,0.002764363,-0.0007815102,0.02030341,-0.03265801,-0.008309568
-0.1223353,0.7643731,0.659414,-0.001196903,-0.002889155,-0.001681986,0.02004249,-0.04183881,-0.01014586
-0.118004,0.7609588,0.6604481,0.003222267,-0.00626863,-0.0006326115,0.02241873,-0.03581252,-0.01248204
-0.1172519,0.7633887,0.6622824,0.004062695,-0.003804197,0.001217024,0.02308617,-0.03503368,-0.01313203
-0.1191183,0.7649789,0.664696,0.002284489,-0.002179389,0.003646048,0.02161972,-0.03241084,-0.01666811
-0.1205867,0.7633572,0.6649263,0.0009037882,-0.003766541,0.0038915,0.02508848,-0.03631609,-0.01848797
-0.123008,0.7637579,0.6656419,-0.001430552,-0.003331202,0.004622017,0.02670144,-0.04805042,-0.01940343
-0.1225941,0.7645206,0.669486,-0.0009306284,-0.002533711,0.008480392,0.02686007,-0.0440929,-0.01860864
-0.1217553,0.7643805,0.667427,-6.894656e-06,-0.002638749,0.006434672,0.02926382,-0.04291922,-0.01356826
-0.1236179,0.7656945,0.6626052,-0.001785658,-0.001289492,0.001624972,0.02398594,-0.04518999,-0.01163883
-0.1248537,0.7656849,0.6616169,-0.002938978,-0.001263641,0.0006474077,0.01830667,-0.04388291,-0.01643005
-0.1251155,0.7660555,0.6656845,-0.003119562,-0.0008574325,0.004724258,0.02070138,-0.04940915,-0.02235701
-0.1245752,0.7687226,0.6708399,-0.002499268,0.001845405,0.009887443,0.02348078,-0.05118447,-0.01764785
-0.1221751,0.7684042,0.664613,-2.045744e-05,0.001562794,0.003666479,0.02544376,-0.04636022,-0.0118036
-0.1196889,0.7668737,0.6567951,0.002543096,6.783818e-05,-0.004147314,0.02774266,-0.04189339,-0.01573632
-0.1188155,0.7680467,0.6573327,0.003492369,0.001276014,-0.003607445,0.02755644,-0.04327117,-0.01590708
-0.1174738,0.7686143,0.6538539,0.004908183,0.001878362,-0.007085474,0.02584873,-0.04651501,-0.01715276
-0.1149248,0.7677032,0.6526696,0.007529239,0.001001476,-0.008270156,0.02469695,-0.04431513,-0.02173845
-0.113566,0.7678008,0.6577264,0.008957648,0.001132556,-0.003214374,0.0214081,-0.04181845,-0.01940649
-0.114505,0.7674853,0.6569836,0.008085476,0.0008497518,-0.003958586,0.0188761,-0.03799983,-0.01888635
-0.1159052,0.7661101,0.6563006,0.0067488,-0.0004935642,-0.004643108,0.02098812,-0.03822907,-0.02027642
-0.1153332,0.7673406,0.6567739,0.007380799,0.0007678361,-0.004171133,0.02285767,-0.04102959,-0.02000967
-0.114859,0.7706043,0.6546165,0.007911088,0.004061547,-0.00632953,0.02455861,-0.0351994,-0.02186804
-0.1156337,0.7729472,0.655764,0.007188416,0.006433312,-0.005182487,0.02460239,-0.03391342,-0.02098812
-0.1153791,0.7728324,0.6560765,0.007490596,0.006345991,-0.004869544,0.02213479,-0.04091306,-0.01673593
-0.1161717,0.7710656,0.6558867,0.006741174,0.004605037,-0.005057866,0.02275832,-0.04529282,-0.01412963
-0.1181079,0.7706683,0.6582441,0.004843385,0.004231696,-0.00269781,0.02250584,-0.04363161,-0.01350913
-0.1176932,0.7692786,0.6594834,0.005291776,0.002863962,-0.001454476,0.02080031,-0.03859008,-0.01413615
-0.1151441,0.7686064,0.6618642,0.007869719,0.002211576,0.0009315813,0.02172912,-0.03851868,-0.01626482
-0.1112852,0.7703243,0.6626761,0.01175261,0.003947161,0.001750021,0.02461752,-0.03857731,-0.01547529
-0.1073978,0.7687937,0.6620386,0.01565893,0.002431945,0.001120083,0.02857814,-0.03369374,-0.01430906
-0.1055201,0.7673139,0.6637887,0.01755002,0.0009653818,0.002878685,0.02743387,-0.02082034,-0.020925
-0.1087489,0.7671381,0.662977,0.01432867,0.0008005704,0.002076078,0.02437947,-0.008540596,-0.02717311
-0.1148528,0.7680177,0.6604102,0.008225946,0.001689021,-0.0004810471,0.02379751,-0.02747824,-0.0281298
-0.114687,0.7724312,0.6574226,0.008386468,0.006109217,-0.003458603,0.01792057,-0.04872919,-0.02940568
-0.1127801,0.7727427,0.6553868,0.0102817,0.006425325,-0.005483789,0.01186826,-0.02960657,-0.0303475
-0.1151119,0.7702942,0.6607279,0.007931765,0.003978983,-0.0001316108,0.008469098,-0.009861508,-0.0295548
-0.1164929,0.7690472,0.665886,0.006526344,0.002731835,0.005038262,0.004243066,-0.01129279,-0.02647964
-0.1181355,0.766309,0.6622496,0.004853031,-8.845208e-06,0.001414073,0.00742891,-0.01389093,-0.02142786
-0.1167743,0.766713,0.6595464,0.006177605,0.0003903352,-0.001276729,0.01198282,-0.01770527,-0.01489524
-0.1118948,0.7688703,0.6626498,0.01101476,0.002540612,0.001839349,0.01026335,-0.01293397,-0.01239843
-0.1120279,0.7696574,0.6631488,0.01083354,0.003318641,0.002351109,0.009783061,-0.005027557,-0.01624518
-0.1120502,0.7698573,0.6623947,0.01075759,0.003507483,0.001609751,0.009386079,-0.01126637,-0.01664645
-0.1104118,0.7689656,0.6655232,0.01233662,0.002602684,0.004750769,0.008316259,-0.01060922,-0.01438226
-0.1109788,0.7690584,0.667476,0.01170462,0.002680383,0.006715686,0.00771441,0.003666604,-0.01470617
-0.1093694,0.7666273,0.6674734,0.01324327,0.0002322705,0.006724551,0.005722808,0.01663342,-0.01810435
-0.1076497,0.7622746,0.6699261,0.01488645,-0.004139257,0.009187717,0.007234721,0.02086647,-0.02272053
-0.1089865,0.7628684,0.6724799,0.01346723,-0.003565817,0.01175066,0.009976337,0.01490213,-0.02138214
-0.112181,0.7675959,0.6668027,0.01018445,0.00114019,0.006080718,0.007779464,0.01494888,-0.02011414
-0.1148864,0.7726163,0.6547501,0.007385009,0.006137937,-0.005966673,0.002742595,0.01771091,-0.02260609
-0.1147097,0.7732054,0.6508756,0.007462052,0.006703366,-0.009837812,-8.572534e-05,0.0137569,-0.02125928
-0.1159621,0.7715865,0.6557875,0.006104611,0.005059624,-0.004924096,0.003586117,0.01152413,-0.01932763
-0.1191475,0.773308,0.6584104,0.002809205,0.006754957,-0.00230045,0.007184806,0.006718376,-0.01859439
-0.1179734,0.7741589,0.6568127,0.003868718,0.007578079,-0.003898106,0.004993412,0.00668621,-0.01919693
-0.1144558,0.7733101,0.6571242,0.00726763,0.006699933,-0.003587155,0.00346685,0.01054652,-0.02201568
-0.1135795,0.773684,0.6622804,0.008021471,0.007042589,0.00156822,0.002022998,0.005915875,-0.02125114
-0.1136968,0.7732997,0.6659705,0.007778061,0.006625014,0.005257143,-0.001076528,0.004224976,-0.01966438
-0.1139969,0.7715631,0.6657382,0.00734862,0.004853126,0.005023264,-0.001469736,0.003272364,-0.02081749
-0.1137364,0.7694732,0.6649208,0.007476494,0.002725695,0.004203755,-0.0014087,0.003567061,-0.02108979
-0.1117494,0.7689016,0.6649386,0.00932807,0.002114625,0.004218636,-0.001940866,0.0122559,-0.02157649
-0.1111535,0.7697809,0.6637682,0.009785614,0.00295241,0.003044338,-0.001195395,0.01487415,-0.02126048
-0.1127236,0.7694494,0.6577279,0.008074512,0.002577605,-0.003000828,-0.001069167,0.008671056,-0.01950313
-0.1145775,0.7688785,0.652925,0.006077099,0.001961756,-0.007809511,-0.001102235,0.003418756,-0.02116128
-0.1142432,0.7678835,0.6537801,0.00626543,0.0009201561,-0.006960748,0.0001052374,0.008243859,-0.02303039
-0.1138608,0.7656454,0.6547591,0.006499849,-0.001365995,-0.005988266,0.001469416,0.01434061,-0.02115087
-0.1179394,0.7651842,0.6544152,0.002271332,-0.001876258,-0.00633852,0.001011472,0.00733745,-0.01902697
-0.1203929,0.767086,0.6556337,-0.000333544,-2.455217e-05,-0.005125872,-0.0008643361,0.002471868,-0.0158573
-0.1185517,0.7710015,0.6580443,0.001355169,0.003840309,-0.002720345,-0.001170057,0.003690647,-0.01384471
-0.1176531,0.7737883,0.6582818,0.002100626,0.006575752,-0.002486928,-0.001413306,0.006910693,-0.01624831
-0.1189001,0.7717454,0.6597815,0.0007002552,0.004481022,-0.0009903893,-0.003750535,0.01155374,-0.01591151
-0.1190708,0.7703244,0.6623501,0.0003763261,0.003007417,0.001576127,-0.00429941,0.0005422701,-0.01375428
-0.1138432,0.7695868,0.6606705,0.005451184,0.002216531,-0.0001046011,0.001552936,-0.007239508,-0.01353827
-0.1092833,0.7671477,0.6598206,0.009858934,-0.0002765074,-0.0009547062,0.008296781,0.01473529,-0.01419898
-0.1117577,0.7688646,0.6601809,0.00723314,0.001385939,-0.0005938862,0.006256612,0.03371635,-0.02108486
-0.1168177,0.7704481,0.66048,0.002022427,0.002914598,-0.0002933804,0.003888115,0.02068592,-0.0261949
-0.1207734,0.7688354,0.6634993,-0.00208317,0.00124675,0.002728091,0.006879737,-0.0003326673,-0.01969968
-0.1211727,0.7693817,0.6639951,-0.002631198,0.00173776,0.003226716,0.003478692,-0.004912163,-0.01503491
-0.117634,0.7685882,0.6608024,0.0007603028,0.0008887555,3.722785e-05,-0.002787188,0.003716469,-0.02099078
-0.1147109,0.7665528,0.6580031,0.003537991,-0.001202076,-0.002758537,-0.00506256,0.01551996,-0.02631265
-0.115438,0.7665785,0.6584737,0.002667559,-0.001231767,-0.002283967,-0.00500992,0.01266454,-0.02414721
-0.1173991,0.7664356,0.6633553,0.0005653367,-0.001429634,0.002601951,-0.001004443,0.001645933,-0.02134451
-0.1183731,0.7658772,0.6692864,-0.0005475436,-0.002042537,0.008537675,0.0005534514,0.002093924,-0.0179489
-0.1183534,0.7649803,0.6711721,-0.0006642933,-0.002993189,0.01042808,-0.0004707035,0.001950559,-0.0144385
-0.1180209,0.7652555,0.6639188,-0.0004654095,-0.002770785,0.003179081,-0.0003136729,0.00318262,-0.01683785
-0.1199582,0.7665431,0.6547179,-0.002533459,-0.001534894,-0.006018267,-0.002028085,0.004947754,-0.01776566
-0.1208631,0.7666864,0.6544877,-0.003565934,-0.001441863,-0.006245362,-0.001655034,0.001652144,-0.0167146
-0.1165981,0.7668036,0.6564168,0.0005748573,-0.001373556,-0.004313626,-0.001696564,0.009147845,-0.02026508
-0.111367,0.7666034,0.6547692,0.0056853,-0.00162108,-0.005958545,-0.002904015,0.01577468,-0.02222768
-0.1106961,0.7665639,0.6532747,0.006238984,-0.001706228,-0.007450117,0.0001701146,0.01794521,-0.01974464
-0.1153485,0.7672253,0.6534745,0.001472671,-0.001088764,-0.007246773,0.001660184,0.01950553,-0.01727929
-0.1190346,0.7682773,0.6559146,-0.002324214,-7.882724e-05,-0.004802289,-0.000444402,0.01678388,-0.01774069
-0.1195132,0.770051,0.6565215,-0.002910299,0.001654555,-0.004189878,-0.002848872,0.02310775,-0.01828308
-0.121363,0.7697266,0.6546721,-0.004864072,0.001291516,-0.006032594,-0.003781925,0.02593898,-0.01844712
-0.1238315,0.7688803,0.6558631,-0.007432929,0.0004083597,-0.004833342,-0.004247423,0.02225311,-0.01992824
-0.1236789,0.7698006,0.6574786,-0.007376775,0.001293333,-0.003208131,-0.006625868,0.02169883,-0.01541453
-0.1214553,0.7696151,0.6592578,-0.005245191,0.001074159,-0.001417658,-0.008714223,0.01899756,-0.009709152
-0.1203611,0.770286,0.6624107,-0.004238448,0.001712691,0.001748145,-0.01287357,0.0227086,-0.01192079
-0.1204448,0.7722759,0.6609047,-0.004404842,0.003671673,0.0002565723,-0.01707994,0.02595114,-0.01289179
-0.1190096,0.7718921,0.6584565,-0.003047559,0.003258109,-0.002175986,-0.01465424,0.02290954,-0.01135754
-0.116618,0.7691036,0.6585617,-0.0007289007,0.0004408584,-0.002053982,-0.008944795,0.01789152,-0.01300644
-0.1160477,0.765271,0.6581937,-0.0002267288,-0.003419374,-0.00240403,-0.004745461,0.01174331,-0.01445719
-0.1169262,0.7635098,0.6599813,-0.001168635,-0.005207331,-0.0005973291,-0.004574173,0.01686587,-0.0162096
-0.116474,0.7640762,0.660109,-0.0007752637,-0.004666285,-0.00044948,-0.005558165,0.0238523,-0.01937356
-0.1179254,0.7636468,0.6574974,-0.002281061,-0.005119677,-0.003039961,-0.004811114,0.02202698,-0.02164996
-0.1207503,0.7630938,0.6586917,-0.005155943,-0.005694911,-0.00182363,-0.006219841,0.02161316,-0.02302257
-0.1200636,0.7634707,0.6616347,-0.004514939,-0.005338359,0.001142354,-0.00691563,0.02197886,-0.02220045
-0.1221989,0.7647816,0.6643075,-0.00669138,-0.004045703,0.003838874,-0.004704451,0.02006915,-0.02115042
-0.1262305,0.7659491,0.6662951,-0.01075954,-0.002894242,0.005850766,-0.004485631,0.01695983,-0.02266709
-0.1247117,0.7650967,0.6667691,-0.00927261,-0.003760442,0.006349176,-0.005859616,0.01534717,-0.02206493
-0.1232071,0.7653885,0.6656873,-0.007794989,-0.003479982,0.005291683,-0.008633929,0.02158083,-0.01821966
-0.1222194,0.7674438,0.6601927,-0.006829026,-0.00143372,-0.00017913,-0.01139149,0.02821066,-0.01565492
-0.1199555,0.7683382,0.6550048,-0.004581771,-0.0005459897,-0.005343895,-0.008562193,0.01922723,-0.01728256
-0.1217279,0.7683133,0.6560586,-0.006365543,-0.0005752883,-0.004267506,-0.005354966,0.005952502,-0.02266677
-0.1231016,0.7679588,0.6556615,-0.007745587,-0.0009320336,-0.004642347,-0.00639276,0.00434843,-0.02474409
-0.1222367,0.7689365,0.6501691,-0.006881903,4.545327e-05,-0.01011259,-0.006939471,0.004730281,-0.02035199
-0.1249991,0.7694459,0.6518669,-0.00964035,0.0005565599,-0.008392495,-0.007523532,0.003958322,-0.01605768
-0.1272024,0.7662063,0.662179,-0.01183444,-0.002679546,0.001942433,-0.007149209,0.0009573777,-0.01469848
-0.1241224,0.7626294,0.6659399,-0.00874001,-0.006251324,0.005726703,-0.003278686,0.001826233,-0.01473471
-0.1171838,0.7616056,0.6616581,-0.001781515,-0.007268149,0.001468623,0.0001494114,0.02476786,-0.01718638
-0.1135724,0.7618525,0.6605783,0.001854862,-0.00701226,0.0004126051,0.0002462391,0.04040554,-0.02308907
-0.1224758,0.7614323,0.6651459,-0.007018657,-0.007421374,0.005003997,-0.0006794911,0.01332208,-0.02828175
-0.1327039,0.7623958,0.665914,-0.01721235,-0.006444395,0.005795527,0.001025553,-0.01913128,-0.02323993
-0.1298251,0.7649053,0.6558205,-0.01429428,-0.003918948,-0.004275027,0.002289901,-0.01413249,-0.01526765
-0.1269865,0.7641672,0.6471627,-0.01141145,-0.004638659,-0.01291038,0.001274361,0.004194578,-0.01930673
-0.1306439,0.7639508,0.6542818,-0.0150193,-0.004834026,-0.005769082,-0.0004491492,0.008538153,-0.02127735
-0.1291196,0.765427,0.6635722,-0.01344007,-0.003334379,0.00354362,-0.002260441,0.007509776,-0.01726979
-0.1281987,0.7649231,0.660102,-0.01245868,-0.003812242,9.591914e-05,-0.001553999,-0.001438856,-0.02025398
-0.129429,0.7679639,0.6593593,-0.0136228,-0.0007430346,-0.0006242468,-0.004939441,-0.01042296,-0.0202213
-0.1240214,0.7718915,0.6658282,-0.008143279,0.003215239,0.005867174,-0.009732124,-0.007920901,-0.01857924
-0.1211827,0.7704911,0.6646284,-0.005226931,0.001847434,0.004689622,-0.005524791,-0.01178287,-0.02097562
-0.1240537,0.768288,0.6623177,-0.008014917,-0.0003213272,0.002400636,-0.003109389,-0.02232793,-0.02151541
-0.1258342,0.7657294,0.6643169,-0.00970718,-0.002844341,0.004420809,-0.005230982,-0.02792781,-0.02452652
-0.1252605,0.7623933,0.6654502,-0.009040217,-0.006143485,0.005574215,-0.003374061,-0.02532868,-0.02573048
-0.1242155,0.7610578,0.6699923,-0.007897151,-0.007440651,0.01013518,0.004082974,-0.02531015,-0.02739908
-0.1255532,0.7602417,0.6743715,-0.009132069,-0.008217037,0.01453171,0.01946551,-0.04155559,-0.03250949
-0.1250383,0.7607806,0.6732347,-0.008509983,-0.007636798,0.01341008,0.03430742,-0.05760145,-0.02856926
-0.1244637,0.7641711,0.6707072,-0.007823718,-0.004203162,0.01089509,0.03774352,-0.06076493,-0.02334345
-0.1258642,0.7662608,0.6661376,-0.009108469,-0.002068553,0.006334848,0.03396852,-0.05197705,-0.02324338
-0.125414,0.7651153,0.6616896,-0.008538624,-0.003167325,0.001892943,0.03063544,-0.04576463,-0.0214548
-0.1265638,0.7644679,0.6619026,-0.009564931,-0.003766348,0.002108556,0.02680147,-0.05326163,-0.01863158
-0.1251869,0.7666159,0.660605,-0.00806089,-0.001568403,0.0008103376,0.02170092,-0.05416938,-0.01458709
-0.1199132,0.7693068,0.65842,-0.002656562,0.001173835,-0.001378349,0.01857618,-0.04876233,-0.01444937
-0.1157777,0.7710394,0.6595676,0.001612614,0.002958993,-0.0002372827,0.01540444,-0.04430792,-0.01731009
-0.1122408,0.7725562,0.6564073,0.005285743,0.004529196,-0.003406719,0.01492779,-0.03812104,-0.01666665
-0.1127579,0.7725204,0.6540302,0.004906688,0.004547292,-0.00579515,0.01731701,-0.0376014,-0.01727355
-0.1154934,0.7708871,0.6623592,0.002310359,0.002967994,0.002520646,0.01701868,-0.04023337,-0.01602873
-0.1169817,0.7705831,0.6688176,0.0009616641,0.002717777,0.008964072,0.02203743,-0.0464739,-0.01344734
-0.1163954,0.770838,0.6626379,0.001687547,0.003025807,0.002767702,0.02795593,-0.04941822,-0.01545286
-0.1140163,0.7698332,0.6566498,0.00420568,0.002073437,-0.00323883,0.02103422,-0.04197789,-0.01500832
-0.1145848,0.7691977,0.6595119,0.003775155,0.001489256,-0.0003968486,0.0102343,-0.03594936,-0.0156268
-0.1143059,0.7695719,0.6573717,0.004190584,0.001913631,-0.002558544,0.001285185,-0.03221992,-0.01720883
-0.1139495,0.7704365,0.6516262,0.004681482,0.002827117,-0.008326636,-0.007363648,-0.02658512,-0.01277277
-0.1166328,0.771113,0.6553555,0.002130273,0.003550923,-0.004620658,-0.009656047,-0.02159469,-0.01247762
-0.1165912,0.771019,0.6603644,0.002301193,0.003502593,0.0003646626,-0.007630351,-0.02181611,-0.01503542
-0.1161527,0.7716192,0.665241,0.002866001,0.0041467,0.005217393,-0.00320396,-0.02257812,-0.01608336
-0.1146806,0.7725719,0.6707301,0.004460942,0.005141129,0.01068251,0.003719756,-0.0229375,-0.0172301
-0.1125464,0.7719498,0.669355,0.006714487,0.004558571,0.009282813,0.00489665,-0.03366098,-0.01196749
-0.1139904,0.7700453,0.6678739,0.005385767,0.002691274,0.007776312,0.006636264,-0.04216984,-0.007455014
-0.1114476,0.7681109,0.6640743,0.008039629,0.0007914356,0.003950156,0.0138244,-0.03674564,-0.008124199
-0.1085499,0.7676148,0.6546066,0.01104365,0.000327439,-0.005545427,0.00938924,-0.02633349,-0.008151579
-0.1120463,0.7686025,0.650504,0.007648562,0.001344676,-0.009676876,-0.003047293,-0.0189765,-0.007807044
-0.1142371,0.7701169,0.6498346,0.005553581,0.002886257,-0.01037581,-0.007162567,-0.01808456,-0.007050949
-0.1123743,0.7720753,0.650335,0.007506509,0.004869247,-0.009904802,-0.002303053,-0.01160119,-0.009074145
-0.105777,0.7719439,0.6550433,0.01418808,0.00475999,-0.005225204,0.00479852,0.01066787,-0.01325863
-0.09922311,0.7674528,0.6590342,0.02081995,0.0002885083,-0.001262119,0.0009251374,0.0304038,-0.0169845
-0.1032613,0.7645189,0.6617191,0.01685282,-0.002628516,0.00139618,-0.003315214,0.02238061,-0.01841792
-0.110911,0.7688049,0.6642271,0.009266773,0.001672026,0.003878874,0.002629608,0.007857837,-0.01486253
-0.1118148,0.7735933,0.6619825,0.008418781,0.006472533,0.00160999,0.001230981,0.01702734,-0.01191465
-0.1109195,0.7723134,0.6544381,0.009362002,0.005202449,-0.005957786,-0.00356912,0.02754791,-0.01057878
-0.1111869,0.7703226,0.6479938,0.009134621,0.003218926,-0.01242429,-0.009880369,0.03321037,-0.01066564
-0.1109316,0.7702496,0.6455446,0.00942199,0.00315071,-0.01489415,-0.0188657,0.0373879,-0.01244739
-0.1104081,0.7690071,0.6479497,0.009969766,0.001910335,-0.01250762,-0.01630347,0.03343708,-0.01134709
-0.1066101,0.7692042,0.6573892,0.01378397,0.002107157,-0.003084022,-0.01607922,0.04489757,-0.01131342
-0.1031679,0.7703541,0.6652532,0.01723445,0.003254353,0.00476704,-0.01999984,0.05349723,-0.01284368
-0.106952,0.7707915,0.6631565,0.01345031,0.003686578,0.002660026,-0.01553582,0.03812914,-0.01313405
-0.1117376,0.7728731,0.6582557,0.008656375,0.00576069,-0.002248616,-0.01355927,0.02159013,-0.01321799
-0.1115445,0.7726485,0.6558109,0.008832792,0.005526121,-0.004698988,-0.01299238,0.008765576,-0.0105211
-0.1111379,0.7714419,0.6522966,0.009214552,0.004307095,-0.008216432,-0.01204932,0.01554598,-0.008154677
-0.1143886,0.7727473,0.6522599,0.005931071,0.00559753,-0.008253965,-0.01305235,0.02803921,-0.00982332
-0.1179441,0.7718048,0.6575926,0.002335161,0.004637407,-0.002919314,-0.011126,0.02047874,-0.01223246
-0.1186761,0.7701394,0.659456,0.001555527,0.00295183,-0.001051379,-0.01044564,0.01831183,-0.01320316
-0.1179106,0.7698474,0.6622096,0.002266688,0.00263714,0.001709517,-0.008280598,0.01690898,-0.01375848
-0.1177933,0.7715959,0.6654805,0.002323558,0.004360438,0.004990113,-0.002628976,0.01347611,-0.013882
-0.1183717,0.7751304,0.6636259,0.001679004,0.007867328,0.003147218,-0.00186077,0.01622458,-0.01271698
-0.1179405,0.7747165,0.6657977,0.002038982,0.0074234,0.005332424,-0.004304039,0.00656009,-0.0111701
-0.1179216,0.7743516,0.6661175,0.001981879,0.007025788,0.005666925,-0.00537929,-0.001058318,-0.006911152
-0.1183288,0.7758695,0.6638658,0.001494419,0.008508402,0.003430741,-0.004683952,0.001768435,-0.003101139
-0.117626,0.7736768,0.6658518,0.002113176,0.006277539,0.005432868,-0.003547171,0.00695722,-0.005499858
-0.1172713,0.7703797,0.6620989,0.00238048,0.002939532,0.001696334,-0.003263853,0.01485585,-0.008284878
-0.1164591,0.7673729,0.6589355,0.003102251,-0.0001110499,-0.001450674,-0.002050683,0.01172013,-0.01105652
-0.1163711,0.767907,0.6600265,0.003097112,0.0003768845,-0.0003432986,-0.003264101,0.007556133,-0.0142082
-0.1169135,0.7710242,0.6581188,0.002459106,0.003445605,-0.00223477,-0.007136897,0.01215347,-0.01047807
-0.1155169,0.7694362,0.6535052,0.003758074,0.001807069,-0.006832024,-0.006752543,0.01474457,-0.005883305
-0.1150028,0.7705562,0.646453,0.004172558,0.002874654,-0.01386773,-0.006878155,0.01878091,-0.007737555
-0.1155397,0.7737716,0.647587,0.003534507,0.006035852,-0.01271661,-0.01163813,0.02014037,-0.01047986
-0.1164914,0.7717348,0.65257,0.002480204,0.003943225,-0.007715229,-0.01300082,0.01700449,-0.01140784
-0.1188054,0.7719267,0.6515265,6.229564e-05,0.004077586,-0.008738876,-0.01135048,0.01384291,-0.0121768
-0.1199949,0.7728092,0.6551396,-0.001231899,0.004900928,-0.005103941,-0.01089457,0.009033867,-0.01106099
-0.1195111,0.7717054,0.6603406,-0.000853298,0.003736558,0.0001207448,-0.009861897,0.01407945,-0.007829643
-0.1191518,0.7724972,0.6624453,-0.0005994309,0.004466134,0.002251122,-0.008542573,0.02142901,-0.005870928
-0.119596,0.7722091,0.6642759,-0.001148855,0.004114488,0.004108992,-0.005192336,0.01458147,-0.004020113
-0.1195332,0.7720463,0.6604302,-0.00119085,0.003886781,0.0002918388,-0.001184083,0.01041341,-0.0009707323
-0.1190404,0.7724767,0.6561735,-0.0008018958,0.00425093,-0.003935151,-0.002525816,0.0143017,-0.001344112
-0.1187521,0.771816,0.6567235,-0.0006164583,0.003522754,-0.00335446,-0.006142537,0.01607263,-0.002928774
-0.1182505,0.7718158,0.6565613,-0.0002163196,0.003453925,-0.003485036,-0.006329631,0.01681315,-0.001629777
-0.1205474,0.771804,0.6591875,-0.002613149,0.00337243,-0.0008261331,-0.002962731,0.008173671,-0.001861073
-0.1223479,0.7712758,0.6637641,-0.004511829,0.002773596,0.003784045,-0.0003513547,-0.0004673581,-0.002849635
-0.1169119,0.7691945,0.6589035,0.0008281351,0.0006208198,-0.001042232,-0.003051773,0.01651598,-0.003952762
-0.112217,0.7691771,0.6517213,0.005429196,0.000531128,-0.00818952,-0.007996493,0.03729237,-0.008759319
-0.1174272,0.7740751,0.6532439,0.0001273051,0.005356427,-0.006631346,-0.009700421,0.0307685,-0.01131334
-0.1254178,0.776857,0.6575097,-0.007952636,0.008065165,-0.002329179,-0.008258202,0.01228049,-0.009291653
-0.1266439,0.776049,0.6625969,-0.009265533,0.007183548,0.002795173,-0.005766503,0.002293945,-0.007261519
-0.1215778,0.7736548,0.6651698,-0.004283376,0.004714982,0.005405963,-0.003553116,0.006918174,-0.004885217
-0.1159183,0.7715387,0.6602989,0.001295545,0.002523878,0.0005733897,-0.002859684,0.01527153,-0.003041898
-0.1158676,0.7739674,0.6564948,0.001268876,0.00487694,-0.003192274,-0.003498295,0.007620267,-0.001943196
-0.1186213,0.7755286,0.6560986,-0.001558804,0.006361804,-0.003549851,-0.007228432,-0.0007551574,-0.001917189
-0.1179151,0.7719109,0.6560675,-0.0009233115,0.002667276,-0.003542385,-0.01187688,0.0007914457,-0.004852773
-0.1184312,0.7688699,0.6573475,-0.001506837,-0.0004512336,-0.002223594,-0.008525179,0.002747706,-0.00656208
-0.1211385,0.7694842,0.6571182,-0.004278228,8.522496e-05,-0.002413863,-0.003862472,0.007960017,-0.005359134
-0.1224036,0.771659,0.656223,-0.00560406,0.002181955,-0.003269825,-0.00650474,-0.0003215488,-0.004181734
-0.1212324,0.7725919,0.6554227,-0.004490127,0.003036867,-0.004030704,-0.005580169,-0.01109651,-0.003394026
-0.1163486,0.7719744,0.6544365,0.0003402016,0.00234143,-0.00497719,-0.0006425862,0.00357773,-0.004155325
-0.114503,0.7702646,0.6583542,0.002135879,0.0005538415,-0.001019328,0.0006829376,0.01305146,-0.007195804
-0.1173279,0.7694177,0.6622959,-0.0007352886,-0.0003705433,0.002962869,0.0009903687,0.007644815,-0.009884177
-0.1190294,0.7722664,0.6575893,-0.002479864,0.00240121,-0.001703042,-0.0002965699,0.005783878,-0.009178165
-0.1202293,0.7753768,0.6526749,-0.003719423,0.005435071,-0.006576611,-0.002209702,0.004550014,-0.007114257
-0.122122,0.7738439,0.6549268,-0.00564847,0.003826346,-0.004283711,-0.003641838,0.005846433,-0.006870666
-0.1247454,0.7692531,0.656169,-0.008304765,-0.0008399229,-0.003000212,-0.006082842,0.006805945,-0.005824509
-0.1254219,0.767012,0.6561799,-0.009010449,-0.003155766,-0.002947602,-0.006517689,0.00343813,-0.004558195
-0.1238564,0.768206,0.6600191,-0.007470322,-0.002035585,0.0009335901,-0.005591016,5.930773e-05,-0.00473321
-0.1207505,0.7693578,0.6605643,-0.004385762,-0.0009565773,0.00152105,-0.004243532,8.495283e-05,-0.002974978
-0.1168574,0.7702105,0.6577337,-0.000509914,-0.000175359,-0.001267171,-0.005102445,0.001300157,-0.000875277
-0.1193707,0.7730449,0.6574471,-0.00303629,0.002588921,-0.00151135,-0.008147018,0.001906178,-0.001894231
-0.1221959,0.7753809,0.6573595,-0.005870784,0.004856284,-0.001556741,-0.007452115,0.004895644,-0.005587666
-0.1182814,0.7718154,0.6592708,-0.001961689,0.001223481,0.0003967496,-0.007636386,0.001403125,-0.009655079
-0.1163087,0.7675405,0.6623797,9.294831e-06,-0.003117302,0.00354763,-0.009060156,-0.003467323,-0.0100658
-0.1167646,0.7689263,0.6611932,-0.0004446839,-0.001795984,0.002402679,-0.008207695,0.002890536,-0.00670808
-0.1167359,0.7676878,0.6609669,-0.0004107832,-0.003097324,0.002217238,-0.008262547,0.008762761,-0.005341534
-0.117674,0.7636531,0.6643477,-0.001340561,-0.007193056,0.005638179,-0.00756731,0.00980222,-0.009275052
-0.1182639,0.7653564,0.6652315,-0.001919256,-0.005548652,0.006560882,-0.00702927,0.008256879,-0.01199301
-0.1183358,0.7670868,0.6614848,-0.001977263,-0.003874719,0.002851784,-0.006428903,0.005545525,-0.007506271
-0.1189747,0.7665095,0.656523,-0.002599655,-0.004505951,-0.002073933,-0.00497736,0.006411347,-0.003339598
-0.1206428,0.7687953,0.6560483,-0.004248838,-0.002271082,-0.002514281,-0.004396313,0.005215728,-0.004151791
-0.121309,0.769864,0.6579341,-0.004893571,-0.001250576,-0.0005956209,-0.002548586,0.002979505,-0.0004623076
-0.120591,0.7684018,0.6575745,-0.004151775,-0.002757868,-0.0009238322,-0.003329752,0.004278514,0.005526108
-0.1208263,0.7679651,0.6578547,-0.004360848,-0.003236741,-0.0006134576,-0.006625474,0.005017576,0.00115986
-0.1204287,0.7687991,0.6561798,-0.003934606,-0.002441942,-0.002259576,-0.007092486,0.004615601,-0.005284639
-0.1180158,0.7699923,0.6534972,-0.001490712,-0.001284825,-0.004914621,-0.007037373,0.002838108,-0.005295437
-0.1155737,0.7697979,0.6576672,0.0009845371,-0.001512357,-0.0007180576,-0.007997908,0.001124531,-0.006027895
-0.1145442,0.7708906,0.6620913,0.002049094,-0.0004497386,0.003731717,-0.009038223,0.005450457,-0.005888974
-0.1144701,0.7733204,0.6621929,0.00216001,0.001952765,0.003858031,-0.01247447,0.01900308,-0.004031751
-0.1160988,0.7731262,0.664081,0.0005694336,0.001734067,0.005769666,-0.01603128,0.02743811,-0.001242579
-0.1191213,0.7730892,0.6644329,-0.00241381,0.001674983,0.0061437,-0.008388249,0.006262805,0.006011307
-0.1176535,0.7712512,0.6607832,-0.0009058009,-0.0001827838,0.002514522,0.0007600196,-0.01296896,0.006653853
-0.1125711,0.7645661,0.6579968,0.004217613,-0.006885493,-0.0002531046,-0.005309839,0.01964671,-0.00499221
-0.1121633,0.7607016,0.6572322,0.004666924,-0.01076529,-0.001000724,-0.008237364,0.0456076,-0.01408305
-0.119559,0.7628085,0.6609624,-0.002686968,-0.008671226,0.002744801,0.000850414,0.006328518,-0.01192556
-0.1273503,0.7654544,0.6659794,-0.01043641,-0.006035242,0.007775436,0.006945275,-0.0231106,-0.007820211
-0.121698,0.7670647,0.6633698,-0.004741927,-0.004431777,0.005177576,0.008178022,-0.001175996,-0.006816058
-0.1147499,0.7689544,0.6590727,0.002248662,-0.002545835,0.0008902535,0.004489488,0.01500926,-0.000859941
-0.1227042,0.7691646,0.6577344,-0.005662667,-0.002336191,-0.0004403036,-0.002168223,0.01487479,0.001917652
-0.1259351,0.769249,0.6549497,-0.00885012,-0.002249372,-0.003219251,-0.005765387,0.01024407,-0.002218312
-0.1217781,0.7707521,0.6538065,-0.004649212,-0.0007410065,-0.004358369,-0.007353807,-0.003370912,8.200353e-05
-0.1223094,0.7699479,0.6540673,-0.005135795,-0.001537128,-0.004094962,-0.00766627,-0.001806423,0.0003111554
-0.1204411,0.7690747,0.6541172,-0.003221913,-0.002399642,-0.004043601,-0.008568986,0.004593496,-0.002093985
-0.1201641,0.7696001,0.6553997,-0.002898556,-0.001861109,-0.002760411,-0.009990058,-0.003681763,0.0006342658
-0.1217704,0.7693247,0.6582428,-0.004457636,-0.002120997,8.268448e-05,-0.01001091,-0.002551454,-0.000493179
-0.119846,0.7693799,0.6626314,-0.002485181,-0.002048008,0.004470718,-0.01100548,0.0002789529,-0.0008155015
-0.1190158,0.7685156,0.6618255,-0.001606104,-0.002892378,0.003663692,-0.01098875,0.003469823,-0.001254447
-0.1168484,0.7680448,0.6596626,0.0006109618,-0.003341079,0.001498944,-0.009793587,0.01453101,-0.006631547
-0.1159618,0.7699333,0.6623986,0.001547707,-0.001428534,0.004232326,-0.009201734,0.005132308,-0.008005783
-0.1184107,0.7710184,0.6628722,-0.0008507184,-0.0003174958,0.004702345,-0.005544372,-0.007398681,-0.006674286
-0.1197289,0.7692877,0.663102,-0.002118276,-0.002020397,0.004927536,-0.0001728052,-0.004243776,-0.005065697
-0.123239,0.7672353,0.6611212,-0.005577547,-0.004043494,0.002940957,0.003011787,-0.001372483,-0.00404602
-0.1259398,0.7689299,0.6554149,-0.008227401,-0.00231787,-0.002772381,0.001839399,0.003012537,-0.001811583
-0.123266,0.7703,0.6565462,-0.005502225,-0.0009152919,-0.001649267,-0.002165545,-0.0003464879,0.003251949
-0.1211245,0.7689826,0.6580158,-0.003308955,-0.002198786,-0.0001888545,-0.003310743,-0.006284194,0.004989769
-0.1221685,0.7694775,0.656972,-0.004300539,-0.00166865,-0.001242772,-0.002179797,-0.002617609,0.004603846
-0.1212672,0.7698359,0.6617324,-0.00334627,-0.001273736,0.00350691,0.0002341135,-0.003370712,0.0007255127
-0.1172176,0.7700673,0.665411,0.0007568315,-0.001004784,0.007173943,0.00236969,-0.005538288,-0.003429038
-0.115014,0.7711329,0.6631391,0.003014432,9.941289e-05,0.004889643,7.106656e-06,-0.005068367,-0.001350506
-0.1150611,0.7694218,0.6587591,0.003021468,-0.001572349,0.0004962102,-0.00294741,-0.004730311,-0.001630726
-0.1157189,0.7662634,0.656776,0.002417729,-0.004690609,-0.001501442,-0.004539784,0.002307404,-0.005274893
-0.1175677,0.7650826,0.6610895,0.0006226321,-0.005830612,0.002796642,-0.005962948,0.009627717,-0.007196067
-0.1201641,0.7677711,0.664604,-0.001920681,-0.003100504,0.006294632,-0.004371827,0.006630777,-0.006003276
-0.1217195,0.7711201,0.6579754,-0.003423639,0.0002910074,-0.0003513306,-0.003267839,0.001629511,-0.003873692
-0.1204973,0.7712576,0.6522433,-0.002149576,0.000471635,-0.00610184,-0.007174857,0.003371962,-0.004800316
-0.1195509,0.7720951,0.6605137,-0.001151902,0.001352871,0.002149419,-0.01006737,0.002942978,-0.003001952
-0.1196682,0.7730018,0.6674802,-0.001218548,0.002303767,0.009096092,-0.006319486,-0.0004281519,0.0001411773
-0.1190486,0.7718451,0.6641389,-0.0005489052,0.001191235,0.005734165,-0.002586013,-0.001060593,-0.0002349532
-0.1199971,0.7727431,0.6643872,-0.00144808,0.002133349,0.005960992,-0.003873648,-0.0005209422,0.0005522677
-0.121184,0.7725227,0.6656094,-0.002586291,0.001956807,0.007160404,-0.004226453,0.006852863,0.001788885
-0.1215336,0.7699159,0.6629023,-0.002887867,-0.0006066501,0.004429153,-0.002840779,0.01204299,0.002689251
-0.1207572,0.7706636,0.664114,-0.002064192,0.000183812,0.005615308,-0.002741648,0.0009279133,0.003426378
-0.1183495,0.7717678,0.6659969,0.0003903071,0.001330014,0.007471024,-0.001588277,-0.01126,-8.814417e-05
-0.1178806,0.7723565,0.6646447,0.0009053196,0.001959966,0.006089865,-0.0003761019,-0.009972208,-0.003594649
-0.1185591,0.7751741,0.6628777,0.000272188,0.00481787,0.00429211,-0.0007774927,-0.005388823,-0.000302338
-0.1206303,0.7750752,0.6617595,-0.001754375,0.004758152,0.003141242,-0.0002036556,-0.006853928,0.003390693
-0.1220905,0.771083,0.6626731,-0.003170904,0.0008036934,0.004020183,-6.216602e-05,-0.003659979,0.0004212965
-0.1159793,0.7666116,0.6628854,0.002983293,-0.003631511,0.004196124,-0.003831336,0.01069729,-0.006117823
-0.1104473,0.7648712,0.6624948,0.00855721,-0.005337058,0.003767292,-0.007402115,0.02555353,-0.01253073
-0.1148658,0.7697268,0.665504,0.00417952,-0.0004478891,0.006736351,-0.00482967,0.02185506,-0.01320074
-0.1215725,0.7742743,0.6664504,-0.00248781,0.004131978,0.007640916,-0.001191617,-0.006045892,-0.006806682
-0.1228651,0.7721775,0.6613157,-0.003742693,0.002066431,0.002462389,-0.001105499,-0.0221582,-0.001422966
-0.1212848,0.7711277,0.6568147,-0.002125984,0.001046469,-0.002084245,-0.00131353,-0.003090884,0.0009738143
-0.1204226,0.7721059,0.6595199,-0.001228694,0.00205316,0.0005735669,-0.004899615,0.015609,0.001773471
-0.120673,0.7705504,0.6630763,-0.001445294,0.0005247086,0.004081168,-0.008444843,0.005356223,0.001858753
-0.1212353,0.7713206,0.6599834,-0.001974799,0.00132037,0.0009381228,-0.005487662,-0.00669663,0.002487684
-0.1204284,0.7731601,0.6578086,-0.00113613,0.003183901,-0.001287921,-0.004221354,-0.003594738,0.001561648
-0.1200028,0.7717257,0.6571748,-0.0006798225,0.001771894,-0.001973887,-0.002654793,-0.002620564,0.001156917
-0.1198873,0.7711389,0.6563809,-0.0005344263,0.001205861,-0.00282055,0.00058228,0.001073877,0.002650833
-0.117947,0.7709466,0.6599038,0.001434738,0.001032617,0.0006491648,-0.001567169,-0.004178191,0.00342031
-0.1159969,0.7702242,0.6598175,0.003412761,0.0003276211,0.0005095919,-0.001069571,-0.01689059,0.002330205
-0.1143134,0.7702851,0.659123,0.005123038,0.0004043874,-0.0002382424,0.0004216438,-0.00247288,0.0006659759
-0.1141252,0.7689419,0.6654398,0.005336677,-0.0009245111,0.006025451,-0.0006224555,0.00696584,0.0005357612
-0.1158082,0.7684161,0.6684429,0.00367767,-0.001437546,0.008975419,0.00186898,-0.0003488517,-0.001546727
-0.1183022,0.7691841,0.666326,0.001205873,-0.0006581142,0.006805366,0.003102448,0.002370644,-0.00313214
-0.1206747,0.7692797,0.6660785,-0.001146109,-0.0005522879,0.00650427,0.00486187,0.0006951366,-0.001032836
-0.1209671,0.7697862,0.6658309,-0.001419689,-3.669208e-05,0.006202617,0.005158208,-0.0002311632,-0.0002641058
-0.1219495,0.7688028,0.6592472,-0.002384848,-0.00101205,-0.0004358279,0.0006283325,0.002225382,0.0004468574
-0.1225368,0.7669053,0.6521039,-0.002956392,-0.00290253,-0.007634339,-0.0005884177,0.001156618,0.0006085778
-0.1215783,0.7662554,0.653565,-0.001983298,-0.003546124,-0.006228649,-0.00435096,0.002942178,0.003064556
-0.1207344,0.7662068,0.6557374,-0.001125855,-0.003589114,-0.004111391,-0.009679201,0.003217931,0.007517515
-0.1183296,0.7656419,0.6553386,0.001291554,-0.004148746,-0.004564741,-0.009972769,0.006567406,0.005151358
-0.1179815,0.7650177,0.657364,0.001651313,-0.004767929,-0.002592798,-0.009715503,0.009981598,0.004788682
-0.1194507,0.7682021,0.6576173,0.0001928184,-0.00157842,-0.002391756,-0.006132722,0.008111036,0.006570763
-0.1208634,0.7703644,0.6561738,-0.001210068,0.0005891216,-0.003885961,-0.003532298,0.008815009,0.00266955
-0.1214717,0.7672424,0.6580876,-0.001809421,-0.002527421,-0.002021331,-0.007139101,0.01387029,0.0007236452
-0.1182797,0.7660054,0.6617073,0.001390724,-0.003758761,0.001551127,-0.009707801,0.01975706,0.001398159
-0.1174746,0.766916,0.6647306,0.002203295,-0.002842183,0.004528873,-0.007105425,0.01928495,0.002424374
-0.1188611,0.7675173,0.6644572,0.0008233757,-0.002234462,0.004211547,-0.003288585,0.01616796,0.001961705
-0.1194737,0.7676289,0.6604604,0.0002166859,-0.002115869,0.0001723214,-0.00397954,0.01599378,0.0002990642
-0.1218234,0.7673532,0.6581588,-0.002127988,-0.002383916,-0.002170361,-0.005699786,0.01532378,0.0001057514
-0.1218689,0.7691731,0.6564994,-0.002169123,-0.0005557645,-0.003869305,-0.00754288,0.01449467,-0.0004090912
-0.1220952,0.7698252,0.657026,-0.002391574,0.0001052504,-0.003380738,-0.009941695,0.0129816,0.002701872
-0.1235756,0.7683032,0.6624742,-0.003868549,-0.001407281,0.002031067,-0.00897772,0.013183,0.005307065
-0.1225182,0.767952,0.6647776,-0.002808026,-0.001748461,0.004299806,-0.009382351,0.01773182,0.003627115
-0.1221501,0.7689113,0.6641107,-0.002436806,-0.0007785384,0.003599799,-0.01016464,0.02201423,0.004055159
-0.1219506,0.7699123,0.6629258,-0.002234064,0.0002337211,0.002383214,-0.009619209,0.02196146,0.003957839
-0.1211144,0.7692257,0.6598667,-0.00139447,-0.0004412229,-0.0007064618,-0.01186523,0.02030671,0.002784771
-0.1198952,0.7683457,0.657136,-0.0001716595,-0.001309044,-0.00346658,-0.0139515,0.02097104,0.002095166
-0.1185991,0.7681901,0.6577223,0.001128272,-0.001452033,-0.002908459,-0.01383565,0.01824924,0.001756541
-0.1191888,0.7687064,0.6647344,0.0005427044,-0.0009226472,0.004076878,-0.00979687,0.0102857,0.001459562
-0.1196884,0.7699509,0.6682606,4.735579e-05,0.0003353126,0.007577437,-0.004799261,0.005577053,-0.001612635
-0.1213044,0.7698546,0.6644245,-0.001564279,0.0002528086,0.003716834,-0.004100945,0.006926521,-0.001011948
-0.1233642,0.7709042,0.6631396,-0.003619557,0.001316514,0.002408026,-0.004225499,0.008388296,0.004992839
-0.1232737,0.7721661,0.6629547,-0.003524352,0.00259264,0.002199907,-0.005223383,0.008387022,0.009183912
-0.1229268,0.7675042,0.6598253,-0.003172287,-0.002054878,-0.0009523038,-0.008870473,0.01952015,0.00987875
-0.1209667,0.7616487,0.6561076,-0.001206484,-0.00789591,-0.004692291,-0.01208609,0.04155776,0.005357845
-0.1204942,0.7617677,0.6597362,-0.0007277391,-0.0077623,-0.001085319,-0.01278739,0.04671329,-0.003333366
-0.1233844,0.7634591,0.664981,-0.003611124,-0.006055764,0.004138597,-0.01167447,0.0213086,-0.008141334
-0.1248058,0.7636593,0.6608508,-0.005025051,-0.005839538,-1.189708e-05,-0.01010109,-0.003095936,-0.005052742
-0.1253898,0.7666501,0.6587489,-0.005600813,-0.002831784,-0.002133347,-0.008496966,0.005664919,-0.0006370329
-0.1253559,0.7689916,0.6587167,-0.005557692,-0.0004721894,-0.002184361,-0.00835622,0.01898387,0.0010953
-0.1264376,0.7660997,0.6560823,-0.006628904,-0.003344941,-0.004836889,-0.008672836,0.01210315,0.002342696
-0.1291018,0.7642831,0.6588075,-0.009281316,-0.005141303,-0.002128759,-0.007861205,0.00701602,0.002457198
-0.1295334,0.7655312,0.6600953,-0.009699476,-0.003871749,-0.0008569942,-0.007297596,0.001772553,0.002088785
-0.1306547,0.7654945,0.6557775,-0.01080533,-0.003885866,-0.005189649,-0.006547824,-0.0004994005,0.001408106
-0.1310447,0.7650072,0.6535282,-0.01117754,-0.004349214,-0.007452389,-0.006129047,0.01074282,0.0009169989
-0.128828,0.7653867,0.6565749,-0.008940413,-0.00394456,-0.00441768,-0.005433129,0.01227224,0.00166216
-0.1276845,0.7651581,0.6597596,-0.007773548,-0.004146529,-0.001243346,-0.00205605,0.006428868,0.0012627
-0.1249231,0.7640792,0.6572935,-0.004985748,-0.00519741,-0.003717829,-0.0002708118,0.005089148,0.0005269075
-0.1226822,0.7628162,0.6559544,-0.002715321,-0.006430813,-0.005063539,-0.002675632,0.009638099,-0.0001571558
-0.1251517,0.7622879,0.6595589,-0.005152254,-0.006928053,-0.001463772,-0.003222917,0.01805855,-0.0009965909
-0.1283054,0.7634331,0.6666336,-0.008270459,-0.005749922,0.005608231,0.001336288,0.01110524,-0.002889051
-0.1297845,0.7643557,0.6744743,-0.009711144,-0.004792717,0.01344778,0.004908529,0.003246044,-0.006403117
-0.1293612,0.763429,0.6703314,-0.009246269,-0.005682748,0.009304946,-0.002004709,0.005821139,-0.00566123
-0.12855,0.7619842,0.661115,-0.008390228,-0.007089112,8.907953e-05,-0.01977692,0.005563786,-0.002753442
-0.1285064,0.7621452,0.6623251,-0.008298504,-0.006887552,0.001300007,-0.03099879,0.009100037,0.0008291458
-0.1273884,0.7679545,0.6630098,-0.007128916,-0.001035701,0.001985601,-0.01864238,0.0089211,0.007313453
-0.1265574,0.7739421,0.6603696,-0.00624306,0.004996521,-0.0006536035,-0.001635837,0.00571847,0.006475354
-0.1267034,0.7682617,0.6601391,-0.006330775,-0.0006376495,-0.000883192,-0.00427893,0.008468029,0.002767745
-0.1269967,0.7612255,0.6593545,-0.006562534,-0.007626214,-0.001666806,-0.00674864,0.007224004,0.004207352
-0.128162,0.7643496,0.6628602,-0.007663002,-0.004453128,0.001839985,-0.000739503,0.006430675,0.0008783116
-0.1280248,0.7658257,0.6665421,-0.00745786,-0.002926779,0.005523013,-0.002217015,0.005296994,-0.0009171247
-0.1273068,0.7643818,0.6666783,-0.006668863,-0.004319035,0.005660196,-0.002360693,0.002049871,0.002077406
-0.1284454,0.7654454,0.6691895,-0.007733246,-0.003202509,0.008172002,-0.001469945,0.004519102,-8.237879e-06
-0.1295588,0.7624875,0.6692926,-0.008769469,-0.006106228,0.008274842,-0.002703025,0.007055748,-0.0006675853
-0.1308715,0.7598623,0.6675358,-0.01000194,-0.008675907,0.006516769,0.001088034,0.007752242,-8.091261e-05
-0.1310652,0.761425,0.666636,-0.01011242,-0.007056399,0.005614406,0.0004160068,0.007888774,-0.0005464572
-0.1299329,0.7614331,0.6668413,-0.00889373,-0.006989899,0.005815401,-0.0008291733,0.006402564,0.001985537
-0.1308011,0.7621821,0.668436,-0.009672342,-0.006180962,0.007404062,-0.000290341,0.005548576,0.0005949888
-0.1307496,0.764651,0.6643036,-0.009528145,-0.003650442,0.003263759,-0.004114317,0.005641306,-0.001182242
-0.1301348,0.7658785,0.6606647,-0.00881743,-0.002359717,-0.0003852151,-0.002875825,0.005996624,0.00140718
-0.1309332,0.7653589,0.661813,-0.009516809,-0.002814532,0.0007510983,-0.00169759,0.005720381,0.000846534
-0.1302174,0.7648591,0.660167,-0.008698749,-0.003248241,-0.0009086683,-0.003813401,0.006562481,-0.003551997
-0.1295753,0.765793,0.6596497,-0.007951444,-0.002247015,-0.001441312,-0.002272412,0.007959276,-0.005026172
-0.1293181,0.7666481,0.6625706,-0.007585991,-0.001323499,0.001462747,-0.002039025,0.006552677,-0.001387803
-0.1296844,0.7694277,0.6644538,-0.007841093,0.001525523,0.003327855,-0.001019244,0.001960209,-0.0013026
-0.1312121,0.7713391,0.6623414,-0.009254847,0.003506854,0.001196048,0.001366792,-0.003347131,-0.001736188
-0.13071,0.7671322,0.6598628,-0.00863617,-0.0006297978,-0.001303118,-0.0005472149,-0.003344986,0.001138086
-0.1310957,0.763758,0.6617556,-0.008902564,-0.003933635,0.0005680393,-0.002153664,-0.00173912,0.0007966702
-0.1324296,0.7649063,0.6641526,-0.01011459,-0.002715034,0.002942514,-0.001642693,-0.005307592,0.005534758
-0.1305784,0.7641659,0.6683964,-0.008138924,-0.003385294,0.007162782,-0.001809706,-0.003982763,0.009493158
-0.1281194,0.7613024,0.6727424,-0.005553039,-0.006178739,0.0114842,-0.001009717,0.01036295,0.005629688
-0.1266529,0.7613715,0.6705162,-0.003957298,-0.00603955,0.009232083,1.743383e-05,0.02316779,0.003317378
-0.1272143,0.7614381,0.668819,-0.004387432,-0.005902864,0.007507316,0.0008127074,0.01204463,-0.0007047058
-0.130075,0.7596918,0.6711407,-0.007115119,-0.007578765,0.009799429,0.00358977,-0.01509925,0.001612214
-0.1312109,0.760657,0.6703797,-0.008116352,-0.00654292,0.009006655,0.004915368,-0.02552005,0.008444589
-0.1304323,0.7621989,0.6646579,-0.007201731,-0.00492994,0.003250824,0.00128546,-0.0106043,0.005685443
-0.1303754,0.7644954,0.6583355,-0.007007335,-0.002561878,-0.003108145,-0.002668008,0.007265928,0.002427753
-0.1307303,0.7677388,0.6566894,-0.007223551,0.0007536022,-0.004792859,-0.001533275,0.00535756,0.0001443178
-0.1305226,0.7653435,0.6602971,-0.006875935,-0.001569299,-0.001225494,-0.0002557907,-0.005425687,0.00133707
-0.1304685,0.7606476,0.6639901,-0.006680814,-0.006192635,0.002425813,-0.002215746,-0.007121307,0.006617095
-0.1306734,0.7593911,0.6627385,-0.006743796,-0.007376419,0.001131264,-0.0003371818,-0.008680829,0.004558897
-0.1301282,0.7612386,0.6604699,-0.006055818,-0.005456002,-0.001181222,0.002322382,-0.008933392,0.003322014
-0.1287621,0.7642583,0.6619005,-0.004546268,-0.002363052,0.0002045494,0.001857985,-0.01093428,0.004146876
-0.127121,0.7660967,0.6629018,-0.002761107,-0.0004510349,0.001160445,0.003167094,-0.01704021,0.0006243338
-0.1267634,0.7674768,0.6639747,-0.002259256,0.001002841,0.002187424,0.004087855,-0.01010058,-1.521013e-05
-0.1278454,0.7636749,0.6647223,-0.003196906,-0.00272538,0.002888706,0.005215533,-0.003980012,0.0008558326
-0.1300431,0.7570649,0.6626968,-0.005250489,-0.009261844,0.0008164194,0.007516033,-0.007944248,0.001025484
-0.1339864,0.7596837,0.662328,-0.009050108,-0.006569443,0.0004005553,0.008751867,-0.01508449,0.002569864
-0.135729,0.7632497,0.6606325,-0.01064932,-0.002929845,-0.001342176,0.009036689,-0.02685242,0.00197483
-0.1342528,0.7615038,0.6582015,-0.009029953,-0.00460194,-0.003820481,0.007250174,-0.02771704,0.0007049269
-0.133667,0.7620971,0.6581049,-0.008301149,-0.003934776,-0.00396413,0.007963918,-0.02281205,0.003092255
-0.1333052,0.7614035,0.6578104,-0.007796484,-0.004554284,-0.004305117,0.007893076,-0.02575683,0.007326907
-0.1328998,0.762062,0.6638144,-0.007248204,-0.003821483,0.001653143,0.004138291,-0.02952384,0.01055409
-0.131437,0.7655942,0.6710268,-0.005642465,-0.0002149138,0.008820701,0.005543341,-0.03379224,0.01041666
-0.124801,0.764665,0.6708272,0.001136212,-0.001069733,0.008577035,0.007888168,-0.03418561,0.005877721
-0.1174551,0.7658856,0.6671535,0.008624391,0.0002251584,0.004859593,0.009193823,-0.03146172,0.002027344
-0.1171882,0.7678453,0.6601507,0.009032565,0.002258829,-0.002186779,0.01158662,-0.03039873,0.002244405
-0.1209429,0.7657914,0.6564885,0.005417496,0.0002784414,-0.005892228,0.01066077,-0.02481287,0.002677131
-0.1221823,0.7653412,0.658941,0.004315265,-9.909574e-05,-0.003482585,0.01004861,-0.02001371,0.001101466
-0.1222485,0.7626171,0.6609317,0.004383579,-0.002751393,-0.001533989,0.01029259,-0.02096014,0.002462125
-0.1228022,0.7599368,0.6631308,0.00396114,-0.005360859,0.0006240315,0.01036637,-0.02085508,0.004840514
-0.1237312,0.7622521,0.6638759,0.003159786,-0.002975584,0.001329077,0.01089965,-0.02016008,-0.0007272541
-0.1256661,0.7631088,0.6603525,0.001348764,-0.002049674,-0.002233401,0.009822674,-0.02137464,-0.005888461
-0.1253139,0.7622546,0.6570594,0.001820941,-0.002835547,-0.005564416,0.009306453,-0.02317308,-0.003516273
-0.1243426,0.7624264,0.6591914,0.002907997,-0.002596196,-0.003468998,0.009701663,-0.0239739,-0.002314097
-0.1254469,0.7626506,0.6621813,0.001915235,-0.002305219,-0.0005141823,0.0106274,-0.02366694,-0.00257182
-0.1245992,0.7626232,0.6625554,0.002870061,-0.00226668,-0.0001734632,0.01096572,-0.02814519,-0.0005267999
-0.122772,0.7634968,0.6653589,0.004799888,-0.001327911,0.002598158,0.009321386,-0.03161322,0.00194506
-0.1211398,0.7651969,0.6688171,0.006530048,0.0004366084,0.006025969,0.007399432,-0.0250653,0.0007652475
-0.1200855,0.7655398,0.6713958,0.007677427,0.0008429034,0.00857564,0.005582327,-0.02314825,-0.001403307
-0.1212175,0.7652084,0.6706627,0.006633428,0.00057379,0.007814342,0.006182109,-0.03090558,0.0001125964
-0.1212921,0.7652347,0.6634608,0.006641472,0.0006613265,0.0005847129,0.008213611,-0.03531412,4.231497e-05
-0.1222428,0.7653024,0.6594347,0.005767867,0.000788902,-0.003468662,0.00827368,-0.03376768,4.57264e-05
-0.1245353,0.7653215,0.6616824,0.003546855,0.0008664004,-0.00124783,0.007841814,-0.02971596,0.003293325
-0.1232712,0.7646594,0.6652541,0.004876623,0.0002613034,0.002297635,0.008056635,-0.02841178,0.004549991
-0.1208431,0.7626634,0.6674771,0.007364784,-0.001679292,0.004494847,0.01104866,-0.02790527,0.001936897
-0.1180033,0.7602857,0.6652939,0.01025893,-0.004003118,0.002286422,0.01637637,-0.02111466,-0.002860835
-0.1158395,0.7607351,0.662459,0.01247103,-0.003501372,-0.0005734352,0.01821325,-0.01088472,-0.005682519
-0.1188453,0.7632515,0.6634981,0.009507292,-0.0009339296,0.0004410415,0.0166377,-0.009340004,-0.007220075
-0.1223472,0.7678708,0.6676936,0.006041067,0.003735179,0.004612341,0.01611661,-0.02629414,-0.005510055
-0.122459,0.7741376,0.6680044,0.005958516,0.01005028,0.004899062,0.01473716,-0.0408483,0.0005656388
-0.1223666,0.7721973,0.6601503,0.006073723,0.008156546,-0.002978978,0.01076175,-0.03232879,-0.0001823647
-0.123061,0.7663809,0.6550334,0.005395927,0.002384548,-0.008119619,0.009061006,-0.02211483,-0.00259394
-0.1238824,0.7666188,0.6586049,0.004584797,0.002664454,-0.004571451,0.00973585,-0.02267553,0.002087588
-0.1227281,0.7651064,0.6626227,0.005743416,0.001191599,-0.0005762305,0.009122255,-0.02358729,0.004548922
-0.1175852,0.7642427,0.6628561,0.01088478,0.0003647765,-0.0003644308,0.008691887,-0.0258935,0.004887142
-0.1120135,0.7663206,0.6632891,0.0164489,0.002477159,4.781392e-05,0.008289931,-0.02896734,0.006962818
-0.111547,0.7636044,0.6621043,0.0169017,-0.0002070603,-0.0011568,0.007496609,-0.03118006,0.006487241
-0.1142446,0.7623252,0.6592245,0.01418397,-0.001456718,-0.004055441,0.009429503,-0.03731697,0.004956348
-0.114144,0.7619791,0.6651922,0.01425766,-0.001775616,0.001894439,0.01153411,-0.0379929,0.003163736
-0.1132788,0.7606653,0.6722768,0.01508894,-0.003064266,0.008962263,0.01067008,-0.02867378,-0.001938204
-0.1137268,0.7644483,0.6688424,0.01459993,0.0007418428,0.005511871,0.01097781,-0.02231535,-0.004731636
-0.1138501,0.767411,0.6650729,0.0144284,0.003725955,0.001726869,0.01414464,-0.02199777,-0.004254934
-0.1158071,0.7688058,0.6649901,0.01241594,0.005140168,0.001628714,0.01766787,-0.02466533,-0.006660909
-0.117034,0.7710659,0.6647708,0.0111262,0.00741774,0.001394353,0.01851749,-0.02633166,-0.006119314
-0.1170195,0.7719076,0.6628072,0.01107058,0.008274653,-0.0005843253,0.01404356,-0.0249995,-0.001117197
-0.118256,0.7720394,0.6596886,0.009756867,0.008419244,-0.003717769,0.009099923,-0.0245674,0.002081332
-0.1154519,0.7694325,0.6591382,0.01247687,0.005822381,-0.00428268,0.00892627,-0.02465361,0.003305943
-0.1124953,0.767134,0.658439,0.01534258,0.003530903,-0.004995908,0.009264775,-0.02707653,0.0021055
-0.113986,0.7679632,0.6574823,0.01375432,0.004364207,-0.005965988,0.007787855,-0.02653447,0.00177976
-0.1131395,0.768244,0.6579277,0.01449648,0.004645996,-0.00553284,0.007031497,-0.01512999,0.002482451
-0.1106087,0.767052,0.6566576,0.01691622,0.00345202,-0.006813982,0.00548727,-0.005277445,0.0005366058
-0.1089484,0.7661956,0.6565167,0.01845872,0.002590601,-0.006964497,0.002751599,-0.01016261,-0.0008881084
-0.1066289,0.7670227,0.6571634,0.02065363,0.003409794,-0.006325543,0.003199958,-0.0190893,-0.001727289
-0.1050744,0.7676302,0.6548566,0.02207652,0.004006472,-0.008638036,0.005777921,-0.01676961,-0.001031866
-0.1056193,0.7681263,0.6551564,0.02139286,0.004488994,-0.008341644,0.005401009,-0.01256619,0.0008184395
-0.1080601,0.768749,0.6622937,0.01880581,0.005095284,-0.001205317,0.004635085,-0.0105703,-0.0003187565
-0.1109644,0.7696373,0.6692219,0.01574783,0.005964385,0.005724563,0.006910117,-0.006989492,-0.0007816022
-0.112918,0.7724431,0.6675954,0.01363317,0.008748178,0.004101866,0.00859246,-0.01012833,-0.00192104
-0.1121625,0.772801,0.6647319,0.0142203,0.009081076,0.001244246,0.008982274,-0.01146793,-0.005687557
-0.1102061,0.7716559,0.6673032,0.01600141,0.007907823,0.003822929,0.01024453,-0.00996656,-0.005368716
-0.1111242,0.772493,0.6647146,0.01490119,0.008713655,0.001243083,0.00960413,-0.01107811,-0.0005052593
-0.1118354,0.7722349,0.659359,0.01400139,0.008420818,-0.004102678,0.006060682,-0.009372985,0.004513456
-0.1116323,0.7724096,0.6586525,0.01400953,0.008557354,-0.00479825,0.003117176,-0.01353726,0.004213412
-0.1138795,0.7742051,0.6568667,0.01156131,0.01031117,-0.006572004,0.002790487,-0.01674465,0.000667367
-0.1140709,0.7748715,0.6566698,0.0111633,0.0109322,-0.006755395,0.003852464,-0.01198605,0.002841116
-0.111642,0.7724079,0.6579243,0.01338012,0.008419463,-0.005485888,0.003635152,-0.006745286,0.005163655
-0.1104369,0.7685493,0.659105,0.01436821,0.004507825,-0.004288524,0.003189825,0.0002342429,0.003903821
-0.1085668,0.768098,0.6626921,0.01601647,0.003999797,-0.0006829143,0.003680586,0.002652735,0.004815481
-0.105206,0.7684553,0.6632773,0.01915084,0.004296681,-7.753764e-05,0.003297563,0.007352585,0.002363109
-0.1022349,0.7672057,0.6644949,0.02189097,0.002983333,0.001161724,0.00285019,0.01940449,-0.00329353
-0.103769,0.7664781,0.6666768,0.02012125,0.002188792,0.003366769,0.001513996,0.02195076,-0.005603455
-0.1105673,0.7655892,0.6655384,0.01308274,0.001230142,0.00225252,-0.0006321077,0.01093224,-0.005312114
-0.1156836,0.7683056,0.6661576,0.007721618,0.003874188,0.002896737,-0.0007484371,0.0004762506,-0.0007211332
-0.1147418,0.772462,0.6631311,0.008414471,0.00795583,-0.0001041059,-0.003397769,0.01026403,0.001528152
-0.1130492,0.7700392,0.6566268,0.009854624,0.005456129,-0.006582427,-0.009186559,0.02099425,-0.001501109
-0.1170155,0.7683594,0.6561135,0.005632712,0.00369714,-0.007069267,-0.008361456,0.008612407,-0.0005750131
-0.1189402,0.7710734,0.6576203,0.00344992,0.006329881,-0.005535288,-0.002135671,0.002692686,0.001906939
-0.1143367,0.7708859,0.657974,0.007793413,0.006059248,-0.005153533,-0.001576737,0.008187851,0.00611023
-0.111358,0.7696762,0.6593489,0.01051079,0.004764455,-0.00374956,-0.003769091,0.008141693,0.009538413
-0.1105043,0.7693978,0.6607518,0.01110205,0.004399105,-0.002316621,-0.002447975,0.01003344,0.004405042
-0.1107694,0.769172,0.6623059,0.01057372,0.004084718,-0.0007312593,-0.004168896,0.007832229,0.0001893146
-0.1092874,0.7693726,0.664508,0.01179202,0.004195258,0.001502975,-0.006656526,0.003874681,-0.00086884
-0.1045088,0.7675784,0.6641038,0.01630645,0.002309557,0.001131823,-0.004611058,0.009517788,-0.002355593
-0.1040142,0.7661577,0.6615227,0.01653651,0.000796182,-0.001415724,-0.004210146,0.01552473,-0.003969692
-0.1069898,0.7681259,0.6617403,0.01329603,0.002670737,-0.001163995,-0.001354081,0.0159042,-0.009680965
-0.1095672,0.7712208,0.6631732,0.0104532,0.005671213,0.0003035184,0.007361692,0.009937923,-0.01096416
-0.1106988,0.7730159,0.6643085,0.009056032,0.00737129,0.00147362,0.01103244,0.003179156,-0.004893979
-0.1122025,0.7721399,0.6658142,0.007286701,0.006399627,0.003014238,0.0067566,0.004029011,-0.0003259907
-0.1164296,0.7710663,0.6652193,0.002794194,0.005229671,0.002454249,0.00251673,0.00414027,0.00207805
-0.1178947,0.7717569,0.6640678,0.001064472,0.005823186,0.001337332,0.0003921432,0.0001882463,0.003903516
-0.117296,0.7727215,0.6638253,0.001399752,0.006690107,0.001128945,-0.003701005,0.0012261,0.007238199
-0.116467,0.7741628,0.6637351,0.001967234,0.008032985,0.001072363,-0.004369592,0.003212391,0.007014046
-0.114803,0.7754208,0.6640532,0.003372016,0.009191878,0.001423235,-0.001809942,0.002693123,0.001292349
-0.1134841,0.7744617,0.6640195,0.004434345,0.008132812,0.001421666,-0.005455715,0.005471747,-0.0007988158
-0.1098764,0.7711555,0.664712,0.007788529,0.004725815,0.002145235,-0.007018216,0.005467228,0.0003684003
-0.1088639,0.7682481,0.665674,0.008550657,0.001716668,0.003137349,-0.003897071,0.00109198,0.002905532
-0.1105651,0.7680654,0.664921,0.006602439,0.00143139,0.002413261,-0.003921049,0.001671642,0.005040382
-0.1102779,0.767375,0.6627978,0.006645819,0.0006380097,0.000317725,-0.002778042,0.007413979,0.003231197
-0.1110837,0.7648925,0.6593887,0.005599551,-0.001947754,-0.003065036,0.0005920695,0.01354611,0.000402375
-0.1095847,0.7640837,0.6572898,0.006861523,-0.002859675,-0.005138827,0.003900619,0.0148672,-0.002085393
-0.1078377,0.7643177,0.6581977,0.008375096,-0.002728332,-0.004206844,0.002544188,0.01022406,-0.003967063
-0.1113786,0.7653508,0.657913,0.004604192,-0.001796971,-0.004468198,-0.002153452,0.002683711,-0.008170389
-0.1144494,0.767639,0.656267,0.001307162,0.0003907033,-0.006091408,-8.63089e-05,0.001408521,-0.009587822
-0.1142379,0.76778,0.6572746,0.00129612,0.0004325049,-0.005061419,0.002726523,0.01106251,-0.00210067
-0.1134658,0.7678713,0.6593114,0.001849753,0.0004262309,-0.003002228,0.002032154,0.01483192,0.00180937
-0.1140061,0.7695336,0.6607801,0.001095199,0.001992624,-0.001511036,0.002155322,0.006995429,0.003228509
-0.1140825,0.7694186,0.6617456,0.0008090026,0.001783532,-0.0005230535,0.001002922,0.0003576792,0.005990862
-0.1135668,0.7697814,0.6607183,0.001119626,0.002054037,-0.001527652,-0.002030571,0.002691291,0.004805709
-0.1144977,0.7717667,0.6598113,-1.14624e-05,0.003948885,-0.002411796,-0.00595436,0.009531796,0.006497192
-0.1156066,0.7742726,0.6589579,-0.001315663,0.006366135,-0.003242211,-0.005878905,0.008848995,0.007349363
-0.1156702,0.7750995,0.6576497,-0.001569251,0.007106029,-0.004527242,-0.002925671,0.001395171,0.007339903
-0.1094159,0.7695543,0.6577916,0.004500454,0.00147521,-0.004361821,0.0004669252,-0.00389917,0.008079305
-0.1000664,0.7627845,0.6550114,0.01367062,-0.005378811,-0.007118043,0.006294272,0.008055909,-0.0004961181
-0.100752,0.7615716,0.6523634,0.01281085,-0.006674273,-0.009741353,0.004651988,0.02427846,-0.007504466
-0.1074669,0.7641681,0.6583646,0.00592632,-0.004158344,-0.003714537,-3.555476e-06,0.01274867,-0.00687297
-0.1128574,0.7672547,0.6652755,0.0003703763,-0.001150059,0.003223197,0.001050564,0.002085222,-0.004324048
-0.1170608,0.7686941,0.6642085,-0.003994165,0.0002134658,0.002183885,-0.002227303,0.00810155,-0.001729276
-0.1156954,0.7695665,0.6603914,-0.00278557,0.001012609,-0.001604637,-0.00541816,0.008721779,-0.003530715
-0.114314,0.7711828,0.6574573,-0.001556271,0.002558165,-0.004509458,-0.006401982,0.01155452,-0.002561984
-0.1179848,0.7724989,0.6551259,-0.005374342,0.003806043,-0.00681098,-0.01018848,0.00661874,0.00183749
-0.1180228,0.7705816,0.6589884,-0.00555444,0.001822823,-0.002917882,-0.008693777,-0.004325218,0.004974308
-0.1142665,0.7669768,0.6654186,-0.00193495,-0.001845708,0.003543838,-0.005765205,-0.0002682479,0.007098223
-0.1098344,0.7656589,0.666334,0.002365923,-0.003225143,0.004491488,-0.002988713,0.001184303,0.005542712
-0.1066572,0.7624303,0.6683287,0.005417356,-0.006512868,0.00651875,0.001327749,-0.001676778,0.004187306
-0.1088063,0.7601984,0.6707596,0.003147701,-0.008801369,0.008982225,-0.002478418,0.0007293442,0.001891389
-0.109872,0.764542,0.6687817,0.001966428,-0.004511353,0.007036419,-0.005284155,0.001302469,0.0006844077
-0.1089972,0.7683736,0.6683534,0.002730465,-0.0007302344,0.006639292,-0.001947051,0.006052924,0.0007398564
-0.1094374,0.7696991,0.6678848,0.002184181,0.0005480948,0.006200554,-0.0006372664,0.01121846,-0.004184998
-0.1081566,0.7714101,0.6655885,0.00336343,0.002214965,0.003932398,0.002309434,0.006118132,-0.003191139
-0.1100144,0.7724952,0.6638797,0.001408264,0.003258988,0.002249982,0.002668514,0.002242649,0.0006477612
-0.1133761,0.771423,0.6611687,-0.002046631,0.002148384,-0.0004366419,7.578277e-05,0.008074436,-0.0001334319
-0.1135149,0.7692031,0.6590901,-0.002274575,-0.000107375,-0.002492716,0.0003849703,0.01075616,0.002658611
-0.1154849,0.7692867,0.6587524,-0.004329451,-5.728634e-05,-0.002809583,-0.0009136758,0.002777904,0.005632839
-0.1184655,0.7696664,0.6599612,-0.007390746,0.0002911743,-0.00158166,-0.0009385304,-0.004078387,0.007812848
-0.1191369,0.7692279,0.6615734,-0.008138371,-0.000176325,4.835386e-05,0.0002750322,-0.002151307,0.007714684
-0.1151467,0.7697912,0.662278,-0.004219685,0.0003601069,0.0007693438,-8.391338e-05,0.003567902,0.004729638
-0.109653,0.7702623,0.6637333,0.001207386,0.0008064136,0.002239819,0.0004494981,0.006935144,0.004846437
-0.1104144,0.7710702,0.6657164,0.000384172,0.001591359,0.004236777,-0.003574551,0.006010658,0.002298005
-0.1112741,0.7707069,0.6702148,-0.0005327127,0.001206881,0.008747533,-0.008767569,0.005171887,0.0008136746
-0.1086124,0.7685055,0.6716651,0.002076156,-0.001014022,0.01020856,-0.007294432,0.007562457,0.002360621
-0.1087501,0.7668426,0.6634397,0.001889808,-0.00269483,0.001991815,-0.005913944,0.01111442,-0.0003825184
-0.1086538,0.766172,0.6592717,0.001941355,-0.003381742,-0.002169742,-0.006539454,0.01815771,-0.001855693
-0.1080281,0.7670053,0.6634336,0.002526047,-0.002563077,0.001996494,-0.004047179,0.02529281,-0.003704869
-0.1116231,0.7679349,0.6655332,-0.001106565,-0.001646274,0.004098481,-0.001652837,0.01810569,-0.005491628
-0.1175664,0.7692515,0.6639197,-0.007084195,-0.0003408498,0.002485273,-0.0008375823,0.006316988,-0.004258985
-0.1230976,0.7720259,0.6593047,-0.01264628,0.00242421,-0.002131298,0.001297782,0.00844129,-0.004753782
-0.1222043,0.7735162,0.6546065,-0.01178029,0.003906611,-0.006832942,0.0004962038,0.01193664,-0.0002439376
-0.1167575,0.7738644,0.6505079,-0.006356776,0.004248268,-0.01093635,-0.004092219,0.01113882,0.004412164
-0.1173648,0.7731145,0.64737,-0.006983018,0.003492799,-0.01408006,-0.005927622,0.01277007,0.0009067152
-0.1181939,0.7706775,0.6494895,-0.007826756,0.001051071,-0.0119665,-0.003777607,0.01196961,-0.0001226237
-0.1156576,0.7688763,0.6547624,-0.005300464,-0.0007541848,-0.006699071,-0.00125412,0.01157591,0.003261641
-0.1165638,0.7688519,0.6591472,-0.00621219,-0.0007821362,-0.002318766,-0.002442698,0.009645551,0.004898629
-0.1162364,0.7690867,0.6595535,-0.005885859,-0.0005502827,-0.001915984,-0.005822013,0.001523844,0.00244436
-0.1137622,0.7676727,0.6591769,-0.0034082,-0.001966599,-0.002294887,-0.00681186,-0.002109809,-0.000160151
-0.1119121,0.7678064,0.6626638,-0.001550244,-0.001834654,0.00119099,-0.006027031,0.002722365,0.0003598052
-0.1093372,0.769616,0.6651951,0.001036687,-2.610128e-05,0.003722353,-0.004193487,0.007139629,-0.0006775326
-0.1117124,0.7693166,0.6668417,-0.001322564,-0.0003259486,0.005369883,-0.001042947,0.003266464,-0.001327403
-0.1150104,0.7693314,0.6660534,-0.004601007,-0.0003109407,0.004583215,0.003258876,0.003290137,-0.0005089738
-0.1101626,0.7685321,0.6576186,0.0002696333,-0.00110948,-0.003849681,0.006803758,0.02137501,-0.002459129
-0.1071403,0.7667257,0.6508466,0.003318024,-0.002914486,-0.01061924,0.005451494,0.04002066,-0.006419613
-0.113206,0.7673418,0.652324,-0.002718811,-0.002296329,-0.009138856,0.001545953,0.03680603,-0.009612275
-0.1199386,0.7673737,0.6547253,-0.009419838,-0.002261614,-0.006733435,-0.0007465794,0.01427828,-0.00663693
-0.1220326,0.7665291,0.6541115,-0.01147983,-0.003102637,-0.007341702,-0.003433601,-0.0002951816,-0.00110175
-0.1204644,0.7664632,0.6545935,-0.009874669,-0.003164119,-0.006852644,-0.00556555,0.0086156,-0.001452489
-0.1184633,0.7669315,0.6583006,-0.007833672,-0.002690459,-0.003136511,-0.007050698,0.01579525,-0.002009331
-0.1177919,0.767724,0.6614908,-0.007119204,-0.001891524,6.458606e-05,-0.008199179,0.006351426,-0.0003129378
-0.1165423,0.7680544,0.6617453,-0.005823243,-0.001553758,0.000331817,-0.002542144,0.0005082172,0.0006371025
-0.1147519,0.768164,0.6595954,-0.003983392,-0.001435644,-0.001803587,0.0005724386,0.003484178,0.002690765
-0.1133812,0.7669805,0.655633,-0.00256018,-0.002609665,-0.005749877,-0.003852629,0.003783785,0.001872701
-0.1132219,0.7661097,0.6530285,-0.002345536,-0.003470026,-0.008336645,-0.002402991,0.004531526,-0.0008794797
-0.1126613,0.7659802,0.6592299,-0.001726806,-0.003587987,-0.002115765,-0.003878456,0.002466018,-0.001210689
-0.1102714,0.7657854,0.669208,0.0007234803,-0.003770075,0.007883665,-0.007003968,-0.002239749,-0.002726817
-0.1107805,0.7696896,0.6669675,0.0002769181,0.0001480523,0.005665975,-0.001231765,0.004707946,-0.003065926
-0.1119052,0.7734643,0.6604601,-0.0007835739,0.003937746,-0.0008175383,-0.0004781545,0.01176091,-0.002400215
-0.1114133,0.7705738,0.6591512,-0.0002259319,0.001063257,-0.002101731,0.0001578388,0.01065114,-0.003949034
-0.1156921,0.7669149,0.6572603,-0.004437822,-0.002578841,-0.003967192,0.004192425,0.01053605,-0.003278036
-0.1197024,0.766969,0.6605745,-0.008380076,-0.002507406,-0.0006267434,0.003429051,0.009063836,-0.002187083
-0.1181552,0.7658174,0.6640862,-0.00676374,-0.003640863,0.002911827,0.004218129,0.006756972,-0.002329899
-0.117362,0.763662,0.6638775,-0.005900159,-0.005777435,0.002730547,0.003513322,0.002076209,-0.00190018
-0.1184419,0.7648626,0.6667011,-0.006908421,-0.004557014,0.005581813,0.001137553,-0.003310545,-0.002735884
-0.1181639,0.7656411,0.6639756,-0.006557497,-0.003757795,0.002884063,-0.0009392172,-0.001719097,-0.001563831
-0.1171721,0.7651236,0.6586746,-0.005491408,-0.004253386,-0.002389576,-0.003710795,0.0005238137,0.004315847
-0.1156399,0.7657636,0.6548083,-0.00388357,-0.003590326,-0.006228744,-0.002540046,0.0006794275,0.009424862
-0.1130592,0.7669085,0.6532736,-0.001225852,-0.002421132,-0.00773651,-0.002540113,0.00379356,0.006566513
-0.113176,0.7681729,0.6616928,-0.001264603,-0.001131204,0.000709714,-0.003131419,0.006345988,0.001417722
-0.1140882,0.7656142,0.6660428,-0.002097793,-0.003663257,0.005086758,-0.001958588,0.00454509,0.002796584
-0.1122513,0.7626683,0.6637415,-0.0001812299,-0.006581311,0.002812572,-0.001164869,0.00312377,0.0009212458
-0.1121731,0.7648985,0.6655865,-2.283056e-05,-0.004322078,0.004684265,0.0004541379,0.004965245,-0.005038548
-0.1113702,0.7660638,0.6664297,0.000860531,-0.003126333,0.005553698,-0.001262502,0.009886896,-0.005413008
-0.1104083,0.7649189,0.6635585,0.001902851,-0.004239528,0.00270782,-0.002312984,0.01346625,-0.004607867
-0.1142231,0.7655731,0.6592912,-0.001831841,-0.003552102,-0.00153522,0.0003245618,0.005979495,-0.002733231
-0.1174269,0.7672813,0.6596239,-0.004955979,-0.001809486,-0.001179248,0.001614471,-0.003729866,-0.0005225613
-0.1205015,0.7686296,0.6601277,-0.007951361,-0.0004253553,-0.0006531577,0.001271728,-0.003030941,-0.00185551
-0.1227085,0.7689863,0.6574935,-0.01007953,-3.167802e-05,-0.003266111,-0.0009524616,0.002368963,-0.002149381
-0.1205633,0.7688716,0.6593933,-0.007855452,-0.0001084617,-0.001345786,-0.002686565,0.009784111,-0.002434898
-0.1185652,0.7697556,0.6577909,-0.0057785,0.0008143944,-0.002928476,-0.003602172,0.01481417,-0.003172405
-0.1152545,0.7712132,0.6555792,-0.002388551,0.002311395,-0.005120947,-0.003303122,0.01178266,-0.002556776
-0.1116467,0.7707908,0.659242,0.001298624,0.001928862,-0.001439457,-0.001299637,0.009698076,-0.001583782
-0.1111739,0.7686818,0.660672,0.001850929,-0.0001401158,9.035914e-06,-0.0008335209,0.009703553,0.0002752888
-0.1124868,0.7674223,0.6640895,0.0006172426,-0.001359539,0.003444737,0.001743962,0.001330261,1.870317e-05
-0.1147175,0.7676293,0.6667175,-0.001534717,-0.001112512,0.006090497,0.004813638,-0.007339815,-0.001057443
-0.1131587,0.7692938,0.6641915,0.0001022039,0.0005918359,0.003581598,0.005223157,-0.003571179,-0.001080292
-0.11162,0.7716159,0.6625277,0.001718161,0.002953528,0.001934052,0.005970153,0.0004177802,-0.003421279
-0.1147239,0.7722129,0.6598413,-0.001309386,0.003589731,-0.0007370413,0.002769177,-0.002866227,-0.002344541
-0.1176567,0.7715195,0.657531,-0.004167061,0.002934944,-0.003033034,-0.001742594,-0.002586004,0.005881627
-0.1196522,0.7707263,0.6575454,-0.006088404,0.00217957,-0.003005227,-0.0007939855,0.0002020273,0.008372262
-0.1161288,0.7684118,0.6582966,-0.002491845,-9.825805e-05,-0.002241201,-0.00164568,0.005973955,-0.0006488057
-0.1103109,0.7662408,0.6601641,0.003398153,-0.002233612,-0.0003615389,-0.004729282,0.01574673,-0.007333012
-0.1130708,0.7662725,0.6637956,0.0007094321,-0.002167307,0.003281631,0.0005161695,0.01118967,-0.005179792
-0.1178032,0.769968,0.6683242,-0.003953141,0.001561823,0.007821283,0.005542563,-0.006637153,0.0006542374
-0.1180445,0.7756997,0.6664187,-0.004125776,0.007326108,0.00592594,-0.001165655,-0.01389475,0.005956949
-0.1154825,0.7735285,0.6628249,-0.001496265,0.005186182,0.002341336,-0.00654849,0.000692322,0.004351804
-0.1126937,0.7671321,0.6643428,0.001358771,-0.001180421,0.003867079,-0.005010682,0.01852168,-0.0008342744
-0.1137922,0.7655955,0.6636732,0.0003254298,-0.002688754,0.003203876,-0.005645999,0.01001049,-0.00192771
-0.114583,0.7644859,0.6647441,-0.0004017077,-0.003771499,0.004279784,-0.005918392,-0.001622494,-0.002221128
-0.1133159,0.7656935,0.665027,0.0009277212,-0.002538408,0.00456597,-0.002951522,0.003834825,-0.001585436
-0.1143987,0.7679881,0.6594572,-9.428202e-05,-0.0002194519,-0.001002062,-0.0009799906,0.001387897,0.001838366
-0.1160567,0.7685262,0.6576914,-0.00169301,0.0003420331,-0.002767848,-0.0004275314,0.002110797,0.004503842
-0.1177711,0.7705156,0.6562667,-0.003349743,0.00235381,-0.004193875,0.0001227827,0.005155769,0.004789286
-0.1188006,0.7692003,0.660318,-0.004323095,0.001059775,-0.000145225,0.0002439975,-0.005606297,0.002502426
-0.1171312,0.7688506,0.6678105,-0.002598889,0.0007301872,0.007343691,-0.0001711221,-0.007089021,-0.0008939794
-0.1152838,0.7703901,0.6588532,-0.0006979244,0.002288684,-0.00161834,-0.001045133,0.001026232,-0.002928486
-0.1134316,0.7686908,0.6523556,0.001206715,0.0006072322,-0.008121627,-0.001321604,0.007203108,-0.002145166
-0.1128537,0.7696829,0.6594028,0.001835633,0.00161591,-0.001080872,0.001787372,0.002226414,-0.001024634
-0.1129029,0.7697398,0.6610135,0.001836156,0.001688178,0.0005227328,0.006340221,-0.008317755,-0.001797183
-0.1111933,0.7688322,0.6587197,0.003593909,0.0007946271,-0.001778445,0.008790947,-0.004016848,-0.0005418971
-0.1150483,0.770423,0.6568567,-0.0002145498,0.002398162,-0.003649178,0.0096658,-0.004945903,0.002324128
-0.1204076,0.7708531,0.6549972,-0.005529088,0.002839674,-0.005516583,0.005028226,-0.007008409,0.004670335
-0.1179269,0.772792,0.6559592,-0.003005198,0.004788631,-0.004562279,-0.003242217,0.000573301,0.006015966
-0.116709,0.7727182,0.6600009,-0.001745527,0.004723297,-0.0005278408,-0.003957193,-0.00229483,0.004602575
-0.1168485,0.7711959,0.6649424,-0.001844626,0.003207869,0.004406782,-0.003216756,-0.001063232,0.003433171
-0.1125826,0.7719286,0.6647416,0.002460583,0.003945709,0.004199455,-0.00582345,0.002888221,0.002155187
-0.1117506,0.7704268,0.6579499,0.003330431,0.002447133,-0.002598512,-0.00323243,-0.0008679589,4.343446e-05
-0.1140008,0.7704803,0.6517055,0.001116794,0.002502006,-0.008848949,-0.002695436,-0.0009862308,0.0001531005
-0.114019,0.7714477,0.6540821,0.00113364,0.003468887,-0.006477969,-0.004186918,-0.003693244,0.001155566
-0.1138588,0.7698405,0.6585693,0.001327253,0.001859388,-0.001995623,-0.0001791875,-0.005296879,0.0006749705
-0.1138871,0.7681134,0.6585712,0.001330827,0.0001279686,-0.001997523,0.002295917,-0.001754301,-0.0009325852
-0.1138461,0.7650882,0.6613266,0.001402079,-0.002903224,0.0007549849,0.00335964,-0.0001224361,0.0004233649
-0.1141518,0.7647823,0.663467,0.00112491,-0.00321663,0.002893475,0.001236603,-0.001230784,0.001578549
-0.1150612,0.7679995,0.6625867,0.0002422871,-8.297817e-06,0.002012107,-0.001666353,-0.006125426,0.0006860833
-0.1173655,0.7690857,0.6643228,-0.002036841,0.001067932,0.003747874,0.003879911,-0.01031885,0.002018265
-0.1187387,0.768815,0.665769,-0.003386427,0.0007862534,0.005194075,0.007056741,-0.01065354,0.0003104512
-0.1172809,0.76787,0.6657142,-0.001906411,-0.0001706649,0.005139447,0.003524741,-0.005817918,-0.0007747948
-0.1140556,0.7678109,0.666001,0.001339896,-0.000242529,0.005426453,0.001884459,-0.001353761,0.001220773
-0.1107285,0.7694455,0.6676557,0.004686661,0.001378503,0.007080912,0.003629985,-0.003964265,0.001430482
-0.1105454,0.769162,0.6673513,0.004888232,0.001080838,0.006775638,0.004542523,-0.003532938,0.004254179
-0.1126435,0.767613,0.6631804,0.002806989,-0.000483096,0.002602857,0.0008147718,0.002915005,0.004254534
-0.1130421,0.7662511,0.6617222,0.002423732,-0.001860425,0.001141803,-0.001312664,0.006807933,0.0007812806
-0.1140636,0.7660676,0.6631125,0.001415869,-0.002059779,0.002528054,0.0001031459,0.003118755,-0.0002129781
-0.1160248,0.766367,0.6646234,-0.0005334195,-0.001776542,0.004033739,0.0005559276,-0.00167454,-0.001641342
-0.1153687,0.7649278,0.6646309,0.0001330617,-0.003231995,0.004034898,-0.0001721508,0.002021303,-0.002615312
-0.1148637,0.7665974,0.6637024,0.0006468277,-0.001578647,0.003098601,-0.001665913,0.005215266,-0.005160699
-0.1154132,0.7711433,0.6669506,0.0001045514,0.002951301,0.006337736,-0.0003809515,0.004642055,-0.006465851
-0.1135947,0.7723906,0.66796,0.001928969,0.00418279,0.007336478,0.003705158,0.005950468,-0.002562224
-0.1099411,0.7695371,0.6643583,0.005587011,0.001313582,0.003722539,0.005577207,0.007665227,-0.001186498
-0.1081838,0.7649222,0.664452,0.007347302,-0.003316946,0.003802037,0.00409555,0.01623264,-0.005662529
-0.1126441,0.7648586,0.6648841,0.002888205,-0.003396178,0.004218218,0.003603279,0.02136734,-0.009811092
-0.1184783,0.7680275,0.6635862,-0.002946417,-0.0002426731,0.002902408,0.003976706,0.002812589,-0.005165215
-0.1179493,0.7689023,0.6619554,-0.002419663,0.0006172276,0.001251891,0.00140074,-0.0144378,6.460233e-05
-0.1169237,0.7692242,0.6573205,-0.001397739,0.000924473,-0.00340455,-1.122276e-05,-0.001914255,-0.002539832
-0.1171031,0.7686387,0.6549748,-0.001581971,0.0003247648,-0.005773198,-0.002424013,0.01035786,-0.002608709
-0.1144281,0.7692371,0.655999,0.001086959,0.0009093039,-0.004773255,-0.005324604,0.001581874,-0.0009840875
-0.1139056,0.7702485,0.6564178,0.001602514,0.001907188,-0.004379288,0.0004749854,-0.002017007,0.0001174212
-0.1117606,0.7684484,0.6585744,0.003739631,9.375109e-05,-0.00224796,0.005219802,-0.001008462,0.002738569
-0.1063173,0.7675811,0.6605758,0.009174089,-0.0007865573,-0.0002720173,0.0008956317,-0.001610792,0.0004462463
-0.1078687,0.7655993,0.661668,0.007612479,-0.002781014,0.0007948197,-0.002629818,0.005043378,-0.001555378
-0.1099382,0.7640633,0.6633081,0.00553129,-0.004329381,0.002409512,-0.001884445,0.0007601586,-0.001204648
-0.1081841,0.765299,0.6642952,0.007272067,-0.003105473,0.00337141,-0.001471874,-0.005459796,-0.001898891
-0.1099971,0.7643758,0.666253,0.005443796,-0.004039683,0.005303886,-0.001878814,0.001188718,0.001494686
-0.1094173,0.7651051,0.6680562,0.006006247,-0.003320559,0.007081578,-0.0007788195,0.003239031,0.001951058
-0.1077074,0.7661062,0.6690705,0.007696672,-0.002328473,0.00806997,0.001667173,0.004766619,-0.001229315
-0.1116708,0.7650872,0.6677126,0.003711544,-0.003355422,0.006685508,0.005079744,-0.0007761511,0.0003513117
-0.1143479,0.7676523,0.6612252,0.001010433,-0.0007969574,0.0001707048,0.005999834,-0.01172177,-0.0004024626
-0.113696,0.7678258,0.6564456,0.001636016,-0.0006288847,-0.004637287,0.004607949,-0.00355317,-0.001885414
-0.1120057,0.7643169,0.6578498,0.003297923,-0.004142035,-0.00326217,0.005556512,0.005243776,-0.0002057536
-0.1111419,0.7650976,0.6594863,0.004131375,-0.003364187,-0.001655193,0.003948051,0.003931402,-0.000382534
-0.1150673,0.7687038,0.6581882,0.0001737068,0.0002404544,-0.002982967,0.000164343,0.002894985,0.002142098
-0.1198034,0.7728213,0.65974,-0.004596522,0.004357781,-0.001460761,0.0006801165,-0.00137701,0.004361469
-0.1191218,0.7757943,0.662449,-0.00395041,0.007331706,0.001218866,0.003292325,-0.001853396,0.002280067
-0.1131987,0.7728369,0.6607103,0.001936115,0.004376018,-0.0005488535,0.003714098,-0.0011254,0.001566023
-0.1076922,0.7682351,0.6608003,0.007405092,-0.0002236561,-0.0004874902,0.0001834974,-0.002904053,0.0004242641
-0.1076524,0.7674794,0.6616984,0.007406376,-0.000976943,0.0003824022,-0.003959651,0.003205702,-0.0001376419
-0.1102677,0.7650485,0.6605882,0.004751504,-0.00340512,-0.0007555694,-0.006993204,0.006966953,0.0001544637
-0.1117451,0.7640446,0.6613879,0.003233351,-0.004405858,1.690748e-05,-0.006549785,0.004732728,-0.001224001
-0.1127736,0.7676792,0.6614743,0.00216287,-0.0007676894,7.662677e-05,-0.002418943,0.009349803,7.830125e-05
-0.1128928,0.7673584,0.6628543,0.002000428,-0.001084334,0.001430682,-0.002765749,0.01160248,0.001773009
-0.1120532,0.7672235,0.6656423,0.002795824,-0.001214433,0.004193247,-0.002136655,0.008465569,0.002032173
-0.1129525,0.7687613,0.6653068,0.001851204,0.0003287518,0.003832741,0.000755906,0.009618537,0.003325781
-0.1145506,0.7675707,0.6640493,0.0002069304,-0.0008558976,0.002550604,-0.001321103,0.009030163,0.003208408
-0.11543,0.7683049,0.6627255,-0.000719447,-0.0001152682,0.001202395,-0.0007712021,0.008024991,0.003697946
-0.1159422,0.7681209,0.6621698,-0.001279183,-0.0002922941,0.0006225114,0.0009725821,0.008829598,0.006168815
-0.1157328,0.7680383,0.6627851,-0.001117667,-0.0003674657,0.001213686,0.0007851442,0.005611606,0.007473518
-0.1167626,0.7700158,0.6630512,-0.002195565,0.001617856,0.001455823,0.001171237,0.002162405,0.00788144
-0.1160854,0.7694926,0.6627222,-0.00156636,0.001102753,0.00110309,-0.001353237,-0.002540125,0.006142202
-0.1134217,0.7689918,0.6624274,0.001049693,0.0006103186,0.0007846642,-0.003166192,-0.005075873,0.003572376
-0.113913,0.7676569,0.6645877,0.0005111133,-0.0007160785,0.002921376,-0.003577914,0.004922297,0.004599677
-0.114037,0.7660919,0.6672994,0.0003403363,-0.002272546,0.005609629,-0.004935193,0.01518126,0.005134963
-0.1137922,0.7671626,0.6675266,0.0005389041,-0.001193047,0.005813367,-0.006524957,0.008828241,0.002494444
-0.115106,0.770005,0.664543,-0.0008205556,0.001658282,0.002805973,-0.006368538,0.001672111,-0.001395362
-0.1160108,0.774402,0.65915,-0.001770273,0.006064355,-0.002611159,-0.004078528,0.009826565,-0.005548131
-0.1190472,0.7755843,0.6575582,-0.004850665,0.007255506,-0.004227352,-0.006299911,0.01566656,-0.003414364
-0.12181,0.772859,0.6581608,-0.007656398,0.004538713,-0.003649262,-0.007060348,0.01393941,0.002861043
-0.1202543,0.7703603,0.6562379,-0.006142182,0.002047821,-0.005596449,-0.004076241,0.006093409,0.00458637
-0.115457,0.7683814,0.656771,-0.001384603,7.583509e-05,-0.005087162,-0.004972829,-0.003247974,0.004004008
-0.110869,0.7633107,0.6575873,0.00316559,-0.004988761,-0.0042938,-0.004208617,0.01825492,0.001128135
-0.1112251,0.7588833,0.6568781,0.002773523,-0.009410773,-0.005025006,-0.003786612,0.04249502,-0.00261692
-0.1159945,0.7663679,0.6598813,-0.002030065,-0.001921124,-0.002042485,-0.003455249,0.0254346,-0.002996779
-0.1198882,0.7745129,0.6620551,-0.005956285,0.006228869,0.0001120492,0.0001443317,0.005812626,-0.003163557
-0.1200705,0.7705129,0.660895,-0.006169218,0.002233684,-0.001065927,-0.001157814,0.003097924,-0.0006820189
-0.1199736,0.7686871,0.6599722,-0.006100902,0.0004124751,-0.002005204,-0.003383662,0.005926781,0.003673194
-0.1189603,0.7720011,0.6604178,-0.005113821,0.003730577,-0.001574693,-0.004343402,0.01363926,0.003177642
-0.1155716,0.7701673,0.6642228,-0.001748904,0.001900322,0.002216667,-0.008264523,0.008142531,0.002985012
-0.1172808,0.7668174,0.6673387,-0.003479317,-0.0014465,0.005320314,-0.01209478,0.001431656,0.007338096
-0.1201642,0.7649651,0.6635887,-0.006381349,-0.003296403,0.001559043,-0.01278521,0.008880362,0.01123669
-0.1181336,0.7630143,0.6599403,-0.004366612,-0.005245135,-0.002099576,-0.008713535,0.01146658,0.01100707
-0.1174315,0.7630445,0.6655627,-0.003677582,-0.005213072,0.003513363,-0.004868811,0.01284323,0.006252328
-0.116485,0.7657956,0.670024,-0.002741322,-0.002459991,0.007965937,-0.003244822,0.01044596,0.001594615
-0.1144962,0.7693312,0.6648618,-0.0007598272,0.001077785,0.002795462,-0.002568003,6.207656e-05,0.003378696
-0.115123,0.7684688,0.6627154,-0.001391256,0.0002177912,0.0006409735,-0.003087977,0.002736605,0.006025222
-0.1146556,0.7659345,0.6662473,-0.0009259248,-0.002313796,0.004164914,-0.001033154,0.009355335,0.003560698
-0.1137528,0.767158,0.6673311,-2.259865e-05,-0.001087283,0.00524074,0.0007100948,0.01173727,0.001527873
-0.115826,0.7669765,0.6666086,-0.002092981,-0.001265507,0.004509955,0.0002939666,0.01384978,-0.00313122
-0.1183218,0.7680155,0.6663823,-0.004583633,-0.0002229057,0.004275001,0.0002882785,0.007884435,-0.009829468
-0.118776,0.7697556,0.6658323,-0.005030517,0.001521147,0.003715603,-0.0004290878,0.005606948,-0.007909661
-0.1194899,0.7646709,0.660769,-0.005734822,-0.00355928,-0.001357672,-0.003206679,0.00797369,-0.003563595
-0.1211513,0.761051,0.6543526,-0.007384248,-0.007174622,-0.007784808,-0.007099439,0.007787221,-0.002133007
-0.1193382,0.7634737,0.6563592,-0.005556718,-0.004746745,-0.005789289,-0.006559724,0.009553529,-0.0006227196
-0.116915,0.7657233,0.6634755,-0.003116407,-0.002491204,0.0013158,-0.004710704,0.007922739,-0.0003744512
-0.1182165,0.7655407,0.6655137,-0.004398308,-0.002667054,0.003342938,-0.005841855,0.00660323,0.0005385765
-0.1186424,0.7659862,0.6645013,-0.004801972,-0.002213707,0.002319449,-0.005605118,0.006646614,-0.0001523743
-0.1185039,0.7682354,0.6672023,-0.004638638,4.42289e-05,0.005009348,-0.006205684,0.001494879,-0.002200799
-0.1192064,0.7680418,0.6684328,-0.005313909,-0.000139734,0.006228414,-0.004432604,-0.002803306,-0.001680583
-0.116033,0.7666278,0.6639358,-0.002110672,-0.001543142,0.001719585,0.003130564,-0.001112817,-0.003387777
-0.1129379,0.7648127,0.6592867,0.001016709,-0.003346908,-0.002941915,0.007193604,0.003649918,-0.005115294
-0.1164198,0.763,0.6553487,-0.002430736,-0.005147257,-0.006892789,0.003771869,0.004361914,-0.004007749
-0.1196688,0.7642588,0.6518451,-0.005643222,-0.003875274,-0.01040937,-0.002249142,0.00219013,-0.004915792
-0.1178207,0.7650243,0.6539456,-0.003756705,-0.003095472,-0.008321536,-0.002272402,-0.001184415,-0.005450988
-0.1174622,0.7655714,0.6601204,-0.003357788,-0.002532885,-0.002158621,0.003220387,-0.00721362,-0.003178094
-0.1186956,0.7677742,0.6603998,-0.004548797,-0.000313412,-0.0018902,0.00588135,-0.008790189,-0.001485756
-0.1177905,0.7700667,0.6558011,-0.003599545,0.001996792,-0.00649865,0.005355374,-0.006495346,-0.00270089
-0.1179213,0.7709881,0.6560872,-0.00368442,0.002936789,-0.006220958,0.003894447,-0.005734011,-0.004220651
-0.1183904,0.7671564,0.6583494,-0.004105798,-0.0008755166,-0.003965736,0.00482219,-0.01001819,-0.002688129
-0.1177515,0.7637734,0.6580533,-0.003417605,-0.004238604,-0.004267122,0.006403403,-0.01781367,-0.0001632802
-0.1180074,0.7653284,0.658496,-0.003622573,-0.002663002,-0.003827836,0.005570053,-0.01959457,0.002219126
-0.1168694,0.7658543,0.6594584,-0.002432049,-0.002115944,-0.002866999,0.005402254,-0.01676167,0.00320334
-0.1144215,0.7648439,0.66202,6.97846e-05,-0.003104404,-0.0003051111,0.004028967,-0.01667165,0.001971579
-0.1136147,0.7654971,0.6645929,0.0009316753,-0.002428614,0.00226998,0.004270249,-0.02376569,0.001023177
-0.1153643,0.7662167,0.6595006,-0.0007617943,-0.001685713,-0.002818438,0.00568378,-0.0290857,-0.001192741
-0.1194518,0.7659766,0.6545284,-0.004792415,-0.001901807,-0.007785059,0.003044425,-0.01756689,-0.002813094
-0.1218665,0.7659316,0.6582904,-0.00714945,-0.001922082,-0.004015883,0.003067206,-0.007249722,-0.0004207267
-0.1197122,0.7656228,0.6630177,-0.004936728,-0.002205518,0.000720452,0.006571705,-0.01649306,0.002462995
-0.1140907,0.7643576,0.6688412,0.0007439766,-0.00344459,0.00655478,0.01116428,-0.0213543,0.001568463
-0.1103224,0.7630481,0.6732421,0.004572261,-0.004727366,0.0109678,0.01435115,-0.006175109,-0.005157526
-0.1149674,0.762071,0.6699091,-1.247487e-05,-0.00567682,0.007647867,0.01270781,0.001251006,-0.009786157
-0.1202227,0.7617893,0.6673957,-0.005207263,-0.005930047,0.005147803,0.01271569,-0.01744231,-0.006603517
-0.1162952,0.765081,0.6640795,-0.001219141,-0.002608854,0.001844826,0.01371371,-0.03602472,-0.00316137
-0.1134015,0.76952,0.6589079,0.001735127,0.001860817,-0.00331376,0.01229128,-0.03178949,-0.001640545
-0.1165699,0.7667862,0.661038,-0.001372853,-0.0008413706,-0.001170905,0.009937095,-0.02049362,-0.00105093
-0.1172086,0.7633327,0.662301,-0.001951337,-0.00426247,0.0001046749,0.006599458,-0.01981542,-0.001301898
-0.1178853,0.766017,0.6605945,-0.002568183,-0.001544927,-0.001589513,0.006230652,-0.02679026,-0.0003005558
-0.1182741,0.7660061,0.6643166,-0.002897598,-0.001521821,0.002144755,0.008725073,-0.03459105,0.001011132
-0.1131644,0.766233,0.6679954,0.002271248,-0.001260281,0.005835459,0.01016966,-0.03189117,0.004567452
-0.1088707,0.7689478,0.6702713,0.006623365,0.00148986,0.008122838,0.009818467,-0.02310642,0.009648255
-0.1075306,0.7662018,0.6732592,0.008021163,-0.001220265,0.01112142,0.01002103,-0.02340553,0.008105885
-0.10782,0.7647074,0.6718708,0.007788101,-0.002678425,0.009742418,0.01139578,-0.02298835,0.002639396
-0.1072778,0.7683388,0.6677295,0.008384795,0.0009894736,0.005608725,0.009877147,-0.02148372,0.0003764596
-0.1049176,0.7694604,0.6641952,0.01079734,0.00214779,0.002080183,0.008773326,-0.01976586,-0.004281522
-0.1085144,0.7651177,0.6601663,0.007250104,-0.002158067,-0.001945022,0.01179342,-0.01434573,-0.006082732
-0.1130932,0.7611317,0.6577558,0.002717919,-0.006107257,-0.004353667,0.01462123,-0.02165231,-0.0005892835
-0.1127651,0.7649676,0.6596512,0.00308938,-0.002234552,-0.002458126,0.01555996,-0.02895599,-0.001845438
-0.1133883,0.7687894,0.6618043,0.002506168,0.001624232,-0.0003063422,0.01625061,-0.02788641,-0.00186622
-0.1140888,0.7673753,0.6581123,0.001842416,0.000247159,-0.004000711,0.01745494,-0.03131086,0.002332362
-0.113812,0.7698223,0.6535946,0.002152718,0.002731194,-0.008521791,0.0158382,-0.02714895,-0.001700725
-0.112759,0.7729105,0.6548703,0.003235923,0.005855993,-0.007249999,0.01045961,-0.02211383,-0.001360149
-0.1111958,0.7711662,0.6590262,0.004826065,0.004147768,-0.003098119,0.006300176,-0.0294583,0.001109457
-0.1104567,0.7702177,0.6632003,0.005588903,0.003234532,0.001072047,0.005290457,-0.03373557,-0.000123788
-0.1083134,0.7701037,0.6634683,0.00775255,0.003154735,0.001336256,0.006250829,-0.02558505,0.003823779
-0.1062877,0.7689715,0.6612453,0.009794971,0.00205539,-0.0008903799,0.006467471,-0.0181468,0.002124923
-0.106605,0.7686307,0.6621634,0.009490645,0.001746168,2.43084e-05,0.005639483,-0.02087114,-0.003068851
-0.1074115,0.7688622,0.6617146,0.008693144,0.002007604,-0.0004277475,0.005287648,-0.02131858,-0.004105912
-0.1068777,0.7695168,0.660215,0.009231644,0.002690643,-0.001930449,0.004236938,-0.01870607,-0.005744513
-0.1068038,0.7697465,0.6596925,0.009305905,0.002947181,-0.002455803,0.004261754,-0.01838103,-0.004543425
-0.1082476,0.7691891,0.6568507,0.007857958,0.002414814,-0.005300119,0.005352414,-0.01564286,-0.004621636
-0.1087423,0.7694692,0.6549259,0.007354466,0.002718191,-0.007226926,0.005808661,-0.0158995,-0.004264372
-0.1101519,0.7697756,0.6555204,0.005931283,0.003045928,-0.006633569,0.006930695,-0.01817132,-0.001941058
-0.1117436,0.7703304,0.6626213,0.004321468,0.003620035,0.0004672094,0.008173211,-0.02111882,-0.005903191
-0.1107288,0.7721033,0.6712277,0.005313681,0.005410301,0.009074605,0.008461594,-0.02550806,-0.006922632
-0.1091727,0.7726152,0.6659578,0.006842636,0.005937275,0.003806492,0.005468429,-0.02169382,-0.002351236
-0.1076775,0.7720251,0.6581065,0.008306462,0.005360005,-0.004042452,0.003865535,-0.01702401,0.001152173
-0.1070685,0.7720513,0.6591843,0.008879729,0.005396487,-0.002961807,0.006609448,-0.01721675,0.003593968
-0.1060053,0.771221,0.6624769,0.009902944,0.004573785,0.0003341297,0.004892787,-0.01420439,0.003946701
-0.1040122,0.7697787,0.6665516,0.01185153,0.003136439,0.004412814,0.002708352,-0.01351647,0.003929975
-0.1040408,0.7701707,0.6649285,0.01177394,0.003530681,0.002793968,0.001195211,-0.01416534,0.0005802545
-0.1042736,0.7724514,0.6602068,0.01148752,0.005810931,-0.001923299,-0.003872162,-0.008595058,-0.002379844
-0.1040789,0.7744874,0.6614083,0.01162383,0.007843659,-0.0007171253,-0.00226472,-0.002453751,0.001021205
-0.1037211,0.7744167,0.6612312,0.01191838,0.007766698,-0.0008893831,0.00104221,-1.473109e-05,0.00311789
-0.1014062,0.770354,0.660409,0.01416503,0.003694766,-0.001706569,-0.0005899035,0.004801146,0.002102983
-0.1002981,0.7646519,0.6608934,0.01519978,-0.002019606,-0.001216908,-0.001015861,0.02456106,-0.003091644
-0.1050427,0.7649664,0.6591398,0.01037668,-0.001720276,-0.002964969,-0.002043101,0.04314969,-0.008489602
-0.1107251,0.7698277,0.6605997,0.004610464,0.003123323,-0.001499215,-0.002321701,0.02514994,-0.003766847
-0.1096311,0.7721484,0.6617074,0.005615506,0.005423884,-0.0003852248,-0.002054668,0.00225176,0.0002864532
-0.1085556,0.7736677,0.6597317,0.006597425,0.006920598,-0.002354143,-0.003550611,0.01421673,-0.00586474
-0.1108345,0.7753072,0.6596436,0.004220434,0.008535099,-0.002435074,-0.004161084,0.01921751,-0.009124035
-0.1099844,0.7744446,0.6603321,0.004968239,0.007644894,-0.001738948,-0.004610881,0.009469575,-0.002609553
-0.1118851,0.7728216,0.6635552,0.002961546,0.005991667,0.001492372,-0.005832939,0.01435387,0.003728909
-0.1146218,0.772056,0.6671763,0.0001153441,0.005192913,0.005122241,-0.00873784,0.013011,0.004867902
-0.1091528,0.7695605,0.6662268,0.00547189,0.002661524,0.004181658,-0.009865451,0.0117911,0.004183733
-0.1048994,0.7660813,0.6638397,0.009610221,-0.0008562319,0.00180347,-0.007785,0.01938563,0.003452378
-0.1061289,0.7676949,0.6616316,0.008263148,0.0007164325,-0.0003957924,-0.006013375,0.01455888,0.002506219
-0.1059464,0.771719,0.6592821,0.008325544,0.004697299,-0.002736676,-0.004367253,0.009600239,0.0003228811
-0.1048416,0.773,0.6601716,0.009307992,0.005933037,-0.001838752,-0.008476425,0.0105384,-0.0006947088
-0.104781,0.7738843,0.6640333,0.009243881,0.006770039,0.002031324,-0.01472506,0.02298508,-0.001255955
-0.1041804,0.772905,0.664225,0.009717482,0.00574133,0.002231325,-0.01178728,0.04052645,-0.003579009
-0.1042135,0.7692106,0.6624612,0.009555126,0.001995467,0.0004755776,-0.006746036,0.03472771,-0.004731365
-0.107422,0.7669267,0.6626489,0.006215197,-0.0003418333,0.0006711366,-0.004792144,0.02564146,-0.006767421
-0.1104007,0.768844,0.6621793,0.003102957,0.001520293,0.0002090532,-0.004290987,0.02496298,-0.007324958
-0.1117605,0.7732716,0.66194,0.00160781,0.005891156,-2.305593e-05,-0.006563109,0.02267856,-0.003918197
-0.1133186,0.7757594,0.6596436,-8.706372e-05,0.008320625,-0.002312604,-0.006738356,0.02255734,-0.001464031
-0.1143235,0.7756088,0.6581134,-0.001229701,0.008110259,-0.0038362,-0.007191427,0.01661743,0.002863891
-0.1154547,0.773997,0.6619235,-0.002499263,0.006436966,-1.96265e-05,-0.0120088,0.01303054,0.006856888
-0.1145583,0.7726321,0.6622293,-0.001741179,0.005008782,0.000292555,-0.01511844,0.01682717,0.008929864
-0.1122379,0.769613,0.6616088,0.0004413809,0.001924723,-0.0003215301,-0.01637545,0.02081577,0.01081715
-0.112373,0.7663511,0.6667874,0.0001691527,-0.001403873,0.004863455,-0.01655339,0.02809668,0.002337152
-0.1124528,0.7684455,0.6694728,-4.656593e-05,0.0006225904,0.007554915,-0.01555643,0.02776891,-0.006669427
-0.1115215,0.768505,0.6677983,0.0007502896,0.0006131419,0.005885983,-0.01463769,0.02065114,-0.002871341
-0.1101862,0.7660509,0.6662507,0.001952763,-0.001910817,0.004343125,-0.01117524,0.0205796,-0.001496515
-0.1073772,0.7663591,0.6612963,0.00463077,-0.001672999,-0.0006074739,-0.008950394,0.02603932,-0.003883525
-0.1057873,0.7656029,0.654818,0.006091505,-0.002499706,-0.007082995,-0.01039295,0.03263984,-0.0008230797
-0.1107171,0.7667828,0.6570418,0.001034516,-0.001390344,-0.004857303,-0.01125872,0.03220873,-0.0003292955
-0.1181015,0.7673729,0.6613769,-0.006475201,-0.0008703366,-0.0005206842,-0.00970483,0.02687731,-0.002919258
-0.1174104,0.7658321,0.6591148,-0.005907183,-0.002480598,-0.002781668,-0.007532342,0.0243963,-0.0008104282
-0.1144242,0.7671329,0.6595227,-0.003041292,-0.001248417,-0.00237275,-0.007605436,0.01958908,0.002267919
-0.115753,0.7666975,0.6613161,-0.004487412,-0.001751326,-0.0005784139,-0.008022271,0.01893279,0.003179382
-0.1155723,0.7666414,0.6598841,-0.004420587,-0.001873771,-0.002009437,-0.01092169,0.02157508,0.004524779
-0.1167326,0.7689335,0.6611155,-0.005691133,0.0003533692,-0.0007768884,-0.01545699,0.01579382,0.004800643
-0.1185731,0.7698106,0.6632495,-0.007637982,0.001167124,0.001358311,-0.01431213,0.01012962,0.005306428
-0.1151811,0.7703188,0.6652167,-0.004347935,0.00161355,0.00332686,-0.01320281,0.007811399,0.006080027
-0.1133241,0.7693622,0.6649616,-0.002588345,0.0005967541,0.003073025,-0.01475217,0.00951856,0.005018348
-0.1166048,0.769193,0.6592483,-0.005961719,0.0003688116,-0.002639042,-0.01289495,0.01394789,0.007111603
-0.1187264,0.7703988,0.655549,-0.008171181,0.001517487,-0.006337276,-0.007121097,0.01073342,0.008913838
-0.115119,0.7686103,0.6561503,-0.004646576,-0.0003265483,-0.005734841,-0.0009570389,0.01034525,0.005627009
-0.1105542,0.7645345,0.6559439,-0.0001593004,-0.004456306,-0.005939664,-0.001020496,0.0188131,0.001244241
-0.111366,0.7613625,0.6549017,-0.001043536,-0.007680468,-0.006979686,-0.00413469,0.03422289,-0.003825133
-0.1148166,0.7629491,0.6607558,-0.00456131,-0.006143982,-0.001122512,-0.00463889,0.04822338,-0.00515687
-0.1194576,0.7677986,0.6694665,-0.009264452,-0.001342207,0.007592213,-0.006532799,0.03279764,-0.004305759
-0.1223856,0.770404,0.665961,-0.01224939,0.001218008,0.00409146,-0.007863788,0.008095256,-0.004781059
-0.1205509,0.7696678,0.658639,-0.01046605,0.0004390732,-0.003225216,-0.006998512,0.00877285,0.001869386
-0.1205069,0.7677184,0.6572936,-0.01046765,-0.001550644,-0.004564866,-0.006398647,0.01554847,0.007219709
-0.1223144,0.7669034,0.6602842,-0.01231457,-0.002403699,-0.001568118,-0.006305245,0.01882882,0.004607915
-0.1222004,0.7656918,0.6662877,-0.01223367,-0.003650817,0.004442226,-0.009195005,0.02025898,0.005095423
-0.1221191,0.764645,0.6642637,-0.01217886,-0.004730687,0.002425462,-0.01060503,0.012956,0.006191179
-0.1209733,0.7655768,0.6610499,-0.01105264,-0.003829398,-0.0007808035,-0.007396741,0.008422477,0.004572169
-0.1184831,0.7653397,0.6636481,-0.00857518,-0.004094289,0.001825096,-0.004800786,0.009715284,0.002185829
-0.1564355,0.8387645,0.5609556,0.04370874,-0.03758557,0.005882855,0.1701822,-0.06013367,0.3186974
-0.1536812,0.8363823,0.5637564,0.04801686,-0.03962301,0.008535757,0.1641252,-0.03351771,0.3072802
-0.1601573,0.8316744,0.5632312,0.04295591,-0.04395146,0.007869002,0.1589048,-0.02557623,0.2977074
-0.1734455,0.8196984,0.5686716,0.0309482,-0.05551485,0.01317367,0.1407233,-0.06381213,0.2963575
-0.1778511,0.8117667,0.5741564,0.02769287,-0.06300148,0.01852781,0.1205343,-0.1041454,0.2983863
-0.1704046,0.8298121,0.5707681,0.03616386,-0.04447946,0.01501331,0.1432613,-0.1073407,0.2940025
-0.163378,0.8508625,0.5664816,0.04409404,-0.02292187,0.01060422,0.1682705,-0.08763378,0.2955097
-0.1670508,0.8409111,0.5635884,0.041208,-0.03233711,0.007591461,0.1480288,-0.08034343,0.3007629
-0.1701848,0.8322341,0.5595388,0.03874818,-0.04045101,0.003424958,0.1357936,-0.0857131,0.2947203
-0.1683998,0.8355127,0.5634537,0.0410991,-0.03658414,0.007225393,0.1442607,-0.08602291,0.2921512
-0.1701617,0.830311,0.5718049,0.03979908,-0.04117369,0.01546431,0.1358005,-0.08757276,0.2921191
-0.1692085,0.8342672,0.5689812,0.04111433,-0.03658295,0.01253032,0.1343197,-0.0954472,0.2897261
-0.1661494,0.8399924,0.5671309,0.04443973,-0.0302023,0.01057099,0.1460178,-0.1044975,0.2923901
-0.1634711,0.8359548,0.5688837,0.04729258,-0.03356497,0.01221568,0.149384,-0.102384,0.2922437
-0.1592562,0.8376125,0.5634194,0.05159419,-0.03121459,0.006643842,0.1533235,-0.09211767,0.2910279
-0.1619614,0.8361937,0.5653352,0.04889143,-0.03192446,0.008452455,0.1532826,-0.09059601,0.2883619
-0.1670602,0.8335048,0.5699509,0.04371433,-0.0338895,0.01296119,0.1522199,-0.09548345,0.2806927
-0.1700496,0.837708,0.5667837,0.04056969,-0.02894917,0.009686991,0.1551663,-0.1079094,0.2754108
-0.1724953,0.8397733,0.5652239,0.03789558,-0.02613462,0.008019794,0.1511622,-0.1221684,0.2727164
-0.1699156,0.8417868,0.564368,0.04017752,-0.02336127,0.007056032,0.1491045,-0.125801,0.2721819
-0.1696918,0.841394,0.5654553,0.04003812,-0.02298533,0.008034924,0.1474496,-0.122106,0.2705278
-0.1710966,0.8375186,0.5650426,0.0382083,-0.02608451,0.00751325,0.1443277,-0.1172654,0.2694804
-0.1700584,0.8357128,0.5628007,0.03876336,-0.02710802,0.005161685,0.1444952,-0.1231646,0.2734851
-0.1713827,0.8362573,0.5664903,0.03690129,-0.02577638,0.008741044,0.1397489,-0.1306778,0.2737673
-0.1692792,0.8382969,0.5675843,0.03841599,-0.02294606,0.009724052,0.1344155,-0.1299815,0.2698122
-0.1654473,0.8350858,0.5680251,0.04161125,-0.02536385,0.01005306,0.1293134,-0.1301893,0.2655959
-0.1624626,0.8307542,0.570982,0.04391469,-0.02890068,0.01289728,0.1274229,-0.1236092,0.2605926
-0.1595407,0.83047,0.5716595,0.04611359,-0.02838961,0.01346094,0.1320312,-0.1186717,0.2556325
-0.1615305,0.8302107,0.5734863,0.04336183,-0.02785382,0.01517243,0.1305111,-0.1227438,0.2531974
-0.1610789,0.8317609,0.5724238,0.04301513,-0.02550951,0.01399299,0.1279282,-0.1227101,0.2549087
-0.157616,0.8315041,0.5709187,0.04564584,-0.02497389,0.01236879,0.1288115,-0.122807,0.2535763
-0.1580165,0.8313341,0.5710526,0.04438189,-0.02435383,0.01238134,0.1276232,-0.1245539,0.2494887
-0.1626295,0.8359504,0.5677302,0.03887639,-0.01895059,0.008935263,0.1256414,-0.1285824,0.24462
-0.1690675,0.8402655,0.5673982,0.03151932,-0.01385255,0.0084772,0.1196822,-0.1339167,0.2377459
-0.1671117,0.8421957,0.5687311,0.03253213,-0.01114442,0.009681697,0.1145656,-0.1324328,0.2371227
-0.1627228,0.8407309,0.5675453,0.03595664,-0.01183735,0.008365076,0.1174247,-0.1322641,0.2390049
-0.1634415,0.8398575,0.567698,0.03425467,-0.01194595,0.008384761,0.1238526,-0.1351974,0.2397408
-0.1601189,0.8390742,0.5694188,0.03657724,-0.01197261,0.009970425,0.1276467,-0.1297141,0.2401645
-0.158683,0.8353143,0.5726228,0.03699865,-0.01498476,0.01303707,0.1251871,-0.1138469,0.2330019
-0.1608973,0.8358007,0.5745445,0.03375723,-0.01376029,0.01481931,0.1221872,-0.1049407,0.2257119
-0.1610534,0.8370001,0.5731372,0.03256342,-0.01183308,0.01327012,0.1228346,-0.1255902,0.2241401
-0.1629637,0.836722,0.5711884,0.02960653,-0.0113942,0.01117703,0.1193445,-0.1516225,0.2228882
-0.1620244,0.8398852,0.5684068,0.02949241,-0.007525428,0.008248526,0.1104407,-0.14169,0.221359
-0.1600392,0.8404187,0.5659533,0.03041914,-0.00629843,0.005645757,0.1045735,-0.1217329,0.2182573
-0.1612512,0.8373384,0.5681014,0.02814538,-0.008698001,0.007642312,0.105423,-0.1196872,0.2152421
-0.1593496,0.8353187,0.5733934,0.02898348,-0.01005001,0.01278069,0.1082394,-0.1190026,0.2140377
-0.1575047,0.8357718,0.5746324,0.02976477,-0.008943027,0.01386407,0.1063439,-0.1223142,0.2141172
-0.1584324,0.8368095,0.5671219,0.0277748,-0.007265246,0.006195859,0.1016743,-0.1213894,0.2165146
-0.1585319,0.8357273,0.5594141,0.02661564,-0.007721699,-0.001671514,0.1005413,-0.1137702,0.2177189
-0.1578597,0.8358186,0.5626011,0.02623207,-0.007019169,0.001354337,0.101537,-0.1169801,0.214964
-0.156128,0.8354673,0.5682201,0.02691318,-0.006774025,0.00681119,0.1011592,-0.1118064,0.2099109
-0.1530135,0.8331157,0.5687835,0.02898335,-0.008544238,0.00721163,0.1010669,-0.1041556,0.2032957
-0.1501325,0.8331833,0.5702484,0.03082715,-0.007910213,0.00851308,0.1032904,-0.1049335,0.1957484
-0.1505283,0.8340153,0.5705605,0.02940227,-0.006527074,0.008661211,0.1071311,-0.1018902,0.1902548
-0.1545908,0.8358752,0.570283,0.02431949,-0.004131075,0.008219325,0.1101631,-0.1045674,0.1889468
-0.1582744,0.8384706,0.5710144,0.01962504,-0.001014943,0.008785882,0.1088028,-0.1022561,0.1882054
-0.1573652,0.837505,0.5667662,0.01953393,-0.00147524,0.004372577,0.1049141,-0.0926415,0.1849052
-0.1549274,0.8360523,0.5639944,0.02098273,-0.00243829,0.001435463,0.1022031,-0.08520155,0.1833202
-0.1558291,0.8361735,0.565524,0.01910426,-0.001843165,0.002799872,0.09825654,-0.07795507,0.1852146
-0.1557114,0.8361954,0.5657407,0.0182582,-0.001363199,0.002851881,0.09362474,-0.07700412,0.1858544
-0.1550545,0.8370086,0.5677781,0.01796499,-0.0001076141,0.004725195,0.08824753,-0.07345252,0.1836559
-0.1559242,0.8375014,0.5720603,0.01615967,0.0008116786,0.008844311,0.08384856,-0.07213399,0.1808575
-0.1543631,0.8355467,0.5749617,0.01680011,-0.0007324864,0.01158345,0.08502343,-0.07363526,0.1794676
-0.1538255,0.8332903,0.5728736,0.01643261,-0.002594002,0.00933389,0.08443168,-0.07049687,0.1785336
-0.1542358,0.8342343,0.5682196,0.01513333,-0.001270983,0.004519096,0.08164995,-0.07061362,0.1762239
-0.153221,0.8370608,0.5655683,0.01527565,0.001919137,0.001707766,0.08057347,-0.05976517,0.1724189
-0.153971,0.8377417,0.5632165,0.01367022,0.002948237,-0.0008032184,0.07734933,-0.05025297,0.1668644
-0.1559976,0.8356222,0.562773,0.01080543,0.001161593,-0.001404532,0.07606243,-0.05702101,0.1616594
-0.1574092,0.8341639,0.5643772,0.008573347,2.091637e-05,4.343387e-05,0.07483445,-0.05973267,0.1573945
