accx,accy,accz,body_accx,body_accy,body_accz,body_gyrox,body_gyroy,body_gyroz
-0.06335838,1.001975,0.2293306,0.03689789,0.006132222,-0.01988128,0.1213895,-0.04543116,0.3145343
-0.06388105,1.009935,0.2305528,0.03641464,0.0147036,-0.01887403,0.1445067,-0.05311242,0.3203114
-0.06697451,0.9840517,0.227607,0.03328332,-0.0105572,-0.02201401,0.1310266,-0.05562839,0.3239949
-0.05889648,0.9754897,0.2178699,0.04125006,-0.01848873,-0.03192444,0.1049442,-0.06371232,0.3164567
-0.04754804,0.983486,0.2143745,0.0524174,-0.009855556,-0.03557206,0.1208599,-0.06682278,0.3196176
-0.04042722,0.9880246,0.2089452,0.05929048,-0.004675277,-0.04113159,0.129422,-0.05767652,0.3193552
-0.0485577,0.9833268,0.1989036,0.05084837,-0.008728227,-0.05128095,0.1101675,-0.06400176,0.3162267
-0.06152993,0.975551,0.2020786,0.0375034,-0.01585749,-0.04819004,0.09826539,-0.07597962,0.3058043
-0.05048127,0.9772268,0.2044433,0.04812127,-0.01353499,-0.04588482,0.0757001,-0.08605558,0.2834939
-0.02945544,0.9713994,0.1976238,0.06866122,-0.01871632,-0.0527384,0.08471709,-0.08362377,0.275497
-0.01684603,0.9743881,0.2005912,0.08073197,-0.01508328,-0.04977883,0.09836758,-0.0676681,0.2752213
-0.02235049,0.9905464,0.2050497,0.0746377,0.00171687,-0.04530109,0.0708866,-0.06518488,0.2617413
-0.03687737,0.9928579,0.1995717,0.05947135,0.004666383,-0.05073254,0.06871135,-0.07853887,0.2375038
-0.02575445,0.9941377,0.1919159,0.06990693,0.006578923,-0.05831393,0.06918026,-0.1109677,0.22068
-0.01793547,0.997642,0.1853921,0.07699258,0.010709,-0.06473473,0.05145273,-0.1048788,0.2110224
-0.02785787,1.006254,0.1783078,0.06629254,0.01993837,-0.07168683,0.03829652,-0.0286946,0.1972094
-0.02334644,1.010868,0.1736219,0.06998371,0.02515909,-0.07621029,0.0268049,0.007394814,0.1861611
-0.02776925,0.9923422,0.182015,0.06469979,0.007227161,-0.06762326,0.02673187,-0.02261711,0.1656986
-0.03607678,0.9784386,0.1928254,0.05549224,-0.006096132,-0.05658678,0.0001617989,-0.03880587,0.1427288
-0.03070105,0.9805539,0.1850518,0.05993117,-0.00341499,-0.06410171,-0.02856659,-0.006475431,0.1387155
-0.0347457,0.9833131,0.1809871,0.05491516,-0.0001049718,-0.06787515,-0.01677401,0.02594586,0.1340863
-0.03720076,0.9790978,0.2005923,0.05145644,-0.003784717,-0.04794595,-0.01120308,0.005016086,0.1156363
-0.03377133,0.9787247,0.2116474,0.05385222,-0.003637675,-0.03653447,-0.01495452,0.006547134,0.08687131
-0.03501482,0.9953305,0.1951686,0.05154736,0.0134725,-0.05262548,-0.02226455,0.05167377,0.07665468
-0.04429211,1.00307,0.1825041,0.04118326,0.02170063,-0.06487156,-0.06757495,0.06210761,0.1014035
-0.06171129,0.9806687,0.1957868,0.02265438,-0.0002301571,-0.05114044,-0.1479457,0.02021344,0.1205817
-0.0666988,0.9503163,0.2089131,0.01653729,-0.03012886,-0.03753633,-0.1837554,-0.02748633,0.1265985
-0.06762906,0.948548,0.2077519,0.01446099,-0.03146033,-0.03819127,-0.1498765,0.0130739,0.1425931
-0.08879582,0.9645937,0.2119249,-0.00786462,-0.01499315,-0.03348506,-0.1291306,0.04601223,0.1666255
-0.1135292,0.9814685,0.2088765,-0.03376561,0.002288615,-0.03597488,-0.1148543,-0.05074865,0.1780236
-0.1102594,1.007426,0.1971223,-0.03166733,0.02863927,-0.04714654,-0.09092839,-0.1096499,0.1783114
-0.09135265,0.9992146,0.2030086,-0.01393125,0.02080552,-0.04065506,-0.1000606,-0.06279799,0.2083296
-0.09018518,0.9735541,0.2078903,-0.01392918,-0.004492845,-0.03514671,-0.09537531,-0.03506946,0.2485716
-0.0975945,0.9804157,0.2054764,-0.02249495,0.002714817,-0.03691362,-0.07122212,-0.064408,0.261271
-0.1013256,0.973309,0.2084338,-0.02737008,-0.004061949,-0.03329043,-0.07825368,-0.104415,0.2651101
-0.09101137,0.9624851,0.2070534,-0.01818401,-0.01457136,-0.03398742,-0.08844518,-0.1259354,0.2623361
-0.06101808,0.9711869,0.2109231,0.01069983,-0.005570064,-0.02941836,-0.08603905,-0.1220667,0.2653435
-0.03958297,0.976087,0.2213396,0.03104603,-0.0003847362,-0.01828781,-0.07299633,-0.08492405,0.2755283
-0.0291518,0.9909446,0.2308186,0.04040936,0.0147442,-0.008082138,-0.0475791,-0.07596536,0.2633952
-0.02355848,0.9919251,0.2391833,0.04495556,0.01598205,0.001019863,-0.03813555,-0.07795771,0.240623
-0.02211339,0.9860387,0.2337657,0.04537347,0.01033875,-0.003652449,-0.01884498,-0.02529765,0.22105
-0.01821236,0.9950801,0.2269611,0.0482663,0.01960861,-0.009706222,0.01754845,0.003571996,0.2113604
-0.02191075,0.9761529,0.2300216,0.0435777,0.0008949122,-0.005891506,0.01018096,-0.0191166,0.2028116
-0.02082472,0.9557129,0.229293,0.04369055,-0.01934638,-0.005864421,-0.009000295,-0.03379688,0.1791127
-0.01785966,0.9618328,0.2285083,0.04569859,-0.01304167,-0.00589395,-0.002498333,0.01147954,0.1725825
-0.02862402,0.971188,0.2298726,0.0339926,-0.003514449,-0.003776458,-0.005721346,0.05810681,0.1727453
-0.04139473,0.9826798,0.2283902,0.02029515,0.00813745,-0.004509568,-0.005722788,0.01785942,0.1511845
-0.05691165,0.9821548,0.2268819,0.003866457,0.007760987,-0.005273889,-0.002756971,-0.008520053,0.1415728
-0.0601748,0.977049,0.2234071,-0.0002927634,0.002792342,-0.008011509,-0.01404801,-0.002156519,0.1398355
-0.05460698,0.979502,0.2215707,0.004395765,0.005371239,-0.009118578,-0.0176016,-0.01792453,0.135216
-0.06030025,0.9774245,0.2261407,-0.002158913,0.003408678,-0.003828218,-0.01916403,-0.01691099,0.1465752
-0.05912255,0.9801239,0.2292103,-0.00182371,0.006212166,-4.81922e-05,-0.02158737,-0.01992086,0.159714
-0.059439,0.9863644,0.227195,-0.00296274,0.01254621,-0.001364073,-0.02507351,-0.02681037,0.1698725
-0.06454666,0.9883351,0.2245467,-0.008872104,0.01459997,-0.00332515,-0.04469763,-0.03546945,0.1774811
-0.05826769,0.9878744,0.2231812,-0.003373016,0.01421165,-0.004016286,-0.06167218,-0.05339245,0.1790465
-0.05322807,0.984063,0.2234864,0.0009093505,0.0104619,-0.003050523,-0.06129137,-0.03814429,0.1833031
-0.05019298,0.9782633,0.2253848,0.00321033,0.004712944,-0.0005058583,-0.05182143,-0.0225771,0.1808726
-0.04766523,0.9712589,0.2282834,0.00502734,-0.002251128,0.003024029,-0.04136382,-0.04083751,0.1776337
-0.04733853,0.9722417,0.231649,0.00466674,-0.001237951,0.007005103,-0.02919387,-0.05486595,0.1785476
-0.04308968,0.9765378,0.2324963,0.008251629,0.003079259,0.00845146,-0.02468982,-0.05044346,0.173452
-0.03683023,0.9749882,0.229758,0.01387023,0.001542082,0.006294861,-0.03179854,-0.04259916,0.1720804
-0.02980128,0.9779599,0.2286314,0.0202809,0.004517869,0.005731982,-0.0259934,-0.03126908,0.1691578
-0.03118585,0.9773698,0.2313357,0.01829988,0.003924117,0.008981345,-0.025167,-0.02665663,0.1628782
-0.03882067,0.9716738,0.2364339,0.01008956,-0.001782888,0.01460546,-0.03098902,-0.03839757,0.1558357
-0.03917105,0.9747842,0.2414306,0.009183939,0.001309591,0.02010833,-0.01627661,-0.03889265,0.1424136
-0.03924805,0.9777641,0.2410311,0.008571481,0.004265143,0.02019429,-0.009017916,-0.02092474,0.1409871
-0.04133494,0.9795835,0.2386768,0.005968489,0.006054279,0.01830404,-0.009390966,-0.008113427,0.1425618
-0.04333179,0.9823028,0.2377324,0.003474532,0.008737449,0.01780145,-0.01061753,-0.02175954,0.1321935
-0.04585085,0.9812023,0.2336777,0.0004771097,0.007595307,0.01416596,-0.01561656,-0.03549985,0.1280127
-0.04506644,0.9808727,0.2321446,0.0008017236,0.007218624,0.01302905,-0.00684592,-0.004909252,0.1300613
-0.04933477,0.9741328,0.2350869,-0.003907945,0.0004262679,0.01634434,-0.007354943,0.01251358,0.134111
-0.05438897,0.9679179,0.2336745,-0.009385038,-0.005845971,0.01528168,-0.02429357,-0.03017849,0.1368336
-0.04768537,0.9787165,0.228143,-0.003085797,0.004890973,0.01007662,-0.037256,-0.05934142,0.1338749
-0.04082951,0.9891903,0.2244844,0.00338424,0.0152991,0.006721359,-0.03198062,-0.02707154,0.1326695
-0.04200742,0.9856518,0.2293751,0.0018388,0.01169097,0.01189261,-0.0198504,0.001729,0.1305729
-0.04661561,0.979072,0.2366918,-0.003119012,0.005037517,0.0194674,-0.02823423,-0.0207831,0.1264873
-0.0490225,0.9770831,0.2347593,-0.005857922,0.002970965,0.01777078,-0.02801395,-0.03792402,0.1250975
-0.04425334,0.9773716,0.2359548,-0.001403369,0.003178041,0.01917979,-0.02026308,-0.03540037,0.126046
-0.03868246,0.977556,0.2400196,0.003870052,0.003277621,0.02343599,-0.02503798,-0.03421861,0.1268888
-0.03979668,0.9753867,0.2312468,0.002475055,0.001020411,0.01483238,-0.02061293,-0.01896696,0.12531
-0.04157863,0.9725351,0.2264315,0.0004284472,-0.001921845,0.01016439,-0.02215987,-0.02347346,0.1250365
-0.04047098,0.9755037,0.2371501,0.001287036,0.0009538806,0.02100878,-0.02542429,-0.03487908,0.1248621
-0.0417122,0.977442,0.2451969,-0.0001881629,0.002797337,0.02916012,-0.01982079,-0.02431295,0.121798
-0.04091654,0.9749051,0.2417258,0.0003881315,0.0001641692,0.02577248,-0.01996721,-0.0289051,0.1190451
-0.03645744,0.9748238,0.237857,0.004641976,-1.463331e-05,0.02196604,-0.01289538,-0.02606071,0.1171679
-0.03603571,0.9753569,0.2395047,0.004871973,0.0004200327,0.02365491,-0.004895958,-0.01391189,0.1154516
-0.03784278,0.9771926,0.2380796,0.00288602,0.002156739,0.02225022,-0.001301796,-0.01710913,0.1121174
-0.03967527,0.9801851,0.2370509,0.0008868707,0.005049913,0.02122134,-0.00323031,-0.01654485,0.1076065
-0.04039128,0.9809036,0.238486,1.588985e-05,0.005668874,0.02263607,-0.01181216,-0.0204721,0.1037652
-0.04115227,0.9793977,0.2360315,-0.0008888306,0.004063141,0.0201414,-0.0069085,-0.02022472,0.09877616
-0.04528057,0.9766787,0.2373339,-0.005150008,0.001244284,0.02138434,-0.006217652,-0.01588532,0.0937585
-0.04654381,0.9760687,0.2391508,-0.006535532,0.0005344382,0.0231228,-0.01261577,-0.02082046,0.09196788
-0.04489997,0.9763708,0.2391089,-0.00500356,0.0007368876,0.02298401,-0.009963384,-0.01702777,0.09243839
-0.04235685,0.9767815,0.2417313,-0.002562061,0.001048308,0.02549157,-0.01197793,-0.01308409,0.09342104
-0.03899184,0.9783184,0.2358557,0.0007112887,0.002486631,0.01948346,-0.01095666,-0.0096175,0.09355841
-0.04114787,0.979978,0.2294497,-0.001526825,0.004048392,0.01292793,-0.008783067,-0.008617912,0.08935992
-0.04637579,0.9822887,0.234745,-0.00682766,0.006262062,0.01805735,-0.01056648,-0.01807612,0.08611562
-0.04899776,0.9835037,0.238118,-0.009513628,0.007380701,0.02124889,-0.007303909,-0.01830505,0.08809154
-0.04581243,0.982465,0.2358437,-0.006383469,0.006246295,0.0187782,-0.007434541,-0.01547293,0.08826492
-0.04120878,0.9796043,0.2374151,-0.001826293,0.003290391,0.02013897,-0.003847429,-0.01489505,0.08846132
-0.04483281,0.9778022,0.2398303,-0.005488352,0.00139356,0.02232975,0.003867491,-0.01686603,0.08516164
-0.04580035,0.976946,0.2367172,-0.006485759,0.0004431684,0.0189791,0.006010401,-0.0230376,0.07563283
-0.035978,0.9755256,0.2341782,0.003314594,-0.001070558,0.01618993,0.007300422,-0.01465062,0.0741574
-0.02922115,0.9816635,0.2355661,0.01005684,0.004974784,0.01731572,0.00751247,0.0001560176,0.0756026
-0.03261404,0.9879519,0.2384087,0.00665598,0.01117172,0.01988496,0.00854466,0.006575155,0.07323551
-0.03974063,0.9797583,0.2422999,-0.0004727402,0.002887345,0.02349222,0.007633825,-0.002963269,0.07269952
-0.04286669,0.9711064,0.2418657,-0.003595677,-0.005854564,0.02276375,0.006155804,-0.01614644,0.06967296
-0.04197656,0.9737864,0.2381407,-0.002697507,-0.003263612,0.01873478,0.007973854,-0.001042501,0.06751013
-0.04118638,0.9769304,0.2370529,-0.00189461,-0.000207359,0.01733365,0.0072301,0.009770905,0.06722501
-0.04215612,0.9779598,0.2371171,-0.002847203,0.0007357105,0.01707568,0.007506731,-0.007467631,0.06535391
-0.04442077,0.9810456,0.2359911,-0.005090496,0.003736927,0.01561949,0.007154173,-0.01606301,0.06612668
-0.04449285,0.9804709,0.2322697,-0.005137188,0.003079185,0.01156042,0.003438459,-0.01386627,0.0677412
-0.04267109,0.9764481,0.2322615,-0.003286117,-0.001024978,0.01120793,-0.002622583,-0.01308446,0.06915566
-0.04165255,0.972549,0.2392307,-0.002234508,-0.005003824,0.01782686,-0.008353549,-0.01140219,0.06928246
-0.04130597,0.970128,0.2407606,-0.001851307,-0.007502603,0.01900113,-0.002257544,-0.01041802,0.06702592
-0.04001472,0.9753194,0.2374479,-0.0005201451,-0.002386697,0.01532812,0.005357282,-0.01018155,0.06170489
-0.03808098,0.9795221,0.2396322,0.001456508,0.001743042,0.01714764,0.002922398,-0.01080023,0.05358698
-0.03887582,0.974341,0.2422385,0.0007072342,-0.003508371,0.01938534,-0.0003803088,-0.009234724,0.05227135
-0.0393319,0.9702155,0.2430326,0.0002990091,-0.007701582,0.01980714,-0.003176537,-0.00833381,0.05216297
-0.03877801,0.96955,0.2436839,0.0009027199,-0.008431766,0.020083,-0.00528309,-0.009005383,0.04704698
-0.04095338,0.96841,0.2404975,-0.00122117,-0.0096331,0.01651801,-0.004650243,-0.007550852,0.04576075
-0.0421715,0.9679041,0.2359406,-0.002386393,-0.01019661,0.01157995,-0.006402979,-0.006915785,0.04459894
-0.0422709,0.9694385,0.2322053,-0.002431639,-0.008715703,0.007461223,-0.01055416,-0.008530894,0.04451652
-0.04416695,0.9733576,0.2334646,-0.004272387,-0.004845721,0.008335685,-0.009599459,-0.02035445,0.04532237
-0.04591183,0.9784327,0.2411021,-0.005960885,0.000184909,0.01558745,-0.003673558,-0.03240252,0.04098253
-0.04281527,0.9831013,0.244387,-0.002806851,0.004813375,0.01848636,0.002791873,-0.01969678,0.04029819
-0.038293,0.9838112,0.2423698,0.001773936,0.005487296,0.01608319,0.005899567,-0.002981316,0.03920439
-0.04028931,0.9810135,0.2382243,-0.000163001,0.002657368,0.01155174,-0.0001628905,-0.004072352,0.03602594
-0.03934661,0.9792632,0.2345396,0.0008396918,0.0008782375,0.007481671,-0.01007586,0.001619296,0.03630901
-0.02945946,0.9807822,0.2361796,0.01078716,0.002371412,0.008737329,-0.02019828,0.01558806,0.02886371
-0.02455323,0.9864093,0.2373874,0.0157535,0.007975482,0.009562184,-0.01900207,0.01973541,0.01992232
-0.03542929,0.9881585,0.2404207,0.004936653,0.009704038,0.01221461,0.02090132,0.01347623,0.01447129
-0.0503242,0.9757413,0.2492762,-0.009900448,-0.002731943,0.02069147,0.0637035,-0.03022229,0.003693235
-0.04608641,0.9602183,0.2515042,-0.005606273,-0.01827192,0.02254315,0.0538374,-0.07522951,-0.001741524
-0.03013845,0.9617727,0.2386201,0.01039679,-0.0167323,0.009284926,0.03827885,-0.01834747,0.005015952
-0.02767457,0.9730673,0.220616,0.01291432,-0.005449799,-0.00909097,0.04849262,0.06484734,0.0202636
-0.05005266,0.9765392,0.2181031,-0.009411948,-0.001986877,-0.01197253,0.04002646,0.05045264,0.03456083
-0.07689421,0.9755139,0.231439,-0.03620344,-0.003017965,0.0009990207,0.03053137,0.008745474,0.03380304
-0.06783185,0.976548,0.2379201,-0.02709181,-0.001986457,0.007120846,0.02484766,-0.006054089,0.03126087
-0.05268541,0.982795,0.2266557,-0.0118956,0.004260965,-0.004497105,-0.004517706,-0.008140545,0.04130956
-0.06253514,0.9881247,0.2168965,-0.02169411,0.009593672,-0.0146034,-0.01359747,0.00145265,0.04693587
-0.06075182,0.9811374,0.226312,-0.01985741,0.00261168,-0.005527986,-0.01071394,-0.01054027,0.04905878
-0.05910386,0.9715153,0.2332366,-0.01815322,-0.007003309,0.001064551,-0.03029988,-0.0157551,0.0608842
-0.05949622,0.9664252,0.2275948,-0.01848585,-0.01208448,-0.004900721,-0.04974514,-0.003630136,0.06827486
-0.04587526,0.9625451,0.2291417,-0.004801238,-0.01595358,-0.003668335,-0.06374171,-0.007188258,0.06756904
-0.05183776,0.9612575,0.2353253,-0.01069596,-0.0172277,0.002209899,-0.05525045,0.0004133286,0.0664472
-0.05746249,0.9599499,0.2438049,-0.01624875,-0.0185185,0.01039365,-0.0344915,-0.0182122,0.06630161
-0.05226237,0.9608247,0.2525408,-0.01097242,-0.01762312,0.01884295,-0.03089659,-0.0510543,0.07321499
-0.05615602,0.9665696,0.2437522,-0.0147854,-0.01185321,0.009776479,-0.03019351,-0.03485655,0.08888377
-0.05014198,0.976591,0.2348727,-0.008686128,-0.001802118,0.0006272615,-0.03148118,-0.03152484,0.1139806
-0.04808619,0.9837516,0.2443568,-0.006540525,0.005392797,0.009849549,-0.02437349,-0.04131307,0.1309755
-0.05045715,0.9732311,0.2487455,-0.008817247,-0.005089152,0.0139843,-0.01423935,-0.03449868,0.1247661
-0.04548388,0.9603132,0.2453306,-0.003745493,-0.01796457,0.01032272,-0.01938307,-0.04752143,0.1233908
-0.0455085,0.9658458,0.2506294,-0.003667668,-0.01238544,0.01538164,-0.005300131,-0.06250531,0.1330447
-0.03997418,0.9776077,0.2565659,0.001972688,-0.0005728004,0.02108461,0.04070142,-0.07157776,0.1297172
-0.0382021,0.9858836,0.2535319,0.003853872,0.007758013,0.01782269,0.08177357,-0.09526345,0.1273854
-0.04057725,0.9868818,0.2418038,0.001590273,0.008814573,0.005871484,0.07186852,-0.1157567,0.133792
-0.03245939,0.9817587,0.2279403,0.009821461,0.003752679,-0.008210405,0.03107272,-0.1095985,0.127657
-0.02126967,0.9837745,0.2231798,0.02112547,0.00583178,-0.0131845,0.01990785,-0.09791676,0.1179029
-0.003597611,0.9875873,0.2217841,0.03891154,0.009709355,-0.01478806,0.02164852,-0.08730664,0.1087409
0.001380986,0.9886982,0.2186778,0.04400207,0.01088571,-0.01809586,0.01742398,-0.03647397,0.09586352
-0.01053918,0.9924736,0.2260461,0.03218964,0.01472666,-0.01092164,0.01512803,0.00114984,0.09411437
-0.01009671,0.9930234,0.2384636,0.03273374,0.01534112,0.001309757,0.0236323,-0.04906565,0.08582104
-0.006189877,0.9961248,0.2431196,0.03673447,0.01850542,0.005787833,0.04542347,-0.1147375,0.06290128
-0.005162984,0.9958604,0.2415883,0.03784605,0.01830136,0.004086545,0.03790946,-0.1228462,0.04443962
-0.002698691,0.9779621,0.2311667,0.04038433,0.0004599942,-0.006497248,0.01671779,-0.1004523,0.03124643
-0.0001885349,0.9676789,0.2193972,0.04295631,-0.009770098,-0.01842129,0.006429994,-0.072438,0.02921761
0.01396855,0.9859837,0.2163008,0.05716157,0.008584261,-0.02166399,-0.01358423,-0.02371261,0.02992188
0.02551895,1.005718,0.2122361,0.06874469,0.02836446,-0.025866,-0.02275895,0.03345976,0.01664522
0.01380246,0.9978363,0.2106072,0.05704343,0.02052432,-0.02762227,-0.02841265,0.04375577,-0.007984733
-0.004278132,0.9888528,0.217786,0.03895874,0.01157728,-0.0205601,-0.02801824,0.01906004,-0.02971442
-0.009319041,0.990032,0.2256756,0.03389331,0.01278707,-0.01277546,-0.01263399,0.01250425,-0.0323669
-0.01140503,0.9730109,0.2356971,0.03176194,-0.004209359,-0.002847139,-0.009431161,-0.01384098,-0.03700422
-0.01702562,0.9674604,0.2412279,0.02607505,-0.009741092,0.002602179,-0.004294949,-0.04894251,-0.04805879
-0.01617994,0.984083,0.2362637,0.02683372,0.006894979,-0.002432343,-0.006302337,-0.008466761,-0.02977013
-0.01875163,0.9871575,0.2326011,0.02415464,0.009977942,-0.006154681,-0.01355097,0.02743838,-0.004664181
-0.02479563,0.9810125,0.2303514,0.01798339,0.00383654,-0.008453855,-0.007266519,-0.02430691,-0.006850464
-0.02189551,0.9706157,0.2368445,0.02073708,-0.006561469,-0.002000415,-0.006313806,-0.06158641,-0.009871313
-0.02053085,0.9661128,0.2485415,0.02193685,-0.01107007,0.009666321,0.00269946,-0.04011236,-0.002523733
-0.01862094,0.9686295,0.2386279,0.02366413,-0.008562675,-0.0002687329,0.007452659,-0.02187772,0.002463643
-0.01341808,0.9636437,0.2300576,0.02866718,-0.01356077,-0.00885241,0.006382644,-0.01669091,0.01275019
-0.01488377,0.9637115,0.2395971,0.02698499,-0.01350721,0.0006814023,0.01932684,-0.02549659,0.01990358
-0.01600916,0.9602581,0.2395664,0.02562682,-0.01697614,0.0006522531,0.009050753,-0.0530166,0.01160247
-0.01287705,0.9548567,0.2331004,0.02851029,-0.02239332,-0.005805496,-0.008623977,-0.04777197,0.003663918
-0.01203058,0.9712375,0.2248077,0.02909268,-0.006027512,-0.01408338,-0.004732206,0.007288406,0.003294699
-0.01561336,0.9951084,0.2212461,0.0252308,0.0178296,-0.01762379,0.008260278,0.04397017,0.01823485
-0.0240191,0.9992517,0.2467719,0.01653143,0.02196006,0.007929823,0.0289939,-0.002444057,0.04318711
-0.03104278,0.9744745,0.2699043,0.00920041,-0.002829783,0.03109596,0.031027,-0.08675324,0.04714067
-0.0230106,0.9560082,0.2492125,0.01691261,-0.0213088,0.01044271,0.02566212,-0.1025397,0.04453664
-0.007006078,0.9754386,0.2279705,0.03258547,-0.001890899,-0.01075705,0.03462532,-0.07624936,0.04392916
-0.003723041,0.9957211,0.2400283,0.03552567,0.01837978,0.001345826,0.02540286,-0.05902048,0.02922349
-0.008647311,0.991363,0.2359588,0.03024754,0.01401014,-0.002675747,0.01292184,-0.02193007,0.03166942
-0.01039615,0.989026,0.2131086,0.0281339,0.01166137,-0.02547523,0.006601345,0.002005091,0.04050767
-0.007246934,0.9913255,0.2121729,0.03090761,0.013948,-0.02635722,-0.01211007,0.004794835,0.03031816
-0.002881804,0.9850276,0.2196482,0.03488678,0.007635808,-0.01882443,-0.01977966,0.0073888,0.03064351
-0.0006240082,0.9835577,0.2277439,0.03674828,0.006149697,-0.01066659,-0.02108189,-0.0007778271,0.02788774
0.006813975,0.9796902,0.2353383,0.04377961,0.00226393,-0.003005378,-0.02286237,0.001054142,0.009636329
0.01237175,0.9655403,0.2376851,0.04892013,-0.01190634,-0.0005870164,-0.0214424,-0.007576206,-0.008233852
0.01096331,0.9632822,0.2376521,0.0470834,-0.01418631,-0.0005442987,-0.02634714,-0.01750021,-0.02156534
0.01481445,0.9771155,0.2286789,0.05049474,-0.0003759093,-0.009437892,-0.02177567,0.01981774,-0.02133498
0.01762892,0.9913847,0.2320416,0.0528574,0.01387002,-0.005992036,-0.01852555,0.05099848,-0.02795026
0.01176449,0.9845071,0.2403184,0.04652863,0.006968366,0.002371259,-0.01848079,0.03195279,-0.03748506
-0.004476938,0.9678578,0.235914,0.02981009,-0.00970569,-0.001943481,-0.005926224,0.01462399,-0.03184876
-0.02353917,0.9633301,0.2401212,0.01025832,-0.01425895,0.002355818,0.003735792,0.02720273,-0.02838991
-0.02092557,0.959213,0.2374583,0.01237104,-0.01840149,-0.0002127896,0.009460037,0.02251568,-0.01932544
-0.01233218,0.9693743,0.2314655,0.02045365,-0.008264864,-0.006109589,0.007475699,-0.001753315,-0.01320486
-0.01549817,0.9865461,0.2351099,0.01676826,0.008883518,-0.002367709,0.01418414,-0.003246335,-0.0175558
-0.007451744,0.9834611,0.2314315,0.02428779,0.005776665,-0.005947332,0.042627,0.02174148,-0.01571816
-0.002557268,0.9830192,0.2293478,0.02864874,0.005313887,-0.007931113,0.05532895,0.05623887,-0.0183408
-0.01258686,0.9869923,0.2211936,0.01807968,0.009266831,-0.01598415,0.04533741,0.05159003,-0.0195587
-0.01203145,0.9855134,0.213905,0.0180904,0.007768198,-0.02317014,0.03492784,0.03244618,-0.02104902
-0.005835412,0.979797,0.2259196,0.02373738,0.00203212,-0.01105098,0.0346505,0.04899328,-0.03393911
-0.001805892,0.9697074,0.2305202,0.02721418,-0.008077287,-0.006343357,0.02577221,0.05388939,-0.03988212
-0.003761943,0.9723313,0.2201068,0.02470227,-0.005473198,-0.0166473,0.009528713,0.05897014,-0.0305937
-0.01333053,0.9736344,0.2128952,0.01457518,-0.004189471,-0.02374682,0.01256965,0.05306271,-0.01990669
-0.01469051,0.9677088,0.221862,0.01265475,-0.01013385,-0.01466478,0.004690562,-0.0001374146,-0.03214801
-0.01538116,0.976927,0.2308601,0.01140263,-0.0009333732,-0.005548005,-0.01513215,-0.0246363,-0.04542895
-0.01560433,0.9876629,0.2232966,0.01061795,0.009785996,-0.01298937,-0.01603768,-0.01486464,-0.03846638
-0.00944542,0.9912679,0.2233362,0.01621623,0.01337538,-0.01282418,0.005855697,-0.01391399,-0.04798097
-0.006203473,0.9918168,0.2323354,0.0188992,0.01390915,-0.003696054,0.03960066,-0.009680146,-0.05821082
-0.002793906,0.9806904,0.2344502,0.02175194,0.002767278,-0.001449035,0.03538084,0.03270365,-0.04279052
-0.005656628,0.9703908,0.2248825,0.01833492,-0.007548273,-0.01088158,0.01712952,0.08604694,-0.03454967
-0.009087781,0.9795033,0.2039883,0.01435234,0.001547825,-0.03163801,0.00615883,0.05657052,-0.05094505
-0.006393013,0.9917257,0.1978485,0.01649897,0.01375351,-0.03763668,-0.03556889,0.02840818,-0.07762332
-0.01292509,0.9856659,0.2170643,0.009422521,0.00767643,-0.01827555,-0.03734062,0.07630441,-0.08512614
-0.02115761,0.9705282,0.2404529,0.0006500256,-0.007479496,0.005263055,-0.006455875,0.0876169,-0.06422065
-0.02536511,0.9607476,0.246009,-0.004092176,-0.017279,0.01097351,-0.004643573,0.06131371,-0.04170042
-0.02954102,0.9694301,0.231886,-0.008796368,-0.008615553,-0.002991594,0.01708105,0.04868772,-0.03650341
-0.03423258,0.983709,0.2241246,-0.01400847,0.005644634,-0.01059254,0.02034888,0.03184701,-0.0345128
-0.0367883,0.9722399,0.2309209,-0.01707556,-0.005842361,-0.003633459,0.005784303,-0.01242401,-0.03565492
-0.02491469,0.9656764,0.2332654,-0.005702711,-0.01242309,-0.001124188,0.03340994,-0.05192233,-0.05532357
-0.01052893,0.9821181,0.2259293,0.008193975,0.00400254,-0.008294065,0.04674212,0.01687707,-0.05933885
-0.007668283,0.9876847,0.2184793,0.01057772,0.0095542,-0.01557644,0.05063616,0.106384,-0.04147068
-0.01151647,0.9881098,0.2136051,0.006264854,0.009965204,-0.02028177,0.05868665,0.08154157,-0.03453507
-0.02268669,0.9879955,0.2103403,-0.005357785,0.009837349,-0.02337594,0.04124592,0.06371345,-0.03110386
-0.03969109,0.9789655,0.2129907,-0.02280193,0.0007936319,-0.02055276,0.02999249,0.07490319,-0.02773192
-0.0507467,0.9694809,0.216421,-0.0342836,-0.008704822,-0.01694699,0.02437999,0.01848732,-0.0241743
-0.04142429,0.966266,0.2158872,-0.02537209,-0.01193366,-0.0173025,0.02001073,-0.02411249,-0.03132489
-0.02679891,0.9769461,0.2145836,-0.01114105,-0.001266995,-0.01842451,0.01658035,-0.007675004,-0.04539245
-0.02560151,0.9853967,0.2125327,-0.01032056,0.007170869,-0.02029056,-0.002712065,0.02309265,-0.03334152
-0.03086341,0.9844241,0.217185,-0.01594149,0.006186198,-0.01544977,-0.0156906,0.04721424,-0.02317907
-0.03921735,0.9846907,0.2223117,-0.02463616,0.006440973,-0.0101309,-0.01427711,0.02808491,-0.0263487
-0.03742893,0.9798887,0.2134915,-0.02316957,0.001627231,-0.01875528,-0.01413067,0.007186434,-0.02167241
-0.03184088,0.9778484,0.2063278,-0.01788379,-0.0004250009,-0.02571955,-0.02560276,0.02634345,-0.01777661
-0.03686599,0.9803977,0.2105853,-0.0231911,0.002112197,-0.02125876,-0.02894856,0.02630042,-0.01042421
-0.03365215,0.9815522,0.2135817,-0.02023899,0.003254372,-0.01805471,-0.01776622,-0.005295671,-0.01282034
-0.02981149,0.9843668,0.2138766,-0.01663932,0.006056417,-0.01754788,-0.02067789,-0.0234025,-0.02162414
-0.03014313,0.9834577,0.2143903,-0.01719106,0.005134365,-0.01681782,-0.02471732,-0.006956224,-0.0173935
-0.0270569,0.9827732,0.2118148,-0.01430409,0.004436137,-0.01917259,-0.02779744,0.01169774,-0.01992947
-0.0300636,0.9838114,0.2114314,-0.01748934,0.005459819,-0.01933075,-0.03160633,-0.003552914,-0.02422455
-0.02662917,0.9828948,0.2175954,-0.01421296,0.00452774,-0.01293717,-0.02607968,-0.01651714,-0.02348109
-0.02185815,0.9825474,0.2204955,-0.009579764,0.00416375,-0.009803181,-0.02996537,-0.0125446,-0.02598411
-0.02200938,0.9825246,0.2203082,-0.009849043,0.004123124,-0.009752684,-0.02707974,-0.01097596,-0.02531706
-0.01606097,0.9863048,0.2232793,-0.00399954,0.007884212,-0.006540185,-0.01377332,0.009322479,-0.03029706
-0.01924097,0.9901554,0.2219313,-0.007260048,0.01171405,-0.007643801,-0.009326025,0.02798548,-0.04339413
-0.02860724,0.9863481,0.2175787,-0.01668914,0.007884371,-0.01174938,-0.01605522,0.01264153,-0.05513709
-0.03331124,0.9792857,0.2164,-0.02143877,0.0007974497,-0.01267897,-0.02813664,-0.007734449,-0.05752452
-0.03273757,0.9753273,0.2185642,-0.02089374,-0.003187556,-0.01026365,-0.0102317,-0.01171134,-0.04953161
-0.02545063,0.9723947,0.2296149,-0.01361859,-0.0061485,0.001039732,0.01679716,0.009067617,-0.0406113
-0.02566196,0.9699093,0.2379848,-0.01382515,-0.008663612,0.00966337,0.01858452,0.02987015,-0.0291222
-0.03253393,0.9767774,0.2262539,-0.02067623,-0.001826071,-0.00181361,0.01705401,0.006806612,-0.0289738
-0.03634049,0.9880327,0.2138625,-0.02444606,0.00939815,-0.01395181,0.008586926,-0.01391518,-0.0386694
-0.0305478,0.9922322,0.2193702,-0.018601,0.01356596,-0.008191977,0.002628005,0.009972167,-0.03277479
-0.02056697,0.9961526,0.2223024,-0.008552394,0.01745364,-0.005008677,0.01256335,0.02104113,-0.03289003
-0.02650226,0.995276,0.2170718,-0.01440503,0.0165428,-0.009989584,0.02021584,0.0009687856,-0.04084146
-0.03474403,0.9791946,0.2182916,-0.02254988,0.0004249088,-0.008521643,0.01986572,-0.002070858,-0.03790615
-0.03670366,0.9665059,0.2125774,-0.0243987,-0.01230241,-0.01398928,0.01231019,0.01969154,-0.03864218
-0.03998346,0.9696155,0.2044007,-0.02755391,-0.009233296,-0.02192099,0.004927556,0.03545947,-0.03777829
-0.03713167,0.9771025,0.2152012,-0.02456381,-0.001787857,-0.01087667,-0.002442275,0.02251257,-0.03726439
-0.03804884,0.9811928,0.2235974,-0.02532897,0.002260145,-0.002237881,-0.006140381,0.008423767,-0.03958984
-0.03805032,0.9815979,0.2178811,-0.02516486,0.002622513,-0.007712764,-0.003318409,0.02334607,-0.03280597
-0.03215956,0.9843751,0.213831,-0.0190951,0.00535659,-0.01152295,-0.007376838,0.026357,-0.03025264
-0.03622297,0.9856099,0.2127162,-0.02296641,0.006547768,-0.01239943,-0.006690483,0.005952874,-0.03252152
-0.03733776,0.9751124,0.2150149,-0.02387635,-0.003993998,-0.009863935,-0.00128159,-0.0007686372,-0.03414499
-0.03491269,0.9661754,0.220697,-0.02123397,-0.01297552,-0.003946522,-0.001615954,0.01214445,-0.03414537
-0.03817608,0.9721531,0.2218862,-0.02426793,-0.007042339,-0.002523813,-0.0002986456,0.02534502,-0.02918919
-0.03824606,0.9802124,0.2191802,-0.02409669,0.0009730299,-0.004998181,-0.0009099441,0.01070021,-0.02789049
-0.03914114,0.9791405,0.2192165,-0.02473903,-0.0001418871,-0.004732583,0.0005084239,-0.004160094,-0.02908652
-0.03929137,0.9777558,0.2192332,-0.02462527,-0.001568536,-0.004489165,0.001745646,0.008715204,-0.03092379
-0.03868387,0.9780491,0.2171325,-0.02374281,-0.001316266,-0.006365725,-0.004735925,0.009931624,-0.02994544
-0.04241798,0.9763057,0.2174271,-0.02719126,-0.00309937,-0.00584989,-0.009210083,0.003419078,-0.02610781
-0.04425499,0.9774966,0.2168339,-0.02873214,-0.001947017,-0.006224801,-0.009382992,0.002841434,-0.02709923
-0.04354359,0.9780458,0.2122386,-0.02771431,-0.001434875,-0.01060478,-0.01056841,-0.004264422,-0.02600915
-0.03994439,0.9780322,0.2088475,-0.02379853,-0.001483932,-0.0137834,-0.01511952,-0.002977825,-0.02458232
-0.03760295,0.9812405,0.2093657,-0.02113065,0.001690383,-0.01305542,-0.01580257,0.0005163377,-0.02309601
-0.03937554,0.9841009,0.2095461,-0.02256735,0.004518278,-0.01266769,-0.0169027,0.0002757323,-0.02001322
-0.03893641,0.9856499,0.2114713,-0.02178336,0.006036196,-0.01053725,-0.02466458,0.004597745,-0.02195297
-0.03866886,0.9829885,0.2180315,-0.02116244,0.003344837,-0.003773677,-0.02481062,0.001679946,-0.02067155
-0.03910639,0.9798702,0.223363,-0.02123855,0.0001974211,0.001759059,-0.02571289,-0.004626855,-0.01847071
-0.03871031,0.979434,0.2270525,-0.0204735,-0.0002670429,0.005647454,-0.02853666,-0.005248193,-0.01898607
-0.03921024,0.9801865,0.2231135,-0.02059737,0.0004579823,0.00190442,-0.01449303,-0.002106729,-0.0160642
-0.03968411,0.982671,0.2157305,-0.02068858,0.002915794,-0.005285893,-0.003092102,0.001708849,-0.01538114
-0.04004653,0.979397,0.2182497,-0.02066221,-0.0003842225,-0.002577493,-0.01180559,-0.004874938,-0.018998
-0.03775328,0.9767164,0.2173893,-0.01797449,-0.003090038,-0.003252476,-0.01881349,-0.01315547,-0.0235104
-0.03514852,0.9820161,0.2151535,-0.01497009,0.00218526,-0.005306574,-0.01025838,-0.008289866,-0.02319785
-0.03710485,0.9841798,0.2199436,-0.01652222,0.004325199,-0.0003384546,-0.004138987,-0.003945049,-0.02086303
-0.03921646,0.9812402,0.2192249,-0.01822564,0.001362645,-0.0008830024,-0.006959137,-0.003253843,-0.02283897
-0.03943084,0.9777405,0.2173185,-0.01802839,-0.002159453,-0.00261931,-0.00810818,0.001242341,-0.02199244
-0.04147221,0.9775509,0.2170385,-0.01965511,-0.002370829,-0.002733233,-0.0118049,0.003635913,-0.02118435
-0.04381769,0.9802386,0.2175961,-0.0215833,0.0002957697,-0.002013622,-0.01301551,0.004686956,-0.02226838
-0.04239376,0.9820504,0.2208819,-0.01973973,0.002087117,0.001430027,-0.01060775,0.002722561,-0.02025267
-0.04113704,0.9843187,0.2193279,-0.01806128,0.004335802,2.969153e-05,-0.01337427,-0.001642168,-0.02005495
-0.04372451,0.9848699,0.2174614,-0.02022527,0.004867855,-0.001687565,-0.01482989,-0.002970764,-0.01950505
-0.04467561,0.9832702,0.2140781,-0.02075139,0.003249248,-0.004926006,-0.0235311,-0.006650471,-0.01614409
-0.04108588,0.9804368,0.2074208,-0.01673545,0.0003972692,-0.01144266,-0.03694481,-0.008420289,-0.01300648
-0.03659459,0.9780231,0.2110415,-0.01181704,-0.00203495,-0.007685402,-0.03260474,-0.006766472,-0.01068423
-0.03515306,0.9793206,0.2188265,-0.009947975,-0.0007558008,0.0002325311,-0.0182745,-0.007430868,-0.009018488
-0.03601441,0.9795519,0.221825,-0.01038198,-0.0005425621,0.003360454,-0.008029417,-0.008994206,-0.007494965
-0.03457386,0.9789122,0.2232975,-0.008514882,-0.001200024,0.004958598,-0.004807853,-0.009680661,-0.01100451
-0.0328064,0.980672,0.2218998,-0.006322335,0.0005424414,0.003682616,-0.006332705,0.0001593035,-0.01728359
-0.03507972,0.9825522,0.221915,-0.008172664,0.002405733,0.00381531,-0.005172616,0.01107463,-0.01940437
-0.03710412,0.9830379,0.2238663,-0.009776791,0.002874895,0.005879703,-0.006300566,0.005876148,-0.01748632
-0.03632813,0.9789717,0.2233899,-0.00858375,-0.001207481,0.005511658,-0.01166509,0.0007142065,-0.01275933
-0.03790678,0.9746152,0.2237403,-0.009749007,-0.005579861,0.005965466,-0.01370926,0.0007832412,-0.01155194
-0.04176032,0.9761742,0.2237578,-0.01319317,-0.00403635,0.006081188,-0.01342629,-0.003260278,-0.01269662
-0.04425254,0.9784201,0.2232394,-0.01528027,-0.001805238,0.005655748,-0.012184,-0.00378751,-0.0125179
-0.0484013,0.9811253,0.2239953,-0.01902822,0.000886002,0.006498983,-0.01049178,-0.005391157,-0.01480225
-0.05185611,0.9865054,0.223416,-0.02208643,0.006252864,0.006001477,-0.009781187,-0.01179843,-0.01543805
-0.04534636,0.9865315,0.2228282,-0.01518408,0.006266424,0.005489581,-0.009205906,-0.009117955,-0.01470773
-0.03672662,0.9837667,0.2195928,-0.006175631,0.003489419,0.002324169,-0.01050771,-0.005643314,-0.01470143
-0.03862833,0.9846752,0.2132486,-0.007692701,0.004385775,-0.003955787,-0.01437093,-0.007660087,-0.01344189
-0.04208466,0.9811838,0.2121016,-0.01076879,0.0008821275,-0.005044062,-0.02100158,-0.007597347,-0.01366439
-0.04055392,0.9777399,0.2155852,-0.008862473,-0.002574183,-0.001506825,-0.02408723,-0.007622316,-0.01328216
-0.03842111,0.9813994,0.2205518,-0.006358962,0.001072773,0.003508582,-0.01525425,0.009281332,-0.01129527
-0.0358047,0.9820602,0.2270439,-0.003377007,0.001720964,0.01004489,0.001219313,0.02510401,-0.01005606
-0.03881462,0.9781602,0.2277876,-0.006026878,-0.002191656,0.0108281,0.0133924,-0.004669273,-0.0102659
-0.043223,0.9755616,0.2220347,-0.010081,-0.00480284,0.005109722,0.005462648,-0.03012558,-0.01085215
-0.03690391,0.9786463,0.2223573,-0.003413653,-0.001730615,0.005461707,-0.006562852,-0.001452975,-0.01062296
-0.03269128,0.9852025,0.2255012,0.001141023,0.004813524,0.008629904,0.0007980751,0.02085768,-0.01166104
-0.03732976,0.9861216,0.2226639,-0.003161982,0.005720849,0.005811774,0.001674915,0.002822745,-0.01254448
-0.03934103,0.9817536,0.2227521,-0.004844691,0.001341101,0.00591388,-0.005563564,-0.004211819,-0.01426832
-0.03883323,0.9774886,0.222,-0.004015477,-0.002935682,0.005170591,-0.005645356,0.003422022,-0.01474375
-0.03937521,0.9789324,0.2173918,-0.004243337,-0.001503726,0.000565981,-0.01395777,-0.0003589163,-0.0119249
-0.04158479,0.9824163,0.2189188,-0.00614617,0.001968479,0.00209179,-0.01712086,0.002281586,-0.01322397
-0.04340138,0.9818656,0.220003,-0.007663428,0.001406155,0.003170145,-0.01277375,0.001129122,-0.01311418
-0.04057835,0.9839523,0.2213487,-0.004548443,0.003481403,0.004505523,-0.01343477,-0.006919071,-0.01058774
-0.03720324,0.9850412,0.2253533,-0.0008887245,0.004558737,0.008495656,-0.007766178,-0.001193166,-0.01007875
-0.0370352,0.9811985,0.2234697,-0.0004435205,0.0007042909,0.006593171,-0.009981601,0.001427035,-0.006052914
-0.03628415,0.9780441,0.222843,0.0005770949,-0.002462113,0.005943494,-0.01704859,0.002175502,-0.006712607
-0.03533774,0.9760776,0.2244488,0.001785264,-0.004440733,0.007521978,-0.01142719,0.003805198,-0.01050098
-0.03623308,0.9775299,0.2231567,0.001143677,-0.003000565,0.006198402,-0.007584565,-0.002774296,-0.009387604
-0.03445899,0.9792049,0.2234485,0.003163326,-0.001337437,0.006454684,-0.003128463,-0.00398254,-0.009875976
-0.03225472,0.979063,0.2238638,0.00560476,-0.001490884,0.006830304,0.002594349,-0.002834903,-0.008939644
-0.03418294,0.9795509,0.2257512,0.003905049,-0.001014071,0.008673993,0.003905606,0.0003038826,-0.008057761
-0.03673929,0.9782576,0.2288464,0.001568351,-0.002317813,0.01172144,0.006890567,0.007836657,-0.009461129
-0.04064759,0.9765808,0.2265293,-0.002129236,-0.004004578,0.009352512,0.004993648,0.007977015,-0.008823442
-0.04310919,0.9742438,0.2249633,-0.004388993,-0.006350727,0.007730509,-0.002314497,0.004163061,-0.009199289
-0.04136511,0.9733509,0.2274018,-0.002451693,-0.00725172,0.01010873,-0.01200085,-0.002957634,-0.005725206
-0.04210648,0.9743744,0.2263938,-0.003008219,-0.00623513,0.009036316,-0.01587887,-0.01721999,0.0001785236
-0.0425759,0.9731626,0.2256801,-0.003300914,-0.007452268,0.008254063,-0.009776684,-0.02829746,0.002491936
-0.0391797,0.9752524,0.2271727,0.0002641418,-0.005365996,0.009673967,-0.00830647,-0.02359161,0.005960314
-0.03688207,0.9798848,0.2247513,0.002722918,-0.0007350883,0.007175639,-0.004220145,-0.01537636,0.005278222
-0.03562465,0.9837519,0.2200052,0.004133843,0.003132414,0.002348751,0.004461747,-0.01788973,-0.001642895
-0.03426668,0.9860722,0.2155932,0.005637636,0.005455016,-0.00214786,0.005684306,-0.01245027,-0.005363543
-0.03412682,0.9833131,0.2175306,0.005915546,0.002699618,-0.0002981822,0.001151138,-0.003675664,-0.004608227
-0.03332897,0.9826351,0.2235629,0.006843567,0.002026453,0.005643484,-0.009059108,-0.005549263,-0.004426784
-0.03123633,0.9840196,0.2227819,0.009058372,0.003416772,0.004769436,-0.01207048,0.0002897566,-0.007487642
-0.03160581,0.9828967,0.2241618,0.0088029,0.002300359,0.00605396,-0.01338619,0.00610339,-0.01091747
-0.03226698,0.9832942,0.2281766,0.008247418,0.002704883,0.009971313,-0.02528979,-0.002617317,-0.01267838
-0.02973556,0.9825551,0.2263243,0.01087605,0.001973044,0.008019407,-0.02578215,-0.006775821,-0.01382805
-0.02860146,0.9814013,0.2277868,0.01209874,0.0008266927,0.009380186,-0.01623557,0.007201526,-0.01288834
-0.03159739,0.9810704,0.2303032,0.009182613,0.0005032657,0.01179273,-0.008954671,0.01572125,-0.008554545
-0.04081873,0.9758525,0.228556,3.22106e-05,-0.004707125,0.009939375,-0.007548583,-0.009256304,-0.003615621
-0.04882728,0.968384,0.2272136,-0.007914013,-0.01216808,0.00848846,-0.01254239,-0.03131023,-0.004216737
-0.03834608,0.9674125,0.2263536,0.002621436,-0.01313133,0.007517592,-0.00783875,-0.0123348,-0.00987825
-0.02450507,0.9750858,0.2279538,0.01650904,-0.005448942,0.009004576,0.001503849,0.003993574,-0.009937509
-0.03006388,0.9827924,0.2286402,0.01098921,0.002268261,0.00957556,0.008414035,-0.005863051,-0.004221455
-0.03791653,0.9845741,0.221861,0.003167798,0.004061749,0.002678656,0.00791718,-0.005011462,-0.003155836
-0.03870561,0.982887,0.2145754,0.002402311,0.002387638,-0.004726663,-0.004664001,0.003686847,-0.004850376
-0.04022862,0.9807552,0.2159881,0.0008955435,0.0002695857,-0.003435198,-0.007706059,0.002319449,-0.005695108
-0.03817109,0.9798262,0.2198669,0.002962356,-0.0006449331,0.0003215294,-0.005741356,0.002819176,-0.007061023
-0.03832608,0.9796986,0.2217686,0.002810063,-0.0007574783,0.002100551,-0.006866349,-0.0005726751,-0.005604975
-0.04020846,0.9816591,0.2280025,0.0009241214,0.001218684,0.008211661,-0.005779297,-0.005856538,-0.005341636
-0.03772907,0.9821214,0.2303928,0.003394067,0.001696911,0.0104791,-0.01013541,-0.0035521,-0.010075
-0.03836947,0.9777322,0.2264015,0.002738663,-0.002675985,0.006364773,-0.01078605,-0.002387864,-0.01107598
-0.03491171,0.9754341,0.2274925,0.006176141,-0.004957457,0.007332384,-0.009694975,0.007093905,-0.0063788
-0.02924471,0.9764205,0.2278555,0.01181776,-0.003954068,0.007571841,-0.009068589,0.01677479,-0.00574272
-0.0305589,0.9776508,0.2271404,0.01047306,-0.002706298,0.006732907,-0.0008962273,0.004836814,-0.009291643
-0.02918317,0.9775123,0.2327968,0.0118131,-0.00282668,0.01226514,0.003821353,-0.005904481,-0.009992854
-0.02903643,0.9748449,0.2355188,0.01191885,-0.005475281,0.01486244,0.00464765,0.004021757,-0.01022907
-0.03370333,0.973888,0.2300453,0.007205573,-0.006412639,0.009263502,0.005691979,0.01133528,-0.01147431
-0.0363533,0.9776865,0.2248567,0.004503881,-0.002593599,0.003948601,0.007436678,0.005006087,-0.01323867
-0.03678882,0.9822496,0.2260163,0.004011505,0.001991081,0.004981106,0.005678236,0.006333059,-0.01349826
-0.03593348,0.9801531,0.2270475,0.004805128,-8.291737e-05,0.00588433,0.0005873215,0.01276473,-0.01028772
-0.03790812,0.9777911,0.2240706,0.002764229,-0.002421532,0.002778997,0.002269145,0.01247902,-0.01003497
-0.03982608,0.9819045,0.2240426,0.0007757889,0.001715942,0.002622016,-0.0004139358,0.008896267,-0.008931232
-0.03843761,0.9822217,0.2256305,0.002089963,0.002057744,0.004080823,-0.005692265,-0.001484775,-0.005854189
-0.03772607,0.9796386,0.2258841,0.002723761,-0.0005003288,0.004205358,-0.004484223,-0.006818511,-0.007640004
-0.03648056,0.9792102,0.2268038,0.003888427,-0.0009033003,0.00499604,-0.004181388,-0.00544857,-0.009013005
-0.0356456,0.9795351,0.2269673,0.004639719,-0.00055283,0.005030883,-0.003008358,-0.007195086,-0.009754015
-0.03625259,0.9815652,0.22633,0.003946471,0.00150307,0.004265219,-0.00462825,-0.0002894384,-0.009686659
-0.03617547,0.9816093,0.2255447,0.003934939,0.001572905,0.003351944,-0.00684657,0.008759724,-0.007045768
-0.03602884,0.9825508,0.2261681,0.003990734,0.002540111,0.003847888,-0.006367556,0.009321163,-0.006368194
-0.0357641,0.9843913,0.2274442,0.004162653,0.004406067,0.004997285,-0.004499955,0.008098582,-0.006532573
-0.03437566,0.9819012,0.2280924,0.005456475,0.001940938,0.005519401,0.004829861,0.008981328,-0.008193354
-0.03291128,0.9788207,0.2314391,0.006824573,-0.00111531,0.008740786,0.009816834,0.01109494,-0.01161702
-0.03420152,0.9754297,0.2336326,0.005436475,-0.004482663,0.01080961,0.005673119,0.009900911,-0.01392894
-0.03635074,0.9760854,0.2339968,0.003187899,-0.003803908,0.01104967,0.003199602,0.01165254,-0.0133966
-0.03656307,0.9813536,0.2357002,0.002874865,0.001486967,0.01262901,0.007909086,0.02031972,-0.009528236
-0.03814445,0.9806164,0.2304956,0.001191664,0.0007719749,0.00730037,0.01992279,0.02455442,-0.006525181
-0.04131298,0.9731376,0.2229542,-0.002079549,-0.006685042,-0.0003652181,0.02656586,0.01378969,-0.005695537
-0.04163694,0.9667324,0.2235024,-0.002506688,-0.01306872,5.87012e-05,0.02048553,0.0008040801,-0.006958956
-0.03793822,0.9750285,0.2225805,0.00108876,-0.004750997,-0.000987131,0.01328624,0.01008647,-0.009600584
-0.03480214,0.9902048,0.2189458,0.004121756,0.01044741,-0.004745217,0.01996345,0.0219132,-0.01136288
-0.03629564,0.9888549,0.2193541,0.002525555,0.009119669,-0.004459104,0.02550444,0.01881219,-0.01202679
-0.03899082,0.9803891,0.2176926,-0.0002718479,0.0006759221,-0.00624128,0.01643293,0.01954087,-0.01166146
-0.04073181,0.9766533,0.2158512,-0.002114383,-0.003038381,-0.008201297,0.01365482,0.01823496,-0.01357638
-0.04242459,0.9773645,0.2179568,-0.003907746,-0.002306235,-0.006211786,0.01323389,0.01355116,-0.01400034
-0.04178953,0.9817118,0.2185128,-0.003371957,0.002061562,-0.005768702,0.007784674,0.01168339,-0.01036444
-0.0407401,0.9815684,0.2190365,-0.002420154,0.001938245,-0.005354419,0.007269287,0.003335638,-0.007468135
-0.04035072,0.9840392,0.2206692,-0.002126445,0.004428428,-0.003827398,0.006108088,-0.0005098957,-0.001268503
-0.03806057,0.9854183,0.2210609,7.021799e-05,0.005826224,-0.003537221,0.004725678,0.0009695686,0.001820023
-0.03755355,0.9759377,0.2216599,0.0004860752,-0.003636656,-0.003035578,-0.00032348,-0.002404035,-0.003630903
-0.03800539,0.9724838,0.2244981,-5.451291e-05,-0.007073806,-0.0002903674,-0.007017894,-0.002986906,-0.005693281
-0.03690199,0.9771283,0.2294214,0.0009626119,-0.002413273,0.004544213,-0.002591277,-0.00176972,-0.004489255
-0.03771581,0.9806427,0.2302131,6.501862e-05,0.001116567,0.005251498,0.001800349,-0.002596437,-0.004197118
-0.03773832,0.9794863,0.2275847,-3.873079e-05,-2.478921e-05,0.00254247,-0.0005995121,-0.002338863,-0.00399602
-0.03703224,0.9757796,0.2258693,0.0005886619,-0.003717012,0.0007502276,0.0003948557,-6.425071e-06,-0.004651051
-0.03808446,0.9764022,0.2227157,-0.0005396596,-0.003080258,-0.002476754,0.003117087,0.002135174,-0.005624463
-0.03823624,0.9735359,0.2227988,-0.0007649305,-0.005932577,-0.002463536,0.0006971761,0.001922992,-0.007605819
-0.03922333,0.9704979,0.2251348,-0.001822864,-0.008956587,-0.0001939296,-0.0009739031,0.003549072,-0.007486716
-0.04035396,0.9711495,0.2248245,-0.003021611,-0.008290734,-0.0005671392,-2.564868e-05,0.005573846,-0.006138101
-0.04093453,0.9701721,0.2265748,-0.003667469,-0.009253167,0.001123782,-0.001033322,0.0008995245,-0.007603566
-0.04233628,0.9773688,0.2261294,-0.005131513,-0.002040447,0.0006224122,-0.0005262507,-0.004702207,-0.008354196
-0.04123273,0.9856876,0.2228432,-0.004087099,0.006295526,-0.002716524,-0.001093718,-0.003392946,-0.007854246
-0.03952753,0.985861,0.2237023,-0.002437743,0.006487039,-0.00190699,-0.002174254,-0.002830038,-0.006045202
-0.03914832,0.9862894,0.2237089,-0.002110977,0.006934045,-0.00194672,0.0002302132,-0.005681382,-0.001493021
-0.04016845,0.9839669,0.2219137,-0.003180132,0.004630331,-0.00378504,-0.0003949045,-0.006310133,0.002127581
-0.04267617,0.9778458,0.2205735,-0.005733411,-0.001472226,-0.005165134,-0.007062744,-0.008452262,0.002366325
-0.0416502,0.9775501,0.2191145,-0.004749442,-0.001749733,-0.006660619,-0.01590457,-0.008588617,-0.0002516413
-0.04003471,0.9790983,0.2220801,-0.0031723,-0.0001836255,-0.003727989,-0.0164948,-0.005830393,-0.0004506811
-0.04065191,0.9750795,0.2249725,-0.003824145,-0.004184683,-0.0008650733,-0.01062753,-0.007411086,0.003046881
-0.03994545,0.9757122,0.2233941,-0.003148598,-0.003534538,-0.002469371,-0.00995016,-0.005923643,0.002986597
-0.04012534,0.9779688,0.2234217,-0.003355702,-0.001260509,-0.002464177,-0.01008117,-0.003926844,0.00273136
-0.03966679,0.9750812,0.2248676,-0.002920671,-0.004130625,-0.001037337,-0.01041824,-0.008810957,0.004362759
-0.03786204,0.9773344,0.2253259,-0.001135808,-0.001859885,-0.0005948231,-0.008891352,-0.008271865,0.003463579
-0.03728849,0.9795571,0.2268261,-0.0005786178,0.0003805888,0.0008927619,0.004377226,0.006203821,0.004528261
-0.03606344,0.9789696,0.2310343,0.000633437,-0.0001888423,0.005091201,0.01565939,0.01753597,0.004144075
-0.03743167,0.9746742,0.234852,-0.0007446225,-0.004466099,0.008901613,0.00640315,-0.0008896674,0.0008702812
-0.03953678,0.9677208,0.2317101,-0.002856571,-0.01140111,0.005754638,-0.007087404,-0.02110873,0.0005743331
-0.03608993,0.9777941,0.2225234,0.0005862849,-0.001308878,-0.003435659,-0.002698986,-0.004984505,-0.000667767
-0.03360923,0.991135,0.2154788,0.003065674,0.0120516,-0.01048224,0.005760858,0.006060346,-0.00347029
-0.03614289,0.9876009,0.2160397,0.0005331507,0.008537414,-0.009921709,0.00737456,-0.004534626,-0.006500382
-0.03857737,0.9791495,0.2182274,-0.001898009,0.0001057089,-0.007732313,0.005346291,-0.001478535,-0.004953758
-0.0391687,0.9725462,0.2166089,-0.002483961,-0.006478202,-0.00934683,-0.00232293,0.002988473,-0.0003387146
-0.03897813,0.9727259,0.2206814,-0.002286036,-0.00627938,-0.005267707,-0.003705602,-0.001095568,-0.003273901
-0.03872998,0.9745348,0.2288541,-0.002028593,-0.004451551,0.002914413,-0.004502226,-0.00330794,-0.004076261
-0.03927344,0.9722266,0.2290132,-0.002560864,-0.006740543,0.003085325,-0.009520988,-0.006283657,-0.001124777
-0.04059701,0.9791164,0.2237045,-0.003871414,0.0001688445,-0.002209167,-0.005304562,-0.004434966,-0.00121496
-0.04119544,0.9861833,0.2192121,-0.004454974,0.007255797,-0.006685314,-0.00674242,-0.00603206,0.00147906
-0.04009583,0.9798334,0.2209879,-0.003338626,0.0009260338,-0.00489119,-0.009208872,-0.0104054,0.001786008
-0.03889982,0.9744595,0.2243165,-0.002123999,-0.004427624,-0.0015422,-0.00438922,-0.003638482,0.003396653
-0.03893158,0.9751531,0.2221883,-0.002135309,-0.003713771,-0.003647766,-0.005292593,-0.0007392911,0.007249509
-0.03850221,0.9758103,0.2239506,-0.001683716,-0.0030363,-0.001860975,0.0001079319,-0.003834689,0.0002627164
-0.03698858,0.9767486,0.2266667,-0.0001462163,-0.002077398,0.0008816317,0.00505132,-0.003313858,-0.0053293
-0.03612295,0.9765204,0.2266237,0.0007448164,-0.002284778,0.0008669466,0.001871008,-0.000549602,-0.002134785
-0.03771658,0.9769481,0.2285471,-0.0008220726,-0.001835902,0.002820024,0.002949307,0.003928447,-0.002025465
-0.04074114,0.9811052,0.2254217,-0.003818682,0.00234276,-0.000274408,0.003104455,0.003686964,-0.003084905
-0.04088117,0.9841048,0.2220539,-0.00392962,0.005364038,-0.003610179,0.002228747,0.00351704,-0.0006349491
-0.0405809,0.9807369,0.2229225,-0.003599093,0.002017864,-0.002708543,-0.001248867,0.005139439,0.00124078
-0.0419625,0.9756647,0.224385,-0.004949244,-0.003032778,-0.001212167,-0.006169447,0.002151496,0.0006906877
-0.03993089,0.9759303,0.2272962,-0.002884937,-0.002745928,0.00173378,-0.006013866,0.001744955,0.001878785
-0.03793195,0.9773909,0.224884,-0.0008520727,-0.001264295,-0.0006429655,-0.006673853,0.001189505,0.004330592
-0.03926691,0.9777412,0.2225968,-0.002151933,-0.0008930447,-0.002894239,-0.007305533,-0.004169118,0.003618855
-0.03997597,0.9798262,0.2269541,-0.002824817,0.001212811,0.001499516,-0.008119075,-0.007124575,0.001435242
-0.03981215,0.9795335,0.2286639,-0.002623783,0.0009407325,0.003246128,-0.009719579,-0.00575712,4.239858e-05
-0.03777098,0.9781111,0.2277282,-0.0005444354,-0.0004612679,0.002347332,-0.009401921,-0.003559403,0.0006632406
-0.0351203,0.9774913,0.2280494,0.002145295,-0.001060953,0.002705369,-0.0092479,-0.003073345,0.001487067
-0.03584648,0.9740006,0.2307235,0.001458828,-0.004531827,0.005415961,-0.00768727,-0.003249284,-0.0006044939
-0.03695251,0.9733147,0.233854,0.0003929558,-0.005198067,0.008582291,-0.005310132,-0.003683239,-0.002251519
-0.03663506,0.9779087,0.2321766,0.0007508107,-0.0005844642,0.006939556,-0.002682638,-0.00386546,-0.001925566
-0.03768148,0.9809313,0.2259006,-0.0002551124,0.002457904,0.0006969054,-0.0003299993,-0.004385769,-0.0002199834
-0.03778469,0.9801512,0.2215512,-0.0003178676,0.001697437,-0.003620744,9.670181e-05,-0.008177156,0.001061815
-0.03606492,0.9784052,0.2285522,0.001442208,-2.903596e-05,0.003410502,0.00198399,-0.007876667,0.0009290879
-0.03642038,0.9791163,0.2376881,0.001126776,0.0007014485,0.01257498,0.007529485,0.007119551,0.004006033
-0.03794658,0.9793211,0.2354686,-0.0003598028,0.0009252166,0.01038214,0.01367527,0.01809167,0.006766792
-0.039274,0.9760023,0.2337351,-0.001648106,-0.002374856,0.008672939,0.01332252,-0.00736896,0.007149483
-0.03917072,0.9715583,0.2336206,-0.001506244,-0.006800483,0.008579966,0.006547069,-0.03354868,0.005926739
-0.03737375,0.9705055,0.2274379,0.0003287702,-0.007835091,0.002415806,0.000603632,-0.01006643,0.0002929215
-0.0374865,0.9815186,0.2253775,0.0002534916,0.003196403,0.0003706965,0.0008618249,0.009799023,-0.0008717774
-0.03777283,0.9931267,0.2279083,3.993366e-06,0.01482296,0.002913759,0.003452511,-0.004920436,-5.988615e-05
-0.03796673,0.9853583,0.2324493,-0.0001537622,0.007072715,0.007463903,-0.0008031747,-0.002742091,-0.002055938
-0.03876706,0.9757384,0.238014,-0.0009186885,-0.00252975,0.01303473,-0.003605066,0.005802045,7.344182e-05
-0.03817643,0.9780723,0.2345942,-0.0002934076,-0.0001793003,0.009617596,-0.00169446,-0.000470457,-0.0005714725
-0.03994275,0.9772091,0.230077,-0.002025836,-0.001026988,0.005099365,-0.003563646,0.001299034,-0.002129616
-0.04186357,0.9758497,0.2303843,-0.003913494,-0.002371581,0.005401861,-0.002763976,0.003419927,-0.00260156
-0.04059726,0.9798026,0.2269109,-0.002614644,0.001595392,0.001919856,-0.001613958,0.001890843,-0.005743714
-0.04010598,0.9805678,0.2254237,-0.002091338,0.002373935,0.0004204026,-0.003104457,0.0002359339,-0.001295531
-0.03966594,0.9773376,0.2287696,-0.00161971,-0.0008437704,0.003750668,-0.001465075,-0.006864363,0.005082772
-0.03765375,0.9717804,0.2324897,0.0004236588,-0.006389188,0.007451694,-0.003739116,-0.009134778,0.005867365
-0.03538626,0.9701614,0.2352482,0.002721875,-0.007996893,0.01018776,-0.004279576,-0.00776113,0.00572142
-0.03541863,0.9764765,0.2316958,0.002719676,-0.001670704,0.006609581,0.00416791,-0.006679445,0.004761173
-0.03601512,0.9819218,0.2272269,0.002152618,0.003785556,0.00211145,0.006734397,-0.005121131,0.004005015
-0.03408009,0.9830869,0.2301516,0.004116192,0.004961591,0.005003446,0.001506282,-0.004598641,0.002481552
-0.03460293,0.9826762,0.2313039,0.003620825,0.004561413,0.006119786,0.0006601257,-0.001229883,0.003962312
-0.0363209,0.9841366,0.2266667,0.001929082,0.006031895,0.001443347,0.001355455,6.484342e-05,0.00706731
-0.03582075,0.9857206,0.2238995,0.002454088,0.00762507,-0.001366056,-0.002138218,-0.0005291117,0.004081919
-0.03637517,0.9834701,0.2231465,0.001923062,0.005382625,-0.002164047,-0.004280906,0.0005396316,0.001401962
-0.03612179,0.9810955,0.2238349,0.002198293,0.003014736,-0.001522866,-0.006718107,0.002074262,0.001720041
-0.03599569,0.9785104,0.2271379,0.002344655,0.0004348143,0.00173085,-0.01141568,0.003713922,0.00214106
-0.03757621,0.9784004,0.2327706,0.0007827656,0.0003284774,0.007312595,-0.01102337,0.001335038,0.002026634
-0.03838579,0.9812548,0.2379685,-9.826761e-06,0.003185112,0.01245781,-0.007715603,3.034897e-05,0.001019291
-0.0391393,0.9803207,0.2345331,-0.000747948,0.002251753,0.008967811,-0.004539982,-0.002579965,0.003706504
-0.03788508,0.9805273,0.2297181,0.0005201434,0.002457621,0.004096162,-0.001569035,-0.008484872,0.006465733
-0.03594949,0.981816,0.2323622,0.002468147,0.00374409,0.00668142,-0.002832651,-0.005461823,0.00492039
-0.03577135,0.9805456,0.2325641,0.002657245,0.002469907,0.006822269,-0.004498536,-0.001794371,0.002477043
-0.03457997,0.9798655,0.2315353,0.003858076,0.001784369,0.005730338,-0.003088915,-0.002629765,0.0006237586
-0.03463792,0.9789297,0.233835,0.003807991,0.0008416967,0.0079648,-0.002252527,-0.0003887038,0.001228445
-0.03651278,0.9808564,0.2328527,0.001939328,0.002759984,0.006914952,0.0001406166,0.002105955,0.0005555065
-0.03655812,0.982708,0.2284319,0.001898465,0.004601783,0.002424543,0.004098494,0.004893615,-0.002133062
-0.03569145,0.9797563,0.225119,0.002767879,0.00163872,-0.0009600898,0.002681645,0.001382574,-0.00267543
-0.03575295,0.9794239,0.2268946,0.00270741,0.001293446,0.0007419913,0.00148472,-0.008088858,-0.004308391
-0.03463855,0.9836856,0.2317466,0.0038211,0.005540734,0.00551901,0.007601246,-0.008151395,-0.002877131
-0.03353139,0.986914,0.2341835,0.004925753,0.008753161,0.007879561,0.01599629,-0.003421918,0.005110005
-0.03859365,0.9827067,0.233276,-0.0001408603,0.004528344,0.006894371,0.01971561,-0.001594151,0.008793423
-0.04350415,0.9764408,0.2300003,-0.005057489,-0.001757005,0.003539546,0.00931928,-0.0004525845,0.001999028
-0.03878117,0.9786501,0.2282926,-0.0003421991,0.0004311199,0.001751382,-0.001691498,0.002366428,-0.004949958
-0.03102357,0.9838076,0.2283449,0.007406337,0.005565848,0.00172205,0.008464507,0.008225855,-0.004337364
-0.02830998,0.986241,0.2275982,0.01010945,0.007974924,0.0008928024,0.01892858,0.006853008,-0.00527334
-0.03220316,0.9822756,0.2275016,0.006204132,0.003983533,0.0007128566,0.01462169,0.003228903,-0.007206067
-0.03872715,0.9747141,0.2270037,-0.0003338628,-0.003605682,0.0001312122,0.009306572,0.007093875,-0.005300263
-0.04120451,0.9754084,0.2258798,-0.002827091,-0.002940633,-0.001076746,0.003995775,0.006759474,-0.006395353
-0.04153623,0.9762825,0.2254171,-0.003176308,-0.002097137,-0.001623483,0.00286287,0.005821843,-0.006925521
-0.04188409,0.9738332,0.2248947,-0.003542996,-0.004577936,-0.002229581,0.006940276,0.007861227,-0.004335968
-0.03975105,0.9775835,0.2253808,-0.001429803,-0.0008597214,-0.001826593,0.006755953,0.007578158,-0.001498888
-0.03869311,0.9799867,0.2278065,-0.0003924815,0.001510941,0.0005169374,0.006369245,0.005968127,0.001784885
-0.03936734,0.9798056,0.2299942,-0.001087932,0.001297066,0.002623462,0.003097284,-0.00938222,0.000777307
-0.03834033,0.9797662,0.2294004,-8.259314e-05,0.001224655,0.001949654,-0.001950746,-0.02363521,-0.0005710396
-0.03797144,0.9768084,0.2280708,0.0002642759,-0.001766291,0.0005413262,0.0006387888,-0.007206382,0.001014507
-0.03757436,0.9783011,0.2268091,0.0006390859,-0.0003067118,-0.0007978776,0.001213528,0.009921256,-0.0007678627
-0.03680298,0.9805175,0.2249381,0.001387992,0.001876561,-0.002745072,-0.0006934455,0.002218645,-0.005341958
-0.03705897,0.9792689,0.2283538,0.001109358,0.0005950671,0.0005961003,0.002161406,0.003502207,-0.009965003
-0.03574991,0.9837035,0.2343131,0.002395598,0.004996793,0.006482561,0.009249347,0.01711399,-0.01074991
-0.03574531,0.9877043,0.2329882,0.002377194,0.008964774,0.005086343,0.01949186,0.0160177,-0.008743764
-0.03672075,0.98521,0.2280834,0.001378536,0.006437564,0.0001115879,0.0205307,0.01736892,-0.009301566
-0.03640339,0.9825656,0.2255072,0.001672444,0.003759731,-0.002533106,0.01360443,0.02485946,-0.006550988
-0.03992539,0.9787337,0.2263038,-0.001873231,-0.0001062469,-0.001803472,0.01109981,0.02166362,-0.003381277
-0.04388354,0.9733958,0.229921,-0.005855159,-0.005478586,0.001748462,0.009736962,0.01823117,-0.00554957
-0.04287431,0.974534,0.2295357,-0.004869563,-0.004375207,0.001299553,0.007505851,0.01295311,-0.003440632
-0.03921693,0.9805946,0.2224073,-0.001235405,0.001650617,-0.005890735,0.0007643375,0.009547073,-0.001578429
-0.03458885,0.9828271,0.2156487,0.003370054,0.003848541,-0.01270921,-0.01205521,0.01399222,-0.005680361
-0.03265603,0.9837038,0.2174648,0.005280803,0.0046909,-0.01095052,-0.01908507,0.01506244,-0.005322027
-0.03739483,0.9822413,0.2245691,0.0005203634,0.003193946,-0.003900777,-0.01812556,0.01735524,-0.002250849
-0.04608356,0.9744077,0.2310194,-0.008189654,-0.004674009,0.00249812,-0.0169141,0.01256345,-0.0008378064
-0.0497868,0.9693035,0.2380883,-0.01191358,-0.009812524,0.009518894,-0.01434823,0.00457795,0.0001119452
-0.04434806,0.9722662,0.2352041,-0.006494492,-0.006883538,0.006589238,-0.007828163,0.01512737,-0.00145376
-0.03930167,0.978115,0.2281774,-0.001466329,-0.001067528,-0.0004804476,-0.003792561,0.02098742,-0.002758163
-0.04150435,0.9784512,0.2335486,-0.003685603,-0.0007628808,0.004849861,-0.004447244,0.006231044,-0.003039578
-0.04128104,0.9759049,0.2348264,-0.003477166,-0.00333948,0.006088721,-0.0009990795,-0.008392939,-0.002540557
-0.03536146,0.9773591,0.2330344,0.002429309,-0.001914174,0.004259394,0.00901298,-0.01010657,-0.0001974186
-0.03466822,0.9787591,0.2355442,0.00311114,-0.0005416774,0.006733271,0.01622642,-0.005954231,0.001067372
-0.03946151,0.9803534,0.231153,-0.001692018,0.001026658,0.00230721,0.0164969,-0.006914358,0.00161347
-0.04262674,0.9769906,0.2309216,-0.00486568,-0.002360627,0.002041749,0.01474796,-0.006744323,0.001465164
-0.04055501,0.9719485,0.2307452,-0.002800899,-0.007425729,0.001832251,0.01299771,-0.001552464,0.0004839122
-0.03727869,0.9792823,0.223784,0.0004700207,-0.0001131928,-0.005161433,0.01384865,0.001795042,-0.001552406
-0.04035087,0.9844722,0.2241231,-0.002606013,0.005057063,-0.004853847,0.01513276,0.001918528,-0.004714383
-0.04218922,0.9792319,0.228917,-0.004446683,-0.0002011747,-9.041786e-05,0.008899355,0.002185208,-0.003741493
-0.04096601,0.9734797,0.233306,-0.003224215,-0.005969941,0.004269202,0.002663207,0.008295781,-0.001511186
-0.0423139,0.9709453,0.2309466,-0.004571179,-0.008519355,0.001881717,0.001649625,0.013895,-0.001336378
-0.04142686,0.9782771,0.225815,-0.003681476,-0.001200688,-0.003277098,-0.001638558,0.01020899,-0.0007393107
-0.04176912,0.9868694,0.2285504,-0.004019256,0.007380259,-0.0005677859,-0.004596899,0.002041842,-0.001929995
-0.04401789,0.9838089,0.228223,-0.006261653,0.004310155,-0.0009202141,-0.002752456,-0.003971961,-0.001232308
-0.04441418,0.9812469,0.2283308,-0.006649575,0.001739757,-0.0008363902,-0.001573401,-0.004455925,0.002809642
-0.04463996,0.9835037,0.2330766,-0.006864829,0.003989339,0.003886638,-0.004298337,-0.007052526,0.00449377
-0.04170659,0.9771068,0.2330936,-0.003918638,-0.002413869,0.003881905,-0.003726495,-0.01319114,0.003984278
-0.03818495,0.9719086,0.2308955,-0.0003818233,-0.007617623,0.001662875,0.001282941,-0.01107206,0.002759157
-0.03552927,0.9802989,0.2283126,0.002291273,0.0007681841,-0.0009402026,0.0034129,-0.007678452,0.00212973
-0.0326669,0.9857089,0.2297352,0.005173056,0.006174655,0.0004629705,0.0007712552,-0.008262938,0.001347188
-0.03235404,0.9814402,0.2332169,0.005506941,0.001903304,0.00392583,-0.002792521,-0.004288038,-0.0003666725
-0.03444816,0.9791422,0.2332596,0.003435049,-0.000396654,0.003950263,0.001951698,0.0009532862,0.0001506629
-0.03942688,0.9819295,0.2353331,-0.00152059,0.002389134,0.006005913,0.007606883,0.005507104,0.0001810575
-0.04175453,0.9820723,0.2350747,-0.00382448,0.00253091,0.005729769,0.003881516,0.008193335,-0.003017845
-0.04119176,0.9772291,0.2318212,-0.003237291,-0.00231303,0.002458416,0.001015227,0.005124168,-0.005639743
-0.04237164,0.9738694,0.2283829,-0.004392005,-0.005673172,-0.0009979105,-0.001770118,-0.0002819273,-0.004916265
-0.0413157,0.9740134,0.2229174,-0.00331011,-0.005529139,-0.006481603,-0.003829194,-0.005706857,-0.001871582
-0.04144341,0.9800241,0.2235687,-0.003411001,0.0004822278,-0.005848487,-0.001967731,-0.006334288,-0.0002064117
-0.04245506,0.9861439,0.2260343,-0.004394921,0.006603387,-0.003400664,-0.005831041,-0.005644812,0.002544773
-0.04174916,0.9847621,0.2258745,-0.00366032,0.005223463,-0.003577686,-0.01003838,-0.00760403,0.007933211
-0.042787,0.9838827,0.2315192,-0.004668438,0.004346194,0.002050592,-0.01042261,-0.003673869,0.008136708
-0.04154169,0.9830314,0.2351234,-0.00339232,0.003496865,0.005639207,-0.01135771,-0.002465426,0.005695284
-0.04064391,0.9789786,0.2324037,-0.002462617,-0.0005540761,0.002904624,-0.01150114,-0.006671699,0.005983016
-0.04065334,0.9770897,0.2298351,-0.002439012,-0.002441554,0.0003214268,-0.01054753,-0.006279934,0.004466166
-0.03791453,0.977472,0.226487,0.0003338705,-0.002057958,-0.003040728,-0.006528352,-0.006464583,0.003982266
-0.03848107,0.9785802,0.2261093,-0.0001976596,-0.0009486656,-0.00343221,-0.005563535,-0.006892782,0.004960581
-0.0380188,0.9802032,0.2284563,0.0003004136,0.0006753757,-0.001098261,-0.008987671,-0.00810816,0.001916615
-0.03304493,0.984394,0.2265058,0.005310678,0.004867242,-0.003061162,-0.003426398,-0.009860443,0.0007674097
-0.0315013,0.9867187,0.2253548,0.006890999,0.007192682,-0.004223832,0.009150257,-0.004265169,0.003158806
-0.03452761,0.9805357,0.2281232,0.003901284,0.001010089,-0.001466028,0.01487559,0.0002635903,0.002490764
-0.03702307,0.9756853,0.2279196,0.00144199,-0.003840512,-0.001679247,0.006536752,-0.002664349,-0.0002613826
-0.03444976,0.9787057,0.2263474,0.00405079,-0.0008208833,-0.003259982,-0.006333416,-0.004981928,-0.001848644
-0.03269685,0.9803889,0.227298,0.005838292,0.00086124,-0.002316753,-0.005434619,-0.003863779,-0.001575647
-0.03735781,0.9785609,0.2296593,0.001210803,-0.0009682918,3.848581e-05,-0.0002394367,-0.0059992,-0.001110999
-0.04024066,0.9790132,0.2331143,-0.001639878,-0.0005177259,0.003488493,-0.003553467,-0.009011885,-0.001905924
-0.03917714,0.9796792,0.2326194,-0.0005455014,0.0001463028,0.002989717,-0.005429811,-0.003753606,-0.00214539
-0.04057886,0.978733,0.2308694,-0.001917617,-0.0008021369,0.001236709,-0.00787052,0.0006035503,-0.001203992
-0.04428282,0.9792917,0.2335989,-0.005593121,-0.0002458986,0.003963844,-0.009330148,-0.002435165,0.001554161
-0.04545377,0.9793419,0.2336636,-0.006736567,-0.0001981659,0.004026666,-0.006258106,-0.005539296,0.005497742
-0.04487014,0.979027,0.2329912,-0.006126113,-0.0005156928,0.003352607,-0.009450175,-0.007330625,0.006859232
-0.04611356,0.9803367,0.2345767,-0.007343064,0.0007913197,0.004936514,-0.01039618,-0.007062942,0.006222376
-0.04566146,0.9807139,0.2339141,-0.006864546,0.001165742,0.004272204,-0.006933517,-0.005614707,0.005065466
-0.04193087,0.9798805,0.2346854,-0.003107338,0.0003295101,0.005041328,-0.005833693,-0.004902516,0.003584829
-0.03722,0.9769625,0.2375468,0.001630501,-0.002591447,0.007900009,-0.003733081,-0.003354045,0.00678381
-0.03290998,0.9743392,0.2390591,0.005967779,-0.005217727,0.009408676,-0.006003045,-0.003346337,0.01103549
-0.03277821,0.9776097,0.2357219,0.006126818,-0.001950026,0.006066574,-0.003697828,-0.004202453,0.006568193
-0.03426237,0.9819276,0.2311666,0.004669613,0.002365374,0.001505005,0.003127455,-0.002021834,-0.001407065
-0.03517117,0.9825476,0.2322386,0.003787109,0.002983102,0.002569034,0.002859215,-0.0002482511,-0.005715369
-0.03847727,0.9832973,0.2307515,0.0005064264,0.003730785,0.001072414,0.005059901,0.0001196715,-0.005355555
-0.03996987,0.9832331,0.2276018,-0.0009617471,0.003664509,-0.002088265,0.00480016,0.001297846,-0.002203819
-0.03972945,0.9787748,0.2305057,-0.0006979056,-0.0007960919,0.0008031983,0.001847958,-0.0007400494,-0.00113135
-0.04230375,0.973972,0.2348892,-0.003249717,-0.005601299,0.005173156,0.003203827,-0.005452314,0.001811395
-0.04408051,0.9734699,0.2408146,-0.005004817,-0.006105874,0.01108359,-0.0004984344,-0.007433697,0.003997796
-0.04380202,0.9772652,0.2426949,-0.00470529,-0.002312875,0.01294741,-0.002221513,-0.003632354,0.001466375
-0.04445044,0.9806865,0.2363728,-0.005333062,0.001106579,0.006606916,0.0006022268,0.0004322273,0.004039079
-0.04411481,0.978847,0.2323865,-0.004976954,-0.000734325,0.00260001,4.620349e-05,-0.007291837,0.006579674
-0.04039916,0.9765972,0.229582,-0.001240797,-0.002985075,-0.000227448,-0.004449472,-0.0147442,0.005036052
-0.03672901,0.9772389,0.2272063,0.002449976,-0.0023438,-0.002628135,-0.01195131,-0.007236652,0.006491725
-0.03611947,0.9797077,0.2294885,0.003080177,0.0001250722,-0.0003727189,-0.0121274,-0.0002460034,0.007067191
-0.03631912,0.9841524,0.2286914,0.00290105,0.004570436,-0.001198247,-0.008660206,0.001752398,0.004987298
-0.03592986,0.9833077,0.2291336,0.003310486,0.00372691,-0.000785819,-0.008600955,0.00509777,-0.0005006232
-0.03608789,0.9775582,0.2349958,0.003172104,-0.002021315,0.005045532,-0.006793931,0.002502073,-0.003804433
-0.03627953,0.9747145,0.2365513,0.002999391,-0.004863497,0.006569035,-0.006672089,-0.0007990534,-0.0002142297
-0.0363109,0.9755401,0.2353603,0.002986089,-0.00403606,0.005344934,-0.0006637032,0.00340301,-8.30553e-05
-0.03811213,0.9816816,0.2333811,0.001201928,0.002107625,0.003331328,0.009886898,0.006251524,-7.280722e-06
-0.04077714,0.9849039,0.2314519,-0.001447082,0.005332687,0.001366379,0.008750469,0.004088057,0.001358784
-0.04240034,0.9750264,0.22865,-0.003055314,-0.004541835,-0.001472479,0.00296502,-0.0006849236,-0.002062478
-0.04269754,0.9669536,0.2220262,-0.003338436,-0.0126113,-0.008134237,0.0002559201,-0.006059557,-0.001770091
-0.03966248,0.9765054,0.2232804,-0.000290029,-0.00305555,-0.006918692,0.005578432,-0.005149504,0.001181064
-0.03629354,0.9877586,0.2289004,0.003091614,0.008202467,-0.001337409,0.01527012,-0.002950676,0.001530649
-0.03809485,0.9836608,0.2291432,0.001302335,0.004110257,-0.001133205,0.0105533,-0.005389055,-0.0009084756
-0.04005446,0.9769584,0.230297,-0.0006459806,-0.002586133,-1.766828e-05,5.825284e-05,-0.002426598,-0.004926382
-0.03844516,0.9752538,0.2315368,0.0009738581,-0.004284462,0.001184402,-0.005191043,0.003810172,-0.002575893
-0.03862245,0.9771357,0.2338097,0.0008063634,-0.002395785,0.0034201,-0.007467174,0.004760865,0.002532036
-0.03943576,0.982589,0.2344146,2.087646e-06,0.00306483,0.003988183,-0.005985403,0.002039978,0.004746063
-0.03864801,0.9791783,0.2316389,0.0007981331,-0.00033819,0.001176065,-0.01052684,-0.002774761,0.004813241
-0.0400583,0.9754874,0.2321673,-0.000604597,-0.004020943,0.001668278,-0.01280592,-0.005985864,0.0013416
-0.04146096,0.9802245,0.2308409,-0.002000382,0.000724772,0.0003060689,-0.007143665,-0.009088376,0.0004034329
-0.04029001,0.9781196,0.2321731,-0.0008231686,-0.001371155,0.001602757,-0.006324171,-0.009062008,0.002270224
-0.03750352,0.9732108,0.2366426,0.001969043,-0.006270575,0.00603699,-0.003440619,-0.0006089725,0.003314213
-0.0349652,0.9707668,0.2334676,0.004512539,-0.008704552,0.00282701,6.369859e-05,0.002054987,0.005046245
-0.03589421,0.973149,0.2323137,0.003588036,-0.00631148,0.001638211,0.001861481,-0.00466844,0.004269228
-0.03621448,0.9800832,0.2340227,0.003271445,0.0006347894,0.003312375,0.007713233,-0.008341489,0.003610369
-0.03565686,0.9776785,0.2318188,0.003831791,-0.001756838,0.00107358,0.01089657,-0.002058147,0.004899621
-0.03903871,0.9755272,0.2306664,0.0004515967,-0.003893872,-0.0001136959,0.01242871,0.005750596,0.005976794
-0.04253365,0.9768742,0.2294487,-0.003042756,-0.002531463,-0.001366129,0.009626747,0.0003583761,0.00771265
-0.04408257,0.9718466,0.2292728,-0.004592028,-0.007542455,-0.001576563,0.003995733,-0.002670452,0.004507238
-0.04096576,0.9703673,0.2320883,-0.001476293,-0.009003796,0.001204626,0.003889431,0.003744356,0.0001815453
-0.03604084,0.9729862,0.2340518,0.003447011,-0.006365366,0.003134312,0.002555993,0.004033172,0.002519607
-0.04158995,0.9759748,0.2336869,-0.002104223,-0.003355526,0.002735897,0.0004147314,0.004263358,0.004812986
-0.04724945,0.9774778,0.2327172,-0.007766265,-0.00182944,0.00173301,0.0004212294,0.002974198,0.006789492
-0.04279475,0.9756421,0.2335901,-0.003314306,-0.003640184,0.002572902,-0.001115554,-0.004400752,0.01139443
-0.04148531,0.9765811,0.2335465,-0.002007535,-0.002674508,0.002496628,-0.003160311,-0.009820722,0.01301962
-0.04136942,0.9773697,0.2323452,-0.001894075,-0.001857549,0.001262658,-0.002947998,-0.01291217,0.01149314
-0.03740125,0.9794535,0.2310434,0.002071963,0.0002561802,-7.157011e-05,-0.001465978,-0.01034724,0.009484091
-0.03767867,0.983188,0.2282119,0.001792713,0.004022144,-0.002935309,-0.001547232,-0.004796272,0.006681214
-0.03813025,0.9788388,0.2296006,0.001339492,-0.0002945203,-0.001578455,-0.0002619947,-0.002279138,0.005000946
-0.03674415,0.9706843,0.2345576,0.002724066,-0.00841542,0.003347099,-0.0001526926,-0.002253551,0.004259664
-0.0374793,0.9677035,0.2366856,0.001987375,-0.01136164,0.005444052,-0.003052214,-0.006923273,0.002829106
-0.03586091,0.974588,0.2358076,0.003604095,-0.004441318,0.004535462,-0.001047611,-0.01013173,0.003347232
-0.03432078,0.982315,0.2342889,0.005142297,0.003323033,0.002986263,0.005315443,-0.005356124,0.005294534
-0.03753775,0.9766529,0.2373599,0.00192295,-0.002300452,0.006026743,0.007740513,-0.0009456315,0.005315826
-0.03944826,0.9694873,0.2382915,9.50997e-06,-0.009426246,0.006927724,-0.003959261,-0.004809079,0.004657861
-0.03606528,0.9699531,0.2277321,0.003388948,-0.008919408,-0.003662613,-0.02264504,-0.009826403,0.00422139
-0.03215208,0.9737935,0.2195569,0.007297939,-0.005036445,-0.01186895,-0.02440683,-0.007559261,0.003045425
-0.03129006,0.9853446,0.2265934,0.008154869,0.0065587,-0.004863455,-0.0105896,-0.0006976904,0.001064672
-0.03144811,0.9928137,0.2360645,0.007990565,0.01407311,0.004577206,0.004925465,0.005446653,-0.001524962
-0.03462082,0.9827778,0.2345593,0.004810137,0.004083113,0.003042192,0.01331531,0.007417656,-0.003711474
-0.04057728,0.9735079,0.2330353,-0.001155667,-0.005140838,0.001488952,0.002370552,0.006402025,-0.005002942
-0.04146993,0.9762638,0.2367489,-0.002059252,-0.00233898,0.005173792,-0.01000899,0.003267576,-0.00455125
-0.04039364,0.9776615,0.2362285,-0.0009953001,-0.0008954713,0.004624908,-0.00422224,-0.0003616307,-0.002858457
-0.03993464,0.9755813,0.2350681,-0.0005498328,-0.002929927,0.003436276,-0.002426997,0.0002116164,-0.0009048767
-0.03649364,0.9774491,0.2327751,0.00287657,-0.001016474,0.001114938,-0.006990395,0.000768256,0.002723084
-0.03772601,0.9783525,0.2281459,0.001628624,-6.769814e-05,-0.003542443,-0.005809819,9.417422e-05,0.003241101
-0.04049054,0.976331,0.2284276,-0.00115243,-0.002043925,-0.003288956,-0.007306486,0.001425541,-0.0001805223
-0.03772862,0.9763378,0.2288935,0.001592101,-0.001992093,-0.002850812,-0.004811046,0.004012685,-0.00162323
-0.03698398,0.9768964,0.2299687,0.002318552,-0.001388798,-0.001802864,0.0001466767,0.007332359,-0.003249152
-0.03586233,0.9790032,0.2348852,0.00342124,0.0007624454,0.003087097,0.003173791,0.006217971,-0.003826148
-0.0333999,0.9807064,0.2361449,0.005863876,0.002509687,0.004320806,0.01439482,0.005369944,-0.003845711
-0.0341722,0.976122,0.2351882,0.00507084,-0.002031251,0.003338725,0.0225345,0.01293334,-0.004299872
-0.03573013,0.9720007,0.2351217,0.003491106,-0.006109571,0.003247243,0.02569939,0.02052737,-0.001282863
-0.0392765,0.9742643,0.2313101,-7.820671e-05,-0.003803607,-0.0005890648,0.02692261,0.02027876,-0.0045118
-0.03973071,0.9762687,0.2291564,-0.0005564483,-0.001757091,-0.002767266,0.01908153,0.01286948,-0.008860241
-0.03684841,0.9745066,0.2328798,0.002300858,-0.003477455,0.0009319878,0.01366637,0.008181605,-0.004843408
-0.03832779,0.9746577,0.2326679,0.0007956095,-0.003284817,0.000696326,0.01245707,0.01400174,-0.004645446
-0.04021011,0.9760525,0.2304697,-0.001113357,-0.001848611,-0.001525183,0.01168442,0.01816124,-0.002069555
-0.04211123,0.9762434,0.2308391,-0.003041761,-0.001616415,-0.001178569,0.009850248,0.01123324,0.003039824
-0.04217721,0.9784498,0.2294619,-0.00313546,0.0006310936,-0.00257799,0.002819179,0.005439329,0.0002187961
-0.03879664,0.9780862,0.2332229,0.0002172019,0.0003083897,0.001161529,0.002768929,0.008268826,0.0002116266
-0.03883015,0.9759989,0.2392696,0.0001557627,-0.001738407,0.00718735,0.007057111,0.01005957,5.303787e-05
-0.03858116,0.9767405,0.2381075,0.0003768814,-0.0009565965,0.006004973,0.007962486,0.0115913,-0.002118127
-0.03681777,0.9761686,0.239456,0.002112506,-0.001488739,0.007333363,0.01037172,0.01641955,-0.000642672
-0.03605494,0.9762923,0.2468175,0.002847675,-0.001325657,0.01467457,0.00961394,0.01332157,-0.002610175
-0.03544836,0.9764012,0.2487487,0.003426657,-0.001177773,0.01658482,0.0103514,0.004483876,-0.002481239
-0.03688324,0.9741672,0.2396489,0.001964162,-0.003373345,0.007462866,0.01570453,0.004712797,-0.0004431861
-0.03696179,0.9740693,0.2284742,0.001857907,-0.003433028,-0.003735627,0.01913251,0.02167386,-0.0009129014
-0.03800782,0.9769318,0.2273499,0.0007840876,-0.0005327092,-0.004885361,0.02209246,0.03485097,0.001102401
-0.04184315,0.9804863,0.2305053,-0.003079098,0.003059284,-0.001756625,0.02093005,0.004538229,-0.0009128037
-0.04220629,0.9802235,0.228237,-0.003470021,0.002833578,-0.004052549,0.01356256,-0.0282155,-0.003998401
-0.03743511,0.9813737,0.2250619,0.001273644,0.004020314,-0.007255802,0.008877734,-0.0026255,-0.005711067
-0.03143198,0.9885103,0.2232054,0.007249593,0.01119239,-0.009140741,0.01660107,0.01723925,-0.01378274
-0.03563451,0.988854,0.2227623,0.003020104,0.01157031,-0.009611965,0.02419884,-0.001152796,-0.01732913
-0.04315625,0.9804662,0.2241111,-0.004528504,0.003214893,-0.008290447,0.009784016,0.002157971,-0.01110007
-0.04135072,0.9730722,0.221691,-0.002749659,-0.004148901,-0.0107365,-0.005292555,0.01344084,-0.005581667
-0.04196036,0.9723711,0.2206381,-0.003385624,-0.00482175,-0.01181354,-0.002377967,0.01058303,-0.003069034
-0.04501193,0.9766359,0.2258392,-0.006462906,-0.0005306133,-0.006634418,-0.00268271,0.007913298,-0.001132578
-0.04529651,0.9771859,0.2297664,-0.006772323,4.407627e-05,-0.002726519,-0.003742512,-0.00331896,-0.001288641
-0.04409824,0.9774809,0.2311892,-0.005597681,0.0003622514,-0.001320235,0.002964191,-0.005431083,-0.002962451
-0.04003335,0.9793108,0.2318654,-0.00155495,0.002213724,-0.0006579856,0.002386634,0.00218371,-0.0007234342
-0.04139198,0.9768315,0.2334768,-0.002934108,-0.0002454183,0.0009422158,-0.002651399,-0.0003050121,0.002237961
-0.04259596,0.9746677,0.2367353,-0.0041569,-0.002390626,0.004191782,-0.004350585,-0.0006925625,0.0008053002
-0.03867058,0.9737524,0.2363053,-0.0002485476,-0.003288705,0.003755098,-0.00403983,-0.004331356,-0.00119265
-0.03815783,0.9752212,0.2318041,0.0002489816,-0.001803854,-0.0007509792,0.001049995,-0.008973181,-0.002525666
-0.03513268,0.9803457,0.229384,0.003260641,0.003335634,-0.00317421,0.00386421,-0.004900933,-0.003271197
-0.03111287,0.9813681,0.230169,0.007268483,0.004371984,-0.002390804,0.001691554,-0.004929538,-0.003370244
-0.03209664,0.9799957,0.2276871,0.006273944,0.003012294,-0.004872651,0.002286534,-0.00448463,-0.002307183
-0.03446257,0.9797419,0.2225246,0.003898082,0.002769919,-0.01003331,0.003473205,0.000645364,0.001005342
-0.03840678,0.9785227,0.2225414,-5.550509e-05,0.001560681,-0.01001267,0.002369663,0.003997878,0.0006729019
-0.04148382,0.9771297,0.2287231,-0.003141478,0.0001763209,-0.00382489,-0.0034703,-0.0002305837,-0.003190508
-0.04184938,0.9751298,0.2332331,-0.00351546,-0.001816344,0.0006936682,-0.01213414,-0.008486491,-0.003386079
-0.03982789,0.9743867,0.2278995,-0.001501779,-0.002553577,-0.00462897,-0.01369416,-0.007814095,-0.00114948
-0.03835153,0.9762457,0.2220929,-3.250312e-05,-0.0006897637,-0.01042232,-0.01376833,-0.00793221,0.001132696
-0.04087844,0.9794733,0.2249967,-0.002565745,0.00254168,-0.007502714,-0.01739786,-0.01200595,0.002864341
-0.04240366,0.9827534,0.2270541,-0.004096501,0.005824658,-0.005426923,-0.01428739,-0.01375542,0.002549228
-0.04144467,0.9807124,0.2274,-0.003142128,0.003785422,-0.005059885,-0.009469628,-0.01855649,0.002385113
-0.04035674,0.9760595,0.2287488,-0.002057784,-0.0008668485,-0.003687114,-0.0135445,-0.01796427,0.003030654
-0.03922765,0.9751009,0.2272754,-0.0009311927,-0.001826125,-0.005133776,-0.02108561,-0.01480412,0.002609891
-0.03827018,0.9733972,0.228572,2.487738e-05,-0.003531604,-0.003807689,-0.02396851,-0.01703035,0.002003245
-0.0369645,0.9726211,0.2338516,0.001330208,-0.004310306,0.001503925,-0.01145415,-0.01218759,0.003143736
-0.03674894,0.9746106,0.2371167,0.001546359,-0.002323953,0.004803464,0.009843755,0.003205757,0.005388652
-0.04019854,0.9733275,0.2369645,-0.00190183,-0.003610664,0.004687711,0.01202923,0.01439507,0.006198537
-0.04333911,0.9737069,0.2338524,-0.005040182,-0.003234947,0.001613648,0.0007270034,0.0004573156,0.004901477
-0.03647931,0.9772168,0.229984,0.001822671,0.0002711224,-0.002215593,-0.003081644,-0.01661663,0.001651591
-0.02873022,0.9796091,0.2259046,0.0095756,0.002659799,-0.006254767,-0.00185389,-0.001556385,-0.002148505
-0.03413436,0.9835115,0.2284621,0.004175809,0.006558432,-0.003656038,0.003037166,0.008988729,-0.003377202
-0.03891262,0.9848218,0.2357578,-0.0005979272,0.007864814,0.003681854,0.00543489,-0.001470733,-0.00240157
-0.03766393,0.9804938,0.2317868,0.000655308,0.003532424,-0.0002460399,-0.003644378,0.0003484428,-0.003289706
-0.03942808,0.9743469,0.2265091,-0.001104311,-0.002619696,-0.005479977,-0.015756,0.002418529,-0.005557627
-0.03992753,0.97195,0.2281782,-0.001599237,-0.005022423,-0.003766493,-0.01863681,-0.00262032,-0.004119023
-0.04104659,0.9748801,0.2314579,-0.002713715,-0.002098689,-0.0004417723,-0.01296653,-0.005080438,-0.0002310001
-0.0423541,0.9770244,0.2385025,-0.004016498,3.904308e-05,0.006648343,-0.008580548,-0.01126354,0.002482621
-0.03714793,0.9806385,0.2363449,0.00119467,0.003646387,0.004536544,-0.004098735,-0.007689995,0.001730701
-0.03560658,0.9837059,0.2320571,0.00274129,0.006706752,0.0002943545,-0.0004896174,0.001398837,-0.002304835
-0.03757143,0.980223,0.2377513,0.0007819048,0.003216334,0.006033825,-0.004322582,0.001326534,-0.002895658
-0.03278758,0.976278,0.2380259,0.005571265,-0.0007367659,0.00635305,-0.006204538,0.004893851,-0.000226672
-0.03134017,0.973367,0.2381669,0.007024035,-0.00365646,0.0065376,-0.003528471,0.008339209,0.001718881
-0.03717372,0.9759621,0.2384643,0.001195427,-0.001070505,0.006877088,0.0008460432,0.003508592,0.002178531
-0.04015826,0.981599,0.2342464,-0.001784747,0.004556952,0.002699569,0.004779203,-0.0002986492,0.001147548
-0.03918785,0.9781224,0.2355773,-0.000810549,0.001070537,0.004068862,-0.001607283,0.001712435,0.003083979
-0.03815739,0.9761995,0.2323417,0.0002231871,-0.0008625378,0.0008695442,-0.007460965,0.004595766,0.003913428
-0.0389749,0.9790488,0.2271486,-0.0005914939,0.001976182,-0.004289508,-0.001513273,0.0009580031,0.000457341
-0.03815971,0.9766211,0.2311952,0.0002261067,-0.0004624532,-0.0002108959,0.001815485,-0.003489375,-1.703669e-05
-0.03573253,0.9739265,0.2332235,0.002655293,-0.003168255,0.001847494,-0.001490884,-0.001319387,-3.23674e-05
-0.03652627,0.9717524,0.2311555,0.001863107,-0.005353689,-0.0001922735,-0.002846366,0.002801725,-0.002082158
-0.03812996,0.9712131,0.2299291,0.000260472,-0.00590429,-0.00139223,-0.003673082,0.004068325,-0.001523517
-0.04012129,0.9733587,0.2289699,-0.001730321,-0.00376956,-0.002326799,-0.006154195,0.002998464,0.001163425
-0.04090894,0.9725517,0.2300845,-0.002517883,-0.004586781,-0.001189089,-0.006768507,0.0006766929,0.001822624
-0.03858926,0.9753689,0.236029,-0.0001984567,-0.001778909,0.004776907,-0.003943703,-0.004213184,0.0001384178
-0.03787457,0.979669,0.2426743,0.0005157289,0.002512736,0.01144218,0.001725181,-0.006522629,0.001220492
-0.03736342,0.9777177,0.2422913,0.001026148,0.0005538121,0.01107728,0.005538931,-0.002985126,0.001465816
-0.03735843,0.9780706,0.2385572,0.001030157,0.000900004,0.007358972,0.00271487,-0.0001446376,-0.0008595955
-0.03905566,0.9795343,0.2367996,-0.0006683085,0.00235756,0.005614444,-0.00325276,-0.00161263,0.0001980572
-0.03953911,0.976278,0.2353096,-0.00115324,-0.0009042078,0.004134743,-0.007669753,-0.007153711,-0.002448694
-0.03945637,0.9759512,0.2335633,-0.001072183,-0.001235842,0.00239579,-0.005895574,-0.008744142,-0.004540948
-0.03693259,0.9847418,0.2305342,0.001449794,0.00755028,-0.0006289101,0.002543007,0.003311454,0.003509493
-0.03574769,0.9918374,0.2295279,0.002632751,0.01464173,-0.001633555,0.008386835,0.01432216,0.006978283
-0.04010226,0.9812925,0.2372029,-0.001723943,0.004092521,0.006040592,0.006407792,0.00125992,0.0009056417
-0.04196776,0.9700143,0.2432054,-0.003591729,-0.007190511,0.01203966,0.001773665,-0.01213989,-0.003445247
-0.03733515,0.977229,0.2339624,0.001038518,1.877057e-05,0.002790552,0.001977197,0.002400649,-0.001830528
-0.03296275,0.9818076,0.2255517,0.005408533,0.00459162,-0.005629031,0.006529043,0.01139674,-0.0002793846
-0.03570647,0.9783077,0.2320622,0.002662278,0.001085605,0.0008700428,0.009429159,0.003207458,-0.002801307
-0.03940846,0.9807008,0.2363079,-0.001042522,0.003472152,0.00510188,0.00565563,0.00380599,-0.002024116
-0.03859919,0.9786801,0.2338389,-0.0002363778,0.001444234,0.002616911,-0.002672547,0.005408223,-0.0002147034
-0.03903359,0.9742567,0.2364504,-0.0006741814,-0.002986851,0.00521031,-0.004399148,0.003630297,-0.0005074089
-0.03943959,0.9770183,0.2368922,-0.001083792,-0.0002335257,0.005631672,-0.002145179,0.002721754,0.000727983
-0.04021467,0.9768104,0.2325187,-0.001862624,-0.0004500057,0.001235542,-0.00255534,0.001187335,-5.90105e-05
-0.04268014,0.9758103,0.2306691,-0.004331882,-0.001458963,-0.0006387811,-0.0010534,0.004940511,0.0008858708
-0.04164402,0.9778957,0.228927,-0.003299409,0.0006172592,-0.002407621,-0.0003845436,0.003571975,0.003623612
-0.0411711,0.9775894,0.2312278,-0.00282984,0.0003017516,-0.00013521,-0.0005303058,-0.008053763,0.003940143
-0.04165066,0.9769608,0.2349119,-0.003312278,-0.0003362687,0.003518917,0.0006015677,-0.01615189,0.004675539
-0.0381589,0.9764918,0.2311252,0.0001771733,-0.0008146947,-0.000298948,0.000696636,-0.01088589,0.003124551
-0.03403552,0.977886,0.2294159,0.004298845,0.0005700021,-0.002040729,0.002338169,0.0008518201,0.002170183
-0.03233466,0.9800154,0.2318921,0.005998448,0.002689783,0.0004020684,0.004401215,0.001592036,0.002491326
-0.03379212,0.9781519,0.2327183,0.004539914,0.0008167851,0.001194081,0.004256532,0.0006320416,0.0006100834
-0.0356099,0.9771401,0.2309046,0.002721003,-0.0002046959,-0.0006545368,0.002714539,0.005634114,0.00114379
-0.03612871,0.9780621,0.2250031,0.002200793,0.0007075228,-0.006591442,0.004935985,0.006285768,0.00173622
-0.03691828,0.9768936,0.2255928,0.001409471,-0.0004708329,-0.006037281,0.008854784,0.008076491,0.001147819
-0.03811269,0.9732128,0.2328448,0.0002128746,-0.004161504,0.001179278,0.00664197,0.008252983,-0.001466929
-0.04203123,0.97042,0.2338351,-0.00370825,-0.006964036,0.002134518,0.00493418,0.004744381,-0.00609216
-0.04482211,0.9747735,0.2323307,-0.006501988,-0.002619876,0.0005954379,0.002351995,0.002934553,-0.005246464
-0.0443458,0.9810348,0.2319789,-0.00602855,0.003632671,0.0002093468,-0.003037666,0.0001949216,-0.003484912
-0.04616284,0.982293,0.2327242,-0.007848137,0.004882671,0.0009208546,-0.002667306,-0.001045437,-0.002076675
-0.04596567,0.9843128,0.2356353,-0.007652862,0.006894605,0.003798609,-0.002615114,-0.003528535,0.0003849602
-0.04183777,0.9834537,0.2345494,-0.003525868,0.006027692,0.002679761,-0.002663536,-0.0031826,-0.0003491689
-0.03817175,0.9775456,0.2316696,0.0001404125,0.0001115426,-0.000232582,-0.001363043,0.0004068108,0.001138399
-0.03468788,0.9777537,0.233091,0.00362574,0.0003113133,0.001156466,-0.00361169,-0.001495875,0.0009533749
-0.03393561,0.9761196,0.2391522,0.004380471,-0.001331477,0.007185667,-0.005522367,-0.003715646,-0.001887442
-0.03410872,0.9701919,0.2450763,0.004210573,-0.007268045,0.01307793,-0.01149403,-0.01041805,-0.0009875094
-0.03197351,0.9762053,0.2410304,0.006349459,-0.001263661,0.008999802,-0.01421274,-0.01400843,-0.001729046
-0.03155588,0.9857762,0.2336049,0.006770905,0.008298521,0.001541589,-0.0003136481,-0.001929542,-0.001592366
-0.03217176,0.9881483,0.2327952,0.006158628,0.01066183,0.0006982871,0.01158105,0.006344676,0.002759208
-0.03188394,0.9856168,0.2330471,0.006449522,0.008121186,0.0009159321,0.00378956,0.0006584286,0.007180254
-0.03194365,0.9813332,0.2325967,0.006392056,0.003827559,0.0004305276,-0.004213657,-0.004299262,0.006422156
-0.03247642,0.9832053,0.2318271,0.005860431,0.005688718,-0.000374528,0.003339891,0.0007943078,0.002582931
-0.03463851,0.9829228,0.2314549,0.003698152,0.005393993,-0.0007826035,0.005288408,0.002907164,0.0017887
-0.03692525,0.9768075,0.2324941,0.001409765,-0.0007347965,0.0002204312,0.0007585491,-3.457831e-05,-0.00155804
-0.03658832,0.9758369,0.2317388,0.001743533,-0.001720206,-0.000571093,0.00178713,0.003959189,-0.0007823489
-0.03696025,0.9763143,0.2319226,0.001366968,-0.001258742,-0.0004235615,-0.006316631,0.003840275,0.002455228
-0.04071107,0.9764613,0.2332574,-0.002389896,-0.001128659,0.0008751521,-0.01275072,-0.003661142,-0.001537624
-0.04256903,0.9770383,0.2332214,-0.004255168,-0.0005693465,0.0008031644,-0.005295011,-0.009566176,0.00054341
-0.0401796,0.978355,0.2330782,-0.001874059,0.0007291267,0.000624314,-0.001129312,-0.009456967,0.002670978
-0.03797333,0.9837294,0.2305224,0.0003231042,0.006084666,-0.001966884,-0.004210506,-0.005472698,0.002436455
-0.03713986,0.9848518,0.2285608,0.00114681,0.007187523,-0.003963397,-0.008565996,-0.00659779,0.006678232
-0.03734725,0.9791097,0.230954,0.0009290633,0.001425173,-0.001604585,-0.0106943,-0.002075465,0.005602201
-0.03764029,0.9745975,0.2320942,0.0006250776,-0.003108277,-0.0004979669,-0.01247041,0.005413862,0.006216851
-0.03641992,0.9761501,0.2284176,0.001833951,-0.001577672,-0.004207186,-0.01102633,0.001893959,0.006274631
-0.03581478,0.9797697,0.2257189,0.002427047,0.002019387,-0.006937408,-0.0007020783,-0.00179135,0.002550423
-0.03598456,0.9801313,0.2307644,0.002244642,0.002357861,-0.001922191,0.007824667,-0.002996713,0.001449414
-0.03525099,0.9826555,0.2351994,0.002964963,0.004858578,0.002484048,0.008458825,0.0007585881,-0.003804149
-0.0344512,0.9847617,0.2310112,0.003750824,0.006940596,-0.001731345,0.00784082,0.00748866,-0.00427477
-0.03456755,0.9844382,0.2273695,0.003619775,0.006592213,-0.005398757,0.007160704,0.004890117,-0.001964383
-0.03551345,0.9851269,0.2288651,0.002658334,0.007254974,-0.00392729,0.001981795,0.002590173,-0.003890336
-0.03729389,0.9774759,0.2331107,0.0008614521,-0.000423093,0.0002959645,-0.002729787,0.001466386,0.001089395
-0.03944242,0.9689433,0.2377231,-0.001304381,-0.008983809,0.004887754,-0.003635242,-0.003849683,0.002813125
-0.03850565,0.9731929,0.2368553,-0.0003856709,-0.004763131,0.004000957,-0.005152644,-0.002176488,2.82186e-05
-0.03643556,0.9783785,0.2347407,0.001665708,0.0003931169,0.001868658,-0.004168039,0.001421416,0.004490475
-0.03758543,0.9777984,0.2360803,0.0004965668,-0.0002164453,0.003191692,-0.006771689,-0.002561459,0.00780141
-0.03699173,0.9791534,0.2328012,0.001070476,0.001109081,-0.0001029697,-0.01062059,-0.008985098,0.00930908
-0.03526206,0.9824732,0.228691,0.002779883,0.004399431,-0.004227882,-0.004561276,-0.01326507,0.01055584
-0.03604222,0.9829127,0.2306465,0.001978972,0.004809367,-0.002286167,-0.002772048,-0.007948063,0.007503511
-0.03428869,0.9785184,0.2302425,0.003711228,0.0003854103,-0.002702904,-0.009101027,0.0004403969,0.006561127
-0.03158357,0.9710299,0.2282526,0.00639449,-0.007132898,-0.004704271,-0.01443244,-0.003244747,0.005649686
-0.03173608,0.9702498,0.229936,0.0062194,-0.007942674,-0.003031107,-0.01236482,-0.004028024,0.003025801
-0.03299752,0.9772491,0.233455,0.004934444,-0.0009726234,0.0004790173,0.005265674,0.004240376,0.001277862
-0.03642175,0.9802482,0.2410459,0.00148565,0.001997971,0.00806241,0.01939702,0.005303086,-0.005046701
-0.04015872,0.9776721,0.2458422,-0.002276934,-0.0006057854,0.0128523,0.009527892,0.0009990434,-0.005706981
-0.03948666,0.975479,0.2382246,-0.001631418,-0.002825848,0.005228768,-0.002102553,-0.002588904,-0.001064334
-0.03733499,0.9786695,0.2305218,0.0004929882,0.000338645,-0.002479753,0.004269469,5.596696e-05,-0.003405723
-0.0360947,0.9832841,0.233288,0.001705458,0.004928095,0.0002805785,0.006087901,0.004563854,-0.002627086
-0.03153724,0.9829331,0.2346719,0.006234579,0.004552693,0.001658725,0.0009393548,0.0007976846,-0.0009746908
-0.02948065,0.9809073,0.2319855,0.008262209,0.002503158,-0.001033369,0.004889793,-0.0003965009,-0.001516862
-0.03512338,0.9780362,0.2327968,0.002589723,-0.0003912546,-0.0002279131,-0.0005467965,0.001953368,0.0001383008
-0.03847678,0.9776809,0.2318754,-0.0007943352,-0.0007695026,-0.001154942,-0.007568668,0.003514187,-0.003169876
-0.03839288,0.9786826,0.2302463,-0.0007419349,0.0002098025,-0.002789663,-0.0008392758,0.005393119,-0.003382348
-0.03893348,0.9768512,0.2310732,-0.001314699,-0.001643531,-0.001968091,0.002167852,0.002965413,0.001023229
-0.03795824,0.9778879,0.2301235,-0.0003721129,-0.0006282287,-0.002922858,0.004712979,0.00324252,0.001825958
-0.03724501,0.9765946,0.2305708,0.0003081384,-0.001942248,-0.002480156,0.005257649,0.003290825,0.00109873
-0.03720534,0.9717557,0.2309452,0.0003146183,-0.006801152,-0.002109736,-0.001049694,0.0009492911,-0.002818655
-0.03675718,0.9712277,0.2307315,0.0007294878,-0.007348173,-0.002326883,-0.003238977,0.003596252,-0.003705645
-0.03534788,0.9749503,0.234884,0.002105441,-0.003643266,0.00182293,2.501514e-05,0.003292288,-0.0009387813
-0.03309192,0.98062,0.2388921,0.00432802,0.00201014,0.005829086,0.009751245,0.005802257,-0.002031369
-0.03160196,0.9797986,0.2393095,0.005784489,0.001174003,0.006244815,0.01609347,0.01130478,-0.001222536
-0.0313755,0.97659,0.2368364,0.005977192,-0.002048058,0.003770317,0.01412368,0.007758623,-0.000763467
-0.03248086,0.9776499,0.2352243,0.004837646,-0.001000271,0.002156613,0.01578446,0.00405286,-0.004326245
-0.03195614,0.977091,0.2364512,0.005327593,-0.00156984,0.003381581,0.01965238,0.003572433,-0.006540138
-0.03146422,0.9822198,0.2361601,0.005784007,0.003549431,0.003088292,0.01913648,0.009349753,-0.0122233
-0.03323246,0.9876549,0.2357289,0.003979415,0.00897627,0.002654212,0.01571976,0.01905442,-0.01641946
-0.03519221,0.9798416,0.2350855,0.001982394,0.001155485,0.002007409,0.01298993,0.01626748,-0.009381606
-0.03871087,0.9736941,0.2324763,-0.001574441,-0.004998894,-0.0006059007,0.008940539,0.01123573,-0.005316252
-0.03953676,0.9786645,0.2314116,-0.002439244,-3.466865e-05,-0.001675364,0.006150861,0.01185104,-0.006148773
-0.03966518,0.9827901,0.2319036,-0.002607074,0.004085277,-0.001188665,0.006695679,0.005325617,-0.001405385
-0.04288208,0.9811276,0.2320295,-0.005863606,0.002417797,-0.001068481,0.005059247,0.0001268071,0.00272115
-0.04049765,0.9784534,0.2309188,-0.003518683,-0.0002611161,-0.00218519,0.005366431,0.005499803,0.004066286
-0.03710887,0.973632,0.2307152,-0.0001690048,-0.005086839,-0.002395046,0.007475562,0.009628704,0.000803534
-0.03690552,0.9695781,0.2333711,-4.1531e-06,-0.009144506,0.0002545073,0.009909133,0.01003703,-0.003922207
-0.03535932,0.9725163,0.2355266,0.001504226,-0.00620939,0.002403756,0.01135533,0.01121356,-0.00173762
-0.03623103,0.9756027,0.2352054,0.0005953932,-0.003124958,0.002076144,0.008092697,0.008197997,-0.002162839
-0.0365199,0.977033,0.2350232,0.000270114,-0.00169534,0.001887484,0.009559983,0.003345961,-0.005993902
-0.03517167,0.9795208,0.2366299,0.001582653,0.0007929945,0.003487517,0.01258208,0.006534301,-0.005308296
-0.03475911,0.9825264,0.2364308,0.001960234,0.003800429,0.003281515,0.01715093,0.02036816,-0.003599952
-0.03319386,0.9857824,0.2354649,0.003491177,0.007059201,0.002308183,0.02554211,0.02978558,-0.002701195
-0.0356407,0.9823252,0.2349689,0.001010611,0.003605457,0.00180428,0.01976423,0.0116225,-0.003364392
-0.03904934,0.9785325,0.2280112,-0.002431195,-0.000183383,-0.005161915,0.011695,-0.007448737,-0.007300884
-0.03766378,0.9812653,0.221232,-0.001078189,0.002553505,-0.01194992,0.01137833,0.01518065,-0.009265192
-0.03893909,0.9788937,0.2248445,-0.002385313,0.0001860942,-0.008346042,0.0006829374,0.04216863,0.001886658
-0.0422483,0.9700758,0.2281316,-0.005725448,-0.008627529,-0.005067159,-0.0207397,0.03409754,0.01403405
-0.04158345,0.9663867,0.223998,-0.005090417,-0.01231198,-0.009207948,-0.04580221,0.009935317,0.002989856
-0.03948571,0.9817198,0.2227482,-0.00302115,0.00302637,-0.01046358,-0.05283177,-0.01127435,-0.01235882
-0.03979648,0.9995283,0.2270833,-0.003358836,0.02084088,-0.006132813,-0.03376708,-0.005532052,-0.01002393
-0.04495062,0.9874611,0.231234,-0.008538165,0.008779859,-0.001984369,-0.02197596,0.002485474,-0.001922541
-0.04935839,0.9739039,0.2346207,-0.01296913,-0.00477163,0.001402057,-0.0225949,-0.03339634,0.004266153
-0.04216482,0.9811047,0.2341075,-0.005796368,0.002434334,0.000890487,-0.02432985,-0.05093096,0.000880246
-0.03637396,0.9790308,0.232975,-2.362193e-05,0.0003650419,-0.0002385758,-0.03061917,-0.006468088,-0.005922057
-0.05097769,0.9726462,0.2357872,-0.01464263,-0.006015552,0.002578665,-0.02923085,0.0184457,0.0009445112
-0.06140714,0.9724316,0.2332594,-0.02508419,-0.006226516,5.724032e-05,-0.02051652,-0.04162535,0.007637176
-0.0439732,0.9689723,0.2247719,-0.007658592,-0.009682299,-0.008422669,-0.01989533,-0.09232345,0.0107779
-0.02915865,0.969706,0.2152712,0.007151835,-0.008944676,-0.01791419,-0.02659963,-0.01955783,0.02043443
-0.03806013,0.9686538,0.2152908,-0.001749667,-0.009992285,-0.01788364,-0.0375203,0.04178739,0.03428905
-0.04714391,0.9631307,0.2374136,-0.01082966,-0.01550946,0.004252744,-0.04581459,-0.01952364,0.05119546
-0.04846006,0.960644,0.2561427,-0.01213822,-0.01798851,0.02299782,-0.0336847,-0.06534408,0.05490081
-0.04928778,0.9597063,0.2498194,-0.0129543,-0.01891609,0.01669223,-0.009210619,-0.05327975,0.05431806
-0.04336752,0.9620086,0.243305,-0.007018076,-0.01660054,0.01019632,-0.004675695,-0.02930121,0.07227716
-0.03957462,0.9593889,0.2445941,-0.003204768,-0.01920315,0.0115037,-0.01063386,-0.004308311,0.0890081
-0.04265569,0.9570969,0.2375853,-0.006261036,-0.02147353,0.004512508,-0.007288002,-0.04977903,0.09373079
-0.03988051,0.9655214,0.2349509,-0.003456794,-0.01302231,0.001894537,-0.006909268,-0.1140685,0.09316205
-0.0333583,0.9788771,0.2368279,0.003098535,0.000365446,0.003786711,-0.005463334,-0.09412715,0.1002373
-0.02687433,0.9924983,0.2285812,0.00961927,0.01402396,-0.004446187,-0.004214335,-0.06542441,0.1157736
-0.02527298,0.9890268,0.2334333,0.01126039,0.0105942,0.0004183836,-0.01122621,-0.06522396,0.1113744
-0.02088534,0.9921599,0.195584,0.03979648,-0.01306454,-0.001460181,0.1134726,0.03335642,0.2853607
-0.01892751,0.9867744,0.1936439,0.04282179,-0.01811513,-0.004376189,0.09709455,0.04494208,0.2838704
-0.01667624,0.9878007,0.1993408,0.04603243,-0.01673262,0.0003741367,0.08780515,0.04870594,0.2820823
-0.01985843,0.9811412,0.204873,0.04370447,-0.02301618,0.004989764,0.07862577,0.04883952,0.2794663
-0.0193493,0.9746929,0.2062278,0.04496568,-0.02907018,0.005458049,0.07775577,0.04553908,0.2775789
-0.01699996,0.9803241,0.2107281,0.04796798,-0.02302749,0.009102003,0.08513323,0.04558864,0.2777665
-0.01592934,0.9827251,0.2139748,0.04959546,-0.02019891,0.01152226,0.08250517,0.04836748,0.2793081
-0.01526892,0.9865868,0.2105091,0.05071959,-0.01589469,0.0072597,0.09142142,0.05341696,0.2818826
-0.01743493,0.9878813,0.2089049,0.04892705,-0.0141441,0.004887604,0.1041906,0.05895263,0.279995
-0.01685636,0.9824529,0.2130554,0.04979182,-0.01910425,0.008299012,0.1058057,0.0491662,0.2760658
-0.0165286,0.9793817,0.2145657,0.05032151,-0.02169637,0.009098419,0.1162549,0.0386076,0.27795
-0.01980944,0.9793329,0.2129425,0.04716133,-0.02125622,0.006792158,0.1272609,0.0419961,0.2825718
-0.02043659,0.9783833,0.2119975,0.04657663,-0.02170817,0.005191268,0.1332895,0.0371555,0.2861282
-0.0182062,0.9714021,0.2120999,0.04877438,-0.0281836,0.004664558,0.1300201,0.01768395,0.2793654
-0.01255627,0.9694353,0.2111003,0.0543196,-0.02963744,0.003062075,0.1238632,0.01110453,0.266165
-0.007099252,0.9753558,0.208458,0.05960271,-0.02319713,-0.0001571758,0.1300782,0.03277656,0.2659379
-0.008653166,0.9826669,0.2081866,0.05780828,-0.01535998,-0.0009801816,0.1295548,0.05631451,0.2694713
-0.01456545,0.9932239,0.2093018,0.05159141,-0.00427182,-0.0003915364,0.130694,0.05084602,0.2672158
-0.01814649,0.99469,0.2122192,0.04764439,-0.002270486,0.002024175,0.1333349,0.03614909,0.2626447
-0.01670042,0.9881574,0.2153614,0.04866595,-0.008265442,0.004688897,0.1250989,0.0338702,0.2547669
-0.01503783,0.98431,0.21279,0.04984838,-0.01157397,0.001663626,0.1247493,0.02810924,0.2548116
-0.01541437,0.9795939,0.2114764,0.04893887,-0.01575124,-8.070634e-05,0.1187966,0.02584562,0.2571314
-0.01487169,0.9785835,0.2132631,0.04889851,-0.01622344,0.001297744,0.1096196,0.02965751,0.2554368
-0.01342243,0.9825474,0.2122501,0.04971737,-0.01172265,-0.0001015672,0.1059726,0.02535982,0.260173
-0.0115358,0.9852397,0.2118018,0.05092883,-0.00849562,-0.0009147589,0.09407375,0.02487861,0.2574425
-0.009528754,0.9860045,0.2101732,0.05221846,-0.007198845,-0.002887432,0.09218191,0.0246452,0.2479055
-0.008470521,0.9860128,0.2070031,0.05251939,-0.006662221,-0.006381187,0.0934532,0.02434871,0.2451293
-0.01053306,0.9861233,0.2074819,0.04966196,-0.006027858,-0.006205945,0.08387549,0.02904472,0.2402946
-0.01309988,0.9844528,0.2090788,0.04626496,-0.007179776,-0.004892971,0.0789174,0.02465787,0.2352842
-0.009183911,0.9807467,0.2130596,0.04931777,-0.01037316,-0.001176691,0.07961291,0.02268497,0.2309449
-0.005643913,0.9783541,0.2196986,0.05196389,-0.01225942,0.005216435,0.08292537,0.0266373,0.2251215
-0.01076521,0.9796846,0.220681,0.04592012,-0.01042941,0.005971075,0.08457792,0.0270705,0.2264143
-0.01399867,0.9815927,0.218907,0.0417377,-0.008028982,0.003986322,0.08779844,0.02778622,0.2281727
-0.01032491,0.9797567,0.222294,0.04443823,-0.009379984,0.007178741,0.096056,0.02483406,0.2239803
-0.008710889,0.9774817,0.2275529,0.04505692,-0.01117778,0.01225815,0.09906591,0.02221913,0.2215868
-0.009677868,0.9768719,0.2286995,0.04307456,-0.01131838,0.01323937,0.09973456,0.02064357,0.2209065
-0.007961632,0.9797855,0.2206448,0.04375732,-0.007943694,0.005032231,0.1022162,0.0184839,0.2189573
-0.005209968,0.9863803,0.2088632,0.0454593,-0.000896198,-0.006889805,0.1000546,0.02371688,0.2170737
-0.005551285,0.9872957,0.2078369,0.04405385,0.0004632046,-0.008044982,0.09334357,0.03122499,0.2120841
-0.007731672,0.9836966,0.2125196,0.04079656,-0.002701199,-0.003479866,0.08934279,0.0324338,0.2076551
-0.008699532,0.9793735,0.2155209,0.03874073,-0.00659923,-0.0005850805,0.09034066,0.02585948,0.2089172
-0.008516693,0.9741423,0.2206333,0.03782623,-0.01141527,0.004431513,0.09627192,0.02462845,0.2088159
-0.008596836,0.9800619,0.2185164,0.03664109,-0.005090474,0.002228904,0.1012772,0.04314616,0.2083199
-0.01177628,0.9877871,0.211476,0.03235068,0.003030106,-0.004887657,0.09420689,0.05458912,0.2072055
-0.01707316,0.9788369,0.213087,0.02593859,-0.005535002,-0.003343759,0.08343362,0.02333418,0.2014238
-0.01814528,0.9693655,0.2165683,0.02374885,-0.01463159,7.921049e-05,0.07199351,-0.008929685,0.1996087
-0.01247747,0.9697083,0.2181233,0.02829851,-0.01392406,0.001584179,0.06123622,0.01169646,0.2000403
-0.006857144,0.9744891,0.2171189,0.0328019,-0.008788265,0.000537645,0.06502499,0.0291947,0.1986925
-0.008517683,0.9854298,0.2127064,0.03002704,0.00249788,-0.00390959,0.07100344,0.01203104,0.196794
-0.01025761,0.9917182,0.2137211,0.02717672,0.009122188,-0.002922656,0.07581023,0.01317174,0.1910884
-0.007452766,0.9863563,0.2145727,0.02887633,0.00408609,-0.002091962,0.08134869,0.01720027,0.1880944
-0.008194135,0.9815684,0.2118827,0.02703611,-0.0003863252,-0.004796514,0.07828468,0.01294914,0.1868053
-0.01001318,0.9809124,0.2118996,0.0241257,-0.0007375875,-0.004787902,0.08013183,0.02316408,0.1820177
-0.008847895,0.9806204,0.2119452,0.02420824,-0.0007355814,-0.004744656,0.08189897,0.02020334,0.1806955
-0.007319478,0.9825933,0.2170696,0.02466358,0.00152062,0.0003832185,0.07876497,0.01712982,0.1831681
-0.004384104,0.9859594,0.2232434,0.02653653,0.005159229,0.006566011,0.07730277,0.02962427,0.1833812
-0.003353152,0.9857787,0.2200644,0.02651652,0.005240111,0.003400751,0.06809868,0.03199393,0.1766288
-0.004112573,0.9812438,0.2178209,0.0247183,0.0009557546,0.001175379,0.06307948,0.03208185,0.1685546
-0.003840078,0.9768875,0.2192726,0.02396479,-0.003160994,0.002648986,0.0625682,0.03040024,0.1662665
-0.005506983,0.978109,0.218614,0.02128532,-0.001710881,0.002015722,0.06118417,0.02603128,0.1638608
-0.005908263,0.9840458,0.221047,0.01988554,0.004443882,0.004476832,0.07055071,0.02570917,0.1619054
-0.005138721,0.9870804,0.2252661,0.01967128,0.007685761,0.008726491,0.07628239,0.02417079,0.1620187
-0.005936166,0.9846545,0.2233729,0.01790534,0.005456702,0.006865735,0.0742093,0.02915651,0.1579521
-0.005345263,0.9815765,0.2198178,0.01754363,0.002564656,0.00334432,0.07935216,0.03462677,0.1534022
-0.005869215,0.9806082,0.2194629,0.01608348,0.001771777,0.003023939,0.0880445,0.03424657,0.1521433
-0.008139457,0.9791263,0.2189931,0.01289398,0.0004548594,0.002589099,0.08631492,0.02903579,0.1492875
-0.01121141,0.9781491,0.2196278,0.008920259,-0.0003676644,0.003258934,0.07984213,0.02293447,0.147374
-0.01380645,0.9803117,0.2197663,0.00544158,0.001939661,0.003432545,0.08109429,0.03210429,0.1494851
-0.0121328,0.9810053,0.2183218,0.006250427,0.002768384,0.002022834,0.07579185,0.03908633,0.150327
-0.01072574,0.981779,0.2174131,0.006812191,0.003667842,0.001148382,0.06698344,0.03073628,0.1496723
-0.009320796,0.9829819,0.2152468,0.00739191,0.004987083,-0.000984359,0.06372595,0.02728307,0.147853
-0.005529288,0.9810694,0.2167074,0.01037868,0.003181915,0.0005091662,0.05823421,0.03223139,0.1405405
-0.004855538,0.9820651,0.2196512,0.01026843,0.00427591,0.003484985,0.05846202,0.0349245,0.1330648
-0.004784484,0.9823506,0.2190459,0.009576373,0.004651037,0.002910857,0.0575508,0.02957809,0.1349963
-0.002899483,0.9805511,0.2191354,0.01071919,0.002932464,0.003030456,0.05589691,0.023904,0.1384592
-0.002794694,0.9827272,0.2169744,0.01010272,0.005181084,0.0008984204,0.05982032,0.02554792,0.1356312
-0.005516845,0.9835865,0.2176774,0.006680176,0.006104689,0.001628944,0.05848028,0.03783639,0.1379261
-0.0107055,0.982575,0.2240471,0.0008120014,0.005149418,0.008024787,0.06227827,0.04550951,0.1398602
-0.01358247,0.978906,0.2229305,-0.002723474,0.001528762,0.006932736,0.06400534,0.0132875,0.1295137
-0.009962555,0.975174,0.2186292,0.0002592347,-0.002162502,0.002654071,0.05893779,-0.01747448,0.1220181
-0.00396824,0.9797668,0.2187576,0.005637838,0.002463891,0.002803145,0.06156865,0.01569599,0.1223774
-0.002724311,0.9856532,0.2178359,0.006287538,0.008376925,0.001899894,0.06077285,0.04668746,0.1213631
-0.008281369,0.9862673,0.2176329,0.0001575686,0.009010999,0.001713139,0.06090004,0.02451513,0.1189545
-0.01406866,0.9823143,0.2188284,-0.006181416,0.005071382,0.002922802,0.06408819,0.01731898,0.1157492
-0.01285546,0.9775997,0.2186203,-0.005498616,0.0003636542,0.002726694,0.06234705,0.03033053,0.1121795
-0.009445903,0.9767417,0.2187484,-0.002598008,-0.0004937348,0.002864655,0.06420125,0.02720935,0.10998
-0.009836357,0.9779663,0.2152571,-0.003475914,0.0007257299,-0.0006189809,0.06398961,0.0331557,0.1098491
-0.01005988,0.9827442,0.2098337,-0.00416543,0.005493034,-0.006036672,0.06166522,0.03333509,0.11194
-0.01123241,0.9886592,0.2111486,-0.005782587,0.01139219,-0.004717926,0.06204317,0.02233952,0.1190304
-0.01351749,0.9879284,0.2125368,-0.008490983,0.01064052,-0.003327277,0.06015364,0.02785418,0.1243026
-0.01178911,0.9807037,0.2116715,-0.007164647,0.003389641,-0.004191264,0.0564181,0.02232294,0.1187414
-0.009138612,0.9751398,0.2161475,-0.004894999,-0.002205515,0.000285297,0.0496915,0.01300969,0.1117603
-0.006344585,0.9816536,0.2183539,-0.002460815,0.00427228,0.002491457,0.04404889,0.01997085,0.1040051
-0.005073632,0.9887512,0.2153538,-0.001529041,0.0113294,-0.0005095548,0.04458398,0.02138055,0.09739573
-0.007062409,0.9795985,0.2148196,-0.003836771,0.002131972,-0.001045231,0.05206355,0.02325671,0.09941178
-0.00676824,0.973712,0.2139646,-0.003841782,-0.003803428,-0.001902379,0.06030353,0.02607687,0.09523774
-0.008936406,0.9830406,0.211628,-0.006289771,0.00547239,-0.004241598,0.05766711,0.02790298,0.08875883
-0.01471256,0.9879573,0.2074352,-0.01232673,0.010333,-0.008437164,0.05576306,0.03339488,0.09000508
-0.01624507,0.9858795,0.200686,-0.01410122,0.008195599,-0.01518909,0.06085998,0.02654495,0.08764797
-0.01613466,0.9853724,0.202378,-0.01421402,0.007625438,-0.01349896,0.05652011,0.01933512,0.08591968
-0.01672964,0.9836642,0.2065291,-0.01501348,0.005850807,-0.009348469,0.05129175,0.02691911,0.08621122
-0.01680187,0.9784339,0.2021434,-0.01527149,0.0005506986,-0.01373286,0.05412641,0.02983645,0.08424434
-0.01648283,0.9748882,0.2020256,-0.01511961,-0.003067837,-0.01384706,0.05257656,0.01948488,0.08602894
-0.01543574,0.9791415,0.2036079,-0.01422117,0.001110144,-0.01225828,0.04916912,0.01250881,0.08811586
-0.01429346,0.9850498,0.2000171,-0.01320924,0.006940708,-0.01583922,0.04205141,0.01732783,0.08834247
-0.01362204,0.9868561,0.1998602,-0.01265011,0.008667362,-0.01598247,0.03101121,0.01941453,0.08803453
-0.01479339,0.9853121,0.2006988,-0.01391601,0.007041661,-0.01512607,0.03204453,0.01094314,0.0861294
-0.0156641,0.9791773,0.2041144,-0.01486388,0.0008231512,-0.01168791,0.03177872,0.001656156,0.08580604
-0.01416768,0.9746808,0.2106703,-0.01342755,-0.003758898,-0.005104477,0.02302304,-0.001070059,0.08696782
-0.01410684,0.975986,0.211571,-0.01341007,-0.002540737,-0.004171263,0.02482973,0.002606545,0.08938978
-0.01661074,0.9769188,0.2083476,-0.01594099,-0.001695883,-0.007357351,0.02640764,0.00401231,0.09046943
-0.01750489,0.9743139,0.2057353,-0.01684616,-0.004389278,-0.00992774,0.02124205,-0.004926015,0.08224618
-0.01123196,0.9737543,0.2075688,-0.01056861,-0.005037399,-0.00804765,0.02173573,-0.01305184,0.07176984
-0.004228312,0.9793474,0.2113173,-0.003545173,0.0004675448,-0.004247875,0.02117531,-0.008921485,0.07176066
-0.008110903,0.9833026,0.2128347,-0.007393544,0.004335274,-0.002674828,0.02052314,-0.002326383,0.07269625
-0.01445392,0.9805008,0.2116308,-0.01368868,0.001446796,-0.003818908,0.02333544,4.46885e-06,0.06773063
-0.01655681,0.9784156,0.2037919,-0.01573062,-0.0007241934,-0.01159404,0.02122915,-0.0007474498,0.06632971
-0.01882222,0.9829046,0.1987679,-0.0179224,0.003679903,-0.01655034,0.01870788,-0.005250566,0.06459515
-0.01656421,0.9867372,0.2062644,-0.01557835,0.0074287,-0.008982164,0.01657656,-0.008467118,0.06184418
-0.01371231,0.9852175,0.2145487,-0.01262831,0.005826022,-0.0006219337,0.01126617,-0.01148024,0.06524942
-0.01626888,0.9858948,0.2133143,-0.01507503,0.006421201,-0.001776589,0.007542441,-0.01506941,0.06895601
-0.01744424,0.9861586,0.2105578,-0.01612924,0.006603434,-0.00444966,0.003698891,-0.01329181,0.0728305
-0.01890975,0.9819024,0.2116532,-0.01746266,0.002266193,-0.003267696,-0.001830126,-0.01349583,0.07565559
-0.01995522,0.9800434,0.2100051,-0.01836538,0.000326554,-0.004826216,-0.006303673,-0.01646142,0.07575884
-0.01579578,0.9820619,0.2122423,-0.01405281,0.002264955,-0.002496833,-0.005202923,-0.01451212,0.07794157
-0.01266687,0.9842093,0.217026,-0.01076076,0.004332918,0.002381496,0.0004197734,-0.01517326,0.07528519
-0.01168802,0.9823747,0.2111813,-0.009609267,0.002419531,-0.003366574,0.001681548,-0.01712107,0.06911007
-0.01062505,0.979838,0.2068056,-0.008364772,-0.0001953104,-0.007643947,0.00177521,-0.01481897,0.06408632
-0.01016254,0.9801565,0.2085879,-0.007712534,4.579667e-05,-0.005761776,0.003983087,-0.01427999,0.05841786
-0.01177623,0.9796554,0.2079911,-0.009128969,-0.0005317956,-0.006257344,0.004784722,-0.01239285,0.05416484
-0.01578018,0.9807647,0.208758,-0.01292878,0.0005021283,-0.005387656,0.006825546,-0.007766061,0.04765144
-0.01651675,0.9819283,0.2091444,-0.0134548,0.001591471,-0.004897245,0.007594888,-0.005511603,0.04483886
-0.01602424,0.9806356,0.2066471,-0.01274572,0.0002257894,-0.007289397,0.004987012,-0.007970135,0.04583298
-0.01592608,0.9806919,0.2059833,-0.01242535,0.0002104689,-0.007846733,0.003495826,-0.01295967,0.04575942
-0.01418883,0.980379,0.2076641,-0.01046061,-0.0001726634,-0.006058445,0.002758587,-0.01144309,0.05261109
-0.01622158,0.9804707,0.2072505,-0.01226099,-0.0001496555,-0.00636334,0.0001758309,-0.01100482,0.05442964
-0.01844793,0.9809013,0.2074833,-0.01425049,0.0002138633,-0.006020834,-0.002644841,-0.01738679,0.05215427
-0.01897484,0.980338,0.2112816,-0.01453634,-0.0004148986,-0.002111778,-0.003185883,-0.01858691,0.05658911
-0.01821064,0.9818554,0.2123832,-0.01352713,0.001038689,-0.0008986679,-0.006347957,-0.01773018,0.05606282
-0.01258335,0.9831452,0.2125235,-0.007651149,0.002266427,-0.0006462013,-0.01267909,-0.01737768,0.05561396
-0.01181416,0.9834669,0.2130522,-0.006629992,0.002527782,-5.162952e-06,-0.01397771,-0.01607283,0.05652766
-0.01512912,0.98355,0.2128488,-0.009690205,0.002552197,-9.619927e-05,-0.01171605,-0.01702107,0.0574798
-0.01529719,0.9836987,0.2145498,-0.009601222,0.002643706,0.001716684,-0.007003784,-0.01539788,0.0625099
-0.01572601,0.9871298,0.2139527,-0.009771083,0.006019076,0.00123084,-0.0005437169,-0.01403431,0.06149247
-0.0152689,0.9876766,0.2146428,-0.009053444,0.00651138,0.002031277,-0.00200179,-0.01859259,0.06257214
-0.01697649,0.9774898,0.2206959,-0.01049928,-0.003728824,0.008193302,-0.005816214,-0.03276347,0.0625469
-0.01749798,0.9674515,0.2251563,-0.01075808,-0.01381936,0.01276073,-0.004617723,-0.04509484,0.05005963
-0.009610114,0.9744549,0.224268,-0.002606893,-0.006866737,0.01197696,-0.006534346,-0.02825899,0.04088756
-0.003638264,0.9868631,0.2214116,0.003628448,0.005492712,0.009221893,-0.007307838,-0.006337801,0.03893705
-0.00742853,0.9876096,0.2216764,0.0001011574,0.006192465,0.009584209,-0.00224605,-0.01057929,0.0395848
-0.01256213,0.9868643,0.2191089,-0.004770686,0.005402224,0.007110033,0.0004938066,-0.009374853,0.0387412
-0.01113555,0.9852536,0.2147881,-0.00308412,0.003748003,0.00287786,0.002300319,-0.002346764,0.03725999
-0.01183408,0.980698,0.2163577,-0.003524831,-0.000849809,0.004531297,0.003847829,-0.01428903,0.03731461
-0.01457514,0.9818787,0.2146239,-0.006010605,0.0002900284,0.002876442,0.0008952291,-0.01899552,0.03392358
-0.01303742,0.9814555,0.212218,-0.004220393,-0.000172918,0.000544581,-0.002002086,-0.0155906,0.03813411
-0.01518739,0.9796972,0.2188595,-0.006120911,-0.001969696,0.007255145,-0.004088508,-0.02142226,0.04450215
-0.01281625,0.9808307,0.2233966,-0.003503563,-0.0008733215,0.01185629,-0.006994833,-0.02179168,0.04308102
-0.007002771,0.9794875,0.2163143,0.002552654,-0.00225216,0.004832926,-0.009541796,-0.02057664,0.04483167
-0.01037632,0.9789049,0.2091891,-0.0005819895,-0.002869045,-0.002238747,-0.01313217,-0.02033409,0.04468585
-0.01025804,0.9791782,0.2126377,-0.0002290163,-0.002628364,0.00125807,-0.01108164,-0.01760307,0.04310439
-0.00721177,0.9791462,0.2140796,0.003047365,-0.002691249,0.002743316,-0.004256952,-0.01893976,0.04193746
-0.006553492,0.979348,0.2120577,0.003930807,-0.002518574,0.0007598397,-0.001298236,-0.01838317,0.03430952
-0.004512806,0.9788763,0.2187778,0.006191278,-0.003017487,0.007513609,0.003529115,-0.01819216,0.02861406
-0.006580818,0.9797683,0.2246334,0.004337216,-0.002150726,0.01339815,0.006308696,-0.01654574,0.02604834
-0.007413048,0.9808847,0.2232572,0.003712686,-0.001057484,0.01204599,0.005412004,-0.008717084,0.0217583
-0.007038069,0.9823513,0.2195691,0.004288778,0.0003878848,0.008376582,0.008286686,-0.004740072,0.01730092
-0.01066653,0.9826122,0.215931,0.0008545791,0.0006294913,0.004751864,0.006146699,-0.00775915,0.01415966
-0.01193866,0.9821347,0.2163055,-0.0002302948,0.0001346157,0.005134186,0.003944262,-0.01263738,0.01658987
-0.01356261,0.9838149,0.2171837,-0.00167402,0.00179916,0.006014856,0.005746884,-0.01105033,0.02266003
-0.01579092,0.9826118,0.2158494,-0.003729075,0.0005820095,0.004677852,0.001915033,-0.01055396,0.02510313
-0.01459965,0.9812759,0.2140294,-0.002371363,-0.0007664715,0.002849978,-0.00412524,-0.0150915,0.02543344
-0.01358843,0.9832526,0.2117473,-0.00120033,0.001198967,0.0005550034,-0.01247698,-0.01367928,0.02562216
-0.01215087,0.9832251,0.211934,0.0003905353,0.001161589,0.000724316,-0.01725158,-0.0152038,0.0243692
-0.01191125,0.9813039,0.2122636,0.0007770362,-0.0007683063,0.001032156,-0.01703596,-0.01946493,0.02612943
-0.01290383,0.979115,0.2106958,-7.504056e-05,-0.002964717,-0.0005612322,-0.0183558,-0.02021446,0.02989113
-0.01035728,0.9786274,0.2123293,0.002605692,-0.003458672,0.001042941,-0.01484478,-0.02138998,0.03115416
-0.009189549,0.979595,0.215972,0.003901288,-0.002496249,0.004653077,-0.01623676,-0.01714903,0.0295304
-0.01087583,0.9790455,0.2181186,0.002336529,-0.003049534,0.006763926,-0.01975771,-0.01321049,0.02416979
-0.01132808,0.9790446,0.2212802,0.001999428,-0.003052936,0.009886688,-0.01399409,-0.01466373,0.01968312
-0.01089989,0.9797412,0.2250302,0.00253642,-0.002357317,0.01359459,-0.01111334,-0.01444778,0.01918343
-0.009083042,0.9807693,0.2259957,0.004455749,-0.001328707,0.01451461,-0.00620995,-0.01159467,0.02019036
-0.008395283,0.9815036,0.2260838,0.005239673,-0.0005924631,0.0145534,0.0009369883,-0.01054001,0.02126607
-0.01096046,0.9762829,0.2268623,0.002764317,-0.005809777,0.01527842,0.002632089,-0.01921539,0.02223493
-0.01326854,0.9687929,0.2259532,0.0005397322,-0.01329482,0.01431142,0.0005531864,-0.03125382,0.02019023
-0.01090301,0.9695368,0.2237492,0.002982558,-0.01254418,0.01204486,-0.01066803,-0.03489913,0.01366799
-0.004674854,0.9777105,0.2207859,0.009281897,-0.004361384,0.009014139,-0.0160487,-0.03120176,0.01282707
-0.001491712,0.9864097,0.2182192,0.01253004,0.004349375,0.006375154,-0.00785352,-0.02346571,0.0162358
-0.002465673,0.990454,0.2197928,0.01161464,0.008407525,0.00787171,-0.002697744,-0.01674131,0.0114853
-0.003603253,0.9884434,0.2219496,0.01052891,0.006412609,0.009946948,7.935631e-05,-0.01340998,0.003891721
-0.003717327,0.9858557,0.2210006,0.01045973,0.003841861,0.008911892,0.003688349,-0.009528101,0.0008635097
-0.004924587,0.9836018,0.2171638,0.009290265,0.001605813,0.004984627,0.0009842557,-0.004198545,0.003092653
-0.006473236,0.9806336,0.2111361,0.007772208,-0.001343813,-0.001137618,-0.006242417,-0.004510146,0.007654769
-0.005716675,0.9818466,0.2118807,0.008552152,-0.0001117012,-0.0004912297,-0.00941884,-0.006880432,0.007058635
-0.007996135,0.9828092,0.2170156,0.006288906,0.0008703863,0.004542193,-0.009359091,-0.002469092,0.005229228
-0.01110604,0.9811361,0.2175077,0.003188167,-0.0007827799,0.004930125,-0.009526735,-0.000739266,0.008500054
-0.008973237,0.982252,0.21794,0.005323298,0.0003532436,0.005255734,-0.01295922,-4.062282e-06,0.009002948
-0.00649608,0.9821567,0.215492,0.007796184,0.0002782793,0.002698765,-0.01773104,0.003978492,0.003183528
-0.004238403,0.9814525,0.2115915,0.01004314,-0.0004054135,-0.001312653,-0.01378485,0.003464003,-0.0007950707
-0.00336158,0.9824207,0.2144062,0.01090284,0.0005833404,0.001389478,-0.007761256,0.005062233,-0.0001569634
-0.004740072,0.9816909,0.2197502,0.009500817,-0.0001258571,0.006619665,-3.569118e-06,0.008750778,-7.63908e-05
-0.004073259,0.9826294,0.2259238,0.0101377,0.0008330573,0.01267839,0.01269922,0.01194379,-0.00362419
-0.004288253,0.9857588,0.2270897,0.009886401,0.003982776,0.01372822,0.01301509,0.01419877,-0.006892398
-0.006445223,0.9877415,0.2212527,0.007686821,0.005985438,0.00777385,0.008291014,0.01003839,-0.008399998
-0.0083473,0.984963,0.2183002,0.005735961,0.003226341,0.004702474,0.01060512,0.007806246,-0.009215922
-0.0097718,0.9789001,0.2156306,0.004256735,-0.002818,0.001912697,0.01018562,0.008088312,-0.007483545
-0.009747718,0.9783809,0.2143012,0.004220457,-0.003319414,0.0004619878,0.0104636,0.008560593,-0.007692678
-0.009359806,0.9803365,0.2188663,0.004542723,-0.001346665,0.004904893,0.01476075,0.009315696,-0.008900643
-0.007826081,0.9815054,0.2200465,0.00600584,-0.0001613263,0.00596232,0.01653311,0.00537915,-0.006869333
-0.005375408,0.984272,0.217218,0.008381213,0.002621288,0.003010674,0.01562996,0.004505866,-0.006516244
-0.005189355,0.9836934,0.2164163,0.008487458,0.002058066,0.002085478,0.01253871,0.006558053,-0.003758742
-0.005998112,0.9825558,0.2180572,0.007594516,0.0009351297,0.003602925,0.00647006,0.007430041,0.002277527
-0.006584776,0.983672,0.2222648,0.00691943,0.002065172,0.007686969,0.001764612,0.006291898,0.001365684
-0.008027784,0.9825489,0.2238223,0.005383941,0.0009551564,0.009121174,0.003181065,0.004065144,-0.006778389
-0.008979517,0.9821515,0.2189554,0.004335901,0.0005699445,0.004130996,0.005389192,0.01104683,-0.01438312
-0.009095183,0.9827309,0.2140441,0.004120384,0.001160693,-0.000903465,0.00161933,0.01659793,-0.01313022
-0.009861321,0.9808957,0.2151913,0.003251163,-0.0006641471,0.000120883,-0.000534846,0.01259039,-0.007730723
-0.01002514,0.9800783,0.2189766,0.002981356,-0.001472047,0.003783943,0.002451034,0.01269316,-0.009108659
-0.01011305,0.9817021,0.2197751,0.002784889,0.0001605209,0.004460973,0.004207942,0.02060217,-0.01073988
-0.01339171,0.9812758,0.2191939,-0.0006045401,-0.0002577579,0.003759112,0.006178537,0.02463866,-0.008704487
-0.01614306,0.9762537,0.2167457,-0.003468459,-0.005272554,0.001191268,0.00362437,0.009139401,-0.01024632
-0.0136963,0.971052,0.2113973,-0.001135534,-0.01046736,-0.004275589,-0.008035593,-0.005784134,-0.01496849
-0.01129141,0.9724614,0.2085057,0.001154711,-0.009051105,-0.007284295,-0.01716975,0.006193033,-0.01823255
-0.01265618,0.9790175,0.2102907,-0.0003250844,-0.002487841,-0.005614558,-0.01368495,0.01564359,-0.01435425
-0.01282083,0.9835975,0.2149441,-0.0006048318,0.002099892,-0.00107389,-0.002295019,0.003929893,-0.008444979
-0.01125653,0.9841732,0.2172101,0.0008446426,0.002683879,0.001081902,0.002798948,0.0006786702,-0.01214657
-0.01193176,0.9831166,0.214003,5.514821e-05,0.00163602,-0.002232445,0.002530444,0.01105817,-0.01636519
-0.01299718,0.9841268,0.2103676,-0.001123713,0.002655164,-0.005972167,0.004862379,0.01425438,-0.01645365
-0.01338058,0.9864291,0.2100307,-0.001619454,0.004966508,-0.006410171,0.004543232,0.00902783,-0.01741369
-0.01431689,0.9861409,0.2092169,-0.002666706,0.004687149,-0.007321421,-0.0009977983,0.0006581175,-0.01222568
-0.01483989,0.9852583,0.206302,-0.003298931,0.00381303,-0.01032984,-0.003496271,-0.003318305,-0.007411958
-0.01470122,0.9825979,0.2090897,-0.003267461,0.001160518,-0.007631363,0.004081894,0.001502899,-0.008629039
-0.0119012,0.9784747,0.2125768,-0.0005723113,-0.002955485,-0.004228689,0.008723465,0.006736509,-0.007447013
-0.007852148,0.9802683,0.2078994,0.003374396,-0.001155326,-0.008985482,0.005478484,0.01011994,-0.006991128
-0.006730218,0.985101,0.20635,0.004396533,0.00368332,-0.01060914,0.008105403,0.01020912,-0.008213061
-0.006136078,0.986602,0.2109638,0.004893346,0.005189789,-0.006064209,0.01372716,0.008738953,-0.01050096
-0.007392847,0.9839892,0.2131192,0.003541576,0.002581608,-0.003971943,0.0213804,0.00919617,-0.01809362
-0.01111467,0.9795665,0.2097842,-0.0002730229,-0.001837273,-0.007364339,0.02843739,0.007646568,-0.02614037
-0.01013211,0.9789565,0.2048683,0.0006189895,-0.002444315,-0.01233181,0.02647348,0.009200407,-0.02878955
-0.008574787,0.982046,0.206094,0.002088033,0.0006473818,-0.01115174,0.02495683,0.01416152,-0.02873667
-0.01144233,0.9842473,0.210548,-0.0008654941,0.002850287,-0.006737114,0.02549767,0.01577684,-0.02892091
-0.01428119,0.9830345,0.2134325,-0.003787973,0.001638351,-0.003885597,0.02164185,0.0135074,-0.02318398
-0.01841911,0.9798236,0.2127577,-0.008006967,-0.001572368,-0.004587109,0.01648896,0.006651934,-0.01773001
-0.01972125,0.977851,0.2087101,-0.009387301,-0.003545383,-0.008655283,0.01220492,-0.0001465742,-0.02093248
-0.01754307,0.9774235,0.207755,-0.007284025,-0.003973883,-0.009624737,0.003308867,-0.005036171,-0.01774527
-0.02010253,0.9791862,0.2075211,-0.009914683,-0.002212384,-0.009866934,-0.009932874,-0.01161896,-0.01089856
-0.02013133,0.9815089,0.2061441,-0.0100106,0.0001089514,-0.01124594,-0.01599912,-0.01649725,-0.01013223
-0.01825867,0.9816357,0.2048747,-0.008200605,0.0002343148,-0.01251102,-0.01712765,-0.0168233,-0.009833482
-0.02032827,0.9795361,0.2008,-0.01032809,-0.001866716,-0.01657488,-0.02204781,-0.01645286,-0.01516672
-0.0183407,0.9772041,0.1993365,-0.008393324,-0.004200086,-0.01802087,-0.03134618,-0.01761615,-0.01758409
-0.01440377,0.9801302,0.2025656,-0.004503898,-0.001275201,-0.01476708,-0.04283366,-0.01900253,-0.01177134
-0.009856763,0.9829611,0.206154,9.543734e-07,0.0015548,-0.01114683,-0.04493832,-0.01974724,-0.0117337
-0.004328618,0.978026,0.2078673,0.005492135,-0.003380926,-0.00939422,-0.03308971,-0.01455949,-0.01197282
-0.004342064,0.9747669,0.2067834,0.005446526,-0.0066403,-0.01043154,-0.02093543,-0.007397134,-0.009053899
