accx,accy,accz,body_accx,body_accy,body_accz,body_gyrox,body_gyroy,body_gyroz
1.019669,-0.2842424,-0.0820759,0.0699185,0.04844774,0.1629372,-0.4626653,0.3935667,-0.1620148
1.010707,-0.2564713,-0.08082855,0.06148765,0.07672505,0.1644687,-0.5941093,0.2113755,-0.0906703
1.085746,-0.387973,-0.06399687,0.1370904,-0.05427523,0.1815495,-0.6416597,-0.07707824,0.04610051
1.21635,-0.5222549,0.006301058,0.2682831,-0.1880612,0.252054,-0.3407632,-0.2494617,0.1563904
1.28792,-0.5454132,0.01979545,0.340451,-0.2107245,0.2657037,0.1117938,0.1305289,0.09139373
1.277225,-0.592864,-0.1042796,0.3303475,-0.2576728,0.1417239,0.1604388,0.361511,0.02808498
1.305887,-0.7119857,-0.2773692,0.3595752,-0.3762735,-0.0313356,0.2761456,0.0768801,0.190033
1.371943,-0.7378633,-0.3204047,0.4261541,-0.4015984,-0.074405,0.78863,-0.05660002,0.3607746
1.278313,-0.6874205,-0.3460769,0.3329864,-0.350556,-0.1001686,1.187246,0.3606063,0.3407786
1.044868,-0.6403493,-0.4679129,0.09992702,-0.3028242,-0.2221439,1.162853,0.8805566,0.2015446
0.7702668,-0.4370127,-0.4546992,-0.1743694,-0.09875653,-0.2091056,0.5730735,0.854092,0.008426164
0.6081313,-0.1605591,-0.3628896,-0.3362747,0.1785004,-0.1174947,-0.2401506,0.1695105,-0.1028571
0.682926,-0.1161447,-0.3662345,-0.2613085,0.2237818,-0.1210507,-0.615678,-0.8665513,-0.1108979
0.8075926,-0.3062307,-0.3457007,-0.1365121,0.03461235,-0.1007323,-0.5044574,-1.292758,-0.1522686
0.9012725,-0.547646,-0.3083357,-0.04273099,-0.2058481,-0.06358077,-0.1068855,-0.6561993,-0.2350293
0.9245019,-0.6601279,-0.2662043,-0.01942213,-0.317338,-0.02165629,0.3949421,-0.1296357,-0.401966
0.7985887,-0.5462724,-0.2141193,-0.145273,-0.2024478,0.03023061,0.6042335,-0.2527172,-0.5519062
0.730353,-0.3472063,-0.2602038,-0.2134578,-0.002298697,-0.01604302,0.4228642,-0.434392,-0.5385956
0.7560678,-0.2279638,-0.3003337,-0.1876944,0.1180738,-0.05635296,0.2702978,-0.6112038,-0.4705513
0.7981022,-0.1697601,-0.2853008,-0.1456042,0.1774461,-0.04148965,0.2108977,-0.6828003,-0.3349652
0.899232,-0.1791234,-0.2944785,-0.04440361,0.1692769,-0.05082461,0.1470135,-0.4020382,-0.1669556
0.9386854,-0.227555,-0.276134,-0.004861229,0.1220517,-0.03262294,0.261481,-0.1293369,-0.1108505
0.9199802,-0.2284904,-0.2502137,-0.02345846,0.1223232,-0.006829868,0.3068699,-0.1083411,-0.08991011
0.8935077,-0.2262317,-0.2169039,-0.04980475,0.1257794,0.02636833,0.2887612,-0.191504,-0.02953207
0.8472681,-0.1982993,-0.1728001,-0.09589934,0.1548906,0.07037494,0.3861211,-0.2839911,0.04847719
0.8960244,-0.1729071,-0.1935021,-0.04697775,0.1814337,0.04958705,0.3401191,-0.2927568,0.09046645
1.002488,-0.2412751,-0.2107485,0.05967188,0.1141794,0.03226281,0.3897642,-0.112836,0.07528548
1.065949,-0.2902892,-0.1855781,0.1233383,0.06623445,0.0573606,0.522851,0.2168815,0.02954984
1.047873,-0.2625765,-0.1721666,0.1054798,0.09496674,0.07070218,0.4816595,0.3225524,-0.06743781
1.008775,-0.1757881,-0.1701768,0.06660536,0.182721,0.07262148,0.4012899,0.04640417,-0.1735342
1.076803,-0.07360916,-0.1986041,0.1348568,0.2858055,0.04411996,0.1161792,-0.20799,-0.2313548
1.175943,-0.08208732,-0.2452256,0.2342138,0.2781632,-0.002581785,-0.1314846,-0.2235368,-0.2499533
1.274057,-0.2491484,-0.2671176,0.332528,0.1118582,-0.02456043,-0.04240517,-0.04429704,-0.2236105
1.303185,-0.4714742,-0.3241663,0.3618256,-0.1097963,-0.08170073,-0.05100112,0.102513,-0.2161383
1.092194,-0.5354544,-0.4257225,0.150961,-0.1731865,-0.1833498,-0.3662831,-0.02589648,-0.3440386
0.807555,-0.487718,-0.4398778,-0.1336049,-0.1249312,-0.1975919,-0.7051507,-0.2025492,-0.5387712
0.7455512,-0.5332217,-0.3598723,-0.195586,-0.1699761,-0.1176591,-0.7335436,-0.2969764,-0.5592888
1.037759,-0.5927823,-0.301833,0.09660273,-0.2291265,-0.05967136,-0.372834,-0.3354398,-0.3152431
1.39821,-0.5684349,-0.3206432,0.4569954,-0.2044052,-0.07850819,0.1007918,-0.0792286,0.01685287
1.395042,-0.4761498,-0.3955857,0.4537206,-0.1117708,-0.1534497,0.2023792,0.3608512,0.1825659
1.209899,-0.3232373,-0.42683,0.2684054,0.04147484,-0.1846613,-0.03566014,0.519917,0.2183034
1.028707,-0.2032741,-0.3473202,0.08696547,0.1617566,-0.1050818,-0.1671859,0.3952846,0.4355391
0.7566906,-0.1981537,-0.2107784,-0.1853792,0.167177,0.03157022,-0.2805096,0.2806172,0.6745813
0.5961304,-0.2300141,-0.149654,-0.3463375,0.1355911,0.09284417,-0.4732654,0.1605254,0.5821944
0.5754287,-0.2545219,-0.1852502,-0.3674893,0.1113258,0.05743133,-0.5922661,0.07114515,0.4911818
0.5525894,-0.3272616,-0.1974587,-0.3908081,0.038792,0.04543387,-0.5957172,0.2022702,0.5495161
0.6085385,-0.3965704,-0.1931276,-0.3353454,-0.03034885,0.04999806,-0.5017647,0.321545,0.436475
0.6846316,-0.3932487,-0.1891279,-0.2597257,-0.02689564,0.05424816,-0.4297045,0.2261618,0.3510378
0.7184679,-0.3467672,-0.1616708,-0.2263339,0.019684,0.08196808,-0.39915,0.05891001,0.3838865
0.7646152,-0.3216766,-0.1672342,-0.1805904,0.04484156,0.07667494,-0.4640146,-0.1643809,0.3124775
0.7906377,-0.3614089,-0.1551741,-0.1549222,0.005145961,0.08900741,-0.5462548,-0.2559807,0.2662402
0.8554181,-0.4241599,-0.1008854,-0.09044077,-0.05759724,0.143565,-0.3977947,-0.06845597,0.1994611
0.9783984,-0.4398362,-0.08408502,0.03229846,-0.07329118,0.1606244,-0.1975666,0.1734122,0.05245968
1.041177,-0.3670476,-0.09303527,0.09489214,-0.0005414584,0.1519157,-0.1589145,0.470136,-0.02153786
1.048442,-0.2626462,-0.09840275,0.1020209,0.1038026,0.1467652,-0.2813286,0.5827125,-0.0463185
1.053128,-0.2668155,-0.08595533,0.1066137,0.09955708,0.1593982,-0.4384579,0.2297541,-0.008875218
1.08531,-0.3965099,-0.02676249,0.1387356,-0.03023491,0.2187387,-0.3428301,-0.009641396,0.0132019
1.152457,-0.5033442,0.05573055,0.2058469,-0.1371872,0.3013336,0.004452742,0.1193486,-0.03004397
1.203811,-0.5092684,0.01619402,0.2571786,-0.1432447,0.2618435,0.3005966,0.129397,-0.06496693
1.300926,-0.6064807,-0.2737202,0.3542718,-0.2405968,-0.02808802,0.294824,-0.07771633,-0.09361692
1.42456,-0.8248863,-0.5944587,0.4778694,-0.4591367,-0.3489072,0.3689959,-0.127374,0.07587182
1.324231,-0.8266,-0.6305987,0.3774686,-0.4609617,-0.3851781,0.9673392,0.2739019,0.3342863
0.9976729,-0.6115595,-0.5431105,0.05078847,-0.2459898,-0.2978509,1.260979,0.8711948,0.3185869
0.7021782,-0.4224123,-0.5259656,-0.2448852,-0.05685456,-0.2808771,0.6379223,1.020763,0.1613432
0.6196563,-0.3216903,-0.4186651,-0.3276349,0.04391654,-0.1737419,-0.1277582,0.5792556,-0.01097304
0.7390574,-0.3821718,-0.3203083,-0.208494,-0.01645728,-0.07553314,-0.4308337,-0.01739388,-0.240855
0.8404974,-0.4669781,-0.2967179,-0.107331,-0.1011014,-0.05206763,-0.373926,-0.4762961,-0.3719024
0.896081,-0.4943114,-0.2092516,-0.05203048,-0.1282197,0.03529911,-0.07679572,-0.5629504,-0.4274721
0.8988827,-0.5622408,-0.2274368,-0.04951211,-0.1958798,0.01703875,0.4117873,-0.2932938,-0.5655938
0.7563337,-0.4879757,-0.2453943,-0.1923399,-0.1212881,-0.0009718474,0.6511218,-0.2235634,-0.6505313
0.7106448,-0.3248814,-0.2015028,-0.2382962,0.04219167,0.04288659,0.5009699,-0.4127058,-0.6109394
0.7288842,-0.2310398,-0.2859335,-0.2203027,0.1364743,-0.04155939,0.3985783,-0.6039057,-0.5148639
0.7041888,-0.1433117,-0.2815499,-0.2452117,0.2246897,-0.03717417,0.2948486,-0.7298717,-0.3078788
0.8114025,-0.1583657,-0.2664184,-0.1381697,0.2101556,-0.02202404,0.2837364,-0.5454858,-0.1225441
0.8851182,-0.2139141,-0.3027684,-0.0645771,0.155146,-0.05833786,0.4761361,-0.2729332,-0.07063213
0.9039531,-0.2547762,-0.2246992,-0.04581401,0.1148293,0.01978523,0.5395862,-0.2367332,-0.02930062
0.9125018,-0.2758265,-0.2087942,-0.03728618,0.09432182,0.03576123,0.6107413,-0.3064865,0.04419046
0.8703679,-0.1680889,-0.1869231,-0.07939109,0.2025921,0.05771779,0.6313193,-0.4423094,0.1574521
0.9334308,-0.121831,-0.1686163,-0.01625036,0.2493638,0.07612094,0.5571939,-0.4859839,0.2051544
0.9855255,-0.1916899,-0.2006242,0.03596909,0.179989,0.04421594,0.6077002,-0.2228883,0.1178811
1.022991,-0.2668778,-0.1188779,0.0736022,0.1052462,0.1260676,0.5661788,0.2268213,0.04627392
1.057279,-0.2947823,-0.07481718,0.1080942,0.07774173,0.1702307,0.5425578,0.3864702,-0.03098692
1.014417,-0.1705692,-0.08665662,0.06546555,0.2023061,0.1584835,0.4946215,0.02192337,-0.1803142
1.098367,-0.04626853,-0.1270495,0.1496702,0.3269035,0.1181654,0.155172,-0.2990567,-0.2992297
1.216323,-0.07182625,-0.1990087,0.2678946,0.3015784,0.04625763,-0.1127345,-0.2144181,-0.3304581
1.287247,-0.243269,-0.2032167,0.3390862,0.130294,0.04207502,-0.1135605,-0.006469749,-0.2976796
1.290266,-0.4402545,-0.2906261,0.3423584,-0.06661253,-0.04533557,-0.1593776,0.06930416,-0.3154182
1.050503,-0.4604979,-0.4276323,0.102818,-0.08685345,-0.1823665,-0.6513892,-0.1518274,-0.46922
0.7498976,-0.4346132,-0.4641514,-0.1976037,-0.06103469,-0.2189267,-1.233831,-0.5205764,-0.6236709
0.6677148,-0.5304594,-0.4497595,-0.2796371,-0.1570058,-0.2045815,-1.1378,-0.6678266,-0.5502928
0.9639382,-0.6611923,-0.4393587,0.01671155,-0.2879114,-0.1942218,-0.554542,-0.5264278,-0.2079381
1.420967,-0.6969026,-0.4675819,0.4738463,-0.3238269,-0.2224705,0.05317981,0.126773,0.1761182
1.551464,-0.5493915,-0.4652599,0.6044197,-0.1765368,-0.2201482,0.2922924,1.063618,0.3157983
1.233465,-0.3045251,-0.3915533,0.2864454,0.06810573,-0.146407,-0.09373547,1.057742,0.3161108
0.7551701,-0.1674368,-0.2350457,-0.1918902,0.2049709,0.0101756,-0.4165464,0.3363498,0.5715322
0.5896182,-0.1762892,-0.0932999,-0.3575476,0.1958915,0.1520366,-0.3804961,0.01639743,0.817675
0.6549994,-0.2292169,-0.1567751,-0.2923209,0.1427244,0.08871085,-0.5046592,-0.1168008,0.693636
0.6240051,-0.3079452,-0.2342381,-0.3234989,0.06373766,0.01142394,-0.5793764,0.07782406,0.6224681
0.6320869,-0.3633288,-0.1893582,-0.315611,0.008073455,0.05650067,-0.3986264,0.5203279,0.5732312
0.6645014,-0.352208,-0.1704312,-0.2833833,0.01889137,0.07564103,-0.3335383,0.4845235,0.343633
0.6770551,-0.3230646,-0.123445,-0.2709938,0.04771088,0.1228519,-0.3179003,0.2351359,0.3230261
0.7258807,-0.2782452,-0.085537,-0.222297,0.09218567,0.160989,-0.2932809,-0.117591,0.361703
0.7383255,-0.2771052,-0.123646,-0.2099348,0.09295963,0.1231059,-0.396165,-0.3059087,0.2744321
0.7560306,-0.3261904,-0.1008621,-0.192258,0.0434851,0.146105,-0.4463815,-0.1726541,0.2334005
0.8163445,-0.3725006,-0.0813695,-0.131912,-0.00323807,0.1657948,-0.3281046,-0.1807658,0.1040004
0.9340129,-0.4138337,-0.110209,-0.01414771,-0.04500604,0.1371277,-0.2177932,0.1116517,-0.04272505
1.044399,-0.3812796,-0.10973,0.09639687,-0.01290512,0.1377478,-0.3768314,0.5543185,-0.1032969
1.059379,-0.3341419,-0.1258995,0.1115906,0.03376446,0.1216828,-0.5955107,0.5563106,-0.1377509
1.06231,-0.3567031,-0.1086058,0.1147818,0.01072254,0.1390402,-0.5278206,0.2184035,-0.05347109
1.109029,-0.404138,-0.04398875,0.1617984,-0.0372041,0.2036755,-0.2784271,-0.1829166,0.03706136
1.178876,-0.464403,0.0001162436,0.2319678,-0.09796884,0.2477475,0.07717081,-0.01118009,0.01644178
1.190871,-0.4840529,0.01236515,0.2442975,-0.1181211,0.2599048,0.2475814,0.1688043,0.0131366
1.169879,-0.5153809,-0.1008262,0.2236402,-0.1499471,0.1465554,0.1493687,-0.1095856,0.08690901
1.208638,-0.6474588,-0.3184586,0.2627193,-0.2825101,-0.07130485,0.4048616,-0.0604732,0.1914523
1.20214,-0.7315509,-0.4988525,0.2565149,-0.3670625,-0.2519925,0.9983295,0.1466536,0.2814519
1.049126,-0.6604565,-0.559058,0.1037579,-0.2963885,-0.3125447,1.243354,0.5464098,0.3304399
0.8016911,-0.4554815,-0.4946457,-0.143464,-0.09178057,-0.2485142,0.83258,1.032683,0.3041426
0.6775867,-0.1968372,-0.4251731,-0.267395,0.1665558,-0.1794413,0.1089814,0.651263,0.1954321
0.7603943,-0.1184631,-0.3686461,-0.1844429,0.2446767,-0.1233184,-0.4545202,-0.2294017,0.03179981
0.8489791,-0.3266763,-0.2836754,-0.09573057,0.036254,-0.03874703,-0.7085294,-0.8043503,-0.1383587
0.8995572,-0.586958,-0.2295938,-0.04503354,-0.224201,0.01494485,-0.3552804,-0.7392788,-0.2820337
0.8813115,-0.6588087,-0.1911938,-0.06316428,-0.2961871,0.05296614,0.309122,-0.3008536,-0.4731659
0.7609351,-0.5414271,-0.1804296,-0.1834259,-0.1788944,0.06336145,0.535909,-0.3049134,-0.6424914
0.7158708,-0.3514012,-0.2356792,-0.2283693,0.01109672,0.007750462,0.5433754,-0.5057388,-0.6191682
0.7254259,-0.2186085,-0.2764254,-0.2186782,0.1439089,-0.03335048,0.4688391,-0.6684726,-0.551682
0.7266234,-0.1859727,-0.2807317,-0.2173197,0.1766117,-0.03800413,0.3390295,-0.868849,-0.4570051
0.7899532,-0.2057182,-0.2761013,-0.1537955,0.1569696,-0.0337117,0.4348874,-0.6154505,-0.1901008
0.8763376,-0.221821,-0.2606558,-0.06717693,0.1409954,-0.01859288,0.4359165,-0.345539,-0.05660201
0.9410833,-0.2088501,-0.2422033,-0.002155382,0.1541102,-0.0004543769,0.3973674,-0.3635688,-0.08476945
0.9274219,-0.2214689,-0.2134206,-0.0155005,0.1416413,0.0280273,0.4640456,-0.3285666,-0.0006540713
0.9005708,-0.2156741,-0.2003324,-0.04199759,0.1475836,0.04082668,0.4192196,-0.4037261,0.03566737
0.9414108,-0.1767093,-0.1997546,-0.000768555,0.1866854,0.04112616,0.4435955,-0.38586,0.04877067
0.9501269,-0.2128387,-0.2039783,0.008369009,0.1506747,0.03663274,0.4896177,-0.2435175,0.09171604
0.9752458,-0.2527698,-0.2239382,0.03393806,0.1108366,0.01640977,0.5146532,-0.07037669,0.01762044
1.010776,-0.2682609,-0.1699235,0.06994253,0.0954077,0.07016676,0.5830632,0.2102791,-0.05281355
1.013927,-0.2433839,-0.09413004,0.07358686,0.1203123,0.1457051,0.5355536,0.2168598,-0.1534024
1.088715,-0.1090109,-0.1197723,0.1488796,0.2546744,0.119806,0.3282448,-0.001297085,-0.2824367
1.167866,-0.03340049,-0.1796705,0.2285391,0.330228,0.05964396,-0.05153497,-0.1759497,-0.2728318
1.231254,-0.1271565,-0.2505308,0.2924276,0.2363593,-0.0114903,-0.2716737,-0.1281861,-0.1772268
1.262313,-0.3372809,-0.3224328,0.323965,0.02605783,-0.0836761,-0.2981888,-0.009943746,-0.1056937
1.142803,-0.5351407,-0.3744973,0.2048969,-0.1720444,-0.1360303,-0.5693052,-0.2076052,-0.2673205
0.9230181,-0.5854547,-0.4635362,-0.01449215,-0.2226579,-0.2253578,-0.8624702,-0.3737995,-0.5438226
0.7190778,-0.5702954,-0.4979833,-0.2180858,-0.2078414,-0.2600826,-0.8407006,-0.4831743,-0.5624095
0.7630861,-0.6008336,-0.398698,-0.1737729,-0.2387508,-0.1610526,-0.4407261,-0.4901802,-0.387327
1.099615,-0.6256135,-0.3331369,0.1630271,-0.2639154,-0.09571539,0.1379928,0.01889903,-0.1153936
1.349781,-0.5484374,-0.4067348,0.4134326,-0.187123,-0.1694995,0.3392186,0.5728575,0.1406375
1.26989,-0.379773,-0.4544996,0.3337374,-0.01883012,-0.2174075,0.1821979,0.6550242,0.2268176
0.9765161,-0.1964184,-0.3474055,0.04050304,0.16417,-0.1104075,0.06005653,0.1867858,0.4025495
0.725385,-0.1385318,-0.2197275,-0.2105495,0.2217158,0.01722934,-0.02400126,-0.3163048,0.7086477
0.6107492,-0.2488897,-0.1891142,-0.3251603,0.1110226,0.04785388,-0.08507167,-0.2803972,0.748915
0.6093658,-0.3161453,-0.2137494,-0.3265564,0.04343009,0.02327758,-0.0992403,0.006047437,0.5705425
0.6570483,-0.3451926,-0.2238379,-0.2789055,0.01404077,0.0132905,-0.1487077,0.3756838,0.4584819
0.6611747,-0.3781258,-0.1817827,-0.2748127,-0.01924013,0.05548482,-0.1480835,0.5786655,0.3268959
0.70373,-0.3096819,-0.1390733,-0.2322785,0.04885149,0.09836601,-0.1142801,0.3865264,0.2186905
0.7350301,-0.2693389,-0.1155259,-0.2009747,0.08883758,0.122111,-0.1749481,0.1193394,0.2482602
0.7173739,-0.2665792,-0.08641472,-0.218593,0.09123385,0.1514376,-0.1946189,-0.2055705,0.2495765
0.7694262,-0.2742511,-0.08952837,-0.1664602,0.08318928,0.1485485,-0.2019357,-0.3767342,0.2107981
0.8319889,-0.3515793,-0.1009405,-0.1037684,0.005476801,0.1373611,-0.2112733,-0.09716059,0.1143134
0.9461498,-0.3782366,-0.09858152,0.01057291,-0.02157668,0.1399372,-0.1698062,0.2664694,-0.07813134
1.044324,-0.3379817,-0.1076688,0.1089764,0.01827181,0.131052,-0.3386926,0.4419889,-0.1474955
1.023501,-0.2791276,-0.1090394,0.08842667,0.07671061,0.1298621,-0.5976824,0.4030095,-0.06730368
1.04404,-0.2795229,-0.1003071,0.1092724,0.07589067,0.138748,-0.6291817,0.1179033,0.01521947
1.0932,-0.3941543,-0.05571649,0.1587645,-0.03917553,0.1834593,-0.3568108,-0.08013727,0.06631471
1.163857,-0.4999094,0.03204339,0.2297696,-0.1453742,0.2713003,0.09763777,0.1121751,0.0616369
1.226309,-0.5519122,0.04434294,0.2925725,-0.1978228,0.2836325,0.2729332,0.2782736,0.03548116
1.215541,-0.6009777,-0.1428276,0.2821445,-0.2473267,0.09643694,0.2343717,0.1029805,0.07661456
1.258388,-0.7275388,-0.4392604,0.3253062,-0.374306,-0.2000821,0.5466461,0.07647796,0.1656562
1.250391,-0.8146091,-0.5864982,0.3175833,-0.4617585,-0.3474601,1.146245,0.4919851,0.236725
1.011166,-0.6235163,-0.5589624,0.07857922,-0.2709938,-0.3201022,1.302431,0.8562355,0.2485768
0.6949689,-0.3105169,-0.5033538,-0.2374542,0.04174477,-0.2646902,0.608866,0.7233399,0.1727125
0.6325121,-0.1521232,-0.4066395,-0.299799,0.199947,-0.1681745,-0.3154729,0.2279682,0.06219176
0.793458,-0.1895922,-0.3085561,-0.1387781,0.1623473,-0.07028014,-0.7371554,-0.3327939,-0.06804503
0.8712859,-0.3722827,-0.2916689,-0.06089949,-0.02042432,-0.05356597,-0.6365445,-0.586246,-0.1768776
0.9037765,-0.5905754,-0.2405781,-0.02837468,-0.2387544,-0.00262935,-0.2533683,-0.3231654,-0.2697728
0.8431374,-0.6230071,-0.1599788,-0.08899178,-0.2711771,0.07783481,0.245998,-0.1512797,-0.4752801
0.6759014,-0.4446046,-0.1923329,-0.2562129,-0.09271201,0.04536193,0.4949126,-0.3892366,-0.5994066
0.701962,-0.2926961,-0.2552091,-0.2301357,0.05931681,-0.01761947,0.2947898,-0.506717,-0.5652021
0.7810056,-0.1904313,-0.2889975,-0.151063,0.1617564,-0.05150122,0.1330973,-0.5339236,-0.5077376
0.8075519,-0.1584713,-0.3237651,-0.1244662,0.1939364,-0.08634909,0.1273962,-0.5278702,-0.3038971
0.8976967,-0.2421598,-0.2823878,-0.03424426,0.1105012,-0.04503672,0.1302699,-0.2890629,-0.1023498
0.8969705,-0.2752321,-0.2241128,-0.03486439,0.07770495,0.01319056,0.3355736,-0.194105,-0.05779637
0.8796232,-0.2667616,-0.2033609,-0.05207676,0.08646648,0.03391174,0.4535245,-0.251861,-0.0271449
0.9334674,-0.2306248,-0.1797034,0.001930704,0.1229026,0.05755342,0.4526832,-0.293115,0.01620933
0.9790215,-0.1689854,-0.2200784,0.04767483,0.1848425,0.01717452,0.5062221,-0.3399134,0.05990826
1.038062,-0.1955927,-0.2422886,0.1069286,0.1585284,-0.005030161,0.3938208,-0.1778922,0.05607464
1.0329,-0.2340537,-0.1574942,0.1019961,0.1203448,0.07977727,0.3707735,0.08154953,0.02062671
1.009319,-0.2294435,-0.08680438,0.078656,0.1252097,0.1504846,0.4574228,0.2244637,-0.02695971
1.042935,-0.1551523,-0.103826,0.1125161,0.1997267,0.1334793,0.4244179,0.1160627,-0.1216146
1.104904,-0.053524,-0.1954728,0.1747273,0.3015443,0.04184145,0.2726791,-0.1534167,-0.2122325
1.229951,-0.09128876,-0.2731934,0.3000047,0.2639224,-0.03588131,-0.0389181,-0.2389055,-0.2645131
1.273461,-0.1796488,-0.2956917,0.3437223,0.1756484,-0.05839265,-0.1416001,-0.09346372,-0.1955438
1.175793,-0.3266969,-0.3572303,0.246226,0.02862258,-0.119952,-0.1517374,0.1863267,-0.1445725
1.072292,-0.5606273,-0.4554827,0.1428465,-0.2053488,-0.218227,-0.4791049,0.2422167,-0.3305177
0.9815561,-0.5637157,-0.4390528,0.05217703,-0.2085334,-0.2018132,-0.7942697,0.03104254,-0.561518
0.9255792,-0.5257656,-0.3040698,-0.003791163,-0.1707213,-0.06683113,-0.871288,-0.1758514,-0.6134838
0.8852498,-0.7143915,-0.2434452,-0.04416661,-0.3595126,-0.006186502,-0.6202141,-0.4882499,-0.4216914
0.9186338,-0.6987871,-0.2928534,-0.01087881,-0.3440849,-0.05555221,-0.1714633,-0.4382968,-0.0813937
1.168492,-0.5190766,-0.4036824,0.2388367,-0.1645451,-0.1663155,0.06941148,0.3603219,0.1812102
1.379529,-0.404947,-0.5059335,0.4496816,-0.05056783,-0.2684732,0.1056542,1.084727,0.2885574
1.24039,-0.2317551,-0.4326278,0.3102888,0.1224949,-0.1950388,0.006825298,0.8946187,0.4000006
0.8735939,-0.2495948,-0.2325107,-0.05683256,0.1045467,0.005249353,-0.1464832,0.3035441,0.6362048
0.5745227,-0.3076846,-0.09026032,-0.3563001,0.04636365,0.1477141,-0.2269416,0.1069051,0.7002366
0.5578811,-0.2239318,-0.1212624,-0.3733945,0.130033,0.1169635,-0.3148764,-0.01132191,0.5334511
0.6560358,-0.3070857,-0.2068059,-0.2757274,0.04680048,0.03169989,-0.3778619,0.1113334,0.4489133
0.6105456,-0.3120148,-0.1639641,-0.3217194,0.04179366,0.07484284,-0.3643935,0.3920194,0.3439333
0.642145,-0.2496073,-0.1613055,-0.2906175,0.1041211,0.07781813,-0.3605121,0.1299218,0.2349537
0.7664311,-0.3105175,-0.1735175,-0.166809,0.04312549,0.06593284,-0.3725465,0.01152202,0.2414311
0.7536548,-0.2832102,-0.08955266,-0.1800309,0.07033922,0.1502284,-0.3790057,0.03832055,0.1659998
0.7604987,-0.3273996,-0.07948283,-0.1735922,0.0260457,0.1606263,-0.3827945,-0.1075393,0.0545296
0.7963464,-0.3852229,-0.06121575,-0.1381022,-0.03189294,0.1792102,-0.3579164,0.01673863,-0.03014428
0.8607718,-0.3287342,-0.04277751,-0.07398174,0.02446969,0.1979454,-0.3338638,0.04866186,-0.1082461
1.028245,-0.3154691,-0.09723302,0.09324125,0.03759886,0.1437581,-0.3969728,0.1460799,-0.1108669
1.064207,-0.2858923,-0.08270853,0.1290026,0.06702953,0.1585149,-0.4942281,0.2444772,-0.06234078
1.09414,-0.3525255,-0.07837973,0.1587792,0.0002389494,0.1630336,-0.4607789,-0.03272573,0.04989397
1.241265,-0.5113848,-0.06034991,0.3057788,-0.1587882,0.1812054,-0.2197933,-0.0654737,0.1006679
1.266124,-0.5556267,0.03773425,0.3305309,-0.2032032,0.2793771,0.1131114,0.1989502,-0.001533699
1.245614,-0.5291265,0.06295064,0.3099154,-0.1768726,0.3046183,0.2232611,0.436107,-0.05111585
1.267742,-0.5086446,-0.01986789,0.3319227,-0.1565469,0.2217526,0.1458511,0.3308752,0.05637088
1.245588,-0.5326533,-0.1758573,0.3096185,-0.1806901,0.06563689,0.3971754,0.1158951,0.2085989
1.113157,-0.5413377,-0.3919175,0.1769952,-0.1894797,-0.1506291,1.00624,0.3341774,0.2617109
0.8983781,-0.5354372,-0.6509991,-0.0380275,-0.1836476,-0.409987,1.318154,0.5784544,0.2717781
0.7984422,-0.5135325,-0.6710928,-0.1382567,-0.1617674,-0.4304082,0.8713844,0.8722609,0.3127711
0.8063755,-0.3296516,-0.3913991,-0.1306591,0.02213737,-0.1510706,0.09508837,0.8886125,0.2745342
0.761024,-0.1580148,-0.2770299,-0.1763782,0.1938455,-0.03706866,-0.3742125,-0.01635248,0.1018084
0.7438237,-0.2408158,-0.2673605,-0.1939665,0.111156,-0.02776945,-0.5368,-0.8431117,-0.1541933
0.817845,-0.4602209,-0.2107294,-0.1203423,-0.1081063,0.02849189,-0.200754,-0.8431251,-0.3385477
0.8297309,-0.6350074,-0.1963485,-0.1088529,-0.2827205,0.04250437,0.478528,-0.6143935,-0.5023679
0.8020475,-0.6673926,-0.1326751,-0.1369245,-0.314898,0.1058097,0.6819746,-0.7524011,-0.759258
0.8041806,-0.4877718,-0.2222498,-0.1351647,-0.135024,0.01586517,0.6220046,-0.8823175,-0.8208466
0.7672636,-0.2325368,-0.3441971,-0.1724329,0.1205157,-0.1064547,0.6188688,-0.7820811,-0.6425578
0.7758299,-0.1494714,-0.2979681,-0.1641885,0.2039334,-0.06059801,0.5629958,-0.8587469,-0.4081472
0.8205552,-0.1958109,-0.3032875,-0.1197487,0.1579832,-0.06628526,0.6641268,-0.7519663,-0.1262251
0.854049,-0.2167504,-0.2731294,-0.086499,0.1374573,-0.03648618,0.7092057,-0.5677993,0.003999254
0.9162275,-0.196616,-0.2519978,-0.02452015,0.1580189,-0.0157022,0.6450731,-0.5690866,-0.02793639
0.9201558,-0.1924072,-0.2498496,-0.02074659,0.1626585,-0.01388835,0.6344391,-0.4652514,-0.02802409
0.9256487,-0.1967193,-0.1749282,-0.01536506,0.1587712,0.06071219,0.5773017,-0.5172654,-0.03274981
0.9716506,-0.1594485,-0.2029549,0.03056688,0.1964516,0.03237706,0.5279632,-0.4055241,0.008855624
0.9780937,-0.1782773,-0.1901855,0.03697804,0.1780081,0.04484841,0.4750928,-0.0608109,0.1011124
0.9773221,-0.2151671,-0.08080918,0.03620846,0.1414707,0.1539342,0.5281261,0.08674987,0.1109287
0.973144,-0.1925215,-0.02171143,0.03206214,0.1644289,0.2127438,0.5921423,0.1597438,0.07320477
1.003585,-0.1455479,-0.04479422,0.06256028,0.2116688,0.1893672,0.416144,-0.00249621,0.006932291
1.087453,-0.04226284,-0.1613937,0.1465056,0.3151663,0.07246027,0.09775563,-0.1675453,-0.1154015
1.184692,-0.03964116,-0.2104275,0.2438357,0.3179365,0.02310057,-0.2064831,-0.1664651,-0.1884012
1.250488,-0.1631155,-0.201154,0.309724,0.1945363,0.03202881,-0.1722648,-0.1213454,-0.119131
1.20894,-0.320384,-0.257621,0.268256,0.03726042,-0.02480202,-0.09146443,0.08688316,-0.08549446
1.08023,-0.522847,-0.3932514,0.1396016,-0.165291,-0.1608116,-0.4006879,0.129668,-0.3097967
0.9106358,-0.5569673,-0.5236889,-0.02996988,-0.1995721,-0.2916363,-0.6882894,0.07498573,-0.5943899
0.8439574,-0.5214113,-0.4810016,-0.09665979,-0.1642357,-0.2493319,-0.8429761,-0.07213137,-0.6390945
0.9780106,-0.6374545,-0.3871302,0.03735177,-0.2805426,-0.155826,-0.7278378,-0.4853788,-0.4663997
1.200236,-0.6857827,-0.3761336,0.2595074,-0.3291624,-0.145167,-0.2719638,-0.4620592,-0.1947868
1.490643,-0.5836832,-0.4672299,0.5498104,-0.2273655,-0.2365653,0.04476559,0.3949581,0.1009874
1.571907,-0.4043928,-0.5828511,0.6309178,-0.04837414,-0.3524439,0.1458309,1.273208,0.3351379
1.172041,-0.2130844,-0.4249289,0.2308223,0.142646,-0.1947233,-0.1190064,1.055515,0.5497418
0.7341293,-0.133484,-0.1887925,-0.2074058,0.221967,0.04127543,-0.5181564,0.3822527,0.7692288
0.5915078,-0.1565761,-0.1805935,-0.3504251,0.1985966,0.04940147,-0.5623549,0.2325199,0.7659432
0.582669,-0.2162412,-0.1968564,-0.3597248,0.1386449,0.03312516,-0.6511215,0.1184854,0.6254473
0.5873726,-0.2946786,-0.1905328,-0.3555218,0.05990562,0.03948833,-0.7079325,0.342357,0.5783795
0.6053627,-0.3701076,-0.1947056,-0.3380495,-0.0158435,0.03540226,-0.55323,0.6894384,0.41743
0.6712794,-0.3738105,-0.1426697,-0.2726478,-0.01988421,0.08756621,-0.4828962,0.3627727,0.2587835
0.7283871,-0.3141011,-0.09428189,-0.2160352,0.03947184,0.1361164,-0.4067819,0.1118002,0.2859073
0.7467526,-0.2816196,-0.08384271,-0.1981325,0.07158604,0.146744,-0.43112,-0.1069231,0.276814
0.7632963,-0.2825364,-0.103157,-0.1820091,0.07028719,0.1276348,-0.4612182,-0.3344342,0.2549488
0.8073263,-0.33815,-0.1075127,-0.1383494,0.01427613,0.1234922,-0.3340179,-0.09046581,0.179734
0.920821,-0.3963789,-0.102545,-0.02516993,-0.04436538,0.128673,-0.3101953,0.07311536,0.01159778
0.9824453,-0.3679365,-0.1281266,0.03619524,-0.01634827,0.1032978,-0.3720909,0.2764263,-0.08165913
0.9655627,-0.3547447,-0.1265497,0.01910681,-0.003591321,0.1050681,-0.5096611,0.3640814,-0.09011635
1.01135,-0.3994716,-0.09347513,0.06473685,-0.04875955,0.1383179,-0.5540599,-0.1095913,0.01318454
1.124359,-0.4703208,-0.03130712,0.1776309,-0.1200532,0.2006372,-0.2094136,-0.3214633,0.08950741
1.252313,-0.5452598,0.05202347,0.3055034,-0.1954337,0.2840872,0.2919668,0.04177053,0.02479645
1.288296,-0.5318609,0.06010285,0.3414238,-0.1824648,0.2922441,0.5001417,0.3338341,-0.003461189
1.271043,-0.5120693,-0.09523925,0.3241093,-0.1630821,0.136927,0.3951509,0.01585636,0.06294026
1.342879,-0.6024283,-0.3565468,0.3958692,-0.2538197,-0.1244136,0.6088861,-0.2498514,0.1994548
1.353225,-0.6707385,-0.5082072,0.4061053,-0.3224683,-0.2761611,1.188128,0.2938756,0.3192599
1.1597,-0.6226344,-0.5555203,0.2124212,-0.2746501,-0.3236024,1.327805,0.9192756,0.3100791
0.8363302,-0.4462264,-0.5461506,-0.111166,-0.09846496,-0.3143839,0.7466089,1.113826,0.2162491
0.6076426,-0.19036,-0.4103859,-0.3401278,0.1572461,-0.1787764,-0.1009158,0.6081688,0.1045411
0.6754325,-0.1408866,-0.3326127,-0.2726546,0.2066265,-0.1011529,-0.5479441,-0.470173,-0.04009194
0.8428002,-0.3690935,-0.3168355,-0.1056291,-0.02162172,-0.08551037,-0.5119286,-0.882396,-0.1731134
0.9158606,-0.6075061,-0.2374435,-0.03292373,-0.2600304,-0.006233716,-0.228921,-0.4048196,-0.2734657
0.9170637,-0.6944464,-0.1852428,-0.03208182,-0.3469185,0.04587199,0.2614027,0.05948153,-0.4653705
0.807908,-0.5386376,-0.1674895,-0.1416008,-0.1909997,0.0635488,0.4898103,0.005373832,-0.621731
0.71708,-0.2764749,-0.2199665,-0.2327877,0.07133775,0.0110104,0.3496802,-0.2582447,-0.6189121
0.7198089,-0.1572978,-0.2746822,-0.230404,0.1907526,-0.04375387,0.1812631,-0.4703927,-0.5659207
0.7500036,-0.131124,-0.2594956,-0.2005293,0.2172167,-0.02860337,-0.005174197,-0.7117431,-0.3885533
0.8454361,-0.1881558,-0.2594908,-0.1053824,0.1605138,-0.02862165,0.06997117,-0.52964,-0.1621905
0.9141946,-0.281364,-0.2186237,-0.0368691,0.06766031,0.01223603,0.3233672,-0.2126666,-0.06000337
0.9157577,-0.25845,-0.1915118,-0.03550865,0.09094566,0.03935128,0.3669049,-0.2284655,-0.02139518
0.8968863,-0.2164796,-0.1862157,-0.05454036,0.1332968,0.0446616,0.3893879,-0.1979502,0.03125973
0.8820577,-0.181925,-0.1531475,-0.069487,0.168234,0.07775172,0.3808007,-0.3005473,0.1080227
0.9546907,-0.1545232,-0.1884362,0.003069923,0.1960113,0.04248918,0.3190411,-0.3455993,0.1184256
1.024149,-0.2083008,-0.193733,0.07249298,0.1425928,0.03721957,0.3037934,-0.06155613,0.08933326
1.025495,-0.2468636,-0.141961,0.07383922,0.1043647,0.08901697,0.2427049,0.1248942,0.08758334
1.025348,-0.2456822,-0.1141358,0.07372238,0.1058503,0.1168624,0.304633,0.1194497,0.03829384
1.073855,-0.186583,-0.1137866,0.1222835,0.1652188,0.117222,0.3651913,-0.05820761,-0.07125811
1.181107,-0.08913386,-0.1348553,0.2296057,0.2628964,0.09614886,0.191511,-0.1746467,-0.2128241
1.230511,-0.1097773,-0.1344524,0.2790854,0.2424322,0.09652798,0.006583824,-0.2011078,-0.2783892
1.245052,-0.2035016,-0.2237329,0.2936954,0.1488296,0.007201388,-0.1485885,-0.2214516,-0.2355038
1.262336,-0.3357818,-0.3921301,0.3110256,0.01660759,-0.1612641,-0.3333783,-0.135201,-0.2515605
1.106067,-0.5088029,-0.4769296,0.1547683,-0.1564178,-0.2461483,-0.5581598,-0.2096322,-0.3978695
0.8079708,-0.588572,-0.4920757,-0.1433579,-0.2362461,-0.2613847,-0.715917,-0.2686646,-0.5774336
0.7056643,-0.6057398,-0.4498852,-0.2457344,-0.2535145,-0.219277,-0.5859353,-0.3023876,-0.5911805
0.9477753,-0.6106998,-0.4101469,-0.003723662,-0.2586012,-0.1796024,-0.3058796,-0.3869201,-0.3492264
1.283726,-0.5456688,-0.4296304,0.3321029,-0.193708,-0.1991208,-0.02908748,0.02441129,-0.01970695
1.446697,-0.4282354,-0.442558,0.49492,-0.07641155,-0.2120467,0.1071709,0.6456994,0.1683048
1.320014,-0.2959744,-0.4252604,0.3680364,0.05572029,-0.1947028,-0.02186728,0.8363071,0.231544
1.014828,-0.2187959,-0.3375172,0.06258926,0.1327779,-0.1068624,-0.1232014,0.5253621,0.4367473
0.751628,-0.2080558,-0.1743401,-0.2009375,0.1434013,0.05646573,-0.1808095,0.1449085,0.6904472
0.5817142,-0.2083451,-0.1003721,-0.3712362,0.1429926,0.1306357,-0.3890795,0.05687077,0.6738265
0.6102251,-0.2621181,-0.1794736,-0.3431498,0.08909107,0.05177943,-0.5404931,0.03113874,0.5925866
0.6921357,-0.3370231,-0.2160574,-0.2616824,0.01404407,0.01547656,-0.5565285,0.2105054,0.5827731
0.6594474,-0.3735677,-0.1685578,-0.2948142,-0.02265746,0.06328674,-0.4933645,0.4679753,0.4321972
0.7426198,-0.3798116,-0.1549333,-0.2120699,-0.02907198,0.07724608,-0.3957708,0.3670398,0.3018638
0.7967087,-0.3316516,-0.1187157,-0.1583812,0.01890599,0.1138166,-0.3923227,0.2180062,0.3040029
0.7478452,-0.2976093,-0.07997077,-0.2076073,0.05275609,0.1529252,-0.4194127,0.08217807,0.2763133
0.790419,-0.3071886,-0.09340614,-0.1653509,0.0429744,0.1398558,-0.4348342,-0.03623215,0.2059079
0.819982,-0.3240126,-0.08177051,-0.1360534,0.02593685,0.1518512,-0.4469919,0.09629772,0.05449976
0.9063223,-0.3464775,-0.07882133,-0.04992228,0.003246886,0.1551458,-0.4579817,0.2816754,-0.08601424
0.9909031,-0.3220597,-0.1044899,0.03450675,0.02742862,0.1298007,-0.5591701,0.3744682,-0.08848597
0.9726603,-0.306286,-0.09890904,0.01616675,0.04295569,0.1356764,-0.6239899,0.3000492,-0.01939237
1.045544,-0.3525217,-0.05459802,0.08900265,-0.003537178,0.1802476,-0.5204979,0.01669725,0.1329907
1.147944,-0.4078522,0.01148533,0.1913981,-0.05913441,0.2465498,-0.255265,-0.1292211,0.2047598
1.210641,-0.4375323,0.03291813,0.2541229,-0.08908791,0.2681516,0.01329791,0.127184,0.03623416
1.211733,-0.4001034,0.01931687,0.2552616,-0.05193475,0.2546599,0.04473148,0.3455345,-0.07222185
1.195458,-0.41836,-0.02131594,0.2390391,-0.07046472,0.214068,0.1544532,-0.001892537,0.134584
1.337005,-0.6430148,-0.2327836,0.3806291,-0.2953852,0.002566915,0.6425739,-0.2910134,0.4053731
1.390858,-0.843292,-0.4688036,0.4344995,-0.4959096,-0.2335599,1.187908,0.2103169,0.4040629
1.076456,-0.6870848,-0.4408076,0.1200743,-0.3399138,-0.2057339,1.362914,0.9478734,0.2550648
0.6537911,-0.368516,-0.3722911,-0.302664,-0.02150446,-0.1374364,0.8707432,1.202676,0.1288203
0.5458356,-0.214196,-0.391824,-0.410735,0.1327141,-0.1572237,0.07643071,0.6118567,-0.02275147
0.6742387,-0.1726999,-0.2903044,-0.2824716,0.1741618,-0.05598342,-0.4049732,-0.5452676,-0.1466868
0.7779254,-0.3332908,-0.2755313,-0.1789298,0.01356573,-0.04150665,-0.5411164,-1.023307,-0.2070769
0.9256014,-0.5652461,-0.3475525,-0.03139173,-0.2183575,-0.1138355,-0.189442,-0.5817253,-0.2551649
0.926542,-0.5456643,-0.2371903,-0.03057599,-0.1987052,-0.003787319,0.4056973,-0.1979371,-0.4092212
0.7874006,-0.5600337,-0.195257,-0.1698262,-0.2129592,0.03782945,0.5697632,-0.224081,-0.6111957
0.809393,-0.5175362,-0.2282775,-0.1479226,-0.1702946,0.004490742,0.5195859,-0.4245019,-0.6436127
0.7565311,-0.2309386,-0.232753,-0.2008468,0.1165257,-0.0003042349,0.4102937,-0.637757,-0.566189
0.7227541,-0.1658539,-0.3131233,-0.2346519,0.1818851,-0.08099428,0.2331496,-0.6980355,-0.3949879
0.8534093,-0.2085295,-0.2720481,-0.1039831,0.1395262,-0.04023621,0.3677837,-0.4751414,-0.1623838
0.8764197,-0.1841047,-0.217236,-0.080912,0.1642978,0.01426408,0.5342905,-0.2784143,-0.08270312
0.9181076,-0.2591238,-0.2383486,-0.03911452,0.08964472,-0.007153229,0.5176775,-0.2994591,-0.08843553
0.9171648,-0.2279911,-0.173765,-0.03989945,0.1211537,0.05713265,0.5381427,-0.3662089,-0.03594205
0.8616486,-0.1670269,-0.1683895,-0.09521083,0.1824964,0.06221631,0.4974542,-0.4609488,0.04365993
0.9474998,-0.1854806,-0.1941146,-0.00910892,0.1644146,0.03620316,0.4402625,-0.3993179,0.06642894
0.9856104,-0.1853102,-0.1917215,0.02929637,0.1649414,0.03830998,0.4499316,-0.1620504,0.03781903
1.039388,-0.254644,-0.1679733,0.08340846,0.09594025,0.06177206,0.4712866,0.09137116,0.01956234
1.095929,-0.2574588,-0.0739196,0.1403165,0.09342855,0.1555374,0.503666,0.2587473,-0.04756546
1.074033,-0.1468387,-0.05457794,0.118812,0.2043175,0.1745839,0.4165826,0.1412646,-0.1549449
1.128617,-0.05055926,-0.1093457,0.1738024,0.3008248,0.1195079,0.06977024,-0.0761569,-0.1984108
1.160205,-0.01952485,-0.1765228,0.2058008,0.3320362,0.05200411,-0.3801285,-0.2691438,-0.1720268
1.239719,-0.1935238,-0.2515497,0.2857184,0.1581517,-0.02336975,-0.5201245,-0.3321089,-0.1757027
1.293688,-0.435623,-0.3239944,0.3400716,-0.08390198,-0.09618018,-0.4884616,-0.3315709,-0.2547905
1.077561,-0.5379918,-0.4413731,0.1242945,-0.1862919,-0.2139376,-0.7392153,-0.6820242,-0.3624968
0.8206602,-0.5566713,-0.5268144,-0.1322997,-0.2050486,-0.2997605,-0.9058428,-0.8523585,-0.4546281
0.7786043,-0.5904204,-0.5212515,-0.1740897,-0.2389172,-0.2945683,-0.6376061,-0.4607821,-0.4358014
1.05803,-0.6618066,-0.4295738,0.1055672,-0.3104498,-0.2032362,-0.1508319,0.1265927,-0.3450614
1.361488,-0.611276,-0.3506069,0.4092239,-0.2600766,-0.124578,0.3294926,0.737716,-0.218956
1.293793,-0.4224288,-0.3781318,0.3416844,-0.07138358,-0.1523677,0.3926255,0.8936231,0.01473986
1.064411,-0.224702,-0.3660671,0.1124026,0.1262001,-0.1405184,0.05402967,0.4412165,0.2409016
0.8627684,-0.1208315,-0.294545,-0.08920189,0.2299373,-0.06915855,-0.1444098,-0.05781891,0.5135321
0.7199852,-0.2080492,-0.2502353,-0.2320067,0.1425883,-0.0249561,-0.1458045,-0.08669936,0.7707494
0.6948688,-0.2896978,-0.2270277,-0.2571925,0.06080239,-0.001801848,-0.1850876,0.2583598,0.7089202
0.6586098,-0.3188993,-0.2173473,-0.2935532,0.03145263,0.007876388,-0.2875912,0.4621809,0.5824997
0.6260689,-0.3787118,-0.1769281,-0.3262112,-0.02852044,0.04834055,-0.3060122,0.4820201,0.5165496
0.6718053,-0.3182968,-0.1346779,-0.2805904,0.03172251,0.0906777,-0.273596,0.3720143,0.3590967
0.7046642,-0.2693355,-0.1135139,-0.24783,0.08050057,0.1119638,-0.3410021,0.1491126,0.3447866
0.7493213,-0.2828851,-0.09602431,-0.2032418,0.06675566,0.1296028,-0.4108981,-0.0990186,0.3910115
0.8094834,-0.2869515,-0.1172513,-0.1431094,0.06247976,0.108544,-0.4889096,-0.2613063,0.3202398
0.844162,-0.3892347,-0.1371777,-0.1084151,-0.04002837,0.08879706,-0.5294755,-0.1217469,0.2434853
0.9260758,-0.4189964,-0.1179652,-0.02643718,-0.07002896,0.1081935,-0.4015057,0.05975611,0.09600791
0.9951875,-0.3537125,-0.0953556,0.04278653,-0.00499457,0.1309853,-0.3393789,0.2825717,-0.03971541
1.005683,-0.3226394,-0.07950468,0.05343823,0.02582135,0.1470103,-0.4565148,0.5217238,-0.07136868
1.016188,-0.2955756,-0.06100556,0.06413825,0.05262136,0.1656681,-0.6012564,0.3099015,-0.06759144
1.034075,-0.3756449,-0.03236018,0.08225167,-0.02771849,0.1944496,-0.591795,-0.006665207,0.004151123
1.135926,-0.4930859,-0.003578185,0.1843541,-0.1454352,0.2233368,-0.2558658,-0.1519356,0.05576767
1.279143,-0.5455847,-0.05352126,0.3278381,-0.1982096,0.1734599,0.2339072,-0.01917748,0.06525434
1.356984,-0.6178438,-0.2100256,0.4059441,-0.2707347,0.01697609,0.4748216,0.3102975,0.1160474
1.378724,-0.6914546,-0.3458665,0.4279311,-0.3445898,-0.1188908,0.5320783,0.2326813,0.1953375
1.264224,-0.7050751,-0.4233055,0.3136391,-0.3584182,-0.1963969,0.8895126,0.4134824,0.2778418
1.054877,-0.6812468,-0.5072936,0.104446,-0.3347459,-0.2804821,1.214695,1.043248,0.2703244
0.9327068,-0.6366595,-0.5007083,-0.01763118,-0.2902487,-0.2740099,0.8016225,0.958453,0.1783475
0.789666,-0.3698016,-0.3730145,-0.1606392,-0.02340487,-0.1464305,-0.03660793,0.224709,0.02766286
0.6073611,-0.07526045,-0.3198553,-0.3429618,0.2711992,-0.09337633,-0.6191929,-0.4054887,-0.1510473
0.7673677,-0.26021,-0.3386499,-0.1830088,0.08638037,-0.1122597,-0.4951308,-0.4461684,-0.1621084
1.027441,-0.5300149,-0.2836174,0.07698884,-0.1832369,-0.05729532,-0.08080829,-0.3098952,-0.1930324
0.8706876,-0.5193471,-0.1959688,-0.07985645,-0.172328,0.03030812,0.04784071,-0.4104755,-0.4375167
0.7419214,-0.5454099,-0.1482401,-0.2087259,-0.1980931,0.07801388,0.450971,-0.1709934,-0.5713598
0.7632945,-0.4552704,-0.1963667,-0.1874605,-0.1075953,0.02988303,0.6403259,-0.3131652,-0.605059
0.6360353,-0.2017693,-0.2862605,-0.3148209,0.1463255,-0.05999963,0.2164652,-0.8802595,-0.6104483
0.7013817,-0.1744844,-0.3006352,-0.2495567,0.1740853,-0.07434822,0.2431719,-0.7661839,-0.3874206
0.8352492,-0.2435462,-0.2866847,-0.1157406,0.1055421,-0.06035514,0.3328814,-0.6344123,-0.150778
0.8518476,-0.2559826,-0.2642972,-0.09915528,0.09365637,-0.03790664,0.3287166,-0.4466368,-0.05515224
0.9603479,-0.2931858,-0.2514329,0.009373255,0.05702676,-0.02496181,0.5880698,-0.05382956,-0.02370276
0.9478964,-0.2446942,-0.2426881,-0.003009306,0.1061074,-0.01611699,0.4980155,-0.1165369,-0.02556383
0.9148965,-0.160531,-0.1927292,-0.0359018,0.1908673,0.03396068,0.4247263,-0.141849,0.01555319
0.9769871,-0.1466704,-0.1850921,0.0263319,0.2053226,0.04173302,0.4209992,-0.1496583,0.01485419
0.9633649,-0.174086,-0.179743,0.01288575,0.1784889,0.04723076,0.2778841,-0.1492288,0.009179717
1.000568,-0.2267302,-0.1259803,0.05029448,0.1264035,0.1011513,0.3608313,0.05679433,0.0252728
1.020918,-0.2276567,-0.08601595,0.07087411,0.1260048,0.1412778,0.3777226,0.07233879,-0.02681031
1.041385,-0.1517208,-0.08318908,0.09158991,0.2024311,0.1442643,0.3555508,0.01971725,-0.07944387
1.157929,-0.07681298,-0.1645893,0.2083953,0.2777841,0.06301435,0.1626085,-0.1568773,-0.2018872
1.225674,-0.1262351,-0.2620532,0.276405,0.2287526,-0.03431314,-0.2470708,-0.2427476,-0.2969218
1.264642,-0.3041319,-0.3146936,0.3156271,0.05118335,-0.08683113,-0.3488995,-0.04079829,-0.2497103
1.20984,-0.4824021,-0.3891138,0.2610545,-0.1268253,-0.1611393,-0.4429917,-0.0104531,-0.286048
1.006903,-0.5855057,-0.475954,0.05830945,-0.2297276,-0.2478708,-0.6539123,-0.156053,-0.4383753
0.7575422,-0.5800776,-0.4958444,-0.1909005,-0.2241467,-0.2676458,-0.7420499,-0.3457554,-0.5576615
0.6776807,-0.6029213,-0.40435,-0.2706477,-0.2468717,-0.1760177,-0.6396231,-0.3062172,-0.5282814
0.9759886,-0.6559722,-0.3298477,0.02774874,-0.2998235,-0.1013546,-0.1952119,-0.08314053,-0.3616421
1.30274,-0.5449209,-0.3752584,0.3545683,-0.1886781,-0.1465714,0.2507908,0.1979238,-0.1453465
1.362634,-0.3767584,-0.4194403,0.4145025,-0.02041537,-0.1905222,0.276626,0.5975901,0.04989671
1.268897,-0.2646369,-0.3949853,0.320764,0.09181732,-0.1657941,-0.04273974,0.4694227,0.200695
1.050169,-0.1956916,-0.3236185,0.1019763,0.1608823,-0.09410752,-0.2758551,0.1554121,0.4900048
0.8209527,-0.1530914,-0.2259655,-0.1273611,0.2036037,0.003913975,-0.2662232,0.1510122,0.7552684
0.7147865,-0.1613203,-0.1914855,-0.2337065,0.1954882,0.03880922,-0.3889124,-0.02132963,0.7028077
0.6806771,-0.2880734,-0.2111885,-0.2680401,0.06883178,0.01956325,-0.5877444,0.07838273,0.5932637
0.6336538,-0.3463623,-0.1916684,-0.3153162,0.01061722,0.03957666,-0.5525661,0.3971882,0.4967268
0.6504304,-0.3582924,-0.1794979,-0.2988034,-0.00126229,0.05227082,-0.4560607,0.4093034,0.3627633
0.7210934,-0.4142093,-0.16349,-0.2283988,-0.05715087,0.06882679,-0.4345449,0.3930281,0.3605567
0.7204938,-0.331512,-0.1131562,-0.2292371,0.02555483,0.1197265,-0.4151204,0.1750886,0.3639527
0.7683838,-0.2853743,-0.1156766,-0.181555,0.07168255,0.1177821,-0.4580054,-0.1324958,0.3299564
0.800707,-0.3297899,-0.1153727,-0.1494003,0.02723833,0.1186642,-0.5010238,-0.1458644,0.2880519
0.8012432,-0.3356981,-0.09153027,-0.1489867,0.02128215,0.1430789,-0.403285,-0.02621829,0.1340265
0.9248474,-0.3823361,-0.09375755,-0.0254549,-0.02542305,0.1414101,-0.3336293,0.2223999,-0.01396857
0.9990067,-0.3650182,-0.08797927,0.04868254,-0.008189975,0.1477252,-0.4024173,0.4765904,-0.08911332
1.03439,-0.3135843,-0.1067761,0.08409099,0.04314321,0.1294365,-0.5028973,0.5191876,-0.07497827
1.050589,-0.3118738,-0.1099274,0.1003551,0.04473786,0.1267581,-0.5494928,0.2510798,0.02580602
1.039394,-0.3339515,-0.05408169,0.08925863,0.02252865,0.1830356,-0.4163921,-0.02129469,0.07767516
1.153627,-0.4042936,0.007635278,0.2036149,-0.04796036,0.2451367,-0.1507325,0.1981747,0.04249345
1.219503,-0.4105952,0.02714862,0.2696292,-0.05442222,0.2649782,-0.01975257,0.4534529,-0.06563375
1.214749,-0.4294217,-0.04909984,0.2650139,-0.07341851,0.1889927,-0.04746052,0.382249,-0.09736919
1.266038,-0.5679657,-0.1871309,0.31643,-0.2121366,0.05115279,0.1514077,0.1434443,0.07294946
1.292155,-0.7071463,-0.3610784,0.342646,-0.3514867,-0.1226764,0.7019028,-0.07796909,0.2975561
1.171052,-0.7430758,-0.5237526,0.2216011,-0.3875669,-0.2852978,1.020656,0.3381984,0.3579409
0.8985046,-0.6140797,-0.5793069,-0.0509394,-0.2586865,-0.3408509,0.7953769,1.020036,0.235607
0.7486913,-0.4282096,-0.4940364,-0.2007976,-0.07288404,-0.2556122,0.3670709,0.9138746,0.1443177
0.7393653,-0.2539948,-0.3105733,-0.2102115,0.1013162,-0.07219759,-0.125474,0.1352179,0.03014699
0.7757076,-0.1920981,-0.2453555,-0.1739873,0.1632476,-0.007035172,-0.4223467,-0.6902108,-0.1800394
0.8997012,-0.3980481,-0.2797443,-0.05013053,-0.04262646,-0.04148197,-0.1352112,-0.8302822,-0.3044446
0.9345021,-0.5936277,-0.2137717,-0.01547763,-0.2380935,0.0244315,0.2785131,-0.3140273,-0.4415937
0.8666659,-0.5631376,-0.1779123,-0.08346879,-0.2074515,0.06023088,0.4731965,-0.1988762,-0.6098779
0.7698051,-0.405567,-0.2378989,-0.1804872,-0.04968384,0.0001823133,0.5500093,-0.4404976,-0.6543188
0.7110547,-0.237487,-0.2883161,-0.2393907,0.1186406,-0.05029961,0.370932,-0.5916733,-0.63444
0.779855,-0.227722,-0.2884538,-0.1707288,0.1286922,-0.05050344,0.3294316,-0.7418393,-0.5100947
0.8429243,-0.2831518,-0.2635723,-0.1077742,0.07358258,-0.02568707,0.5293177,-0.6088242,-0.2639898
0.8874018,-0.2566227,-0.2631737,-0.06338188,0.1004566,-0.02535058,0.6247937,-0.387619,-0.1367029
0.9183122,-0.2397333,-0.2283608,-0.0325244,0.1177082,0.009404539,0.7759732,-0.3389668,-0.1445847
0.9017531,-0.1990889,-0.1829786,-0.04910331,0.1587238,0.05473308,0.7612494,-0.3325575,-0.07822598
0.9235038,-0.1187988,-0.1829629,-0.02733966,0.2393852,0.05469779,0.6174451,-0.4912248,-0.00554833
0.956903,-0.1220092,-0.1817515,0.006104467,0.2365351,0.05585823,0.5641401,-0.5478712,0.02150249
0.9908682,-0.1830855,-0.1695145,0.04014474,0.1757964,0.06804146,0.4309307,-0.3366166,0.06058831
1.011628,-0.216846,-0.1384114,0.06100597,0.1423412,0.09908507,0.4805318,-0.1077793,0.03770473
1.013518,-0.2114046,-0.1217066,0.06301933,0.1480484,0.1157209,0.5279461,-0.01272192,0.02529303
1.074988,-0.1441468,-0.1207216,0.1246295,0.2155265,0.1166228,0.4298347,-0.04375857,-0.005780349
1.146239,-0.06060973,-0.1289479,0.1960301,0.2992313,0.1082948,0.366024,-0.03226051,-0.1368292
1.195168,-0.06851479,-0.1636008,0.2451098,0.2914319,0.07351762,0.09750924,-0.070962,-0.2070542
1.253037,-0.1774675,-0.1610335,0.3031172,0.1825129,0.07593532,-0.05971094,-0.08729888,-0.2078651
1.259778,-0.3120614,-0.1922746,0.3099724,0.04787471,0.04451761,-0.04415656,-0.04138853,-0.1993467
1.183976,-0.3862988,-0.3093794,0.2342465,-0.02648566,-0.07279058,-0.2425205,-0.1974105,-0.2188755
1.064294,-0.4229127,-0.3787318,0.1145905,-0.06329618,-0.1423698,-0.5224739,-0.3653913,-0.335056
0.8506425,-0.5121316,-0.3636472,-0.09908745,-0.1527769,-0.1275283,-0.7260828,-0.4366825,-0.4812238
0.6066436,-0.6139645,-0.3486705,-0.3431623,-0.2549258,-0.1128029,-0.5713488,-0.3957102,-0.5249381
0.7219644,-0.6230899,-0.3776929,-0.2279536,-0.2644062,-0.1420769,-0.1339879,-0.2060999,-0.4023856
1.211158,-0.5177507,-0.4018044,0.2611046,-0.1594452,-0.1664327,0.09791289,0.1192292,-0.2090286
1.519359,-0.3619376,-0.4335466,0.5691473,-0.004020956,-0.1984039,0.1302939,0.6699964,-0.004457012
1.398531,-0.2388224,-0.453764,0.4481222,0.1187007,-0.2188261,-0.02779129,0.792828,0.2193764
1.086488,-0.2096571,-0.3564292,0.1358243,0.147467,-0.1216631,-0.2830152,0.3258803,0.5116723
0.8167568,-0.2056348,-0.2271462,-0.1342281,0.1510803,0.007487062,-0.3531961,0.06321237,0.8531042
0.6457282,-0.1823189,-0.1714774,-0.30564,0.1739713,0.06306257,-0.4444521,0.04541123,0.8960456
0.6476234,-0.2713057,-0.2038421,-0.304175,0.0845382,0.03064091,-0.6087562,0.1683777,0.7204643
0.6964273,-0.3638832,-0.2500703,-0.2558291,-0.008509973,-0.01561238,-0.6166402,0.4279997,0.636473
0.6314232,-0.3622003,-0.2070266,-0.3213011,-0.007321742,0.02743518,-0.5479532,0.5562197,0.4544226
0.7024299,-0.3945231,-0.1731411,-0.2507552,-0.04016002,0.06135041,-0.4582611,0.4394253,0.3183317
0.7673315,-0.3588567,-0.1233752,-0.1862928,-0.005026088,0.1111677,-0.3785946,0.1178182,0.3659096
0.7181639,-0.3039371,-0.05051769,-0.2358662,0.04934744,0.1840919,-0.3594074,-0.1046467,0.3277737
0.8235245,-0.3584507,-0.08936229,-0.1308687,-0.005723894,0.1453208,-0.3442927,-0.1641626,0.2431041
0.8422113,-0.397927,-0.0991777,-0.1124955,-0.04576788,0.1355771,-0.2733611,-0.1131512,0.1502099
0.8792591,-0.4125565,-0.07809867,-0.07570769,-0.06097146,0.1567184,-0.1423055,0.1286591,0.0460114
1.023924,-0.3731694,-0.1168182,0.0687518,-0.0221607,0.1180447,-0.1678022,0.3668143,-0.009552276
0.9969581,-0.3100418,-0.1183089,0.04163182,0.04039172,0.1165777,-0.4073308,0.4605458,-0.04091029
1.016319,-0.3504412,-0.1176749,0.06088466,-0.0005801711,0.1172084,-0.5430548,0.1654337,0.02064243
1.055235,-0.4359661,-0.07917188,0.09973392,-0.0866735,0.1556769,-0.2858879,-0.166109,0.07090255
1.118383,-0.4971629,0.01277758,0.1628473,-0.1484311,0.2475553,0.2363733,0.09165486,0.008845329
1.240817,-0.4756193,0.01738316,0.28527,-0.1274342,0.2520459,0.4634637,0.2377306,-0.0218646
1.216075,-0.4350879,-0.07943885,0.2605276,-0.08742865,0.1550568,0.3465203,0.02045956,0.01201465
1.259559,-0.514045,-0.2692631,0.3040074,-0.1668846,-0.0349917,0.4323107,0.04068402,0.08257426
1.287259,-0.6178768,-0.4721269,0.331685,-0.2711812,-0.2381344,0.8504709,0.2749648,0.1628337
1.108323,-0.6416324,-0.5343198,0.1526942,-0.2953579,-0.3006499,1.128393,0.6743837,0.1694418
0.8696048,-0.5368482,-0.4923495,-0.08611805,-0.1909398,-0.2590297,0.7741562,0.9239008,0.1232826
0.6662366,-0.3214786,-0.4460961,-0.2896193,0.02412674,-0.213137,0.03706387,0.5641236,0.1190446
0.650535,-0.2012199,-0.3937399,-0.3054811,0.1441457,-0.1611384,-0.5172506,-0.08096346,0.1300284
0.7887134,-0.2397456,-0.3575344,-0.1674745,0.1054371,-0.1252767,-0.6797535,-0.4498235,0.09210543
0.9486902,-0.3940735,-0.3296688,-0.007668691,-0.04902522,-0.09773386,-0.373164,-0.3354867,-0.03259821
0.9903624,-0.6032012,-0.2270997,0.03383894,-0.2582423,0.004538247,0.09166914,-0.07412745,-0.3088519
0.8664369,-0.610623,-0.1576392,-0.09024367,-0.2657045,0.07372875,0.3569517,-0.07472982,-0.5611119
0.7817461,-0.4218766,-0.204126,-0.175082,-0.07694214,0.02699666,0.3819045,-0.2438343,-0.5839276
0.7622876,-0.2714084,-0.2321815,-0.1946724,0.07360215,-0.001282637,0.1332494,-0.5034481,-0.5229143
0.7761995,-0.1852665,-0.2422337,-0.1808688,0.1598765,-0.01153901,-0.01777208,-0.675622,-0.435307
0.8119604,-0.1894904,-0.2480577,-0.1451845,0.1558318,-0.0175481,0.1052787,-0.5170859,-0.2328285
0.8447625,-0.2429709,-0.2220163,-0.1124213,0.1025663,0.008326838,0.1874971,-0.3689356,-0.06069898
0.9179102,-0.2561797,-0.224693,-0.03927091,0.08959843,0.005501621,0.266137,-0.2871184,-0.02682858
0.9347516,-0.2498768,-0.2080597,-0.0223843,0.0961602,0.02200323,0.3234595,-0.1841181,-0.001948241
0.9222254,-0.2009305,-0.1747531,-0.03482374,0.1453761,0.05519318,0.3092533,-0.2996402,0.06829799
0.9703221,-0.1650012,-0.1911456,0.0133992,0.181578,0.03869632,0.3129422,-0.3243482,0.1309571
1.011487,-0.1874941,-0.1938418,0.05472713,0.1593515,0.03590545,0.2728052,-0.1500325,0.1605986
1.033496,-0.2075967,-0.1630369,0.0769306,0.1395006,0.06662271,0.2822439,0.02013383,0.13619
1.021168,-0.2142485,-0.1086673,0.06482292,0.1330782,0.1209082,0.3055884,0.1859408,0.07812975
1.016823,-0.1641732,-0.06725611,0.06071853,0.1833542,0.1622341,0.2303908,0.1044196,-0.03171611
1.077322,-0.06789669,-0.1531758,0.1214713,0.2797953,0.07622181,0.0321092,-0.1504311,-0.1616693
1.182242,-0.04826636,-0.2840912,0.2266537,0.2995447,-0.0547979,-0.3185401,-0.2793543,-0.1698099
1.317928,-0.196842,-0.3075255,0.3625973,0.1510321,-0.07834783,-0.4512656,-0.08167717,-0.08266455
1.327506,-0.4348196,-0.3299467,0.3724144,-0.08694455,-0.1008923,-0.3651803,0.2517614,-0.03570426
1.129148,-0.5547062,-0.4109397,0.1742607,-0.2068895,-0.1820101,-0.5987226,0.1315058,-0.1379483
0.8879574,-0.5611564,-0.4392687,-0.06677133,-0.213447,-0.210458,-0.9888191,-0.1754295,-0.3522164
0.7314544,-0.5938601,-0.4050135,-0.223161,-0.2462927,-0.1763061,-1.027748,-0.385381,-0.4802749
0.7040333,-0.6545177,-0.3342452,-0.2505051,-0.3071118,-0.1056172,-0.6903665,-0.5676024,-0.4400782
0.8896859,-0.6762925,-0.3012529,-0.06479958,-0.3290517,-0.07267476,-0.1836767,-0.2920465,-0.1966521
1.298067,-0.602718,-0.400497,0.343617,-0.2556296,-0.1719352,0.2455733,0.3771183,0.1009754
1.515,-0.4522807,-0.4911032,0.5605626,-0.1053184,-0.2625198,0.3336848,0.918721,0.1692042
1.205261,-0.283762,-0.4104531,0.2507966,0.06310754,-0.1818027,0.05030744,0.7290042,0.2210909
0.827839,-0.1793708,-0.2396122,-0.1267081,0.1674386,-0.01084323,-0.2124599,0.122681,0.5032519
0.7344814,-0.2175059,-0.1303703,-0.2202028,0.129269,0.0985696,-0.1881445,0.1396626,0.6965351
0.6642136,-0.2913576,-0.1360321,-0.2906513,0.05540037,0.09312564,-0.2269311,0.1587326,0.613889
0.601294,-0.3094699,-0.1868517,-0.3537785,0.03728246,0.04256298,-0.432831,0.05967058,0.4681909
0.6503864,-0.3354161,-0.1901297,-0.3049022,0.01133852,0.03957377,-0.4763019,0.3666552,0.3371227
0.670394,-0.3400327,-0.1839851,-0.2851015,0.006730122,0.04603361,-0.4451581,0.3195288,0.2500301
0.7321033,-0.3223729,-0.17374,-0.223575,0.02440273,0.0566152,-0.4014288,0.2310872,0.3005016
0.8485552,-0.3331265,-0.1161589,-0.1072703,0.01366564,0.1145487,-0.2919171,0.2218949,0.3170757
0.8226346,-0.3331205,-0.1047081,-0.1332959,0.01369059,0.1263611,-0.3279407,-0.04269309,0.1892022
0.8208436,-0.3520797,-0.08609251,-0.1351452,-0.005248223,0.1453399,-0.362923,0.01020378,0.04760886
0.9335912,-0.3755664,-0.03107916,-0.02240654,-0.02871315,0.2007099,-0.2696181,0.1053686,-0.1143717
0.9491002,-0.3527138,-0.06595524,-0.006856721,-0.005837067,0.1661745,-0.2788963,0.2697546,-0.2414659
0.9502892,-0.3283165,-0.07254598,-0.005579382,0.01858583,0.1598999,-0.3872278,0.4456577,-0.2337737
1.00316,-0.3017348,-0.05371753,0.04742372,0.04519477,0.1790119,-0.5094412,0.09154832,-0.1282285
0.9999899,-0.322198,-0.09037248,0.04442508,0.02475869,0.142601,-0.4567754,-0.2797214,0.07489551
1.05446,-0.424835,-0.08134008,0.09909996,-0.07785204,0.151832,-0.06570769,-0.3421449,0.1805397
1.213843,-0.5185185,-0.07473096,0.2587141,-0.1715086,0.1585891,0.3219847,0.01417758,0.04891794
1.311181,-0.549873,-0.1138328,0.3562972,-0.2028294,0.1195802,0.3660477,0.3796293,-0.02008479
1.328985,-0.5892282,-0.2805867,0.374343,-0.2421356,-0.04713815,0.3771476,0.2520683,0.1493677
1.357642,-0.7316982,-0.5229364,0.4032203,-0.3845302,-0.2895062,0.8089998,0.4294136,0.36331
1.297152,-0.7889062,-0.5210259,0.3429101,-0.4416223,-0.2876562,1.159099,1.02654,0.4069003
0.992822,-0.5886868,-0.4015181,0.03870532,-0.2412307,-0.1682355,0.7624055,1.21451,0.2449001
0.6169813,-0.3339726,-0.3609309,-0.3370694,0.01372323,-0.1277483,0.08124565,0.7668244,0.0222915
0.5378694,-0.1826478,-0.273391,-0.4161641,0.1653557,-0.04031212,-0.3553975,-0.02209539,-0.07745904
0.7365446,-0.1778473,-0.2662439,-0.2175012,0.1705232,-0.03326737,-0.4911607,-0.676322,-0.07854678
0.899069,-0.3431365,-0.3358762,-0.05500167,0.005648244,-0.1029976,-0.2289122,-0.7123038,-0.1461038
0.9706394,-0.567491,-0.2843023,0.01654015,-0.2182523,-0.05151405,0.206747,-0.2126683,-0.2730542
0.9307305,-0.6434199,-0.2327563,-0.0233984,-0.2936868,-4.779068e-05,0.4682111,0.02724478,-0.3941675
0.7808827,-0.4672676,-0.2050103,-0.1732753,-0.1169933,0.02762989,0.4718238,-0.1877435,-0.4854789
0.7527976,-0.2691883,-0.2028152,-0.2013836,0.08167793,0.02976704,0.2026355,-0.449159,-0.5160115
0.7832438,-0.2212192,-0.2717042,-0.1709468,0.1302861,-0.03917093,-0.03570877,-0.6073485,-0.4836826
0.7873712,-0.2236479,-0.2351467,-0.1668065,0.1285343,-0.002654032,0.05026881,-0.5620225,-0.3586249
0.8636169,-0.2469515,-0.2074837,-0.09051883,0.1059348,0.02497689,0.2162963,-0.4293866,-0.1736025
0.8878628,-0.262738,-0.2475962,-0.06619762,0.09086934,-0.01515985,0.318571,-0.3503954,-0.02979418
0.904239,-0.240668,-0.2075525,-0.04971096,0.1136689,0.02486651,0.3804355,-0.3157221,0.01875125
0.9537129,-0.2121845,-0.2109372,-9.146092e-05,0.1428825,0.0214705,0.3723636,-0.3428422,0.05533573
0.963933,-0.1928348,-0.2017681,0.01030765,0.162954,0.03063301,0.4031726,-0.3236888,0.13758
1.013251,-0.2251084,-0.1516194,0.05983513,0.131385,0.08077763,0.404045,-0.2095207,0.1232572
1.011991,-0.2706754,-0.1302202,0.05881071,0.08649773,0.1021722,0.3772519,-0.02401033,0.04769633
0.9750391,-0.2551993,-0.0726301,0.02211427,0.1026225,0.1597526,0.4611358,0.09732612,-0.007494283
0.9880933,-0.1815005,-0.109124,0.03544085,0.1769338,0.1232377,0.4807662,-0.01221288,-0.1133015
1.009295,-0.08409525,-0.1852193,0.05692762,0.2749087,0.04710454,0.296375,-0.1658748,-0.180949
1.117533,-0.08507855,-0.2128012,0.1654579,0.2744424,0.01946498,-0.01150359,-0.1787122,-0.1969446
1.266203,-0.2653829,-0.2823324,0.3144212,0.0945926,-0.05014398,-0.2073035,-0.09268956,-0.2214807
1.30238,-0.4648384,-0.3152371,0.350878,-0.1044759,-0.08314404,-0.2258192,-0.04162214,-0.2600014
1.113122,-0.516346,-0.373867,0.1618721,-0.1556607,-0.1418819,-0.4359453,-0.3143605,-0.392585
0.802754,-0.5316179,-0.4771713,-0.1482803,-0.1706647,-0.2452994,-0.789027,-0.7905719,-0.5019346
0.7214957,-0.6218713,-0.4679756,-0.2293597,-0.2606933,-0.2362118,-0.7502953,-0.8869958,-0.4392128
0.9123398,-0.6982672,-0.3867755,-0.03836416,-0.3368933,-0.1551037,-0.2534003,-0.4522662,-0.3419372
1.199248,-0.7199649,-0.3443795,0.248674,-0.3584075,-0.1127745,0.3482162,0.3071349,-0.2796384
1.370963,-0.6082112,-0.3827764,0.4204937,-0.2464656,-0.1512069,0.6128513,0.900103,-0.1771874
1.187309,-0.3370356,-0.402737,0.2369057,0.02491582,-0.1711668,0.3865611,0.7226433,-0.1217916
0.8821947,-0.1729656,-0.3015178,-0.06819173,0.1892128,-0.06990578,0.2177149,0.1477917,0.03147983
0.7918129,-0.2068956,-0.185475,-0.1586077,0.1555251,0.04622206,0.3008488,-0.1600819,0.490808
0.7472421,-0.2770467,-0.1664393,-0.2032556,0.0856225,0.06538383,0.2326296,-0.1754862,0.687823
0.6824912,-0.3164198,-0.1956996,-0.268114,0.04649697,0.03628551,0.1125632,0.02715701,0.4364613
0.6974898,-0.3237195,-0.1875798,-0.2532391,0.03943919,0.04459735,-0.01139096,0.2007437,0.3004633
0.6700922,-0.3386145,-0.175527,-0.2807618,0.02477808,0.05686741,-0.1300906,0.3106127,0.2267114
0.6658169,-0.3305984,-0.176727,-0.2851492,0.03301805,0.05590475,-0.03566249,0.4492365,0.1753478
0.7403398,-0.2538852,-0.1330804,-0.2107122,0.1099433,0.09980359,-0.06238652,0.2785199,0.2695265
0.7563041,-0.1975044,-0.08450026,-0.1947966,0.1665204,0.1486448,-0.2044198,-0.01838044,0.2677888
0.7539137,-0.2177319,-0.07963288,-0.19719,0.1464678,0.1537745,-0.2784089,-0.1876638,0.2322135
0.7647735,-0.2763921,-0.08379732,-0.1862809,0.08795461,0.1498654,-0.4155587,-0.2750168,0.2046422
0.8427646,-0.3335446,-0.07271055,-0.1081824,0.03091713,0.1611925,-0.4211112,-0.03984236,0.09381171
0.9888001,-0.3799992,-0.07680056,0.03802049,-0.01545553,0.1573202,-0.47242,0.2889281,0.0002626457
1.060975,-0.3731467,-0.1006694,0.1104197,-0.008552908,0.1336394,-0.6456772,0.4231792,-0.05305637
1.094532,-0.3481957,-0.0977931,0.1442509,0.0164188,0.1366682,-0.6191824,0.3013949,-3.57579e-05
1.095627,-0.4007114,-0.07433544,0.1456588,-0.03610334,0.1602378,-0.4399818,-0.006238914,0.1356877
1.088243,-0.4901742,-0.03431673,0.1386153,-0.1255964,0.2003225,-0.04120738,-0.0562756,0.2127068
1.170433,-0.6009565,-0.01573198,0.2211627,-0.2364267,0.2189212,0.3595154,0.02842933,0.1984635
1.252059,-0.6820423,-0.1524157,0.3031522,-0.3175673,0.08219351,0.444901,0.1417898,0.1717717
1.278154,-0.7269685,-0.4222072,0.3296002,-0.3625406,-0.1877014,0.6742211,0.4089749,0.2811572
1.226918,-0.7927329,-0.5966566,0.2786925,-0.4283275,-0.3623063,1.190517,0.6429478,0.3693138
1.031416,-0.6693599,-0.5473756,0.08347985,-0.3049347,-0.3132164,1.285817,0.9549135,0.2905823
0.7686399,-0.4008907,-0.4237365,-0.1790512,-0.03638974,-0.1897853,0.7063478,1.021959,0.2068399
0.6585812,-0.2305905,-0.3497297,-0.2889051,0.1340463,-0.115989,-0.0301028,0.4709614,0.05080607
0.7463975,-0.1602688,-0.2909204,-0.2009117,0.2045581,-0.05738351,-0.5664672,-0.1798322,-0.1842979
0.7940928,-0.2571328,-0.2936069,-0.1530542,0.1079269,-0.06026202,-0.6250773,-0.4077357,-0.250951
0.8160577,-0.4147012,-0.2852577,-0.1309315,-0.04937641,-0.05209014,-0.2436065,-0.224401,-0.2014266
0.8810945,-0.4873446,-0.213512,-0.06573453,-0.1217271,0.01949481,0.05410536,-0.1457696,-0.2477425
0.806564,-0.4658684,-0.226552,-0.1400971,-0.09993,0.006310966,0.17764,-0.2362645,-0.3508784
0.7134097,-0.3330291,-0.2367275,-0.2330704,0.03325972,-0.003992637,0.1536021,-0.266746,-0.4180239
0.707824,-0.2890207,-0.2063482,-0.2384546,0.07764655,0.02627337,0.07269019,-0.5135582,-0.4330872
0.7201639,-0.3012752,-0.2346593,-0.225883,0.06579346,-0.002137616,0.1276826,-0.6750568,-0.3164329
0.8306198,-0.2715575,-0.2371726,-0.1151569,0.0959293,-0.004738472,0.2172245,-0.4488561,-0.1590054
0.9251664,-0.2939917,-0.2429551,-0.02029666,0.07392328,-0.01059669,0.3902094,-0.2589638,-0.1035399
0.9329552,-0.2606079,-0.2572013,-0.01215095,0.1077392,-0.02490709,0.454955,-0.200102,-0.07790208
0.941674,-0.2190506,-0.2214718,-0.003034387,0.149726,0.01076978,0.3543477,-0.2506197,-0.04849761
0.9417069,-0.1950072,-0.2070034,-0.002566718,0.1741886,0.02519659,0.3952188,-0.3588833,0.005957525
0.9706546,-0.1531137,-0.1974563,0.02684896,0.2164822,0.03471169,0.368535,-0.320548,0.04968825
1.003527,-0.201546,-0.175074,0.06021784,0.1684217,0.05706934,0.3179696,-0.131019,0.01882276
1.007513,-0.2132632,-0.1228573,0.06472352,0.1570394,0.1092656,0.398168,0.1400491,-0.02682408
0.9902373,-0.1639052,-0.03976931,0.04798516,0.2066881,0.1923326,0.3727314,0.1376021,-0.1367592
0.9944194,-0.142424,-0.06008921,0.0527158,0.2284087,0.1719838,0.2192985,-0.2688898,-0.2867477
1.132861,-0.1712771,-0.2001007,0.191711,0.1997359,0.03192822,-0.02675296,-0.4984941,-0.2886151
1.297763,-0.3258169,-0.3470667,0.3571642,0.04531135,-0.1151002,-0.1568296,-0.2207273,-0.1345298
1.278417,-0.506348,-0.4309944,0.33835,-0.1351706,-0.1991055,-0.1361778,0.1335506,-0.04316371
1.034465,-0.5855296,-0.4907809,0.09489741,-0.2143626,-0.258976,-0.3280673,0.06508169,-0.1962074
0.7499487,-0.5871852,-0.5527888,-0.1891624,-0.216076,-0.3210616,-0.6677727,-0.2015124,-0.4252872
0.724754,-0.6138425,-0.5237666,-0.2139393,-0.242824,-0.2920969,-0.7714833,-0.3829084,-0.4729791
1.045541,-0.6243828,-0.4445464,0.107235,-0.2534734,-0.2129004,-0.4065185,-0.4411805,-0.3756926
1.427915,-0.5673775,-0.4058236,0.4899655,-0.1965818,-0.1741567,0.1103696,-0.01410335,-0.1842258
1.49289,-0.5442464,-0.4034814,0.5552556,-0.1735569,-0.171742,0.215604,0.6445101,0.06856036
1.303727,-0.4113259,-0.4219845,0.3663451,-0.04072623,-0.1901157,0.01987267,0.871903,0.1832672
1.084855,-0.1904363,-0.3572408,0.1476428,0.1800932,-0.1251812,-0.1606976,0.6651856,0.3085485
0.8144743,-0.1594505,-0.2341545,-0.1226557,0.2110242,-0.001840297,-0.3197192,0.3589307,0.6565727
0.6214159,-0.247097,-0.1703104,-0.3157154,0.1233293,0.06231994,-0.4719845,0.1811343,0.7672168
0.5953538,-0.3078227,-0.1645712,-0.3418464,0.06255329,0.06843083,-0.610049,0.03700879,0.5518911
0.5846901,-0.3440919,-0.2078245,-0.3526255,0.02622686,0.02559697,-0.6577837,0.08253867,0.4591886
0.6123768,-0.3924542,-0.2138213,-0.3250795,-0.0222012,0.02006035,-0.5455483,0.2871225,0.3828728
0.7019375,-0.414397,-0.1907188,-0.2356657,-0.04421766,0.04365811,-0.3932804,0.2642605,0.2635992
0.7399236,-0.3796968,-0.1858293,-0.1978174,-0.009597138,0.04907208,-0.3371584,0.2316217,0.2572745
0.7458782,-0.3527053,-0.121221,-0.1919802,0.0173105,0.114228,-0.3282076,0.09972819,0.2362672
0.7445703,-0.3254762,-0.06833642,-0.1933759,0.04445174,0.1676757,-0.3184958,-0.1447972,0.1843532
0.7406218,-0.337628,-0.05452236,-0.1973744,0.03220745,0.1820586,-0.2982352,-0.1562547,0.1037412
0.7952735,-0.3607009,-0.043536,-0.1427279,0.009036294,0.193609,-0.2721286,-0.07187727,-0.004823308
0.9031945,-0.3163938,-0.07254981,-0.03476244,0.05323873,0.1651436,-0.3957046,0.2117413,-0.04064968
1.029904,-0.2898127,-0.115389,0.09204142,0.07970743,0.122828,-0.5883993,0.4111993,-0.02719622
1.080887,-0.2936189,-0.1460965,0.1431644,0.07577889,0.09261224,-0.5766199,0.1880834,0.02966398
1.080971,-0.340575,-0.09289882,0.143424,0.02868805,0.1462646,-0.3621857,0.07862045,0.05892151
1.164479,-0.4615456,0.01137005,0.2271327,-0.0924303,0.2509455,-0.0443195,0.3035422,-0.03147484
1.21061,-0.5901413,0.02788808,0.2734784,-0.2211834,0.2678248,0.1802428,0.4368884,-0.09882358
1.213751,-0.7101524,-0.1032495,0.2768327,-0.3413522,0.1369886,0.3063098,0.07307886,0.03026015
1.293308,-0.8361619,-0.4017389,0.3565877,-0.4675047,-0.1612642,0.7691671,-0.1555436,0.2863641
1.268448,-0.8848139,-0.646248,0.331894,-0.5162654,-0.405596,1.290092,0.4776377,0.3831383
1.023159,-0.688003,-0.6233313,0.08672626,-0.3195077,-0.382545,1.117209,1.207285,0.2188207
0.7212762,-0.3752918,-0.4685404,-0.215086,-0.006778872,-0.2276423,0.5674468,1.13744,-0.007930259
0.6271712,-0.2386555,-0.337913,-0.3091662,0.1299495,-0.09690914,0.04667757,0.3216748,-0.1887395
0.7500397,-0.2311998,-0.2638266,-0.1863043,0.1375648,-0.02271407,-0.3876717,-0.6081645,-0.4032669
0.8214058,-0.3394393,-0.246613,-0.1149621,0.0295418,-0.005385478,-0.2370443,-0.913844,-0.5435217
0.8574982,-0.5458348,-0.2291147,-0.07890116,-0.1765879,0.01223441,0.2585183,-0.5156185,-0.5092367
0.8768252,-0.560828,-0.2017705,-0.05960737,-0.1912672,0.03970572,0.6135879,-0.2332982,-0.5609384
0.7747629,-0.3882542,-0.2361086,-0.1616999,-0.0183286,0.005498485,0.7593312,-0.3588651,-0.6423557
0.7406185,-0.2326576,-0.2660953,-0.1958655,0.1376831,-0.02435494,0.4434465,-0.4647391,-0.5545432
0.7798278,-0.1563169,-0.248203,-0.1566609,0.2144822,-0.006327399,0.2220508,-0.6417032,-0.4125783
0.8221688,-0.1959976,-0.2563784,-0.1143005,0.1752909,-0.01436548,0.3013487,-0.605728,-0.1872184
0.9279277,-0.2407546,-0.2457558,-0.008493276,0.1310413,-0.003603463,0.2784328,-0.2939272,-0.06790084
0.9325053,-0.2449771,-0.2189192,-0.003837448,0.1273335,0.02337447,0.3942128,-0.2467962,-0.1331352
0.8869856,-0.2558568,-0.1930108,-0.04924997,0.116967,0.04942492,0.3920312,-0.2136864,-0.0660733
0.90685,-0.1943244,-0.1569185,-0.02925066,0.1790029,0.08565755,0.3257451,-0.2854459,0.02173651
0.9150008,-0.1408687,-0.17285,-0.02093788,0.2329439,0.0698613,0.3985106,-0.4202347,0.05495629
0.9598223,-0.170168,-0.179,0.0240714,0.2041015,0.06383774,0.2826857,-0.2480862,0.09340403
0.9901367,-0.2229249,-0.1560047,0.05459684,0.1517634,0.08694713,0.3114247,-0.1012611,0.0426769
0.9839081,-0.2844472,-0.143164,0.04859844,0.09061428,0.09988618,0.374355,0.1248229,-0.002458618
1.01837,-0.2527801,-0.1160326,0.08330465,0.1226046,0.1270963,0.2975176,0.2486242,-0.09833749
1.083903,-0.1282249,-0.1295982,0.1490916,0.2474291,0.1135853,0.2636957,0.04066641,-0.2367165
1.175004,-0.05359759,-0.1540397,0.2404473,0.322265,0.08916989,0.03846874,-0.02324125,-0.2250155
1.230296,-0.120762,-0.1516818,0.2959845,0.255239,0.09152212,-0.1002892,-0.05268389,-0.1782808
1.245538,-0.3029413,-0.2277842,0.311449,0.07311935,0.01538025,-0.1050116,-0.156445,-0.1796175
1.178566,-0.4475467,-0.4004826,0.2446634,-0.07150764,-0.1573904,-0.2898206,-0.1834433,-0.2307801
0.940318,-0.5545419,-0.5459427,0.0065534,-0.1786002,-0.302949,-0.622832,-0.05902883,-0.4150719
0.7545024,-0.6180071,-0.5457461,-0.1791737,-0.2422268,-0.302864,-0.9184892,0.03526093,-0.6086924
0.881344,-0.5586334,-0.4764842,-0.05228812,-0.1830636,-0.2337116,-0.8047675,-0.3739374,-0.5747266
1.25421,-0.5038664,-0.4903279,0.3205827,-0.128542,-0.2476483,-0.6104674,-0.6768223,-0.2683183
1.604099,-0.4763264,-0.5665575,0.670432,-0.1012707,-0.3239421,-0.4890483,0.03988722,0.1318337
1.636889,-0.4111999,-0.6048099,0.7031182,-0.03642804,-0.3622169,-0.1486272,1.233778,0.37408
1.284182,-0.3582717,-0.4473092,0.3502171,0.01620643,-0.2046836,-0.1753882,1.631444,0.4051454
0.8036618,-0.2830881,-0.107079,-0.1306053,0.09108857,0.1356422,-0.3766787,0.871943,0.5263239
0.51156,-0.2196782,0.04637144,-0.4231137,0.1541877,0.2892485,-0.2586176,-0.004536291,0.7408752
0.5646094,-0.2548198,-0.08581451,-0.3705561,0.118722,0.1572657,-0.3974248,-0.1397622,0.6971323
0.6637817,-0.2766073,-0.2118893,-0.2719352,0.09659235,0.03142771,-0.5704036,0.08656183,0.5694137
0.5547718,-0.261888,-0.2348671,-0.3815326,0.1109479,0.008711632,-0.5024908,0.2342869,0.4691151
0.643646,-0.3195839,-0.2139022,-0.293261,0.05286401,0.02995885,-0.5172247,0.3397195,0.2635224
0.8146379,-0.3543761,-0.1597748,-0.1228683,0.01765862,0.08438513,-0.4206749,0.2278771,0.2104267
0.7726993,-0.312027,-0.1176062,-0.1653899,0.05956962,0.1268644,-0.3556179,-0.03443961,0.2682938
0.8312327,-0.2881141,-0.1106765,-0.1074145,0.08302037,0.1341094,-0.397412,-0.05965993,0.2396933
0.8163478,-0.2908793,-0.09450359,-0.122826,0.07976841,0.1505946,-0.3409895,-0.04234485,0.17799
0.7820153,-0.3195634,-0.07364855,-0.157648,0.05057234,0.1717508,-0.3509396,-0.03922451,0.05698666
0.9383337,-0.3571489,-0.06657199,-0.001777054,0.01244967,0.1791092,-0.3514185,0.1876994,-0.03697654
0.9719358,-0.3732421,-0.06156979,0.0314214,-0.004204315,0.1843656,-0.4344806,0.3273841,-0.06541656
0.9596429,-0.3471246,-0.07362249,0.01876686,0.02133147,0.1725314,-0.5889616,0.1366117,-0.04430552
0.9565866,-0.3171185,-0.07994505,0.01538783,0.05073725,0.1663846,-0.4626702,-0.1241647,0.04537637
1.053287,-0.3969276,-0.05734946,0.1118006,-0.02968888,0.1891068,-0.1586566,-0.1238844,0.08435657
1.248862,-0.5079182,-0.02737102,0.3071177,-0.14131,0.2191565,0.1916586,0.05368772,0.06060516
1.24959,-0.554528,-0.03925911,0.3076045,-0.188557,0.2072779,0.380909,0.1235139,0.0632877
1.287812,-0.6221529,-0.1807279,0.3455877,-0.2568152,0.06575145,0.5047185,0.1066929,0.2066204
1.365086,-0.7567466,-0.4268281,0.4226081,-0.3920247,-0.1804742,1.04995,0.1729543,0.4173871
1.266309,-0.8107337,-0.5691695,0.3235459,-0.4465932,-0.3230007,1.437772,0.5755809,0.4209303
0.9988,-0.588288,-0.5001158,0.05570498,-0.224676,-0.2541756,1.055089,0.9842704,0.2542717
0.6322968,-0.2937789,-0.3987937,-0.3111796,0.06937007,-0.1531087,0.4145285,0.6778836,0.08193165
0.5542143,-0.2064485,-0.3343273,-0.3896832,0.1563045,-0.08891112,-0.1268921,-0.04981901,-0.06834868
0.7314244,-0.2445584,-0.2595048,-0.2129153,0.1178581,-0.01436253,-0.3657631,-0.6648828,-0.1892461
0.8523679,-0.3776329,-0.2771849,-0.0924181,-0.01550256,-0.03231765,-0.07997992,-0.8807269,-0.2781038
0.9336802,-0.5582591,-0.2799239,-0.01154624,-0.1963689,-0.03532997,0.3353632,-0.4013788,-0.3536806
0.9156878,-0.5628796,-0.2125552,-0.02996873,-0.2011818,0.03176868,0.6639171,-0.01998398,-0.4780474
0.8134878,-0.3961836,-0.2214864,-0.1325859,-0.03462533,0.02257149,0.7829994,-0.3273008,-0.5766722
0.7633973,-0.2527753,-0.2235934,-0.183076,0.108698,0.02020208,0.485966,-0.6100173,-0.5681693
0.7558214,-0.1892964,-0.2314106,-0.1910266,0.1721415,0.0121253,0.3249597,-0.7545563,-0.4647246
0.7968786,-0.1917964,-0.2625947,-0.1503109,0.1696458,-0.01931569,0.3688571,-0.8336137,-0.2512259
0.8775113,-0.227944,-0.239684,-0.06997962,0.1335313,0.003341255,0.3587176,-0.5680251,-0.09166094
0.8910801,-0.2461265,-0.2479008,-0.05666864,0.1154007,-0.005125254,0.516837,-0.3784657,-0.05516551
0.9020228,-0.2715101,-0.2375361,-0.04593868,0.09007983,0.00499411,0.5228466,-0.3344245,-0.02919332
0.9356246,-0.2519687,-0.2024529,-0.01250474,0.1096882,0.03983653,0.4655589,-0.2364062,-0.02265528
0.9112843,-0.1751165,-0.1964959,-0.03696925,0.1866052,0.04555653,0.5214675,-0.2774419,0.0136585
0.9300267,-0.1541283,-0.1615751,-0.01830866,0.2076487,0.08024221,0.3982953,-0.2626039,0.04972719
0.9618559,-0.1785649,-0.1492954,0.01347915,0.1832487,0.09228592,0.402837,-0.1447671,0.02871842
0.9640136,-0.2271059,-0.1218276,0.01563346,0.1347172,0.1195131,0.4351387,-0.036492,0.03289285
0.9922269,-0.2459053,-0.0635248,0.04387776,0.1158939,0.177566,0.3669416,0.04661619,0.00388778
1.023001,-0.1919204,-0.07147239,0.07471332,0.169817,0.1693531,0.3679287,-0.04875596,-0.07122956
1.120507,-0.1439979,-0.1168077,0.172304,0.2176347,0.1237305,0.1768165,-0.1267357,-0.1406386
1.232315,-0.1315668,-0.1719918,0.2842132,0.2299119,0.06823253,-0.04520089,-0.1106453,-0.2070397
1.284681,-0.219017,-0.2183683,0.3366822,0.1422518,0.02151317,-0.1603857,-0.1419754,-0.2306338
1.286717,-0.382327,-0.2674159,0.3388091,-0.02132771,-0.02790536,-0.2992256,-0.1865863,-0.3032244
1.143151,-0.4738344,-0.3639397,0.1953043,-0.1131624,-0.1248249,-0.4684734,-0.3420613,-0.4434999
0.9105159,-0.4677184,-0.4778517,-0.0373088,-0.107424,-0.23915,-0.6425431,-0.4836286,-0.5092648
0.7731363,-0.447156,-0.515822,-0.1747066,-0.0872798,-0.2775394,-0.6083806,-0.3222082,-0.4994433
0.8256535,-0.4952709,-0.4174668,-0.1222414,-0.135844,-0.1795958,-0.3782094,0.01439438,-0.3800121
1.03161,-0.523488,-0.3458795,0.08363686,-0.1645321,-0.1084008,-0.116688,0.3152899,-0.08054302
1.238984,-0.4744391,-0.384411,0.2909101,-0.1159657,-0.1472975,-0.04520141,0.5430287,0.1770443
1.245767,-0.40002,-0.3767258,0.2975618,-0.04203188,-0.1399442,-0.1970636,0.5236057,0.2245516
1.039697,-0.2861414,-0.3214896,0.09131968,0.07136362,-0.08500133,-0.2582858,0.320287,0.3509033
0.8732847,-0.2361685,-0.2725616,-0.07530955,0.1208564,-0.03632464,-0.305268,0.2290892,0.6198104
0.78076,-0.2805394,-0.232901,-0.1680941,0.07600535,0.00312769,-0.3911553,0.1597316,0.6565041
0.7045488,-0.3132984,-0.2252253,-0.2445986,0.04276302,0.01063654,-0.4073632,0.2666642,0.5342406
0.6822784,-0.3576141,-0.2022621,-0.2671821,-0.002040615,0.03347166,-0.4201214,0.5945301,0.5007608
0.6347237,-0.3901391,-0.1669119,-0.3150544,-0.03505769,0.06872868,-0.3754003,0.6553984,0.4300198
0.632056,-0.3417435,-0.1271363,-0.3180283,0.01284374,0.108441,-0.3458227,0.512556,0.3521188
0.6917625,-0.2751469,-0.07866713,-0.2586007,0.07894563,0.1568702,-0.365203,0.2180635,0.3378741
0.7364173,-0.2654374,-0.09079515,-0.2141843,0.08815906,0.1447174,-0.3759326,-0.2336934,0.2800038
0.8099475,-0.3032565,-0.1176661,-0.1408421,0.04984024,0.1178285,-0.4156379,-0.3808507,0.2066629
0.855612,-0.365722,-0.1069292,-0.0953092,-0.01312982,0.1285469,-0.3763523,-0.1761638,0.1408009
0.9013721,-0.3972897,-0.09827604,-0.04962177,-0.04520643,0.1371744,-0.2912814,0.09305187,0.06380862
0.952073,-0.3477206,-0.07682247,0.001065004,0.003852026,0.158589,-0.2722956,0.2576452,-0.003630028
0.9449961,-0.2909116,-0.07016221,-0.005970134,0.06015058,0.1651904,-0.3349224,0.3168298,-0.03683819
0.9649185,-0.2931612,-0.0811017,0.01404618,0.05739092,0.1541656,-0.4907314,0.1459469,0.001646995
1.050507,-0.3713466,-0.05425058,0.0997753,-0.02130495,0.1808987,-0.5282079,-0.263749,0.05822254
1.211873,-0.5041953,-0.03806056,0.2613225,-0.1546633,0.1969319,-0.284526,-0.3671857,0.07506265
1.313452,-0.5727881,-0.05846116,0.3631087,-0.2237591,0.1763295,0.09424288,-0.05200637,0.04555859
1.284487,-0.5730374,-0.1285268,0.3343608,-0.2244948,0.1060118,0.3179855,0.186671,0.01727044
1.323885,-0.6391821,-0.3033244,0.3739659,-0.2910979,-0.06909014,0.3576919,-0.02324344,0.09159307
1.345074,-0.7230486,-0.4688215,0.395334,-0.3753815,-0.2349395,0.63319,-0.17648,0.2202741
1.128198,-0.6660337,-0.4682581,0.1785935,-0.3187279,-0.2347651,1.146629,0.3838417,0.2578329
0.7969834,-0.498284,-0.4009708,-0.1525411,-0.1512704,-0.1678891,1.239346,0.8912871,0.1469491
0.6089691,-0.284213,-0.4046004,-0.3405264,0.06258419,-0.1719393,0.5971214,0.7662463,0.04353614
0.6091889,-0.1368147,-0.408539,-0.3403148,0.2098396,-0.1762967,-0.2791974,0.3163706,0.125837
0.7496267,-0.2291325,-0.3905759,-0.1999042,0.1174422,-0.1587407,-0.7342572,-0.3376377,0.1867686
0.9801818,-0.3704827,-0.3803182,0.03061857,-0.02393511,-0.1488696,-0.7229284,-0.6659213,0.05453512
1.020817,-0.4113721,-0.3242461,0.07122148,-0.06480556,-0.09315635,-0.3770314,-0.3125112,-0.1429547
0.8502024,-0.4567489,-0.2442417,-0.09942445,-0.1101192,-0.01347822,0.194865,0.03357308,-0.3884344
0.7402733,-0.4485053,-0.1720858,-0.2093829,-0.1017674,0.05838505,0.47445,-0.1140563,-0.5616404
0.6893479,-0.4266258,-0.1746394,-0.2603286,-0.07973324,0.05557025,0.3559563,-0.3260939,-0.5385162
0.7294424,-0.3437421,-0.2509969,-0.2202344,0.003352124,-0.0210205,0.2498246,-0.4909636,-0.4906475
0.8373465,-0.1608736,-0.2686498,-0.112301,0.1864661,-0.03888099,0.165671,-0.6075816,-0.3961093
0.8753879,-0.1488294,-0.2894465,-0.07419411,0.1987915,-0.05985976,0.134304,-0.3269163,-0.201932
0.896903,-0.2077266,-0.280137,-0.05257484,0.1401992,-0.05070562,0.2130792,-0.1270102,-0.08245177
0.9013323,-0.1918267,-0.1891859,-0.0480024,0.1564167,0.04011733,0.1991184,-0.1982963,-0.02940168
0.9110489,-0.2016703,-0.1820939,-0.03810407,0.1468933,0.04710698,0.1836034,-0.2158049,0.04143853
0.9123075,-0.1794616,-0.1835764,-0.03662633,0.1694161,0.04554485,0.2088977,-0.3405923,0.1107285
0.8869681,-0.1673336,-0.1622749,-0.0617103,0.1818433,0.06678548,0.1728672,-0.3597679,0.149865
0.9544422,-0.2027856,-0.1894566,0.006054381,0.1466671,0.03955767,0.1958261,-0.163912,0.1598494
1.013293,-0.2521189,-0.177605,0.06522862,0.09757918,0.0513743,0.285085,0.09413158,0.1487103
1.01738,-0.2904706,-0.1362327,0.06966649,0.05943769,0.09271935,0.3994509,0.2407919,0.06208246
1.035356,-0.2415333,-0.09805231,0.08801505,0.1085472,0.1308757,0.3880414,0.09447644,-0.08981796
1.060356,-0.1416786,-0.1440301,0.1134029,0.2085334,0.08487186,0.0819157,-0.02251969,-0.21818
1.152426,-0.06572319,-0.2289825,0.2058678,0.2845736,-0.0001132542,-0.2013848,-0.09200782,-0.2411711
1.235176,-0.1380853,-0.2104744,0.2890096,0.2122411,0.0183534,-0.2025096,-0.1343477,-0.1352894
1.248021,-0.3235175,-0.2437175,0.3022299,0.02677644,-0.01493976,-0.2056459,-0.08109997,-0.06040883
1.178941,-0.420036,-0.3738668,0.2334945,-0.06983838,-0.1451463,-0.4825294,-0.2003162,-0.1619888
0.9816238,-0.4832458,-0.5033063,0.03648119,-0.1332028,-0.2746447,-0.8065047,-0.2609382,-0.3373265
0.7613008,-0.5622648,-0.547411,-0.1835836,-0.2124253,-0.3187993,-0.8541603,-0.2114453,-0.451084
0.6866776,-0.6331254,-0.4092165,-0.2579884,-0.2835249,-0.1806328,-0.5942193,-0.2962932,-0.4717358
0.9218759,-0.6838533,-0.3171261,-0.02260068,-0.3345116,-0.08853796,-0.1267703,-0.2499281,-0.307079
1.289068,-0.6093758,-0.3952229,0.3447579,-0.2602955,-0.1665919,0.2926753,0.1687497,-0.04434285
1.405408,-0.4762629,-0.4303561,0.4612348,-0.1274315,-0.2016392,0.3863198,0.6779665,0.05669183
1.230688,-0.3427467,-0.3746581,0.2866068,0.005857609,-0.1458072,0.1173245,0.6462963,0.1837495
0.9360423,-0.2167235,-0.2670075,-0.008005318,0.1316778,-0.03797007,-0.1190381,0.3029688,0.5057463
0.7454913,-0.2298527,-0.1384624,-0.1985843,0.1183659,0.09081385,-0.07032669,0.2337856,0.6545358
0.7022055,-0.2691185,-0.1281396,-0.2419513,0.07893136,0.1014226,-0.196935,0.173362,0.5612414
0.679722,-0.2338331,-0.2221448,-0.2645548,0.114056,0.007742844,-0.4834684,0.2104049,0.5235967
0.6723056,-0.2639483,-0.2467338,-0.2721141,0.08378283,-0.01648773,-0.5291296,0.3780861,0.4934563
0.7001246,-0.3123513,-0.230116,-0.2444454,0.03522031,0.0005177784,-0.5187835,0.3186602,0.3789791
0.7511299,-0.3273889,-0.2069957,-0.1935836,0.02001902,0.02405191,-0.4983622,0.2804197,0.2893944
0.7913748,-0.3547929,-0.1243776,-0.1534645,-0.007553653,0.1071059,-0.4280771,0.2153881,0.1991823
0.8128773,-0.3512659,-0.07602808,-0.132062,-0.004199957,0.1559069,-0.4153739,0.06908027,0.1218577
0.8007724,-0.3630374,-0.05088506,-0.1442347,-0.01614821,0.1815084,-0.3852019,0.02919327,0.08807203
0.7912995,-0.3911996,-0.03395369,-0.1537382,-0.0444894,0.1988949,-0.3164879,-0.03844284,0.02402508
0.8782614,-0.3559458,-0.06815683,-0.06676531,-0.009414747,0.165133,-0.2586348,0.05808694,-0.02324475
0.9668647,-0.3201264,-0.06942953,0.02189268,0.0262268,0.1642784,-0.3376386,0.1902254,-0.05568036
0.9840977,-0.3199179,-0.08539357,0.03922233,0.02625892,0.148701,-0.4995045,0.08027375,-0.0372356
0.988391,-0.3531148,-0.1040656,0.04364989,-0.007113444,0.1303776,-0.4562029,-0.08431089,0.07508776
1.072847,-0.4329826,-0.05245343,0.1282722,-0.08715527,0.1822944,-0.2202939,-0.1957303,0.1091718
1.218795,-0.4760815,-0.008831776,0.27441,-0.130424,0.2261707,0.008617969,0.09461507,0.01712058
1.229878,-0.443798,0.006981227,0.2856949,-0.0983011,0.2421809,0.02847627,0.470476,-0.08017284
1.20538,-0.4422947,-0.08874054,0.2613952,-0.09694362,0.1465914,-0.04662219,0.2496506,-0.007648271
1.287817,-0.5586777,-0.3095679,0.3440126,-0.2134525,-0.07417285,0.2097931,0.04593108,0.2015753
1.296504,-0.6692617,-0.5003945,0.3528476,-0.3241348,-0.2650018,0.7423622,0.2360178,0.3362006
1.091389,-0.6104475,-0.5757966,0.1478322,-0.2653802,-0.3404594,1.096568,0.526034,0.3729652
0.7373858,-0.4388736,-0.5134213,-0.2061249,-0.09381652,-0.2781744,0.8027325,0.8627918,0.2849193
0.5812852,-0.2736518,-0.4355441,-0.3622294,0.07144947,-0.2004047,0.03443534,0.6935329,0.1567438
0.7446174,-0.2412196,-0.3716815,-0.1989356,0.1039776,-0.1366528,-0.4157872,0.01929626,0.01628916
0.8902263,-0.4032366,-0.2587337,-0.0533846,-0.05789795,-0.02381018,-0.4094683,-0.4028373,-0.1848416
0.9418027,-0.558038,-0.2303052,-0.001876822,-0.2125163,0.004523171,-0.0253475,-0.5176201,-0.2939853
0.9553536,-0.560405,-0.2393325,0.01159804,-0.2146561,-0.004588532,0.5539167,-0.2380727,-0.4704605
0.8701953,-0.4554974,-0.2009344,-0.07364238,-0.1094716,0.03373533,0.7659062,0.0533334,-0.6740414
0.8014099,-0.2686117,-0.2349784,-0.1425132,0.07774337,-0.0003737984,0.6163229,-0.2407501,-0.6690272
0.7804462,-0.1197253,-0.2660528,-0.1635598,0.2270072,-0.0315053,0.3425584,-0.5016093,-0.6464907
0.7629452,-0.1205449,-0.2365822,-0.1811337,0.2266023,-0.002083648,0.1590416,-0.6288003,-0.5264012
0.8156151,-0.2035406,-0.2174511,-0.1285188,0.1440441,0.01700674,0.1628276,-0.6998304,-0.2686671
0.8734353,-0.2646268,-0.1867242,-0.07072949,0.08340652,0.0477003,0.2790921,-0.4583462,-0.09441469
0.8876222,-0.2560613,-0.1865435,-0.05654537,0.09242316,0.04785287,0.4693283,-0.3545751,0.01526519
0.9003669,-0.2231832,-0.1996148,-0.04377394,0.1257482,0.03475637,0.4463371,-0.311408,0.07426812
0.8996529,-0.1978312,-0.1746132,-0.04443128,0.1515365,0.05973323,0.3595537,-0.2853322,0.1124473
0.9037788,-0.1643718,-0.1834851,-0.04021872,0.1854139,0.05083444,0.3162691,-0.4119262,0.1581602
0.9212197,-0.1603494,-0.1925174,-0.02266151,0.1898275,0.041771,0.181049,-0.3541732,0.1907764
0.9691873,-0.211218,-0.166249,0.02545092,0.1393152,0.06800151,0.2231346,-0.2125608,0.1979948
1.027985,-0.2732247,-0.1384936,0.08441934,0.07762335,0.09570986,0.2937214,0.006060168,0.1658887
1.044659,-0.2647174,-0.09600592,0.1012842,0.08640022,0.1381379,0.3341846,0.1034422,0.1096208
1.079978,-0.1933782,-0.09022409,0.1368085,0.1579611,0.1438426,0.3584751,-0.05130539,-0.01612297
1.145493,-0.1413849,-0.1216776,0.2025347,0.2101246,0.1122892,0.1436272,-0.03593301,-0.1164609
1.202818,-0.1389366,-0.1344447,0.2600678,0.2126858,0.09939491,-0.03857068,-0.05687391,-0.1323849
1.244383,-0.2044689,-0.1566756,0.3018236,0.1472027,0.07700618,-0.07638377,-0.1177858,-0.1555877
1.228319,-0.3110781,-0.2097817,0.2859223,0.04057495,0.02371007,-0.1174967,-0.06685869,-0.1480344
1.130001,-0.4070384,-0.3614569,0.1877245,-0.0554712,-0.1281862,-0.2695717,-0.1558149,-0.1742262
0.9481908,-0.4783336,-0.5651085,0.005983917,-0.1269145,-0.3320834,-0.548171,-0.201092,-0.3307931
0.7601219,-0.5604768,-0.5688949,-0.1820665,-0.2092583,-0.3361266,-0.7669381,-0.171782,-0.545736
0.7162346,-0.6931009,-0.4101496,-0.2259792,-0.3421222,-0.1776328,-0.7015844,-0.1848903,-0.6274798
0.907811,-0.7291382,-0.3391271,-0.034461,-0.378421,-0.1068436,-0.2277912,-0.1346513,-0.4676297
1.201426,-0.6049096,-0.3674596,0.2590701,-0.2544564,-0.1353831,0.2553595,0.1056889,-0.2449077
1.274737,-0.4727334,-0.3849841,0.3322689,-0.1225304,-0.153083,0.3951365,0.5637264,-0.05476447
1.117354,-0.2520255,-0.348657,0.1747351,0.09794957,-0.1168944,0.1953856,0.7213189,0.07052512
0.998949,0.0307813,-0.3169426,0.05613245,0.3805497,-0.08527722,-0.2215479,0.3949374,0.2290763
0.9543538,0.005524852,-0.3036955,0.01128958,0.3550959,-0.07208353,-0.5650519,0.2086733,0.5817647
0.8698774,-0.2168641,-0.2400369,-0.07348206,0.1325032,-0.008433611,-0.7441427,0.3593386,0.7172283
0.7073719,-0.3100862,-0.1517461,-0.2363237,0.03905973,0.07989151,-0.6811089,0.4335942,0.5849863
0.6092107,-0.3969807,-0.1003806,-0.3348499,-0.04807719,0.1313294,-0.6419226,0.3438809,0.5631616
0.6937029,-0.4011296,-0.1325227,-0.2507354,-0.05248763,0.09929016,-0.7363617,0.3157989,0.4475344
0.7722954,-0.3023296,-0.1800765,-0.1725174,0.04603514,0.05186192,-0.615144,0.2152743,0.3056771
0.7934519,-0.3555293,-0.1607186,-0.1517198,-0.007455036,0.07136168,-0.5628688,0.07652419,0.2980244
0.8465063,-0.3636682,-0.1518664,-0.09900073,-0.01589625,0.08036705,-0.5161258,0.163261,0.1937708
0.8551594,-0.3399312,-0.1253453,-0.09065334,0.007528326,0.1070474,-0.4137901,0.2405162,0.1092033
0.8453297,-0.39311,-0.08675718,-0.1007554,-0.04597072,0.1457949,-0.4922293,0.2240361,0.08998649
0.8283874,-0.3411428,-0.07668948,-0.1179329,0.005670518,0.1560153,-0.3892806,0.2384858,0.02845063
0.8089081,-0.3429919,-0.02904395,-0.1376069,0.003491718,0.2037991,-0.3483469,0.1882932,-0.0007275341
0.8617905,-0.324635,-0.04137198,-0.08487494,0.02151647,0.1915864,-0.4770412,0.1589369,-0.01692223
0.9093348,-0.257439,-0.09000709,-0.03743422,0.0883779,0.1430355,-0.4810751,0.133803,-0.0147384
0.9439531,-0.3479149,-0.09231639,-0.002872472,-0.002436292,0.1407725,-0.4620915,-0.05925738,0.01470669
1.007134,-0.4121165,-0.1119203,0.06029664,-0.06697977,0.1211721,-0.2403807,-0.2001723,0.02317329
1.10505,-0.4532353,-0.07221035,0.1582397,-0.1084416,0.160839,0.07264214,0.0408146,0.007420031
1.203016,-0.4610928,-0.005943909,0.2562649,-0.116638,0.2270113,0.2281032,0.3145187,-0.01819409
1.204509,-0.4247993,-0.01985467,0.2578347,-0.08067333,0.2129498,0.2061195,0.1189295,0.009272136
1.24973,-0.5117945,-0.128243,0.3031357,-0.1679815,0.1043483,0.2369548,-0.02872145,0.1199252
1.32424,-0.5969544,-0.318756,0.3777147,-0.2534316,-0.08644224,0.6517003,0.2513258,0.2421513
1.22267,-0.6490518,-0.4213064,0.2761856,-0.3057867,-0.1893295,1.010233,0.5731709,0.239023
1.014248,-0.5892096,-0.4204338,0.06776463,-0.2461579,-0.188842,0.9909127,0.8145477,0.1288322
0.7526128,-0.3575658,-0.4251275,-0.1939159,-0.01467324,-0.1939555,0.5172192,0.5986817,0.09964859
0.6271034,-0.1881151,-0.3988908,-0.3195099,0.1546749,-0.1681597,-0.2223353,-0.05005021,0.1546027
0.7918028,-0.1811816,-0.365997,-0.154921,0.1615567,-0.1357162,-0.3807549,-0.4142693,0.1622276
0.9296896,-0.3761035,-0.3130299,-0.01715773,-0.03337572,-0.08319925,-0.1031581,-0.5206233,-0.009079541
0.9285175,-0.6095102,-0.2214082,-0.01845984,-0.2667563,0.00797906,0.1413419,-0.3641614,-0.3642857
0.9149956,-0.6547733,-0.18802,-0.03211532,-0.3119527,0.04093338,0.5617694,-0.1530928,-0.6445286
0.8559009,-0.5225163,-0.2188913,-0.09134502,-0.1795789,0.009637726,0.7958905,-0.3527328,-0.706197
0.8045539,-0.3191696,-0.2736078,-0.1428244,0.02394189,-0.04549389,0.5931351,-0.4750465,-0.6213572
0.805689,-0.2452175,-0.3047781,-0.1418133,0.098125,-0.07706858,0.4913075,-0.5040648,-0.4720155
0.8204908,-0.2442138,-0.2829407,-0.1271204,0.09941016,-0.05562203,0.5782705,-0.561525,-0.3089491
0.8662333,-0.2341076,-0.2576388,-0.081466,0.109839,-0.0306941,0.5671727,-0.3613989,-0.1644746
0.9197536,-0.2601796,-0.2347309,-0.02800888,0.08412173,-0.008141347,0.5983869,-0.2484294,-0.1268544
0.9376542,-0.2050127,-0.2016351,-0.01014548,0.1396669,0.02461865,0.5766701,-0.24701,-0.1270999
0.9175753,-0.1452047,-0.167519,-0.03023566,0.1998677,0.05841735,0.387295,-0.3205813,-0.06687527
0.9012305,-0.1247714,-0.1487472,-0.04656658,0.2206976,0.0768877,0.2853919,-0.523166,0.01286022
0.9106408,-0.1039274,-0.1612475,-0.03711728,0.2419299,0.0640982,0.1896782,-0.525759,0.157945
0.9186342,-0.1574099,-0.1646857,-0.02905956,0.1888157,0.06037963,0.1739887,-0.3952519,0.2777393
0.9449108,-0.218074,-0.1392058,-0.002693939,0.1284897,0.08558446,0.2824838,-0.2426928,0.3112039
0.9631259,-0.2712148,-0.1208013,0.01563375,0.07564981,0.1037159,0.3187389,-0.1757113,0.3341659
0.9644213,-0.2751572,-0.1292347,0.01706305,0.07196739,0.09500726,0.4349673,-0.1668976,0.2624308
1.012127,-0.2272274,-0.1465077,0.06492107,0.1201141,0.07745276,0.4582918,-0.02971062,0.1322643
1.06056,-0.2283602,-0.162744,0.11352,0.1191526,0.06092574,0.2809126,-0.01960808,-0.006770679
1.092524,-0.1999025,-0.1725492,0.1456588,0.1477328,0.0508182,0.1739058,-0.05216499,-0.1493244
1.136471,-0.1878806,-0.1355217,0.1897811,0.1598248,0.08753044,0.1171987,-0.03414496,-0.1903474
1.165612,-0.2385541,-0.09912414,0.2190891,0.1091649,0.1235975,0.04371503,-0.1344018,-0.2123615
1.195169,-0.3026268,-0.1642599,0.2487934,0.04504721,0.05811347,-0.1237815,-0.1730631,-0.3051953
1.198792,-0.4047118,-0.3134619,0.2525343,-0.0571408,-0.09145598,-0.3620979,-0.2512102,-0.4423196
1.096675,-0.4393343,-0.4632085,0.1504944,-0.09191977,-0.2415854,-0.6096493,-0.4565935,-0.5784601
0.9165899,-0.4666171,-0.5212237,-0.02955971,-0.1194047,-0.2999886,-0.7242971,-0.548895,-0.6221095
0.8042949,-0.5894958,-0.4827051,-0.1418703,-0.2425213,-0.2618489,-0.469748,-0.3751129,-0.5313392
0.8351725,-0.6354711,-0.4264797,-0.1110482,-0.2887576,-0.2059793,-0.102089,0.1515116,-0.3695793
0.9358594,-0.5703025,-0.3468702,-0.01044843,-0.2238583,-0.1266913,0.2363698,0.7500299,-0.3102666
1.028119,-0.4530254,-0.2925208,0.08169772,-0.1068451,-0.07262216,0.3723637,0.8531892,-0.3034936
1.053117,-0.2751044,-0.3141887,0.106556,0.07082544,-0.09452535,0.04651445,0.3559403,-0.1501888
0.7319556,-0.3778376,-0.134697,-0.2160241,-0.03679874,0.1036445,-0.7040219,0.3365081,0.3734632
0.7697914,-0.3633479,-0.1623419,-0.1779269,-0.0217304,0.07634114,-0.7136259,0.2641691,0.3779554
0.8169001,-0.3218562,-0.1510659,-0.1305174,0.02032833,0.08798175,-0.7637195,0.09633785,0.3501266
0.8322352,-0.3552337,-0.1425738,-0.1148376,-0.01249431,0.09685456,-0.722395,0.2551094,0.2761449
0.8320725,-0.3527213,-0.1258799,-0.1146092,-0.009439707,0.113938,-0.7511966,0.3808608,0.251611
0.8277545,-0.3451966,-0.06921039,-0.1184881,-0.001385712,0.1709987,-0.6653206,0.4037376,0.1983719
0.8478468,-0.3501194,-0.04252901,-0.09790755,-0.005792376,0.1980641,-0.6686532,0.4744409,0.1149676
0.8972199,-0.2953039,-0.04961175,-0.04799672,0.04952551,0.1913486,-0.8359576,0.364222,0.09314894
0.9633337,-0.2826052,-0.0731204,0.01870281,0.06271136,0.168181,-0.9350409,0.2626526,0.1333625
1.021944,-0.3205607,-0.09381115,0.07794236,0.02522508,0.1477967,-0.8612554,0.09008299,0.164013
1.088948,-0.4113258,-0.09311943,0.1456117,-0.06509017,0.1487539,-0.5189985,0.0499714,0.1457818
1.206939,-0.5171426,-0.07455009,0.2642939,-0.1704749,0.1675419,-0.2155945,0.2815127,0.09436171
1.251971,-0.5158735,-0.08279372,0.3100278,-0.168786,0.1594648,-0.09693422,0.3409824,0.08315843
1.248167,-0.5464972,-0.2242027,0.3069211,-0.1989939,0.01816626,0.01874305,0.3361487,0.2450863
1.284069,-0.6881954,-0.4267324,0.3434968,-0.3402711,-0.1843087,0.3826217,0.481474,0.4661917
1.190628,-0.7528037,-0.5047781,0.2506905,-0.4044404,-0.2623477,0.7962149,0.8965693,0.4220508
0.9804852,-0.6360244,-0.4796999,0.04113089,-0.287189,-0.2372971,0.5471904,1.243527,0.2063943
0.745176,-0.4156421,-0.4040297,-0.1936515,-0.0662893,-0.1616745,-0.01765816,0.9179492,0.07682614
0.5895868,-0.1954144,-0.3012029,-0.3487641,0.154505,-0.0589039,-0.4685238,0.2217281,0.04089204
0.7035986,-0.1162792,-0.3238247,-0.2343116,0.2342493,-0.08158329,-0.8770978,-0.4624241,0.07413521
0.8713941,-0.30117,-0.3814129,-0.06609692,0.04999796,-0.1392257,-0.7510351,-0.6806131,0.009898308
0.9116548,-0.5489439,-0.2907962,-0.0254301,-0.1971151,-0.04865475,-0.2893606,-0.1885595,-0.1864766
0.9015368,-0.6094142,-0.2162434,-0.03515154,-0.2569037,0.02586415,0.07523803,0.08491989,-0.3373758
0.8031609,-0.4982163,-0.187735,-0.1331386,-0.1449972,0.05435063,0.2463787,-0.1014222,-0.4501556
0.7395816,-0.3158492,-0.1929841,-0.1963322,0.03811019,0.04908928,-0.05354264,-0.2436786,-0.4759128
0.757725,-0.1927433,-0.2883809,-0.1777997,0.1619867,-0.04631253,-0.3124101,-0.4769351,-0.4048375
0.7842382,-0.1696108,-0.2855019,-0.150886,0.1859114,-0.04343213,-0.2915236,-0.579112,-0.2925018
0.8636969,-0.2234405,-0.2447332,-0.07100938,0.1328841,-0.002654397,-0.2071285,-0.3285437,-0.1195832
0.8870202,-0.2940887,-0.2452947,-0.0472473,0.06303785,-0.003198854,0.09560615,-0.1302116,-0.02055981
0.8660919,-0.2749429,-0.2062333,-0.06771501,0.08297758,0.03588732,0.1949038,-0.09295406,0.03044464
0.8756235,-0.2307656,-0.2137352,-0.05770086,0.1279345,0.02841634,0.1166864,-0.1476558,0.1231423
0.8660543,-0.2015653,-0.1989745,-0.06676519,0.1578937,0.04321217,0.1816362,-0.2065007,0.1831033
0.9193016,-0.1864911,-0.1842715,-0.01299093,0.1736981,0.05795213,0.128207,-0.15617,0.2067402
0.9978503,-0.2328249,-0.2032558,0.06610543,0.1280581,0.03900394,0.1258261,-0.05029836,0.1560611
1.016169,-0.2534442,-0.1428438,0.08498859,0.1080891,0.0994484,0.1633099,0.07371257,0.07547883
1.022992,-0.2381553,-0.1163242,0.09238607,0.1239798,0.1259931,0.1445199,0.04954599,0.01835633
1.075174,-0.192309,-0.1414163,0.1451455,0.170375,0.1009141,0.1571316,-0.1040914,-0.0660885
1.194799,-0.1221793,-0.1786748,0.2653421,0.2409948,0.0636517,-0.006649803,-0.1121975,-0.09124034
1.274986,-0.1527126,-0.2172476,0.3460838,0.2108859,0.02505541,-0.1720039,0.01319237,-0.05600813
1.285205,-0.2343414,-0.20735,0.356825,0.1296086,0.03490881,-0.2144018,0.1358875,-0.06644411
1.271907,-0.3503274,-0.2608501,0.344,0.0138972,-0.01865614,-0.3424273,0.07389496,-0.1401172
1.188309,-0.4927316,-0.3819935,0.2608096,-0.1283076,-0.139883,-0.7219697,-0.1477769,-0.3002474
0.980823,-0.5019038,-0.4869971,0.05365646,-0.1373486,-0.2449825,-1.229517,-0.3965972,-0.4605672
0.71531,-0.5202043,-0.5268458,-0.2116014,-0.1555753,-0.2849289,-1.282766,-0.7449536,-0.452116
0.6817454,-0.6428139,-0.4676018,-0.2449809,-0.2781563,-0.2257717,-0.7954208,-0.7192121,-0.3119699
0.9611511,-0.6636924,-0.4122882,0.03455314,-0.2990371,-0.1705216,-0.1352991,0.05289867,-0.1060525
1.225688,-0.6126792,-0.4083833,0.299169,-0.2480409,-0.1666482,0.3812891,1.018372,0.1130847
1.220337,-0.4803629,-0.3935765,0.2938429,-0.1157421,-0.151834,0.3661404,1.331404,0.138137
0.9936953,-0.1952084,-0.3412535,0.06716559,0.1694024,-0.09945954,-0.03205473,0.6147919,0.1925122
0.7962854,-0.07389226,-0.271814,-0.1303451,0.2907141,-0.02992191,-0.3356806,-0.1175524,0.5533643
0.7466906,-0.1819729,-0.2122835,-0.1801002,0.1826249,0.02975308,-0.4622041,-0.06894974,0.7618858
0.74695,-0.2653251,-0.2004595,-0.180049,0.09924945,0.04176453,-0.4712965,0.2107636,0.6906262
0.7205327,-0.3573791,-0.2272051,-0.2067093,0.007151292,0.01524453,-0.4526335,0.5041238,0.6219505
0.7039381,-0.3943916,-0.2179494,-0.2235683,-0.02992773,0.02475901,-0.4929197,0.5995859,0.4672265
0.755171,-0.316668,-0.1837872,-0.1726084,0.04770836,0.05920866,-0.5050569,0.4226632,0.312618
0.7981263,-0.3196137,-0.138454,-0.1299236,0.04465512,0.1048528,-0.4975648,0.3580937,0.2717012
0.7991899,-0.3383069,-0.09756387,-0.1291191,0.02583452,0.1460704,-0.5175627,0.2206428,0.2268712
0.8049985,-0.3117113,-0.09304891,-0.1235515,0.05228247,0.1509211,-0.5409282,0.0996494,0.1758791
0.8065848,-0.3306765,-0.07229168,-0.1221823,0.03314924,0.1720132,-0.5651098,0.185329,0.1371465
0.8319455,-0.3140243,-0.05060369,-0.0970095,0.04961297,0.1940261,-0.5249641,0.2295666,0.1271456
0.8706834,-0.2799742,-0.04577621,-0.05842671,0.08345347,0.1991588,-0.5329443,0.2771921,0.09646204
0.9145146,-0.2788201,-0.05818504,-0.01471588,0.08437583,0.1870263,-0.7032611,0.2967133,0.0520165
0.9642666,-0.3051075,-0.09561692,0.03495019,0.05783282,0.1498335,-0.8769164,0.1556609,0.09175772
1.018623,-0.4145602,-0.0902546,0.08925183,-0.05190005,0.1553908,-0.8327096,-0.1088109,0.1412761
1.156667,-0.5229378,-0.07119048,0.2272672,-0.1605793,0.1746003,-0.4804362,-0.2465444,0.1533111
1.276299,-0.5640976,-0.07031723,0.3468865,-0.2020548,0.1755641,-0.06720345,0.02807016,0.1048467
1.273359,-0.582754,-0.103932,0.3439331,-0.2210304,0.14198,0.1435328,0.3079991,0.05130105
1.276758,-0.6347783,-0.2628892,0.3473024,-0.2733652,-0.01700927,0.2289594,0.2079337,0.2013511
1.272666,-0.7114141,-0.4540483,0.3431464,-0.3502895,-0.2082608,0.4944439,0.2186798,0.4170274
1.104852,-0.6578779,-0.4981198,0.1752222,-0.297005,-0.2524754,0.8933598,0.5954485,0.4390914
0.8094126,-0.4699743,-0.4515058,-0.1203831,-0.1093036,-0.2060406,0.910645,0.9716265,0.3672139
0.6427798,-0.2575454,-0.4624703,-0.2872338,0.1029792,-0.2172058,0.4504633,1.047976,0.332076
0.7075106,-0.1648914,-0.4539964,-0.2227606,0.1955403,-0.2089407,-0.1968562,0.5008129,0.2856057
0.8285114,-0.30437,-0.3525035,-0.102042,0.05601296,-0.1076533,-0.5953017,-0.3287648,0.1495029
0.9207586,-0.4337204,-0.282618,-0.01009094,-0.07335022,-0.037962,-0.4961294,-0.5256177,-0.07763345
0.9342595,-0.4533034,-0.2687916,0.003105355,-0.09291283,-0.02431438,-0.1992608,-0.2591913,-0.3195166
0.8296753,-0.4634248,-0.235028,-0.1017891,-0.1029797,0.00928696,0.2181978,-0.1191716,-0.4854158
0.7716919,-0.4206645,-0.1655754,-0.160084,-0.06012873,0.07859324,0.4783092,-0.1249205,-0.5530472
0.7864424,-0.390568,-0.1739317,-0.1456395,-0.02990425,0.07010381,0.2729867,-0.2951858,-0.5690313
0.7831065,-0.2717358,-0.2609959,-0.1492677,0.08909192,-0.01708396,0.07864642,-0.6013547,-0.4994676
0.789833,-0.09687305,-0.2624553,-0.1428125,0.2641491,-0.01865885,-0.007059407,-0.7297567,-0.3102797
0.7962702,-0.169862,-0.2518094,-0.1366189,0.1913746,-0.00812053,0.00463976,-0.5287139,-0.1063452
0.8415812,-0.2910224,-0.2411536,-0.09151813,0.07043656,0.002435952,0.2562854,-0.3607149,0.01049869
0.9186077,-0.3025169,-0.1975047,-0.01466491,0.05916409,0.04599336,0.3752881,-0.3421461,0.044043
0.928219,-0.3148183,-0.2215156,-0.005189172,0.04707974,0.02189761,0.3797876,-0.2962525,0.08264596
0.9096645,-0.2419704,-0.2018468,-0.02384273,0.1201362,0.04148626,0.3838114,-0.3244036,0.143824
0.9146487,-0.1595787,-0.1559531,-0.01892279,0.2027231,0.08730236,0.2706264,-0.3498174,0.1785784
0.9572966,-0.1544918,-0.1582498,0.02369407,0.2079843,0.08492727,0.2092047,-0.3063351,0.1921663
1.022201,-0.186711,-0.1418345,0.0885975,0.1759098,0.1012596,0.1873527,-0.206984,0.1556844
1.055343,-0.2592151,-0.1412224,0.1217645,0.1035132,0.1017799,0.2464886,-0.0282725,0.09083839
1.052503,-0.2667692,-0.1365823,0.1189677,0.09602425,0.1063149,0.3242262,-0.005981332,0.0366715
1.055881,-0.1922152,-0.1588202,0.1223996,0.1705979,0.08395484,0.174128,-0.05281061,-0.03460119
1.125422,-0.150905,-0.1902472,0.1919978,0.2118783,0.0523854,0.06198586,0.05569292,-0.10335
1.212324,-0.2298844,-0.1514899,0.2789516,0.1328147,0.09097788,0.09132002,0.1149797,-0.1764454
1.219287,-0.3973973,-0.1595655,0.2859489,-0.03484059,0.08271352,0.0206232,-0.0365134,-0.2522372
1.130336,-0.4639832,-0.2841516,0.1970034,-0.1016248,-0.04208671,-0.347743,-0.3628087,-0.3497113
0.9530951,-0.432954,-0.461243,0.01972866,-0.070843,-0.2194149,-0.9034191,-0.7343341,-0.4552455
0.7748114,-0.4719754,-0.5208827,-0.1586294,-0.1101525,-0.2793056,-1.018046,-0.9112958,-0.4609913
0.7891547,-0.585329,-0.4620808,-0.1443958,-0.2238254,-0.2207557,-0.662995,-0.7352298,-0.4155485
1.06573,-0.6576462,-0.470421,0.132042,-0.2964813,-0.2293358,-0.2144068,-0.09810441,-0.2766794
1.338654,-0.6063477,-0.4577273,0.4048022,-0.2455259,-0.216858,0.3019708,0.9295505,-0.04473472
1.307569,-0.4349764,-0.3877721,0.3735182,-0.07448877,-0.1470849,0.3826672,1.388347,0.04224197
1.016559,-0.1789503,-0.3540917,0.08225893,0.1812195,-0.1135455,-0.1593392,0.6714644,0.185426
0.7435969,-0.05892295,-0.2822696,-0.191007,0.3009426,-0.04181917,-0.5765949,0.07694433,0.5556697
0.6767078,-0.2025815,-0.2095272,-0.2582492,0.1569833,0.03087348,-0.6298493,0.2757322,0.7361709
0.6947148,-0.3549985,-0.1849969,-0.2406301,0.004259496,0.05539729,-0.547085,0.4164372,0.6512737
0.6391264,-0.4434457,-0.1523795,-0.2966248,-0.08450365,0.0880464,-0.4176392,0.460988,0.5839031
0.6033223,-0.4636072,-0.1575958,-0.3328367,-0.1049875,0.08289377,-0.3483919,0.4584405,0.4706727
0.6473747,-0.3669046,-0.1725734,-0.2891772,-0.008608679,0.06800503,-0.3340735,0.1883097,0.3107649
0.7131733,-0.3214162,-0.1383941,-0.2237409,0.03655806,0.1022924,-0.373146,-0.03988314,0.2725902
0.7971484,-0.2896372,-0.1304515,-0.1400859,0.06801782,0.1103557,-0.3877753,-0.2407088,0.2626112
0.8292206,-0.287218,-0.1408405,-0.108284,0.07011863,0.1000939,-0.4039516,-0.3141023,0.246641
0.8196822,-0.3754817,-0.1337373,-0.118039,-0.01846466,0.1073243,-0.492229,-0.1044559,0.2396747
0.873067,-0.3537869,-0.1300883,-0.06481449,0.002908872,0.1110949,-0.424219,0.08187313,0.164032
0.887151,-0.3167562,-0.1068017,-0.05083378,0.03961721,0.1344917,-0.4051885,0.2081699,0.09643656
0.9093534,-0.311827,-0.08812054,-0.02867816,0.04422298,0.1532659,-0.6005409,0.2373628,0.04633618
1.004192,-0.2754701,-0.08801113,0.06616731,0.08025401,0.1534448,-0.6963967,0.1610112,0.02969226
1.012499,-0.3520683,-0.07824787,0.07453072,0.003326102,0.1632476,-0.5778896,0.07827502,0.06994884
1.059284,-0.4312063,-0.05909739,0.1214145,-0.07614576,0.1824016,-0.2304603,0.009657427,0.03582543
1.169758,-0.4626207,-0.02470711,0.2320203,-0.1078955,0.2167528,0.09977098,0.1782869,-0.06007065
1.195441,-0.5109026,-0.04490561,0.2578562,-0.1565084,0.1964659,0.2277707,0.3481663,-0.1094371
1.265677,-0.6051889,-0.2420588,0.3282526,-0.2511136,-0.0008306064,0.3743644,0.1833889,0.07652785
1.38071,-0.8218789,-0.5859167,0.4434359,-0.468099,-0.344885,0.7871986,0.1604389,0.4160514
1.339791,-0.8631712,-0.7614907,0.4026388,-0.5096457,-0.5206958,1.182384,0.6558905,0.4576017
1.001344,-0.5906892,-0.5907283,0.06426727,-0.2373573,-0.3501878,0.8464183,1.126197,0.2841972
0.6159101,-0.3286926,-0.3929749,-0.3211429,0.02451979,-0.1526842,0.1821638,0.8938863,0.1434704
0.6411209,-0.279058,-0.3067524,-0.2959529,0.07411107,-0.06669318,-0.2285977,0.1884502,-0.05915182
0.84753,-0.3899941,-0.2161892,-0.08959362,-0.03679787,0.02366252,-0.4815742,-0.4118406,-0.2327042
0.8660027,-0.4822822,-0.2103155,-0.07118756,-0.1289936,0.02935324,-0.1597631,-0.5765178,-0.315908
0.8668138,-0.5423798,-0.2077508,-0.070453,-0.1889346,0.03175729,0.3477087,-0.3724623,-0.4135872
0.8400136,-0.5029193,-0.1740005,-0.09733481,-0.1492509,0.06536638,0.4509507,-0.4130235,-0.5421138
0.7363536,-0.3143894,-0.2366914,-0.2010759,0.03957024,0.002550527,0.5241909,-0.6099335,-0.6295389
0.7412812,-0.219257,-0.2614367,-0.196221,0.1350589,-0.02230552,0.3917449,-0.658592,-0.5775914
0.7712002,-0.2058606,-0.2554906,-0.1663576,0.1488673,-0.01645669,0.2202182,-0.8287104,-0.4244905
0.8016133,-0.2504512,-0.2701277,-0.1359748,0.104733,-0.03117748,0.3879037,-0.7227308,-0.2346115
0.8896879,-0.3556239,-0.2342458,-0.04789944,5.057302e-05,0.0046348,0.5339535,-0.4209131,-0.1044102
0.899065,-0.3150096,-0.2270089,-0.038488,0.04118204,0.01181568,0.6994095,-0.4033137,-0.1113799
0.8866621,-0.2337849,-0.2076881,-0.05082258,0.1229452,0.03109294,0.7792793,-0.3456631,-0.05037759
0.9186489,-0.1744724,-0.1847238,-0.01873393,0.18281,0.05402428,0.6312936,-0.3843369,0.09069595
0.9662678,-0.1353138,-0.2082001,0.02901892,0.2225246,0.03052294,0.564048,-0.4286262,0.103904
1.013798,-0.2241741,-0.1805567,0.07671251,0.1342129,0.05814646,0.4929003,-0.220464,0.05807347
0.9958826,-0.2677268,-0.1184632,0.05898404,0.09119165,0.1202222,0.4640725,-0.05679323,0.006164297
0.992219,-0.2454593,-0.03401183,0.05552654,0.1139667,0.2046527,0.5673088,0.07525004,-0.07398643
1.039784,-0.2113234,-0.01566245,0.1033113,0.1485807,0.2229704,0.5200491,-0.01664906,-0.1529165
1.130338,-0.1454911,-0.1051706,0.1940923,0.2148556,0.1334107,0.2264197,-0.1766121,-0.2593739
1.26925,-0.1897917,-0.135342,0.3332286,0.1709544,0.1031605,-0.07788124,-0.1017091,-0.323621
1.281781,-0.2748416,-0.1516635,0.3459686,0.08625392,0.08672861,-0.02754423,-0.06597284,-0.2895752
1.160587,-0.3243423,-0.2779492,0.2249517,0.03704872,-0.03970069,-0.04048158,-0.04251631,-0.288011
1.023658,-0.3660288,-0.4557196,0.08815766,-0.004396641,-0.2176453,-0.6594593,-0.3467153,-0.4454983
0.8249155,-0.3941361,-0.5332644,-0.1104982,-0.0323148,-0.295386,-1.205453,-0.9295444,-0.6568403
0.7156455,-0.5086437,-0.5152986,-0.2197256,-0.1466806,-0.2776235,-1.142802,-1.135629,-0.6912089
0.8920657,-0.6892456,-0.4968742,-0.04329786,-0.3271794,-0.2593947,-0.6282874,-1.146956,-0.5591897
1.087191,-0.8322874,-0.4329044,0.151807,-0.4701418,-0.1955992,0.06247627,-0.7377964,-0.4020955
1.147095,-0.7725856,-0.4675436,0.2116633,-0.4103639,-0.2303803,0.5347273,0.539049,-0.2277126
1.229829,-0.5020657,-0.5460167,0.2943154,-0.1397509,-0.3089532,0.6902142,1.448576,-0.02049812
1.064013,-0.255015,-0.4106737,0.1283742,0.1074211,-0.1736576,0.2841409,0.7521159,0.2604573
0.6751348,-0.06272132,-0.2785967,-0.2606766,0.2998636,-0.04156842,-0.426638,-0.1235116,0.6524745
0.6427634,-0.1324584,-0.2295666,-0.2932615,0.2302917,0.007535417,-0.5362996,0.1684586,0.8730146
0.7249219,-0.3596418,-0.2021638,-0.2113428,0.003277328,0.03507023,-0.4733254,0.3179107,0.7616459
0.6092183,-0.3386223,-0.2385847,-0.3272962,0.02446242,-0.001165361,-0.5674537,0.1904832,0.694467
0.6262351,-0.4328488,-0.2067195,-0.3105235,-0.06960388,0.03093297,-0.3781848,0.4391127,0.636144
0.70798,-0.4832049,-0.1861221,-0.2290016,-0.1198034,0.05180619,-0.3320425,0.2941651,0.3982989
0.7870226,-0.2766491,-0.1949198,-0.1501484,0.08690798,0.04332135,-0.3597237,0.20947,0.283927
0.8831822,-0.3510283,-0.1662154,-0.05413665,0.01268417,0.07236943,-0.2994798,0.3481985,0.2298131
0.8435603,-0.3676292,-0.1787753,-0.09386145,-0.003763206,0.0601779,-0.4461759,0.1677385,0.1950632
0.8365856,-0.2823201,-0.1225739,-0.1008927,0.08169603,0.1167661,-0.3609345,0.1681953,0.2597769
0.8488879,-0.3753019,-0.0497214,-0.088599,-0.01114071,0.1900162,-0.2557986,0.1117393,0.1805358
0.8431339,-0.2991982,-0.05272705,-0.09431237,0.0651013,0.1874096,-0.4086098,0.03661048,0.1054345
0.9510944,-0.2811932,-0.05834402,0.01373854,0.08323573,0.1821827,-0.4771404,0.212759,0.08401267
1.021379,-0.3161228,-0.09907227,0.08416149,0.0484239,0.1418257,-0.6386599,0.2224567,-0.001951889
1.034186,-0.2865494,-0.1123637,0.09714807,0.07810043,0.1288789,-0.6150395,0.2233844,-0.01464234
1.046785,-0.4039101,-0.05702886,0.1099599,-0.03917368,0.1845251,-0.2913614,0.1536129,-0.05261194
1.08659,-0.4581715,-0.007340464,0.1500038,-0.09336448,0.2344846,-0.05634082,0.07304871,-0.07252228
1.18875,-0.5356326,-0.05458882,0.2524181,-0.1707669,0.1874591,0.2109197,0.1546346,-0.002116714
1.285101,-0.669356,-0.2644326,0.3490263,-0.3044356,-0.02221631,0.5270753,0.1780874,0.1238078
1.337758,-0.7355476,-0.5619389,0.4019281,-0.370564,-0.3196079,0.9649625,0.3331859,0.3900239
1.208598,-0.7810817,-0.7721279,0.2729809,-0.4160105,-0.5297234,1.223587,0.6276666,0.5071867
1.064572,-0.7253921,-0.7479198,0.1291229,-0.3601912,-0.5054605,0.7951526,0.8768241,0.3035885
1.088116,-0.6788915,-0.643098,0.1527815,-0.3135029,-0.4005766,0.1707376,0.6472329,0.006567696
0.9067639,-0.4591071,-0.4899354,-0.02851369,-0.0934612,-0.2473228,-0.1689566,-0.1071406,-0.2535212
0.6469448,-0.1464332,-0.2391425,-0.2883304,0.2195427,0.003603757,-0.1788491,-0.5723743,-0.4145985
0.7273696,-0.260703,-0.2621721,-0.2079474,0.1056683,-0.01924555,0.005828538,-0.6132064,-0.4871486
0.8158643,-0.4264494,-0.3167158,-0.1195248,-0.05962855,-0.07356402,0.2889997,-0.3473033,-0.5382305
0.7202777,-0.3718297,-0.1238624,-0.2152019,-0.004512516,0.1195567,0.7518496,-0.1318864,-0.6496949
0.7315087,-0.3351055,-0.187893,-0.2040689,0.03275051,0.05583069,0.8318962,-0.4580432,-0.7437962
0.747783,-0.2009984,-0.2897798,-0.1878894,0.1674329,-0.04572054,0.4707207,-0.8114507,-0.6498344
0.7337034,-0.1140913,-0.2098294,-0.2020501,0.2549422,0.03459211,0.381405,-0.9045197,-0.4421946
0.8660084,-0.2155442,-0.2781568,-0.06980406,0.1541054,-0.03334923,0.3984843,-0.7264739,-0.2125656
0.9156957,-0.2451601,-0.2621811,-0.02014835,0.125107,-0.01696597,0.4015257,-0.3241232,-0.06815518
0.8967717,-0.2369171,-0.1971103,-0.03907529,0.1339591,0.04853145,0.5048028,-0.1501632,-0.05815998
0.928678,-0.2328476,-0.2204061,-0.00714362,0.1386214,0.02567843,0.4608128,-0.1605706,0.01888176
0.9027912,-0.1544043,-0.1593119,-0.03297768,0.2176333,0.08722715,0.4493971,-0.27093,0.1145302
0.9384466,-0.1431536,-0.1901907,0.002756807,0.2294194,0.05680971,0.458746,-0.3862544,0.1380955
0.9721322,-0.1705705,-0.2179955,0.03654598,0.2024948,0.02946822,0.3505408,-0.2897165,0.1975551
0.9751868,-0.183949,-0.1365484,0.03972584,0.1895561,0.1113762,0.3419514,-0.1427239,0.1870749
1.045542,-0.212288,-0.1138363,0.1102234,0.1615971,0.1345416,0.3447828,0.0617332,0.1119485
1.078933,-0.1591067,-0.1000051,0.1437699,0.2150924,0.148812,0.2928747,0.1356004,0.02024399
1.138267,-0.1033143,-0.1575148,0.2032624,0.2711263,0.09172055,0.08445463,-0.1081976,-0.1307887
1.218776,-0.1466637,-0.2223048,0.2839242,0.2279388,0.02732239,-0.2576795,-0.23858,-0.1482072
1.261641,-0.2898601,-0.2038941,0.3269233,0.08481824,0.04609583,-0.3073364,-0.1093499,-0.07092143
1.28072,-0.4894166,-0.2632111,0.3461044,-0.1147494,-0.01288835,-0.2382704,-0.03776623,-0.08941781
1.224464,-0.5556223,-0.3509518,0.2899019,-0.1810466,-0.1003251,-0.4499931,-0.2094822,-0.2583862
1.106686,-0.5144656,-0.413488,0.1721189,-0.1400495,-0.1625819,-0.7850425,-0.4588088,-0.5859613
0.941144,-0.5735924,-0.4847428,0.006504575,-0.1993906,-0.2335742,-0.9023044,-0.6509896,-0.7435566
0.9099244,-0.6446552,-0.4941011,-0.02485365,-0.2707082,-0.2426766,-0.6224232,-0.6717592,-0.5765563
1.014258,-0.5849464,-0.4439724,0.0792785,-0.2112797,-0.1922872,-0.07520423,-0.0370056,-0.2970068
1.064581,-0.4629816,-0.3977992,0.1293405,-0.08960688,-0.1458388,0.4526981,1.059031,0.03636276
1.165364,-0.3081787,-0.3257354,0.2298024,0.06490114,-0.07347835,0.5674609,1.406033,0.2433822
1.132985,-0.2346233,-0.2692293,0.1970399,0.1381606,-0.01665107,0.09402697,0.5968543,0.2836297
0.8680759,-0.2901533,-0.2846119,-0.0683198,0.08233078,-0.0316877,-0.3938089,-0.1752589,0.5107723
0.725329,-0.267338,-0.2156795,-0.2115801,0.1048381,0.03761385,-0.3813828,-0.07156259,0.7640327
0.7407502,-0.2851825,-0.1587263,-0.1967239,0.08667376,0.09495611,-0.2046281,0.2470259,0.7120586
0.7730635,-0.393779,-0.2197361,-0.1650123,-0.02225678,0.03435017,-0.1912201,0.3830128,0.5995434
0.7380586,-0.3595191,-0.2006352,-0.2006419,0.01165481,0.05386447,-0.2338362,0.4944806,0.4662328
0.7173792,-0.3165682,-0.1859471,-0.2219555,0.05424447,0.06897097,-0.2853562,0.4323146,0.2863741
0.7698564,-0.3116828,-0.1794415,-0.1701096,0.05875612,0.07589523,-0.3003482,0.2672512,0.290178
0.7282949,-0.2800348,-0.08240047,-0.2122875,0.09001688,0.1733499,-0.2736284,0.007121724,0.3427232
0.7277019,-0.3100876,-0.0439865,-0.2134713,0.05956178,0.2121649,-0.2782453,-0.2696107,0.3323777
0.7879859,-0.3241903,-0.0666117,-0.1537423,0.04504035,0.189919,-0.2715006,-0.2137165,0.2842076
0.820231,-0.3458132,-0.08706429,-0.1220083,0.02298204,0.1698143,-0.2570254,-0.01478314,0.1462971
0.9382618,-0.3810543,-0.06944431,-0.004439691,-0.01271065,0.1877427,-0.2868954,0.1790504,0.03562713
0.9782551,-0.3295337,-0.05666698,0.03514122,0.03834408,0.2007815,-0.423034,0.2675233,-0.009809643
0.9770356,-0.3036454,-0.09610166,0.03355666,0.06375341,0.1615544,-0.570111,0.01457282,0.005040543
1.020578,-0.3579688,-0.09361787,0.07677751,0.008938266,0.1641859,-0.4238367,-0.2117182,0.08422122
1.044455,-0.4603738,-0.07880658,0.1003703,-0.09397003,0.1790802,-0.01286745,-0.1992731,0.1313143
1.187474,-0.569732,-0.06703359,0.243135,-0.2038384,0.1908671,0.3946704,-0.1094892,0.1188257
1.286601,-0.6026314,-0.1031092,0.3420287,-0.2372455,0.1547321,0.6018298,-0.02750041,0.1158319
1.318557,-0.6395891,-0.3186737,0.3737551,-0.2746966,-0.06096716,0.6537041,-0.006133849,0.2386585
1.372907,-0.7139933,-0.5957781,0.4278628,-0.3495659,-0.3382767,1.01277,0.2774116,0.3592557
1.113753,-0.6643185,-0.6663531,0.1684358,-0.3003131,-0.4091119,1.357778,0.7970735,0.3070354
0.6940395,-0.4751571,-0.4978056,-0.2515908,-0.1115176,-0.240859,0.8214953,0.8869858,0.232084
0.6208421,-0.2850468,-0.3996217,-0.3251363,0.07828961,-0.1429848,-0.02808173,0.3835216,0.1420516
0.8065992,-0.2230321,-0.395863,-0.1397479,0.1400618,-0.1395381,-0.3468254,-0.2394716,-0.03918826
0.9226658,-0.361393,-0.2895318,-0.02405748,0.001511945,-0.03351287,-0.2755999,-0.5007134,-0.1736648
0.9534616,-0.5430824,-0.2178935,0.006361547,-0.1803184,0.0378298,0.0496991,-0.3535992,-0.2727253
0.9111912,-0.584083,-0.1986147,-0.03628362,-0.221411,0.05682399,0.4069378,-0.1883171,-0.4193593
0.7886393,-0.4487961,-0.1954394,-0.1592058,-0.08616224,0.05972359,0.4769292,-0.202634,-0.4970407
0.7545991,-0.2042073,-0.2538598,-0.1936059,0.1584446,0.001033955,0.1920668,-0.3342482,-0.480758
0.7795861,-0.1046388,-0.2784655,-0.1689601,0.2580816,-0.02383555,-0.2110061,-0.6037769,-0.4069832
0.7925086,-0.1405907,-0.2819817,-0.1563516,0.2222359,-0.02760965,-0.296967,-0.7001617,-0.1903813
0.8522908,-0.1785542,-0.2635324,-0.09684904,0.1844017,-0.009410996,-0.1827853,-0.4429623,0.04723318
0.8866651,-0.3041649,-0.2278506,-0.06271535,0.05893148,0.02602833,-0.07284365,-0.2411176,0.1180009
0.8891222,-0.3471034,-0.2236852,-0.06045753,0.01613713,0.02995921,0.1303493,-0.1539349,0.1138046
0.8857226,-0.2864122,-0.2111161,-0.06401413,0.07697239,0.04230031,0.2780375,-0.1398959,0.1414252
0.8922827,-0.27668,-0.2191857,-0.05756817,0.08684544,0.03400776,0.3147824,-0.1959441,0.1666608
0.9365467,-0.2357414,-0.2254789,-0.01337547,0.1279174,0.02749499,0.3292027,-0.1349584,0.1607541
0.9645859,-0.2444329,-0.2197115,0.01463414,0.1193467,0.03304501,0.3397163,-0.08843792,0.1480158
0.9934974,-0.2988594,-0.2192555,0.04355477,0.06502299,0.03328445,0.3680576,0.03018439,0.0947313
1.036477,-0.2857245,-0.1664453,0.08657824,0.07823892,0.08587751,0.4417653,0.2635858,-0.04103953
1.082158,-0.2133027,-0.1324535,0.1323302,0.1507168,0.119649,0.4779336,0.3033922,-0.1919288
1.117011,-0.08960887,-0.1663459,0.1672758,0.2744368,0.08552909,0.2660748,0.1245814,-0.2787109
1.148126,-0.1031717,-0.2223956,0.1984935,0.260862,0.02924124,-0.09439235,-0.1965602,-0.2654848
1.252895,-0.3040825,-0.290437,0.3033656,0.0598921,-0.03905036,-0.368484,-0.375603,-0.1908004
1.277136,-0.494368,-0.3846924,0.3276965,-0.1305032,-0.133566,-0.5583469,-0.316459,-0.1735391
1.034426,-0.5929541,-0.4935342,0.0850506,-0.2292446,-0.2426717,-0.8138728,-0.2918354,-0.3397669
0.7508357,-0.6410758,-0.5174631,-0.1985096,-0.277555,-0.2668582,-1.067326,-0.3267163,-0.5829597
0.7789368,-0.7054288,-0.4496454,-0.1704082,-0.3421144,-0.1992793,-0.9083432,-0.4959666,-0.5902348
1.062305,-0.7289329,-0.3935177,0.1129382,-0.3658248,-0.1433609,-0.4311579,-0.5880049,-0.3956769
1.273989,-0.6787347,-0.3964568,0.324581,-0.3158147,-0.1464721,0.02311775,-0.01563261,-0.1778837
1.289963,-0.5326133,-0.4126711,0.3404853,-0.1698477,-0.1628156,0.3187883,0.9275193,0.05381073
1.103731,-0.2499048,-0.3769356,0.1541442,0.1127493,-0.1271613,0.1486407,1.160625,0.1863522
0.8491582,-0.09957517,-0.3113208,-0.1005863,0.2630089,-0.06157613,-0.1854673,0.5620734,0.3561818
0.7049132,-0.1927015,-0.2059601,-0.2450348,0.1698439,0.04380731,-0.3327238,0.1023996,0.6620324
0.6437776,-0.3293372,-0.1026243,-0.3064081,0.03318948,0.1472145,-0.4464453,0.1138671,0.7034676
0.647884,-0.4581491,-0.09748078,-0.3025572,-0.0956277,0.1524703,-0.2863272,0.2474738,0.4840123
0.6331683,-0.4814138,-0.1283947,-0.3175289,-0.1188842,0.1216991,-0.1429008,0.3001326,0.3320757
0.6063908,-0.4064903,-0.1521533,-0.3445459,-0.04393594,0.09810421,-0.2837837,0.2189717,0.2542932
0.6812099,-0.3777966,-0.169474,-0.2699338,-0.01519825,0.08096065,-0.2433211,0.1333836,0.2326596
0.7748241,-0.3116619,-0.1762465,-0.1764809,0.05099969,0.07437246,-0.2511369,0.07555859,0.232716
0.8486018,-0.2773167,-0.1616638,-0.1028099,0.08542487,0.08914129,-0.3601194,-0.0143537,0.22377
0.8320195,-0.3657209,-0.08686277,-0.1194404,-0.002886464,0.164125,-0.3392254,-0.09151346,0.2018355
0.7926196,-0.3726793,-0.05108136,-0.1588275,-0.009742374,0.2000787,-0.378748,-0.1162603,0.1196023
0.889747,-0.3180796,-0.08622437,-0.06162428,0.04496805,0.1650891,-0.3988815,-0.007208037,0.05261523
0.9644385,-0.2963839,-0.1090069,0.01320621,0.06678072,0.1424331,-0.5172624,0.1946822,0.003194552
1.00435,-0.2893798,-0.1295421,0.05331612,0.07390451,0.1219912,-0.6893875,0.2881574,-0.05303077
1.042452,-0.3746326,-0.127721,0.09167079,-0.01122925,0.1238674,-0.6158218,0.1926533,-0.06358484
1.060897,-0.4597718,-0.09153231,0.1104137,-0.09625134,0.1600689,-0.3988529,0.1213159,-0.07836822
1.154254,-0.4662671,-0.04795972,0.2041032,-0.1026294,0.2036075,-0.1250824,0.2370034,-0.1273618
1.199598,-0.46256,-0.03741889,0.2498042,-0.09880063,0.2140618,-0.006751357,0.2851799,-0.1477667
1.22649,-0.518353,-0.1502883,0.2770631,-0.1544628,0.1010476,0.02075588,0.1511729,0.02080271
1.332146,-0.7239857,-0.4079621,0.3830794,-0.3599486,-0.156831,0.364515,0.136318,0.3246929
1.313907,-0.8662798,-0.6365421,0.3651784,-0.5020674,-0.3856688,0.8234792,0.5009471,0.4132155
1.045359,-0.6849663,-0.5900015,0.09692828,-0.320533,-0.3394222,0.8738788,1.038515,0.3000222
0.6759202,-0.3799905,-0.4053004,-0.2722588,-0.01527638,-0.155032,0.4249396,1.070136,0.1852756
0.6005077,-0.2578141,-0.3411054,-0.3474609,0.1072448,-0.09114996,-0.1236747,0.3530737,-0.04635099
0.7898518,-0.3028326,-0.3114275,-0.1579326,0.06262921,-0.06177889,-0.3963981,-0.5351603,-0.3524306
0.8516893,-0.4244652,-0.2812713,-0.09592342,-0.05855031,-0.03191868,-0.2577876,-0.8329449,-0.4632285
0.8721955,-0.6098226,-0.2330213,-0.07525012,-0.2434087,0.01604853,0.1819929,-0.4061863,-0.4893529
0.8689513,-0.6425819,-0.1695624,-0.07832706,-0.2756205,0.07923768,0.6550375,-0.09233541,-0.6294179
0.7630373,-0.4510398,-0.2223642,-0.1840693,-0.08347635,0.02617733,0.8578369,-0.2524077,-0.7163578
0.7505159,-0.2363348,-0.2506118,-0.1964085,0.1318871,-0.002319992,0.5952603,-0.4641209,-0.6748939
0.7691914,-0.1013472,-0.2304432,-0.1775324,0.2675829,0.01760666,0.3503678,-0.7637513,-0.5182106
0.7799666,-0.1029245,-0.2666977,-0.1665307,0.2667492,-0.01888213,0.3640765,-0.880064,-0.2325064
0.8455169,-0.1693725,-0.2418378,-0.1007219,0.2010627,0.005751152,0.3300049,-0.6008736,-0.03964539
0.8778357,-0.2252776,-0.2208777,-0.06810901,0.1459224,0.02649237,0.4266976,-0.4550449,0.01653463
0.9075944,-0.2795881,-0.2418198,-0.03801925,0.09236827,0.005338579,0.5357756,-0.3214411,0.06041599
0.9209354,-0.2837653,-0.2260649,-0.0243111,0.08893124,0.02088829,0.537329,-0.06320742,0.04470972
0.9128484,-0.2711292,-0.2066613,-0.03199642,0.1022853,0.04009233,0.6057989,-0.03134863,0.03299076
0.9266633,-0.246955,-0.1769738,-0.01774774,0.1271496,0.06958437,0.5294626,-0.1901454,0.06022638
0.9249798,-0.2176304,-0.1606237,-0.01896735,0.1571309,0.08574057,0.4872456,-0.3235256,0.040577
0.9746407,-0.2388795,-0.1220827,0.03118455,0.1364985,0.1240856,0.556513,-0.200584,-0.02203142
1.092428,-0.2472256,-0.05144396,0.1494857,0.128723,0.1945211,0.5763525,-0.04519705,-0.1689658
1.199308,-0.1884532,-0.06914529,0.2568946,0.1880143,0.1766026,0.5840176,-0.1185351,-0.3226567
1.219736,-0.07776657,-0.1505305,0.2778528,0.2991615,0.0949792,0.2595402,-0.1619606,-0.2874321
1.180798,-0.02756012,-0.2309791,0.2394342,0.3497606,0.01426709,-0.2658545,-0.2224803,-0.11498
1.194772,-0.1863622,-0.3046539,0.2539007,0.1912723,-0.05969686,-0.5381267,-0.2803169,-0.01872907
1.162944,-0.4668545,-0.3956223,0.2225271,-0.08899214,-0.1509763,-0.7224781,-0.2371305,-0.1989055
0.986428,-0.6285809,-0.5152989,0.0464182,-0.2505737,-0.2709775,-1.019529,-0.303281,-0.5484777
0.7517162,-0.635648,-0.5265799,-0.1879379,-0.2575663,-0.2825845,-1.129341,-0.4146038,-0.6898137
0.7063753,-0.6645222,-0.4270529,-0.2329685,-0.2864191,-0.1833709,-0.7842251,-0.4523062,-0.5925539
1.037429,-0.7456949,-0.3928682,0.09835922,-0.3676053,-0.1494756,-0.09488973,-0.1115048,-0.3589643
1.400186,-0.7325633,-0.4153669,0.4613578,-0.3545028,-0.172231,0.7302596,0.8044981,-0.06066013
1.391457,-0.5555769,-0.4158497,0.4528266,-0.1775431,-0.1729311,0.9046479,1.325172,0.03125011
1.061998,-0.2211109,-0.3814077,0.1235051,0.1569104,-0.1386606,0.2030093,0.6675066,0.1171069
0.7594524,0.05257913,-0.3193828,-0.178972,0.4306009,-0.0767568,-0.2651157,-0.1194277,0.5174451
0.7377257,-0.06121323,-0.2546297,-0.2006951,0.3168088,-0.01207222,-0.2863318,-0.02535277,0.7898023
0.7225329,-0.3113801,-0.1658699,-0.2159366,0.06662603,0.07667017,-0.2444542,0.1995499,0.7083831
0.597474,-0.3591745,-0.1241924,-0.341081,0.01879051,0.118376,-0.2216792,0.1628819,0.5766028
0.6405087,-0.3754629,-0.184706,-0.2981518,0.002434019,0.05792916,-0.3701475,0.2623137,0.4236903
0.7179405,-0.334708,-0.2107113,-0.2208284,0.04309478,0.03202189,-0.41087,0.2222021,0.298067
0.7434149,-0.2741708,-0.1645177,-0.1954515,0.1035125,0.07833931,-0.3407833,0.1238363,0.2934196
0.8177307,-0.3221513,-0.1148569,-0.121212,0.05538585,0.1281441,-0.3312393,0.03145476,0.2771657
0.7889806,-0.3011225,-0.08217064,-0.1500099,0.07624055,0.1609874,-0.3252107,-0.2514595,0.2378703
0.767796,-0.3268636,-0.0752692,-0.1712083,0.05029621,0.1680504,-0.3757384,-0.2579051,0.1885825
0.8511223,-0.3635856,-0.07510516,-0.08785649,0.01334169,0.1683715,-0.3173131,-0.07749474,0.1196103
0.9154953,-0.2932183,-0.08198216,-0.02341549,0.08344771,0.1616383,-0.3014186,0.07009882,0.05935416
1.01422,-0.3071715,-0.1157581,0.07541868,0.06920455,0.1279853,-0.4487204,0.2402185,-0.01950724
1.050125,-0.3477814,-0.1423202,0.1114711,0.02827579,0.1015189,-0.5165292,0.1273693,0.000991376
1.066236,-0.490855,-0.1074846,0.1277595,-0.1151445,0.1364186,-0.4249369,-0.007057727,0.1110259
1.179106,-0.6605224,-0.03700409,0.2408284,-0.2851801,0.2069266,0.02484962,0.03545052,0.1301847
1.192693,-0.6203124,-0.02439058,0.2546222,-0.2453482,0.2195252,0.5934117,0.03289682,0.06421633
1.200499,-0.618459,-0.1516686,0.2626308,-0.2438687,0.09218306,0.7831109,0.09873536,0.00832158
1.233723,-0.6732943,-0.4130043,0.2960402,-0.2990593,-0.1692685,0.8098238,0.2628072,0.1213209
1.103357,-0.6301308,-0.5999123,0.1658292,-0.2562195,-0.3563375,1.124751,0.5770122,0.2557301
0.8985205,-0.5076549,-0.5565964,-0.03889262,-0.1340237,-0.3132126,1.350904,0.9309694,0.1464927
0.7077578,-0.2829974,-0.4513508,-0.2295796,0.09040361,-0.2081698,0.7587958,0.830873,0.05388841
0.6575444,-0.1147044,-0.3926826,-0.2797483,0.2585144,-0.1497014,-0.1105832,0.3849647,0.05802178
0.7617049,-0.158607,-0.3249798,-0.1755608,0.214467,-0.08218576,-0.5225313,-0.0962394,-0.0167475
0.8610079,-0.3191005,-0.3049284,-0.07623633,0.05385403,-0.06230281,-0.6182811,-0.5515795,-0.08835915
0.935587,-0.449509,-0.2892575,-0.001634375,-0.07665666,-0.04677874,-0.2890078,-0.4556048,-0.2238131
0.8782001,-0.4792404,-0.2062404,-0.05899422,-0.1064741,0.03611463,0.3219668,-0.08540875,-0.467576
0.7441965,-0.4757067,-0.1669361,-0.1929639,-0.1030076,0.07531694,0.6274724,-0.1646291,-0.6581555
0.7277469,-0.4696433,-0.1903171,-0.2093671,-0.09698826,0.0518522,0.6300857,-0.2908295,-0.7181765
0.7482431,-0.2815043,-0.2581909,-0.1888038,0.09113202,-0.01609069,0.5037234,-0.5430416,-0.6197947
0.7713201,-0.08135561,-0.3289206,-0.1656305,0.2912845,-0.08687645,0.312586,-0.8039219,-0.4075436
0.8073936,-0.1657545,-0.3122919,-0.1294248,0.2069021,-0.0702893,0.3427477,-0.5511313,-0.1678572
0.8340452,-0.2546921,-0.2800483,-0.1026007,0.1179819,-0.03807045,0.5304924,-0.3882648,-0.03338659
0.8986288,-0.2638625,-0.2487359,-0.0378017,0.1088207,-0.006764331,0.6241452,-0.2502927,-0.03332684
0.930877,-0.3169599,-0.2047718,-0.005295496,0.05571872,0.03721166,0.6744932,-0.1169952,0.02326776
0.9133098,-0.248551,-0.2021573,-0.02256404,0.1241056,0.03985422,0.618907,-0.3338536,0.1035946
0.9502874,-0.1497794,-0.192908,0.01474958,0.2228335,0.04914485,0.532247,-0.3138511,0.1161886
0.9990377,-0.1506286,-0.1771508,0.06386961,0.2219121,0.06495317,0.4722755,-0.1628347,0.1382321
0.9969704,-0.1656657,-0.1501755,0.06220029,0.2067657,0.09198542,0.3937739,-0.04414265,0.1115991
1.019617,-0.1787289,-0.06414193,0.08526755,0.1935482,0.1780766,0.4414066,0.06546683,0.04296891
1.075011,-0.1674604,-0.03047865,0.1410966,0.2046106,0.2117912,0.3622457,-0.1068892,-0.03496048
1.097677,-0.1233999,-0.1376153,0.1642051,0.248407,0.1046908,0.04169541,-0.2081003,-0.1253511
