accx,accy,accz,body_accx,body_accy,body_accz,body_gyrox,body_gyroy,body_gyroz
0.7290719,-0.07266721,0.1909146,-0.2698755,0.1171444,0.02468594,-0.8837618,0.7385057,-0.07908475
0.7435682,-0.1041217,0.2278587,-0.2554913,0.08656273,0.06162335,-0.8428061,0.5867347,0.000837121
0.7242934,-0.1395133,0.2632294,-0.2748609,0.05203436,0.09699805,-0.7854277,0.2522385,0.03050717
0.732635,-0.1542813,0.2622907,-0.266584,0.03811459,0.09606935,-0.6663024,-0.06675754,0.02268496
0.7600037,-0.130782,0.2807275,-0.2392384,0.06244325,0.1145169,-0.5425102,-0.2047937,0.04653962
0.7896366,-0.07694333,0.3310107,-0.209577,0.1170885,0.1648056,-0.4220641,-0.3134314,0.04241647
0.8313995,-0.0225918,0.3571247,-0.1677263,0.1722184,0.1909131,-0.3505463,-0.4607093,0.03581398
0.8798421,-0.04798397,0.3347031,-0.1191316,0.1475693,0.1684652,-0.372567,-0.484488,-0.04749971
1.021297,-0.1242727,0.3018519,0.02254186,0.07198153,0.1355603,-0.421439,-0.4233962,-0.2386167
1.155908,-0.1667366,0.2761736,0.1574335,0.03017213,0.1097954,-0.5230065,-0.3756778,-0.3036068
1.165892,-0.170732,0.2381455,0.1677513,0.02678312,0.07164412,-0.591931,-0.259893,-0.1970284
1.21238,-0.1421323,0.2275048,0.2146148,0.05594106,0.06084179,-0.4765146,-0.08901548,-0.08362542
1.258651,-0.03292878,0.2933329,0.2612868,0.1656537,0.1264691,-0.3156823,0.09680313,-0.1105928
1.215129,0.0960558,0.4046709,0.2181786,0.2950942,0.2375647,-0.2812932,0.3387161,-0.2671623
1.244283,0.02903664,0.4148625,0.2477439,0.2284696,0.2474671,-0.3336778,0.5001863,-0.3745599
1.305734,-0.2266024,0.2756477,0.3095913,-0.02684389,0.1079095,-0.3500083,0.422801,-0.2313306
1.31464,-0.4933826,0.1410458,0.318862,-0.2933674,-0.02709204,-0.2292975,0.3728066,0.0597399
1.321858,-0.6573114,0.09041744,0.3264009,-0.4570964,-0.07817447,-0.03172074,0.5009559,0.1128603
1.206879,-0.5776301,0.1249753,0.2116837,-0.3772514,-0.04411829,0.0273579,0.5343444,-0.04247127
0.9370586,-0.372577,0.1876108,-0.05794077,-0.1720495,0.01797528,-0.1682495,0.4998998,-0.1891093
0.6902618,-0.2441145,0.1937381,-0.3046078,-0.04343833,0.02352559,-0.5118934,0.3139185,-0.239284
0.6557388,-0.175546,0.1747431,-0.3390543,0.02528453,0.00392218,-0.7590692,-0.2068149,-0.05661676
0.7591079,-0.2081417,0.1485732,-0.2356442,-0.0071504,-0.02288415,-0.7481099,-0.6645306,0.1611298
0.8140146,-0.2712284,0.1089772,-0.1807151,-0.07007042,-0.06314023,-0.5228819,-0.7899156,0.1966707
0.9489177,-0.3514043,0.06843332,-0.04579646,-0.1500723,-0.104362,-0.2283887,-0.6356653,0.1247843
0.995145,-0.4270588,0.05321497,0.0004458789,-0.2255407,-0.1202687,-0.02326537,-0.4960235,0.01428024
0.8534401,-0.3147923,0.0732423,-0.1412415,-0.1130689,-0.100932,0.0654401,-0.5423165,-0.04272746
0.8722887,-0.2113106,0.07165889,-0.1223693,-0.00935726,-0.1032009,0.1245429,-0.380652,0.01233788
0.8850328,-0.1444267,0.05493901,-0.1095902,0.05778252,-0.1205939,0.1264428,-0.1222408,0.1300983
0.8651507,-0.05848986,0.04663906,-0.1294207,0.1439972,-0.129548,0.07063164,-0.0610137,0.1847532
0.9507128,-0.09915992,0.05078195,-0.043786,0.1036203,-0.1260335,0.03241396,-0.01761164,0.2151483
0.9440238,-0.0562274,0.06941204,-0.05037869,0.1468531,-0.1079997,-0.06608526,-0.03245205,0.2948443
0.9824005,0.006440986,0.06501133,-0.01188126,0.2098205,-0.1129593,-0.225966,-0.05662318,0.3301937
1.023807,-0.0146893,0.05744903,0.02967005,0.1889784,-0.1210383,-0.300755,0.006723466,0.3595716
0.988711,0.00384555,0.05517109,-0.005260519,0.2077806,-0.1237865,-0.2837275,0.06182184,0.3208838
1.024015,-0.05742681,0.06062679,0.03022812,0.1467457,-0.1187504,-0.1997692,0.1446002,0.2081527
1.020591,-0.1283843,0.101736,0.02700478,0.07598851,-0.07800671,-0.07612151,0.1957616,0.1619727
1.028199,-0.1725563,0.1499159,0.03482693,0.03197601,-0.03013631,-0.02907921,0.1791355,0.08719357
1.037389,-0.1771429,0.1774738,0.0442413,0.02750749,-0.002832263,-0.1314081,0.1269161,0.05238525
0.998462,-0.07203699,0.1544001,0.005545413,0.1326902,-0.02610621,-0.3192071,0.001323581,0.1043091
1.026482,-0.02710075,0.1201315,0.03380064,0.1776603,-0.06052374,-0.4111701,-0.1138503,0.1349276
1.079555,-0.05438483,0.1280117,0.08711063,0.1503631,-0.05274232,-0.33764,-0.1779929,0.1919574
1.190197,-0.130007,0.1270556,0.1979868,0.07467638,-0.05374771,-0.2082465,-0.1602968,0.1843889
1.293413,-0.2600161,0.1290432,0.3014267,-0.05544974,-0.05176073,-0.1528173,-0.09629243,-0.01284984
1.295356,-0.3711179,0.1530772,0.3035707,-0.1667173,-0.02767948,-0.2741107,-0.1713833,-0.3893509
1.2426,-0.4140392,0.1518881,0.2509785,-0.2098439,-0.02877504,-0.5382443,-0.2840767,-0.7178848
1.086363,-0.38712,0.1003718,0.09485922,-0.1831571,-0.08015318,-0.6734865,-0.3069928,-0.7593471
0.9524492,-0.4600886,0.04617495,-0.03899042,-0.2563725,-0.1341678,-0.442281,-0.213833,-0.7086039
0.9637245,-0.5683092,0.09761449,-0.02770233,-0.3648403,-0.0825007,-0.02529172,0.1247544,-0.6933989
1.068311,-0.5484996,0.1660622,0.07684973,-0.3452621,-0.01377922,0.2498777,0.5195103,-0.579152
1.205093,-0.4273284,0.1519994,0.2135507,-0.2242902,-0.02752337,0.2400966,0.6572363,-0.3617193
1.227739,-0.2027204,0.1913746,0.2360655,0.0001622109,0.01221269,-0.05482637,0.4771031,-0.1108159
1.108332,-0.1023799,0.2378912,0.1164722,0.1003939,0.05912812,-0.3749064,0.262723,0.03330544
0.9706529,-0.1856801,0.2033916,-0.02145218,0.01702816,0.02506022,-0.4753944,0.3124668,-0.04808056
0.9108086,-0.2048389,0.2072691,-0.08159877,-0.002158318,0.02939688,-0.4453288,0.4252768,-0.1701346
0.8932536,-0.1862461,0.2218048,-0.09950609,0.01644106,0.04441405,-0.4481445,0.5790226,-0.1565245
0.8127574,-0.163408,0.2032737,-0.1803954,0.03931676,0.02638216,-0.5026108,0.760347,-0.1419486
0.7197841,-0.09282037,0.2046296,-0.2737908,0.1099689,0.02825059,-0.5744844,0.6772471,-0.1093866
0.6712647,-0.06041586,0.1993256,-0.3227465,0.1424589,0.0234685,-0.6637445,0.5346376,0.01042298
0.6601788,-0.09073129,0.2134725,-0.3342657,0.1122422,0.03814325,-0.6690298,0.382799,0.06189556
0.6918975,-0.1267594,0.2531432,-0.30296,0.07631865,0.07834398,-0.5582979,0.147348,0.08429929
0.7115557,-0.1605143,0.2759521,-0.2836786,0.04266873,0.1016803,-0.4103841,0.01902749,0.1280322
0.7100373,-0.1604258,0.3184719,-0.285524,0.042859,0.1447192,-0.1959412,-0.203236,0.134861
0.7310571,-0.09909751,0.3516322,-0.2647691,0.1042828,0.1783828,-0.02374297,-0.5079231,0.1094842
0.7987277,-0.07383061,0.3443327,-0.1972914,0.1296354,0.1715628,0.01798931,-0.6770392,0.004268574
0.9374498,-0.1052417,0.3352718,-0.05868397,0.09829517,0.1629491,0.02059173,-0.7823412,-0.1254804
1.114585,-0.1523632,0.2860698,0.1184154,0.05122501,0.1141547,-0.01053379,-0.7388453,-0.2140631
1.261871,-0.1923383,0.1975062,0.2657378,0.01127941,0.02595443,-0.0515256,-0.5124138,-0.1921494
1.361902,-0.1683541,0.1653367,0.3658617,0.0352707,-0.005897741,-0.04953385,-0.1845267,-0.005859169
1.407001,-0.1508464,0.1885718,0.4110898,0.05276294,0.01761016,0.04100899,0.09534577,0.122516
1.386125,-0.1689691,0.1903974,0.3903589,0.03460197,0.01966578,0.1284534,0.1806975,0.05436534
1.376845,-0.1505094,0.2025492,0.3812154,0.05300028,0.03200651,0.01066245,0.3369257,-0.0183944
1.414097,-0.1042131,0.3064694,0.4185777,0.09921099,0.136075,-0.1751922,0.5297579,0.06601773
1.3928,-0.1196963,0.38724,0.3973441,0.08361643,0.216951,-0.1560857,0.442107,0.1316478
1.252338,-0.3664386,0.2686337,0.2568836,-0.1632638,0.09840237,0.1244033,0.3701551,0.1280628
1.035005,-0.6156789,0.1223948,0.03947725,-0.4126625,-0.04782987,0.4121805,0.4223953,0.1831957
0.8340672,-0.4136785,0.1601151,-0.1616098,-0.2108272,-0.01015269,0.3283125,0.3639921,0.05839817
0.6996585,-0.1396334,0.1815994,-0.2962345,0.06305965,0.01124297,0.04965281,0.2745426,-0.144787
0.681054,-0.2092113,0.1129965,-0.315106,-0.006664061,-0.05748992,-0.1456911,0.04135593,-0.07542168
0.8023138,-0.2166216,0.1077346,-0.1941457,-0.01420781,-0.06291843,-0.3254208,-0.3525425,0.1051595
0.8948083,-0.2115766,0.08693844,-0.1019677,-0.009284452,-0.08391194,-0.2821643,-0.6257261,0.2776231
0.9261047,-0.4076434,0.06890734,-0.07099417,-0.2054598,-0.1021644,-0.04153196,-0.7564315,0.3317413
0.9365248,-0.4201309,0.09609618,-0.06089725,-0.2180376,-0.07521425,0.1447592,-0.7313335,0.1846998
0.8590531,-0.3362473,0.06762219,-0.1386873,-0.1342182,-0.1039375,0.3623221,-0.6854995,0.05928938
0.8337777,-0.3030771,0.06731465,-0.1642704,-0.1010789,-0.1044988,0.4769255,-0.7186608,0.01273771
0.8705618,-0.1722347,0.06645017,-0.127776,0.02976918,-0.1056152,0.5088532,-0.5840623,0.05406693
0.8926992,-0.1134369,0.02229855,-0.1059039,0.08860838,-0.1500107,0.5578631,-0.3661111,0.1710542
0.9530644,-0.1038449,0.04316348,-0.04577441,0.09827252,-0.129375,0.4818753,-0.1765506,0.2387705
0.9680366,-0.06902371,0.05356602,-0.03100619,0.1331895,-0.1191807,0.4347317,-0.02492181,0.3175133
0.9709044,-0.03621907,0.04667949,-0.02830982,0.1661054,-0.1262488,0.3017915,-0.04943957,0.3859437
0.9947878,0.02377094,0.05482783,-0.004565848,0.2262128,-0.1182504,0.02762334,-0.05019392,0.4168977
1.004283,0.003033233,0.03473215,0.004820999,0.2055882,-0.13846,-0.1261979,0.0307179,0.4814016
1.028427,-0.02817779,0.04322182,0.02888579,0.1744754,-0.1300438,-0.1949966,0.06665159,0.4576301
1.018652,-0.07816003,0.06795789,0.01905667,0.1245676,-0.1053369,-0.1136537,0.1378714,0.3841485
1.038448,-0.1997559,0.09102043,0.03882368,0.003016906,-0.08225639,0.03537899,0.1772748,0.3383405
1.08935,-0.2401292,0.1267387,0.08971514,-0.03734198,-0.0464717,0.1588358,0.1724895,0.2474723
1.100211,-0.2633659,0.1537554,0.1005814,-0.06059243,-0.01934057,0.2636902,0.158598,0.1784806
1.067215,-0.2089455,0.1674526,0.06760006,-0.006210063,-0.005482764,0.1441848,0.07064878,0.09934484
0.9942562,-0.03104035,0.1535462,-0.005338575,0.1716351,-0.01918552,0.02895918,-0.08636499,0.04410421
1.037347,-0.0202343,0.1479727,0.03777482,0.1823571,-0.02451498,0.06339713,-0.2883731,0.08200925
1.177636,-0.1304984,0.1271075,0.1780863,0.07197942,-0.04509832,0.1145971,-0.3399196,0.06242991
1.293162,-0.2159078,0.08200286,0.2936296,-0.01357654,-0.08988474,0.2369784,-0.1447266,-0.02130684
1.331379,-0.3431281,0.1055574,0.3318464,-0.1409749,-0.06597589,0.246431,0.009904794,-0.2248468
1.188975,-0.4311932,0.128209,0.1894114,-0.2292429,-0.04293402,0.07536911,-0.04978454,-0.5641539
0.9957035,-0.4794519,0.1156295,-0.003930491,-0.2777178,-0.05508775,-0.1064129,-0.1521589,-0.7994956
0.8615218,-0.5128198,0.1400674,-0.1382246,-0.3113011,-0.03018984,-0.1358905,-0.2093567,-0.8641408
0.8665294,-0.4905366,0.144628,-0.1333652,-0.289217,-0.02513685,0.1538834,-0.2320724,-0.7826303
1.08146,-0.5003004,0.1233155,0.08138915,-0.2991491,-0.04592629,0.5287247,0.08905639,-0.5840799
1.269265,-0.421879,0.1282831,0.268992,-0.2208519,-0.04040686,0.5841822,0.5863447,-0.3019643
1.309226,-0.2010787,0.1610502,0.30872,-0.0001229073,-0.007061045,0.2360136,0.6028278,0.03318088
1.156425,-0.08692691,0.2054298,0.1556444,0.1140125,0.0379218,-0.2194008,0.4528827,0.1861059
0.9146037,-0.1149198,0.2105978,-0.08649811,0.08605278,0.04371337,-0.4438797,0.5012033,0.05754371
0.8434815,-0.1638704,0.2012255,-0.1579869,0.03717706,0.03498022,-0.5192251,0.4660665,-0.11408
0.8040999,-0.1571637,0.2170456,-0.1977712,0.04399375,0.05144985,-0.5815056,0.5557995,-0.180401
0.7467405,-0.1262453,0.207869,-0.2555563,0.0750519,0.04292847,-0.5985056,0.7644094,-0.1966959
0.7332986,-0.1010883,0.18715,-0.2694328,0.1003725,0.02286595,-0.6425361,0.7497684,-0.1489052
0.6842173,-0.0590124,0.1897355,-0.3189422,0.1426292,0.02610563,-0.7119414,0.685506,-0.05253908
0.6800689,-0.09379051,0.1993268,-0.3234964,0.1080414,0.03634564,-0.6969481,0.5377087,-0.01174725
0.7095999,-0.1552553,0.2313118,-0.2943333,0.04676937,0.0689707,-0.5747231,0.1808045,0.04122777
0.7453775,-0.1959443,0.2789987,-0.2588717,0.006271064,0.1172849,-0.3517906,-0.09434146,0.0852105
0.7754412,-0.2269428,0.3209515,-0.2290609,-0.02454086,0.1598467,-0.0843183,-0.2102114,0.05330966
0.7647545,-0.1514267,0.3496347,-0.2399282,0.05115719,0.1891132,0.1079753,-0.3808236,0.05893349
0.8225676,-0.08797056,0.3485333,-0.1822163,0.1147893,0.1885607,0.2164862,-0.6053776,0.02888654
0.9509267,-0.09592788,0.3316399,-0.05387463,0.1069981,0.1721737,0.2584268,-0.6640502,-0.0745711
1.093369,-0.117679,0.2931055,0.08863411,0.08539833,0.1340956,0.1833775,-0.5751962,-0.1276455
1.205611,-0.1638408,0.2542172,0.2010185,0.03936905,0.09560826,0.06068988,-0.467356,-0.1141496
1.265898,-0.1571406,0.2716395,0.261511,0.04618056,0.1133727,0.02229055,-0.2790291,-0.01875122
1.299642,-0.1205961,0.3207256,0.2955077,0.0828137,0.1627395,0.1311762,-0.07899113,0.06334052
1.302061,-0.02890111,0.3981667,0.2982081,0.1745722,0.2403962,0.2319522,0.04573326,0.01556205
1.382906,0.09643284,0.4694211,0.379345,0.2999388,0.3117945,0.07561956,0.2332094,-0.09271714
1.471956,0.006135668,0.4048701,0.468678,0.2096347,0.2473072,-0.09716383,0.4297724,-0.118304
1.352698,-0.2780674,0.2159434,0.3496717,-0.07462258,0.05835701,0.002142104,0.3851945,0.06300582
1.194552,-0.4839525,0.07993762,0.1917308,-0.2806084,-0.07776053,0.1603017,0.2983389,0.2853551
1.115414,-0.446301,0.1426021,0.1127375,-0.2430933,-0.0152905,0.2698118,0.3847759,0.2356982
0.9288074,-0.334218,0.239597,-0.07378678,-0.131168,0.08143473,0.3116879,0.3564959,0.03618166
0.7544451,-0.3067634,0.1484474,-0.2481261,-0.1038805,-0.01005438,0.1530894,0.2511477,-0.07454806
0.7527738,-0.1819248,0.09560939,-0.2498223,0.02078845,-0.06329645,-0.1096256,0.1399186,-0.1175097
0.7836111,-0.1376355,0.1423578,-0.2190425,0.06490832,-0.01700995,-0.3298915,-0.1139743,-0.007524612
0.8574628,-0.2734247,0.09170045,-0.1452669,-0.07105007,-0.06817954,-0.3985957,-0.2957025,0.1650337
0.906218,-0.2872278,0.09237609,-0.09659563,-0.08502132,-0.06805889,-0.2538491,-0.515762,0.1820031
0.8623281,-0.3625715,0.1087717,-0.1405693,-0.1605279,-0.05225332,-0.06219158,-0.7236071,0.1671787
0.8688824,-0.4326685,0.05014387,-0.1340922,-0.2307759,-0.1114986,0.1048132,-0.6541584,0.117095
0.8355082,-0.3255309,0.06778478,-0.16753,-0.1237689,-0.09449463,0.3157189,-0.6841201,0.04774915
0.8358995,-0.3176552,0.06344652,-0.167182,-0.1159959,-0.0994812,0.4842014,-0.6387911,0.08632816
0.9128846,-0.2196101,0.03100472,-0.09021306,-0.01802106,-0.1325748,0.5436389,-0.3299158,0.1348215
0.8891259,-0.103653,0.04225125,-0.1139561,0.09789891,-0.1219755,0.5563286,-0.2279373,0.2004627
0.9159573,-0.1485201,0.04545044,-0.08707388,0.05302409,-0.1194113,0.5289473,-0.1705718,0.2496477
0.9602877,-0.06928441,0.07781154,-0.04265556,0.132276,-0.08766605,0.4043208,-0.09167312,0.2741838
0.955195,-0.03032938,0.07995025,-0.04762244,0.1712639,-0.08611831,0.2022911,-0.1611495,0.3919799
0.9890282,-0.02223648,0.06050906,-0.0136264,0.1793977,-0.106121,0.03381956,-0.1360153,0.5079199
0.9811302,0.03493241,0.06730179,-0.02132592,0.2366056,-0.09985593,-0.02273214,-0.04497354,0.5651204
1.006381,-0.05062171,0.05404504,0.004156815,0.1510786,-0.1136023,0.01196162,0.06039643,0.5674086
1.041536,-0.1150581,0.06193139,0.03957405,0.08664901,-0.1061634,0.1001964,0.166752,0.4910779
1.063426,-0.16701,0.09174321,0.06175233,0.03467863,-0.07675331,0.2219831,0.1625758,0.3450154
1.144947,-0.2228859,0.1495317,0.1435834,-0.02124235,-0.01931872,0.2698316,0.1675191,0.1464263
1.153836,-0.1703552,0.198543,0.1527952,0.03121774,0.02938644,0.1585113,0.131168,0.0149508
1.116952,-0.09628938,0.1668934,0.1162387,0.1051884,-0.002523852,-0.008598392,-0.01197163,0.01246142
1.110428,-0.007682755,0.1485305,0.1100391,0.1936735,-0.02110485,-0.08674804,-0.1602771,0.07212691
1.159562,-0.02560456,0.1598546,0.1594854,0.1755991,-0.009958423,-0.01286106,-0.2610675,0.09754543
1.278685,-0.1810166,0.1446858,0.2789037,0.01999803,-0.02526622,0.1057339,-0.1663189,0.01223938
1.323816,-0.3243545,0.1302557,0.3243002,-0.1235665,-0.03979795,0.09011981,-0.03189392,-0.2345157
1.225388,-0.4289732,0.109989,0.2260966,-0.2284436,-0.06012952,-0.03873223,-0.09380167,-0.6011943
0.9958418,-0.437349,0.07721085,-0.003278233,-0.2370983,-0.09293573,-0.2235231,-0.1195466,-0.8420628
0.8093493,-0.4439886,0.06425359,-0.1896528,-0.2440239,-0.1058829,-0.2982045,-0.06952211,-0.8687144
0.8815112,-0.5245296,0.09236505,-0.1174201,-0.3248436,-0.07772115,-0.01654814,-0.009469474,-0.7876856
1.063227,-0.5325856,0.1275734,0.06432749,-0.3331562,-0.04242109,0.322588,0.2804342,-0.587626
1.179376,-0.4319754,0.127478,0.1804745,-0.2327654,-0.04238317,0.3162717,0.5391885,-0.3284105
1.215913,-0.2429059,0.1383818,0.2169714,-0.04386714,-0.03130567,0.08239646,0.361469,-0.03740721
1.106458,-0.1080587,0.1725384,0.1074339,0.09086108,0.003063368,-0.1591968,0.1794035,0.1883689
0.9497867,-0.1406215,0.1725271,-0.04936824,0.05822823,0.003300657,-0.3115241,0.327803,0.02169402
0.8958367,-0.1552545,0.1786682,-0.1034941,0.0435678,0.009723205,-0.4261078,0.4399648,-0.2778569
0.8494442,-0.1052782,0.2094273,-0.1501005,0.09355317,0.04079298,-0.595246,0.5706783,-0.292607
0.7811413,-0.07804634,0.1969452,-0.2186458,0.1208242,0.02864648,-0.7509629,0.8143389,-0.2944375
0.7300828,-0.05721369,0.1812307,-0.2699626,0.1417183,0.0132884,-0.8389938,0.7737059,-0.2826453
0.6909589,-0.06221264,0.1955348,-0.3093465,0.1367949,0.02796599,-0.8692806,0.6282925,-0.1338322
0.7110296,-0.09354988,0.2012976,-0.2895223,0.1055391,0.03411587,-0.820531,0.490204,-0.11625
0.7390628,-0.1508199,0.2308939,-0.2617071,0.04834996,0.06410894,-0.6506941,0.1462732,-0.09110209
0.7603572,-0.2118794,0.2818884,-0.2405898,-0.0126333,0.1155056,-0.3461584,-0.06903599,0.014284
0.7747769,-0.1848945,0.3133383,-0.2262955,0.01442195,0.1473566,-0.02977629,-0.2300426,0.06290415
0.7688191,-0.1073929,0.3345566,-0.2323182,0.09198725,0.1689676,0.1252196,-0.502318,0.172919
0.8301763,-0.06230497,0.3397617,-0.1709582,0.1371297,0.1745483,0.1189306,-0.5887958,0.2031855
0.8997447,-0.04340725,0.3307115,-0.1013142,0.1560678,0.1658483,0.02274825,-0.6126232,0.113694
0.937029,-0.05007885,0.3254737,-0.06387992,0.149416,0.1609273,-0.1208532,-0.5755653,0.03036627
0.9871489,-0.06083883,0.3133088,-0.01353697,0.1386491,0.1490391,-0.1663038,-0.3597625,-0.05208132
1.136383,-0.08742954,0.2620475,0.1359884,0.1120193,0.09800884,-0.06239308,-0.1278562,0.01240508
1.350743,-0.1172255,0.2314397,0.3506984,0.08214827,0.06758289,0.09087085,0.05820036,0.07990818
1.279484,-0.02825507,0.3700261,0.2798317,0.1710047,0.2062993,0.2031931,0.134328,-0.03005194
1.156864,0.06923349,0.5300475,0.1576274,0.2683361,0.3663942,0.1235733,0.3241635,-0.1524508
1.321471,-0.007197356,0.4420762,0.3226582,0.1916982,0.2784305,-0.03207508,0.6261169,-0.1905126
1.352913,-0.1733788,0.2609641,0.354517,0.02525386,0.09725021,0.04326739,0.543872,-0.003234632
1.263471,-0.3934527,0.1607931,0.2654677,-0.1951388,-0.003068429,0.244255,0.3398414,0.2914774
1.214568,-0.5691555,0.1272405,0.2169202,-0.3712065,-0.03684558,0.3290508,0.3459748,0.2837105
0.9908721,-0.508512,0.1872885,-0.006468562,-0.3109573,0.0229073,0.2741326,0.2958083,0.04338235
0.7789187,-0.364264,0.1983411,-0.2181647,-0.167114,0.03360015,0.1255805,0.2646219,-0.113921
0.7097368,-0.2685479,0.1529385,-0.2871315,-0.07179914,-0.01222184,-0.0950091,0.1835194,-0.07901886
0.7144019,-0.1933602,0.1616411,-0.2822792,0.002998315,-0.00399343,-0.2857309,-0.1452027,0.1384483
0.7912551,-0.2407613,0.1178084,-0.2052516,-0.04477899,-0.04834932,-0.2685433,-0.4991084,0.3671189
0.8560679,-0.3107519,0.1037326,-0.1402645,-0.1151299,-0.06299099,-0.09765774,-0.7983885,0.4195578
0.9052625,-0.3324674,0.1198095,-0.09088706,-0.137186,-0.04751525,0.1077736,-0.8417762,0.2655264
0.894447,-0.3793361,0.06688376,-0.1015058,-0.1843697,-0.1010704,0.2883889,-0.6479446,0.05211603
0.8569873,-0.3102267,0.08511877,-0.1387508,-0.1155429,-0.08348529,0.382652,-0.6093089,-0.02904023
0.865147,-0.1967823,0.08784416,-0.1303545,-0.002343624,-0.08142266,0.4606482,-0.4862202,-0.001831955
0.8638684,-0.1382705,0.04494323,-0.1313699,0.05596157,-0.1249918,0.4605521,-0.2664562,0.07832197
0.9125102,-0.0831507,0.06883744,-0.08243451,0.11091,-0.1017639,0.4283044,-0.1796736,0.2024969
0.9572791,-0.1127978,0.08129876,-0.03733945,0.08112098,-0.08995968,0.4661511,-0.06659994,0.3073517
0.9556618,-0.0986351,0.1011063,-0.03859798,0.09516482,-0.07079402,0.3928442,-0.1156736,0.3767202
0.9865193,-0.03211714,0.1055066,-0.007350203,0.1615804,-0.06701551,0.2673664,-0.196938,0.4107884
1.007052,-0.01695852,0.07493553,0.01360145,0.1766456,-0.09818418,0.1325177,-0.08829283,0.4296792
1.030352,0.03045155,0.07411226,0.03734744,0.2239622,-0.09957664,-0.00190877,-0.04394017,0.4144755
1.042942,-0.009727803,0.06497586,0.05040384,0.1836795,-0.1092494,0.02932881,0.06802777,0.360732
1.038698,-0.1151924,0.08922572,0.04664278,0.07809331,-0.08549868,0.09008729,0.2027492,0.2603991
1.059462,-0.1681674,0.1396029,0.0679011,0.02497348,-0.03558017,0.1648685,0.1649201,0.09686443
1.056991,-0.2064702,0.1428272,0.06593082,-0.01349862,-0.03277257,0.2340508,0.09773569,0.03659836
1.051812,-0.1660544,0.1229191,0.06125317,0.02672499,-0.0530549,0.1409493,-0.0179048,0.06376118
1.053004,-0.07978235,0.103321,0.06294375,0.1127828,-0.0729847,0.08589104,-0.1231557,0.08682401
1.065715,-0.0208764,0.118185,0.07614474,0.1714511,-0.05840876,0.1530499,-0.1849143,0.1649484
1.155718,-0.0961865,0.1450165,0.1666242,0.09587593,-0.03182119,0.2308759,-0.2275229,0.1668179
1.290611,-0.3142155,0.160735,0.3019738,-0.122448,-0.01630263,0.269462,-0.1307379,-0.01157905
1.339573,-0.4266673,0.1843227,0.3513609,-0.2352206,0.007127842,0.1506685,-0.08523606,-0.3455154
1.210087,-0.4387808,0.1657634,0.222254,-0.2476702,-0.01154839,-0.1446519,-0.2505996,-0.676412
1.023549,-0.4530133,0.1269251,0.03603772,-0.2622402,-0.05046521,-0.3323136,-0.3982948,-0.8016287
0.9504284,-0.4949827,0.1222448,-0.03682223,-0.3045341,-0.05518684,-0.09412227,-0.3391447,-0.7880618
1.020824,-0.5889868,0.1407173,0.03377545,-0.3988346,-0.03671863,0.343352,-0.08711776,-0.7115621
1.159371,-0.5627624,0.1812044,0.1724683,-0.372862,0.003800653,0.6120958,0.3068004,-0.5413044
1.208313,-0.4036484,0.2096034,0.2214991,-0.2139396,0.03226629,0.6820725,0.5871998,-0.2586842
1.125706,-0.2086204,0.2171041,0.1389181,-0.01903273,0.03986462,0.4513525,0.403855,0.04089225
0.9823464,-0.0584529,0.2224038,-0.004482028,0.1310854,0.04528882,0.07861824,0.2058076,0.1737086
0.8618029,-0.08549511,0.2149085,-0.1251302,0.1040591,0.03794047,-0.1173742,0.3720285,0.1201255
0.8094558,-0.1150568,0.2132891,-0.1776389,0.0745689,0.0364864,-0.2940559,0.4104582,0.01529197
0.7723705,-0.07608263,0.2047184,-0.2149306,0.1136608,0.02809554,-0.4474823,0.4281367,-0.01766792
0.7545666,-0.08068658,0.1867728,-0.2329719,0.1092121,0.01034133,-0.4967081,0.572009,-0.0514768
0.754571,-0.05247881,0.1960564,-0.2332219,0.1376039,0.01982528,-0.6175134,0.5137488,-0.07890992
0.7526675,-0.06500726,0.2137817,-0.2353829,0.1252793,0.03775783,-0.6490263,0.4852444,-0.02497272
0.7629661,-0.1425857,0.2411653,-0.225332,0.04791652,0.06535279,-0.50415,0.3976163,-0.02521338
0.7613106,-0.1858136,0.270978,-0.2272133,0.004910231,0.09537739,-0.2760582,0.09354864,0.006574263
0.7680812,-0.2112898,0.2719346,-0.2206361,-0.02034111,0.09654189,-0.002399504,-0.06922437,0.08172637
0.7475785,-0.1865254,0.2897276,-0.2412898,0.004650577,0.1145334,0.1331252,-0.2247437,0.0916581
0.7170107,-0.1481292,0.3350793,-0.2719568,0.04327563,0.160069,0.3071255,-0.5218075,0.1427341
0.7879942,-0.113255,0.3519319,-0.2010115,0.07837816,0.1770841,0.5172147,-0.6944554,0.09674355
0.9283554,-0.07689703,0.3393086,-0.06062078,0.1149603,0.1645947,0.4347828,-0.6565956,-0.03518345
1.107804,-0.1159495,0.3240485,0.1189258,0.076123,0.149433,0.3475801,-0.5972492,-0.09442549
1.274089,-0.1326852,0.2923098,0.2853715,0.05958898,0.1177517,0.2951134,-0.4499297,-0.1211263
1.35946,-0.08855929,0.2613255,0.3709499,0.1038994,0.08677966,0.1520719,-0.05514546,-0.03940262
1.375487,-0.02559691,0.3068181,0.3872114,0.1670252,0.1322369,0.204642,0.1899272,0.02236002
1.303308,0.08775141,0.4007706,0.3152728,0.2805094,0.2261034,0.1983437,0.2023995,-0.04065292
1.240113,0.1045683,0.422685,0.252306,0.2974251,0.2478763,0.01795771,0.2623586,-0.05023191
1.268109,-0.07381307,0.3423859,0.2805017,0.1190948,0.167373,-0.0373166,0.2976085,0.04819256
1.27872,-0.3765676,0.2281021,0.2912728,-0.1836618,0.05281808,0.01868338,0.3331116,0.2116218
1.248704,-0.6512307,0.1614251,0.2613642,-0.4583738,-0.01419739,0.3158387,0.3694281,0.2841805
1.191802,-0.6597905,0.1462773,0.2045067,-0.4670113,-0.02974677,0.6614684,0.3763124,0.171734
0.9910384,-0.4730822,0.1474611,0.003718447,-0.2803861,-0.02902126,0.6419033,0.391299,0.002390693
0.7415925,-0.3326416,0.1646269,-0.2458202,-0.1400154,-0.01236384,0.4309072,0.3195639,-0.0933429
0.7089003,-0.2315995,0.1579834,-0.278663,-0.03901897,-0.01955963,0.1522571,0.1115434,-0.06305795
0.7588141,-0.1588289,0.1287083,-0.2289413,0.03373351,-0.04942504,-0.1136762,-0.2814738,0.06128833
0.7569663,-0.1745364,0.1201181,-0.2310064,0.01803422,-0.05863754,-0.1493698,-0.7154894,0.2128873
0.877048,-0.2653456,0.09693768,-0.1111534,-0.07274254,-0.08246538,-0.002270259,-0.8912952,0.2714663
0.9578565,-0.3609216,0.07050713,-0.03057512,-0.1682618,-0.1095611,0.2027629,-0.7860343,0.173041
0.888312,-0.3732506,0.07010424,-0.1003458,-0.1805059,-0.110639,0.3984582,-0.6825105,0.07253997
0.8891971,-0.3131406,0.07012991,-0.09967862,-0.1202773,-0.1112902,0.5727511,-0.6610591,0.07680955
0.8981383,-0.2308215,0.06535456,-0.09094246,-0.03780137,-0.1167364,0.7077514,-0.4278183,0.1242072
0.8719673,-0.136056,0.05600052,-0.1173009,0.05715971,-0.126748,0.736523,-0.1779058,0.190904
0.8978623,-0.08080509,0.06802399,-0.09157108,0.1126415,-0.1153618,0.6760051,-0.1734193,0.2557496
0.9221362,-0.06068947,0.09195206,-0.06743639,0.133016,-0.09204439,0.5582866,-0.1571207,0.3022931
0.9596335,-0.005353369,0.09096497,-0.03004971,0.1886299,-0.09361033,0.3696816,-0.1642573,0.4100614
0.9842848,0.03800791,0.08203345,-0.00547975,0.2322774,-0.1030846,0.1167862,-0.1883429,0.5414765
0.9930867,0.01199434,0.06722857,0.003269376,0.2065468,-0.1183922,-0.1036221,-0.06617069,0.5720269
1.046786,-0.03157682,0.0665391,0.05694199,0.1632439,-0.1195401,-0.1766523,0.07339693,0.5222689
1.076125,-0.1036124,0.09642044,0.08627759,0.09145301,-0.09006908,-0.09902633,0.1626023,0.4428433
1.103027,-0.2020811,0.1373558,0.1131941,-0.006799715,-0.04949313,0.02365563,0.1734734,0.3177535
1.132332,-0.2139832,0.1716539,0.1425248,-0.01851566,-0.01550269,0.08163125,0.1483142,0.1582635
1.081938,-0.1395827,0.1671964,0.09216005,0.05604235,-0.02021711,0.06824671,0.1223462,0.05948851
1.043578,-0.05494556,0.1561174,0.05382853,0.1408085,-0.03150396,-0.02635097,0.01747995,0.06095605
1.078261,-0.01889878,0.1582579,0.08853376,0.1769526,-0.02952393,-0.1022759,-0.128544,0.1058769
1.14819,-0.09731264,0.1391323,0.1584749,0.09859929,-0.04876407,0.02647835,-0.2374062,0.169376
1.248685,-0.2318051,0.1321848,0.2589655,-0.03587298,-0.05578108,0.2012495,-0.1688617,0.1807678
1.287315,-0.3272156,0.1397556,0.2975654,-0.1313021,-0.04823533,0.1921979,-0.06165452,0.004541394
1.196503,-0.3749484,0.1253686,0.2066879,-0.1790859,-0.06260334,-0.00592989,-0.1457354,-0.3480974
1.036893,-0.4043017,0.09751584,0.04696515,-0.2085124,-0.09039324,-0.3104761,-0.1875357,-0.6328206
0.8686193,-0.4635067,0.07803663,-0.1214679,-0.2678009,-0.1097651,-0.4413201,-0.1799702,-0.7143782
0.845301,-0.514169,0.0975735,-0.1449892,-0.3185437,-0.09007504,-0.2206082,-0.1758136,-0.7104978
1.057232,-0.4943208,0.129123,0.06670397,-0.2987584,-0.05832546,0.09737045,0.09639719,-0.6431239
1.263941,-0.421189,0.142029,0.2731437,-0.2256576,-0.0451725,0.2448162,0.4746333,-0.4930834
1.266558,-0.2894231,0.1719002,0.2754566,-0.09388049,-0.01500899,0.1876376,0.5609503,-0.2850775
1.125203,-0.1537954,0.185277,0.1337527,0.04180553,-0.001296952,-0.04203794,0.3377293,-0.03493014
0.9826288,-0.1164399,0.1675926,-0.009220326,0.07926469,-0.01860651,-0.2907003,0.1920723,0.04751608
0.9175289,-0.1548046,0.183124,-0.07476722,0.04104354,-0.002664129,-0.3956192,0.3314939,-0.1067163
0.8466669,-0.1794462,0.1972663,-0.1461184,0.01657932,0.01192202,-0.4348455,0.4870405,-0.2221023
0.77263,-0.1443174,0.1879709,-0.2206764,0.05191447,0.00309944,-0.5016817,0.6258802,-0.213125
0.7588947,-0.1049668,0.195916,-0.234952,0.09149551,0.01154271,-0.5491822,0.7564581,-0.1486458
0.7227827,-0.1019124,0.1985112,-0.271609,0.0947985,0.01465783,-0.5848459,0.7078701,-0.0127892
0.6964854,-0.114378,0.203099,-0.2984411,0.08259324,0.01978348,-0.6208,0.5458031,0.09196258
0.7372658,-0.1631694,0.2246213,-0.2581703,0.03406819,0.04185799,-0.535042,0.2729731,0.1125111
0.7590482,-0.2001575,0.2481722,-0.2368587,-0.002651717,0.06597103,-0.3387597,0.01038434,0.1214984
0.7695946,-0.1988532,0.2921938,-0.2267329,-0.001079219,0.1105595,-0.1412537,-0.1316986,0.1205034
0.7990402,-0.1922883,0.3355587,-0.1976482,0.005752746,0.1544895,0.07023125,-0.378353,0.1155426
0.8098256,-0.1025081,0.3426149,-0.1871565,0.09579777,0.162101,0.1595647,-0.6207061,0.07300842
0.8726995,-0.000341752,0.3304393,-0.1245033,0.1982228,0.1504622,0.07864442,-0.696413,-0.03844234
1.037469,-0.07045658,0.2920822,0.04012115,0.1283536,0.1126157,-0.01690603,-0.6837794,-0.1707365
1.182648,-0.1891186,0.2018266,0.1852257,0.00991764,0.02283846,-0.1751015,-0.5340088,-0.2370476
1.273011,-0.1749905,0.1570938,0.2755767,0.02424868,-0.02145052,-0.2879225,-0.2853888,-0.1312793
1.351095,-0.1053031,0.236478,0.3536939,0.09411509,0.05834315,-0.1442931,-0.0131515,-0.006767044
1.369955,-0.06835699,0.3379098,0.3726137,0.1312143,0.1601496,-0.001061482,0.2420505,-0.04889805
1.378636,-0.1489107,0.3781161,0.3813613,0.05078441,0.2006916,-0.01086161,0.4150692,-0.1469935
1.389189,-0.3786702,0.2805603,0.3919653,-0.1788819,0.1034267,0.1057522,0.4613832,-0.1840085
1.30808,-0.5519684,0.1016193,0.3108758,-0.3521114,-0.07527224,0.3081863,0.3955227,-0.05263928
1.196568,-0.5743166,0.09086907,0.1993359,-0.3744017,-0.08582777,0.4615113,0.3655193,0.1301738
1.00767,-0.4996809,0.1993301,0.01035281,-0.2997008,0.02278588,0.6290537,0.3277447,0.05592428
0.742572,-0.366972,0.2461525,-0.254886,-0.1669041,0.06972283,0.5270713,0.2332419,-0.1214579
0.7238719,-0.2699714,0.2214923,-0.2737742,-0.06978283,0.04513981,0.1744209,0.1402155,-0.1919309
0.8466165,-0.2100488,0.1390391,-0.1512495,-0.009702888,-0.03727299,-0.07808385,-0.08012178,-0.1726179
0.8375033,-0.1642318,0.07069175,-0.1606005,0.03630742,-0.1056142,-0.2583341,-0.3114287,0.02970424
0.9088795,-0.1768162,0.04595654,-0.08946989,0.02394901,-0.1303718,-0.2498417,-0.4399972,0.22504
1.01582,-0.2824049,0.06248364,0.01722458,-0.08138483,-0.1138878,-0.08811676,-0.5272545,0.1945786
1.01507,-0.3781191,0.08266652,0.0162301,-0.1768159,-0.09376119,0.02220182,-0.4870461,0.07244482
1.023602,-0.3484688,0.05773869,0.0245217,-0.1468511,-0.1187517,0.1672935,-0.4781526,-0.06931735
0.9151173,-0.3024378,0.06835815,-0.08420201,-0.1004703,-0.1081951,0.2586573,-0.5349927,-0.1408652
0.811366,-0.2201039,0.07158402,-0.1881864,-0.01774845,-0.1050265,0.3288612,-0.4672795,-0.08214941
0.8801115,-0.08037619,0.04365527,-0.1196624,0.1224039,-0.1330014,0.3795996,-0.3546457,0.009771702
0.8893624,-0.04878416,0.05425719,-0.1106145,0.1544509,-0.122429,0.3273616,-0.2199499,0.1337162
0.8957043,-0.0692151,0.05223358,-0.1044515,0.1344959,-0.1244603,0.3479012,-0.1136099,0.2773771
0.9507131,-0.05312671,0.0618588,-0.04959341,0.1510709,-0.1148161,0.2664369,-0.08488186,0.3549004
0.9593564,-0.0373826,0.06678024,-0.04107038,0.1673026,-0.1098449,0.07443703,-0.03895589,0.4174309
0.9806131,-0.03052967,0.04018515,-0.01990288,0.1746346,-0.1363558,-0.006864659,-0.04154006,0.5346329
0.9869433,-0.03368169,0.03948429,-0.01363119,0.1719436,-0.1369343,-0.05948285,-0.003677217,0.5568165
0.9972107,-0.06407322,0.03550698,-0.003392787,0.1419865,-0.1407473,0.003952833,0.1478071,0.4664485
1.036646,-0.1399258,0.05830528,0.03604095,0.06653484,-0.1177392,0.1489217,0.2087643,0.4017841
1.082068,-0.2220391,0.1123975,0.08148653,-0.01521477,-0.06338946,0.2590881,0.1968455,0.307757
1.098888,-0.2462474,0.1547123,0.09834966,-0.03909655,-0.02076884,0.3077593,0.1583085,0.2003835
1.05283,-0.1784844,0.1765594,0.05234985,0.02895804,0.001430372,0.2088494,0.03683135,0.1073945
1.041147,-0.08224892,0.1502004,0.04073308,0.1254514,-0.02453356,0.1333775,-0.1275031,0.03245531
1.083719,-0.04030102,0.1360033,0.08337819,0.1676214,-0.03829622,0.1515726,-0.2811208,0.05430093
1.176702,-0.07263622,0.1233517,0.1764339,0.1354677,-0.05047624,0.2108488,-0.2667114,0.05226899
1.298061,-0.1752047,0.08665582,0.2978601,0.03303589,-0.08666518,0.2884992,-0.08227108,-0.04782733
1.304793,-0.287627,0.09870112,0.3046421,-0.0792958,-0.07407805,0.2121793,0.03417017,-0.2435317
1.168664,-0.3956746,0.1135199,0.1685315,-0.1872943,-0.05868275,0.02744892,-0.01337168,-0.5434002
0.9862724,-0.4703472,0.1180677,-0.01388079,-0.2619499,-0.05352439,-0.0988921,-0.1394935,-0.7619968
0.8933798,-0.4907597,0.1566935,-0.1068347,-0.2823642,-0.01425544,-0.05409734,-0.2118583,-0.832358
0.9071988,-0.5339411,0.182548,-0.09311291,-0.3255509,0.01227236,0.2531575,-0.1684117,-0.8056093
1.001077,-0.5318985,0.1873036,0.0006389513,-0.3235013,0.01772771,0.6338578,0.09529625,-0.6266867
1.220778,-0.399585,0.1896237,0.220189,-0.1911539,0.02076942,0.7474049,0.442102,-0.3037105
1.365113,-0.2132381,0.1879743,0.3643428,-0.004736038,0.019859,0.4879317,0.4527612,0.04323849
1.233101,-0.09696124,0.1996105,0.2321111,0.1116511,0.03224718,0.1638003,0.3451091,0.2021279
1.009076,-0.0879074,0.2124311,0.007816818,0.1208497,0.04582831,-0.001506108,0.4229188,0.07664588
0.8937122,-0.1009017,0.2072986,-0.1078671,0.1080266,0.04146031,-0.1277984,0.4544497,-0.08575006
0.8623512,-0.1084566,0.1976671,-0.1395932,0.1006612,0.03259275,-0.2044268,0.5479892,-0.08272752
0.8099122,-0.08618891,0.1798646,-0.1924321,0.1231291,0.01554974,-0.2626271,0.7305914,-0.03379932
0.7040619,-0.03541289,0.1670308,-0.2987044,0.1741087,0.003468062,-0.3414213,0.7085021,0.03066121
0.6571954,-0.0279913,0.184753,-0.3459996,0.1817288,0.02193278,-0.3519852,0.6137676,0.128964
0.6750871,-0.04298189,0.2210421,-0.3285258,0.1669228,0.05895233,-0.3626954,0.4524656,0.1216454
0.6769236,-0.08585484,0.2659172,-0.327079,0.1242122,0.1045426,-0.3044828,0.07907465,0.06812654
0.7378548,-0.1451393,0.2846041,-0.2664936,0.06506192,0.1239244,-0.1564529,-0.1915153,0.05957707
0.7936712,-0.1522308,0.2828285,-0.2109664,0.05807299,0.1228174,-0.02206406,-0.2623977,0.06306538
0.785093,-0.1085995,0.317835,-0.2197676,0.1017733,0.1584597,0.1328544,-0.3945951,0.07853439
0.8339661,-0.0462275,0.3467727,-0.1710446,0.1641785,0.1879938,0.1833814,-0.4963875,0.008600813
0.9154098,-0.0392294,0.34082,-0.08967327,0.17117,0.1825904,0.1305545,-0.4700881,-0.1270704
1.017889,-0.09310309,0.3271487,0.01281179,0.1172447,0.1694141,0.05088857,-0.4944506,-0.2214623
1.130158,-0.1478238,0.2840306,0.1251619,0.06242385,0.1267304,-0.1020071,-0.4899841,-0.2305736
1.231341,-0.1580578,0.2502762,0.2264911,0.05204004,0.09334551,-0.1432826,-0.3030624,-0.1047972
1.334078,-0.07013684,0.289444,0.3294264,0.1397617,0.1328154,-0.01302571,-0.0444915,-0.01366653
1.344567,0.04500108,0.3654225,0.3401455,0.2546491,0.2090261,0.06007881,0.1912797,-0.0876299
1.356036,0.06374404,0.4024855,0.3518593,0.2730851,0.246247,-0.04888708,0.4076178,-0.1843033
1.387911,-0.06866204,0.351382,0.3839724,0.1403085,0.1952212,-0.16849,0.5519272,-0.1667761
1.32787,-0.2963317,0.2496918,0.3241454,-0.08779866,0.0935236,-0.09796851,0.5047623,0.0001315926
1.284853,-0.4218233,0.1982814,0.2813002,-0.2137901,0.0420194,0.069696,0.4064346,0.1752059
1.164747,-0.3870149,0.2002558,0.1613117,-0.1795318,0.04381607,0.2076993,0.4441469,0.1469832
0.8994617,-0.3590235,0.1633152,-0.1039161,-0.1521267,0.006618043,0.2236202,0.4386181,0.008825897
0.7397188,-0.3395745,0.1056039,-0.2636592,-0.1332871,-0.05142491,0.06679911,0.3732607,-0.00850066
0.7213155,-0.220847,0.1155509,-0.2821081,-0.01518199,-0.04187652,-0.1569037,0.2680455,0.04790746
0.7314583,-0.1851627,0.1333258,-0.2720398,0.01987326,-0.02455936,-0.3483854,-0.04404566,0.1609484
0.7803144,-0.2791899,0.1116362,-0.2232711,-0.07478611,-0.04675835,-0.3854722,-0.4654692,0.3143636
0.8768105,-0.3236351,0.1114083,-0.1268619,-0.1198628,-0.04754008,-0.202535,-0.8200535,0.2963411
0.949044,-0.3841593,0.09140164,-0.05470563,-0.1810113,-0.06813806,0.07170678,-0.8730113,0.1652784
0.9388149,-0.394779,0.05324121,-0.0649974,-0.1922394,-0.1069196,0.2971474,-0.7171488,0.03837025
0.9179462,-0.2987065,0.06537134,-0.08591139,-0.09675028,-0.09543219,0.4749304,-0.666893,-0.02828041
0.9337442,-0.2099479,0.07035095,-0.07013887,-0.008543331,-0.09110866,0.6136331,-0.4269551,0.04121175
0.9296469,-0.06455844,0.06901137,-0.07423912,0.1363277,-0.09311001,0.6188782,-0.1511383,0.1022415
0.9327984,0.001720982,0.09087094,-0.07106591,0.2021179,-0.07191104,0.5166388,-0.2009603,0.1792089
0.9673206,-0.01090375,0.09203293,-0.03649566,0.1890245,-0.07140249,0.3681656,-0.1459366,0.2914871
0.9753874,0.07092417,0.08694977,-0.02835386,0.2703939,-0.07712681,0.166402,-0.05311864,0.3154701
0.9826284,0.06324306,0.07683475,-0.02101119,0.2622532,-0.08786594,-0.01965823,-0.1133395,0.3664413
0.998044,0.01253849,0.05635552,-0.005468201,0.2110763,-0.1089474,-0.1976276,-0.04322539,0.4401346
0.9836051,0.01947286,0.0487457,-0.01975535,0.2175156,-0.1171324,-0.317445,0.04337253,0.4706073
0.9768574,-0.03864824,0.05099712,-0.02632843,0.1588686,-0.1154239,-0.2827028,0.1110869,0.4847607
0.9990244,-0.1167974,0.08138777,-0.00396509,0.08015719,-0.08553894,-0.1771714,0.2292247,0.4049478
1.043482,-0.2114775,0.1425099,0.04070843,-0.01512312,-0.02488181,-0.002224425,0.2417982,0.2525675
1.084657,-0.2726369,0.189306,0.08211676,-0.07691824,0.02149107,0.1775082,0.1702639,0.1056787
1.081741,-0.2185974,0.1875982,0.07944728,-0.02354415,0.01940031,0.1655873,0.04985301,0.006306088
1.054098,-0.08979806,0.1582965,0.05205619,0.1045655,-0.01024632,0.01488384,-0.08157246,-0.02538597
1.039129,0.05532913,0.1440624,0.03734247,0.2489795,-0.02478942,-0.1249389,-0.1569502,-0.02973168
1.059011,0.04291238,0.1468944,0.05747764,0.2358217,-0.02223144,-0.1525731,-0.2046705,0.00841185
1.1376,-0.07952945,0.1464859,0.136316,0.1126042,-0.02287986,-0.05557579,-0.1640481,0.03850515
1.269695,-0.1696617,0.1354525,0.268649,0.02165764,-0.03411945,-0.0186443,-0.05005383,-0.06537714
1.329656,-0.2863141,0.1334627,0.3288275,-0.09584591,-0.03628222,-0.1309824,-0.03554941,-0.2981518
1.209601,-0.3091778,0.1226139,0.2089564,-0.1195913,-0.04727088,-0.3037081,-0.1543604,-0.5612617
1.035243,-0.3149764,0.07627996,0.03473737,-0.1262927,-0.09371105,-0.4105522,-0.2357602,-0.7126131
0.921697,-0.4609785,0.063213,-0.0787172,-0.2732074,-0.1068492,-0.3195019,-0.1206227,-0.7333087
0.8830674,-0.5089426,0.1203013,-0.1172997,-0.3220802,-0.04979494,-0.05798036,0.0803594,-0.737412
0.9800347,-0.4760134,0.1811074,-0.02032287,-0.2900394,0.01101537,0.2554152,0.2270828,-0.6801864
1.129814,-0.3895158,0.1882761,0.1294334,-0.2043939,0.01822488,0.3681901,0.3594423,-0.4966784
1.180041,-0.1564416,0.1746069,0.1796057,0.02787554,0.004630262,0.06326645,0.341965,-0.2198552
1.146498,-0.07879882,0.1852042,0.1459694,0.1047643,0.01533247,-0.2545967,0.2189539,0.03697698
1.081109,-0.162596,0.1778032,0.0804471,0.02026091,0.00806378,-0.2760402,0.2800122,0.007874429
1.000797,-0.1649592,0.164138,-4.211133e-05,0.01723494,-0.0054446,-0.2900283,0.41707,-0.2020064
0.9096108,-0.1240197,0.1800986,-0.09144826,0.05755209,0.01069494,-0.3545376,0.613467,-0.265725
0.8077255,-0.06860748,0.1839124,-0.1935889,0.1123789,0.01470748,-0.4216462,0.8146674,-0.2780557
0.7232199,-0.03425803,0.1866972,-0.2783751,0.1461743,0.01770816,-0.5541907,0.7602159,-0.2228592
0.6792142,-0.04288324,0.1963576,-0.3226721,0.1370195,0.02759904,-0.6507681,0.6907866,-0.07494218
0.6835157,-0.06303851,0.2032173,-0.3186562,0.1163517,0.0347008,-0.6604018,0.5771997,-0.04796712
0.7265411,-0.09082281,0.2417618,-0.2758944,0.08806587,0.07349579,-0.5658259,0.2232571,-0.03780128
0.7770692,-0.1211373,0.2834952,-0.2255937,0.05725607,0.1154836,-0.4159813,-0.05621027,0.01402255
0.7818045,-0.1173628,0.2837789,-0.2210383,0.06053845,0.1160201,-0.3191177,-0.1755773,0.08921148
0.7683203,-0.05984941,0.2871993,-0.2346459,0.1175604,0.1196854,-0.2102318,-0.298154,0.20614
0.8182538,-0.05003108,0.3303608,-0.1847718,0.1268847,0.1630775,-0.08894228,-0.4936819,0.1999195
0.8969923,-0.07361363,0.3517307,-0.1060228,0.1028012,0.1846566,-0.0463382,-0.5687033,0.1062855
1.005444,-0.09958206,0.332333,0.002511346,0.07632118,0.1654391,-0.0529669,-0.4957149,-0.04296253
1.138155,-0.1712289,0.3006774,0.1353731,0.004149941,0.1339278,-0.07028349,-0.4667972,-0.1711932
1.211078,-0.1866757,0.2371185,0.2085078,-0.01183393,0.0704718,-0.0804888,-0.2495971,-0.1161657
1.23906,-0.1408572,0.2110725,0.2367479,0.03343671,0.04448493,-0.04167278,-0.002481861,-0.04484322
1.215458,-0.05593537,0.2788068,0.2134351,0.117801,0.1122337,0.04255625,-0.004175053,-0.01813818
1.197505,0.04905688,0.3746504,0.1957893,0.2222239,0.2080454,0.08022605,0.0614026,-0.05200769
1.265497,0.05964541,0.4143631,0.2640931,0.2322255,0.2476755,-0.02795759,0.3740802,-0.1729832
1.299402,0.007397257,0.3090577,0.2983005,0.179365,0.1422298,-0.1947195,0.7063003,-0.1676165
1.263215,-0.1147893,0.1798765,0.262393,0.05653431,0.01284667,-0.2342767,0.5504551,0.002176452
1.230354,-0.3572325,0.1995935,0.2297751,-0.1865856,0.03230001,-0.1893992,0.2966961,0.1528853
1.182151,-0.5095442,0.216289,0.1817677,-0.3395986,0.04867335,-0.1688693,0.5187654,0.09874024
0.988059,-0.3978843,0.158391,-0.01218146,-0.2286498,-0.0096019,-0.1513426,0.52995,-0.01624002
0.6939739,-0.2792803,0.1452662,-0.3061771,-0.110751,-0.02315458,-0.1858202,0.3276474,0.01864257
0.6481608,-0.3096792,0.1375041,-0.3519428,-0.1418381,-0.03139012,-0.2581097,0.2315645,0.0385997
0.7681163,-0.2793023,0.1355165,-0.2319648,-0.1121247,-0.03389054,-0.2473579,-0.1244863,0.1243285
0.7638737,-0.2633234,0.1576659,-0.2361931,-0.09677812,-0.01228763,-0.1766721,-0.5087298,0.2996498
0.8430307,-0.32283,0.125813,-0.1570172,-0.1568807,-0.04471548,-0.05528846,-0.7633039,0.2691206
0.9909785,-0.3182536,0.07936388,-0.009036964,-0.1528581,-0.09176229,0.1234831,-0.8187986,0.1430191
0.9784166,-0.3100717,0.05218213,-0.02154943,-0.145182,-0.1195578,0.240065,-0.6091329,0.05586154
0.9427517,-0.2465842,0.06607448,-0.057147,-0.08214683,-0.1062874,0.2929448,-0.5069451,0.02698227
0.936802,-0.1570676,0.1096478,-0.06301107,0.006973333,-0.06333646,0.3294926,-0.3422608,0.1245875
0.9183865,-0.152472,0.08640196,-0.0813211,0.01122786,-0.08719876,0.2983861,-0.1650442,0.2169629
0.9224914,-0.1182474,0.08080975,-0.0770892,0.04516358,-0.09339611,0.2541043,-0.2357505,0.3032523
0.928212,-0.09949484,0.1071343,-0.07121785,0.0636748,-0.06766013,0.2438637,-0.2157588,0.3903618
0.9642859,-0.1187005,0.08521471,-0.03496799,0.04427017,-0.09014717,0.2233454,-0.1858585,0.4046331
1.002701,-0.07958624,0.084971,0.003648636,0.08322239,-0.09093285,0.1832572,-0.2160432,0.430224
1.025188,-0.03989618,0.0734453,0.02636061,0.1227814,-0.1029708,0.08282668,-0.1304798,0.4252678
1.051869,-0.01824077,0.05302991,0.05328803,0.1443296,-0.1238644,-0.03743963,-0.03904962,0.3668651
1.020064,-0.004719937,0.07338095,0.02174586,0.157759,-0.103953,-0.06843672,0.03937806,0.3234804
0.9995855,-0.03413082,0.08432232,0.001543487,0.1282641,-0.09340859,-0.02677139,0.06617802,0.2538841
1.035506,-0.1030717,0.1190483,0.03775077,0.05923931,-0.05903401,0.05561182,0.06978845,0.186134
1.055259,-0.1759167,0.1442441,0.05779908,-0.01369362,-0.0341424,0.1367788,0.07880717,0.1515487
1.05875,-0.1811551,0.1169302,0.06158889,-0.01902522,-0.06171321,0.1287334,0.01186292,0.1320438
1.036374,-0.09026372,0.1119626,0.03951209,0.07176827,-0.06689043,0.009548615,-0.03012967,0.1371793
1.017552,-0.002911252,0.1313496,0.02098553,0.1590167,-0.04766568,-0.1364491,-0.06143474,0.1419687
1.040917,-0.009461718,0.1517901,0.04464148,0.1523516,-0.02734013,-0.1516363,-0.1674359,0.1540699
1.095542,-0.07381565,0.1581809,0.0995488,0.08786625,-0.02101817,0.01794355,-0.2382767,0.163237
1.2002,-0.1794677,0.1356909,0.2044768,-0.01793788,-0.04353255,0.2265229,-0.1298244,0.08937512
1.280983,-0.302713,0.1173552,0.2855093,-0.1413553,-0.06184946,0.2824602,0.02595585,-0.1068898
1.223154,-0.3373515,0.1192014,0.2278986,-0.1761806,-0.059942,0.1547783,-0.001068777,-0.3864607
1.081992,-0.3500615,0.1085244,0.08691315,-0.1890829,-0.07051535,-0.06258945,-0.0544461,-0.6130196
0.9600771,-0.4372989,0.08489836,-0.034871,-0.2765074,-0.09399518,-0.2276998,-0.06897932,-0.7176708
0.872221,-0.4758559,0.1062565,-0.1226418,-0.3152341,-0.07244779,-0.1067394,-0.1221403,-0.7494133
0.8768762,-0.4755486,0.1447983,-0.1179401,-0.315065,-0.03367338,0.2415286,-0.01479039,-0.7044752
1.033159,-0.4788647,0.1530937,0.03835783,-0.3184738,-0.02510301,0.4965087,0.2978996,-0.5621244
1.257927,-0.3580903,0.172569,0.2631121,-0.1977341,-0.005312508,0.5540463,0.5514688,-0.272833
1.333636,-0.1858262,0.1889724,0.3387729,-0.02543848,0.01144321,0.3579014,0.4468922,0.03064881
1.155084,-0.09188843,0.1854334,0.1601298,0.06859785,0.008289969,0.06881845,0.2565734,0.05016449
0.9685532,-0.09049779,0.195404,-0.02654482,0.0701491,0.01867581,-0.07558168,0.3934723,-0.09948855
0.9158348,-0.1319794,0.2144302,-0.07945887,0.02888246,0.03814261,-0.2063031,0.4902177,-0.1756918
0.88089,-0.1019262,0.226643,-0.1146451,0.05919773,0.05081693,-0.2925599,0.5410366,-0.1714884
0.8194068,-0.05056231,0.2102575,-0.1764067,0.1108637,0.03490887,-0.367524,0.7675556,-0.07737551
0.7020712,-0.01366474,0.1886558,-0.2940459,0.1480952,0.01379624,-0.5557695,0.7861974,0.04596875
0.6553833,-0.009693832,0.209978,-0.3410482,0.1524224,0.03561536,-0.6125764,0.6082677,0.134138
0.7224916,-0.08429648,0.2436707,-0.274248,0.07818873,0.06980923,-0.5878179,0.3069698,0.1528878
0.74426,-0.1232107,0.2738859,-0.2527658,0.03964849,0.1005255,-0.539743,-0.07813252,0.1149158
0.8047611,-0.1468757,0.3087945,-0.192516,0.01635777,0.1359292,-0.3316212,-0.2385848,0.1225666
0.8697193,-0.1426527,0.3184808,-0.1277649,0.02095262,0.1460978,-0.1615639,-0.3076045,0.1246464
0.8425254,-0.0718674,0.3208704,-0.1551154,0.09210482,0.1489495,-0.05681462,-0.4205423,0.08966373
0.876454,-0.05689269,0.3311219,-0.1212888,0.1074379,0.1596353,0.01562741,-0.5369912,0.012371
0.9439904,-0.05856554,0.3172002,-0.05379685,0.1061099,0.1461132,-0.03547724,-0.5717272,-0.1538142
0.9972173,-0.1024468,0.2814158,-0.0005566184,0.0625548,0.1106875,-0.1414519,-0.4957335,-0.2398259
1.104247,-0.1835422,0.2276134,0.1065409,-0.01823643,0.05719861,-0.3342525,-0.4429085,-0.1712571
1.233739,-0.1748376,0.1986628,0.2361485,-0.009250462,0.0285143,-0.4449272,-0.2180016,-0.03583701
1.315888,-0.1047422,0.2448842,0.3184484,0.06110417,0.07495449,-0.2172593,0.04787997,0.1063436
1.302775,0.008989895,0.3209779,0.3055036,0.1750722,0.1512192,-0.03345969,0.1139842,0.07681162
1.325883,0.05755054,0.4069917,0.328782,0.2238407,0.237353,-0.2001823,0.2829733,-0.1263876
1.38255,0.009718593,0.4223542,0.3856027,0.1761806,0.2527783,-0.317966,0.5068989,-0.2282162
1.23831,-0.08952708,0.2514841,0.2414838,0.07706367,0.08190667,-0.2386959,0.5338871,-0.09577214
1.092101,-0.3083982,0.08242788,0.0953499,-0.1417245,-0.08721799,-0.2260548,0.3641022,0.169378
1.140177,-0.423088,0.115778,0.1434483,-0.2563724,-0.05399943,-0.1784439,0.2227606,0.3135678
1.058666,-0.3545717,0.1936033,0.06190447,-0.1878439,0.02363803,-0.04565783,0.2826157,0.1951798
0.8154248,-0.3601205,0.1872628,-0.1814244,-0.1933972,0.0170593,-0.0101546,0.2876804,0.023657
0.7395108,-0.3832413,0.1815215,-0.2574734,-0.2165277,0.01103305,-0.02384103,0.1709542,-0.02384355
0.8044007,-0.3034802,0.159553,-0.1927526,-0.136771,-0.01126362,-0.09706283,0.0634329,0.02986828
0.808023,-0.2255285,0.09212099,-0.1893197,-0.05881018,-0.07906245,-0.2125345,-0.1373945,0.1909886
0.8032251,-0.2095912,0.07156368,-0.1943149,-0.042846,-0.1000192,-0.2298723,-0.4052318,0.3693954
0.8679776,-0.2513436,0.08986854,-0.129757,-0.08455163,-0.08213878,-0.15592,-0.5655295,0.4012423
0.9163382,-0.3279979,0.09798142,-0.0815799,-0.161137,-0.07446792,0.01037105,-0.6047709,0.3062301
0.9088674,-0.3568208,0.09536933,-0.08921757,-0.1898643,-0.07753293,0.2227312,-0.6164111,0.2032789
0.8984078,-0.3225858,0.09677408,-0.09982329,-0.1555009,-0.07658597,0.405369,-0.6197144,0.1393937
0.9147159,-0.2903544,0.1190488,-0.08363697,-0.1231025,-0.05476857,0.508621,-0.549338,0.1475888
0.9389635,-0.2647136,0.1188969,-0.05948367,-0.09725227,-0.05537252,0.5966609,-0.4016368,0.2003819
0.9505751,-0.2074918,0.1127056,-0.04793705,-0.0397765,-0.06200698,0.7559955,-0.3273523,0.2279435
0.9546868,-0.1323147,0.1183119,-0.04386,0.0356983,-0.05683116,0.7625385,-0.3439034,0.2915748
0.9664506,-0.09627969,0.1017167,-0.03210015,0.07207098,-0.07384091,0.671923,-0.3117179,0.3374607
1.011978,-0.05209336,0.0777641,0.01345371,0.1166285,-0.0981885,0.5985997,-0.2746258,0.3282529
1.054768,0.01802272,0.03877935,0.05629717,0.1871409,-0.1375445,0.3880545,-0.2465345,0.4164228
1.053408,0.02455564,0.02572815,0.05501611,0.1940845,-0.1509378,0.2286554,-0.1377558,0.4825974
1.040864,0.006341902,0.05099268,0.04257026,0.1762846,-0.1259806,0.1094102,0.008181252,0.4564859
1.026577,-0.02161163,0.05536591,0.02839799,0.1487373,-0.1218743,0.03337309,0.1120007,0.4125261
1.028945,-0.08082,0.07033988,0.03089291,0.08991886,-0.1071228,0.153319,0.17199,0.281399
1.037209,-0.1240926,0.1035889,0.03929302,0.04701389,-0.07404855,0.1910683,0.2056317,0.1922646
1.020886,-0.1707687,0.1305204,0.02311326,0.0006802169,-0.04724258,0.188329,0.1766399,0.1420141
1.017843,-0.1600749,0.134771,0.02021731,0.01169051,-0.04306825,0.1469058,0.09664292,0.0375479
1.008192,-0.06647023,0.1241042,0.01071559,0.1055856,-0.05376272,-0.06454788,-0.03164203,0.02586464
1.005035,-0.02742292,0.1449582,0.007709093,0.144895,-0.03288892,-0.1226244,-0.1951602,0.0431731
1.093824,-0.0779812,0.1493718,0.09664858,0.09456634,-0.02840946,-0.07607761,-0.2326586,0.01858188
1.238881,-0.194079,0.133543,0.2418505,-0.02133768,-0.04412788,-0.06111735,-0.1430402,-0.04075856
1.317409,-0.3257482,0.1398662,0.3205107,-0.1528484,-0.03765163,-0.03241423,-0.08232992,-0.2380241
1.274859,-0.3798732,0.1147926,0.2780673,-0.2068437,-0.06253081,-0.148351,-0.1171939,-0.5022765
1.153906,-0.3947067,0.06435795,0.157182,-0.2215663,-0.1127303,-0.3117649,-0.159877,-0.6899946
0.9829308,-0.4542281,0.03249165,-0.01377229,-0.2809834,-0.1443196,-0.311066,-0.10028,-0.7623767
0.875574,-0.5193807,0.05203988,-0.1211548,-0.3460247,-0.1244503,-0.05943734,0.0104904,-0.7465434
0.9265169,-0.5214061,0.1140323,-0.07027883,-0.3479169,-0.06209034,0.3168601,0.2731264,-0.6452821
0.9892641,-0.4863245,0.1449097,-0.007632812,-0.3126647,-0.03079866,0.4308709,0.5983254,-0.4785291
1.058576,-0.3833639,0.1740707,0.06154787,-0.2094833,-0.001178608,0.1828455,0.5722355,-0.2970447
1.143582,-0.1689467,0.2087783,0.146395,0.005213301,0.03402922,-0.1738557,0.3125753,-0.04473137
1.095532,-0.06665658,0.2060409,0.09815411,0.1078416,0.03182825,-0.4140619,0.1765831,0.09036548
1.042108,-0.1696001,0.2051903,0.04450659,0.005288975,0.03154451,-0.4617237,0.287943,-0.08960206
1.029871,-0.231835,0.2061052,0.03201191,-0.0565092,0.03305144,-0.4034011,0.5534022,-0.245185
0.9381442,-0.2089973,0.2150565,-0.06000587,-0.03319273,0.04261475,-0.4202342,0.6979432,-0.2242335
0.8370617,-0.1802434,0.2310757,-0.1614075,-0.003920831,0.0592608,-0.4855611,0.6985277,-0.2140738
0.7409485,-0.1150874,0.2245372,-0.2578596,0.06178878,0.05335852,-0.5076557,0.6187959,-0.173088
0.7076752,-0.09623505,0.2309872,-0.2914786,0.08122502,0.06044888,-0.5613097,0.4719386,-0.1031772
0.762599,-0.1420864,0.2414768,-0.2368928,0.0359809,0.07157799,-0.5289895,0.3002402,-0.0397682
0.7806773,-0.1589305,0.2400778,-0.2191311,0.01976127,0.07081256,-0.4069809,0.09872676,0.06707102
0.8033586,-0.176134,0.2433118,-0.1967337,0.003194978,0.07466925,-0.302996,-0.03419986,0.1434432
0.8102241,-0.1717823,0.2499328,-0.1901103,0.008193057,0.08189733,-0.1056969,-0.2073042,0.1717909
0.7885347,-0.1161906,0.2762493,-0.2119919,0.06443725,0.1088005,0.05191565,-0.4607184,0.1723756
0.8493473,-0.07668881,0.3086155,-0.1513149,0.1045932,0.1417279,0.1097602,-0.5408135,0.1241747
0.9149267,-0.06264789,0.3225362,-0.0858093,0.119284,0.1561782,0.1493454,-0.5378289,0.0167582
0.9714893,-0.1050077,0.3073533,-0.02925673,0.07756314,0.1414867,0.1034833,-0.5492571,-0.1398888
1.069915,-0.1781579,0.2594611,0.06922053,0.005035365,0.09404194,0.02940886,-0.515087,-0.1775906
1.162542,-0.1958517,0.2114828,0.1619556,-0.01205519,0.0464632,-0.02810205,-0.4044162,-0.05865405
1.248658,-0.1767337,0.2096368,0.2482247,0.007646039,0.04496728,0.07155375,-0.1074134,0.003494162
1.273876,-0.1281851,0.2690641,0.2736274,0.05675743,0.1046947,0.2203162,0.2046695,-0.08786477
1.254813,-0.03226478,0.341185,0.254766,0.153218,0.1770645,0.07317066,0.3451323,-0.2626857
1.301777,0.05012665,0.3563624,0.3019321,0.2361216,0.1924354,-0.09834468,0.3870956,-0.3420903
1.356393,-0.06060317,0.2687764,0.3567346,0.1258678,0.1049826,-0.1458785,0.3802875,-0.1695249
1.328248,-0.2884314,0.1712895,0.3287465,-0.1015266,0.007565476,-0.2098211,0.3999586,0.1100151
1.226176,-0.3413856,0.1973976,0.2267856,-0.1540883,0.03368094,-0.09972499,0.4426239,0.1667728
1.035972,-0.3486037,0.223134,0.0366358,-0.1609482,0.05936491,0.008290402,0.4104331,0.0006454044
0.8189279,-0.3569185,0.1753055,-0.1804109,-0.1689296,0.01142658,-0.1637042,0.3035922,-0.124651
0.7556778,-0.2546459,0.1516515,-0.2437151,-0.06633965,-0.01239156,-0.3763,0.1521858,-0.1303736
0.795946,-0.2460491,0.09616053,-0.2035386,-0.05743543,-0.06809646,-0.4930477,0.02861401,-0.02007601
0.8328506,-0.2707274,0.0450177,-0.1667497,-0.0818124,-0.1194967,-0.5512126,0.006349773,0.1531559
0.9315439,-0.2724005,0.08436284,-0.06818469,-0.08318688,-0.08044423,-0.4434351,-0.1108631,0.2665294
0.9468818,-0.3620245,0.1139196,-0.05298027,-0.1725109,-0.05120747,-0.1961265,-0.3925986,0.2637559
0.8640995,-0.3859303,0.1273818,-0.1358962,-0.1961096,-0.03808617,0.04728626,-0.5319301,0.138624
0.8632839,-0.3572507,0.1354803,-0.1368402,-0.1671083,-0.0303445,0.2660245,-0.6012173,0.005368874
0.8538395,-0.3195164,0.1085134,-0.1464013,-0.1290307,-0.05768014,0.4046935,-0.6930209,-0.02818608
0.8822216,-0.2277577,0.0972044,-0.1181176,-0.03690257,-0.06936541,0.4626596,-0.5426286,0.02003824
0.9720403,-0.15773,0.07636789,-0.02837383,0.03352216,-0.09058093,0.4928087,-0.3352185,0.103969
0.9711608,-0.1055307,0.05961639,-0.02930233,0.08614321,-0.1077088,0.4175578,-0.2498014,0.2224351
0.9778309,-0.08067978,0.08313342,-0.02265493,0.1114348,-0.08455978,0.3057761,-0.1569195,0.3577745
1.003526,-0.0654371,0.08169236,0.003043169,0.1271297,-0.08635527,0.2218062,-0.1246952,0.4040394
1.011487,-0.04334941,0.07807682,0.01103107,0.1496729,-0.09030709,0.1071231,-0.1309116,0.4243312
1.043881,-0.04802944,0.08432776,0.04347333,0.1454433,-0.08437014,0.02390707,-0.120881,0.4615702
1.035708,-0.03910625,0.07308872,0.03536814,0.1548032,-0.09589711,-0.05068392,-0.1077259,0.4139288
1.019681,-0.03999522,0.08023906,0.01942452,0.1543295,-0.08900509,-0.0902186,-0.05608975,0.3594157
1.01422,-0.05601098,0.08469463,0.01406038,0.1387,-0.08477499,-0.01615611,-0.02727913,0.2884679
1.022483,-0.09702471,0.08697939,0.0224295,0.09803729,-0.08268012,0.07096972,0.007155052,0.1758996
1.060589,-0.1857297,0.1083741,0.06065127,0.009644071,-0.0614376,0.1560367,0.1112457,0.1106278
1.050815,-0.2078267,0.1169775,0.05099722,-0.01218121,-0.05294724,0.2096864,0.1744213,0.0604496
1.018071,-0.1330695,0.1137057,0.01837649,0.0628086,-0.05629246,0.1553466,0.09705335,0.07049969
0.9977574,-0.05385279,0.1104896,-0.001814324,0.1422193,-0.05954203,0.03769457,-0.03646849,0.1386777
1.010248,-0.03920437,0.1224244,0.0107977,0.1570203,-0.04760075,-0.05508508,-0.1314696,0.1708494
1.092696,-0.1074378,0.1386026,0.09336548,0.08889392,-0.03137641,0.02678221,-0.2033262,0.1683243
1.215453,-0.2347668,0.1361354,0.2162359,-0.03837595,-0.03375864,0.2066704,-0.1615888,0.1008866
1.314424,-0.3539786,0.1360097,0.3153072,-0.1575743,-0.03376179,0.2226806,-0.08090259,-0.06520189
1.253431,-0.3825304,0.1198767,0.2543893,-0.1861506,-0.04973599,0.07568099,-0.1382621,-0.3215549
1.114989,-0.3985355,0.06837966,0.1159845,-0.2022071,-0.1010384,-0.1290368,-0.149957,-0.5126115
1.048904,-0.4833205,0.03510031,0.0498923,-0.2870578,-0.1340866,-0.208212,-0.1002367,-0.5567514
0.9382359,-0.5566655,0.0808889,-0.06082737,-0.3604687,-0.08802809,0.03608704,-0.06343518,-0.6142989
0.8691783,-0.5889407,0.1541578,-0.1299783,-0.3927935,-0.01444901,0.4175838,0.1425656,-0.6174241
0.9593134,-0.5125814,0.1737795,-0.0399713,-0.3164499,0.005522128,0.6984268,0.4183491,-0.4893267
1.058187,-0.2812201,0.2077648,0.05874611,-0.08505636,0.03989289,0.7658257,0.5210062,-0.3249578
1.093121,-0.1078444,0.2468697,0.09349757,0.08840571,0.07941415,0.4714444,0.3469689,-0.1034372
1.053075,-0.1187934,0.2040766,0.05324211,0.07759455,0.03706246,0.05926401,0.09147604,0.03015508
1.007483,-0.1777764,0.1746618,0.007412638,0.01879384,0.008108533,-0.1033318,0.1128241,-0.04920839
1.010881,-0.1985156,0.1953566,0.01054805,-0.001724542,0.02927936,-0.1198035,0.2958935,-0.1482951
0.9688723,-0.2192589,0.1935654,-0.03174905,-0.02221271,0.02797581,-0.1397443,0.5023705,-0.1529967
0.8700751,-0.1955596,0.1929358,-0.1308549,0.001773131,0.02784208,-0.1775084,0.6532709,-0.1314276
0.7611052,-0.10348,0.2073325,-0.2401473,0.09416754,0.04273912,-0.2948315,0.5154116,-0.100604
0.7163892,-0.08320133,0.2176933,-0.2851884,0.1147838,0.05360136,-0.3820808,0.3238842,-0.0576301
0.7610044,-0.1126717,0.2321423,-0.2408874,0.08566656,0.06854893,-0.3549858,0.2121774,-0.05610362
0.8121081,-0.1385932,0.2452312,-0.1900738,0.06010698,0.08212911,-0.3159753,0.07435688,-0.03893478
0.8568253,-0.2015242,0.2507665,-0.1456126,-0.002458668,0.08814379,-0.2365124,0.06387494,0.01345595
0.8583929,-0.17468,0.2556961,-0.1442595,0.02475127,0.09353609,-0.1211642,0.0103838,0.02253807
0.8304634,-0.09805675,0.2690443,-0.1723566,0.1017382,0.1073255,-0.06964697,-0.1703515,0.05070938
0.8644907,-0.08395168,0.3001289,-0.1384449,0.1162009,0.1388249,-0.07815359,-0.220228,0.08346518
0.9097285,-0.1046589,0.3163823,-0.09326683,0.09583957,0.1554611,-0.1242094,-0.1909171,0.06867734
0.9665442,-0.1943014,0.2795661,-0.03645274,0.006526335,0.1189896,-0.1446477,-0.1521031,0.05166463
1.036084,-0.279313,0.2204357,0.03314261,-0.07817437,0.06016127,-0.1203194,-0.07644824,0.03461221
1.052277,-0.3457466,0.1812686,0.0494438,-0.1443134,0.02125116,-0.07674327,-0.006802268,0.06209993
1.088469,-0.3674825,0.2028144,0.08579052,-0.1657654,0.04300892,0.005262692,0.02291329,0.0857865
1.127993,-0.1920647,0.2891238,0.1255093,0.0099323,0.1294853,0.1249155,0.02265927,-0.01955112
1.13539,-0.009917996,0.3749914,0.1331315,0.1923569,0.215473,0.234191,0.02933129,-0.2064381
1.161591,-0.007576308,0.4046396,0.1595799,0.1949699,0.2451889,0.1269944,-0.03681013,-0.3404837
1.178076,0.009354878,0.3502626,0.1763229,0.2121566,0.1908198,-0.1637917,-0.08118991,-0.321025
1.220496,0.1081977,0.3068205,0.2190028,0.3112283,0.1473195,-0.3524099,0.04179971,-0.141787
1.215343,0.06584051,0.3319051,0.2140996,0.2690618,0.1722753,-0.4912009,0.1334022,0.1102725
1.110977,-0.1331342,0.3039949,0.1099638,0.07022863,0.144163,-0.5553809,0.09284553,0.2536914
1.049755,-0.3004716,0.2636185,0.04894421,-0.09702115,0.1035092,-0.4622116,0.0395207,0.1712865
1.010877,-0.371944,0.2786069,0.01023905,-0.1684563,0.1181445,-0.4089971,0.0174351,-0.005839768
0.9694409,-0.3096883,0.2383159,-0.03105436,-0.1062047,0.0774256,-0.38501,-0.02683218,-0.1745145
0.8788116,-0.2639681,0.1408264,-0.1215685,-0.0605208,-0.02056461,-0.3945324,-0.05400344,-0.242113
0.7759177,-0.2933522,0.08050581,-0.2243687,-0.08996586,-0.08145311,-0.5264212,-0.01786292,-0.1119815
0.8417344,-0.2237828,0.07091507,-0.1584704,-0.02047649,-0.09167062,-0.6830529,0.003226658,0.02857121
0.9128877,-0.1846641,0.04871232,-0.08723837,0.01854709,-0.1145488,-0.8279223,0.09437941,0.1384991
0.9472544,-0.1942596,0.03994503,-0.05278909,0.008843387,-0.1240294,-0.8640319,0.1706602,0.2584161
1.002477,-0.2100408,0.09802043,0.002522783,-0.007058279,-0.06669482,-0.7720899,-0.003510756,0.2211136
0.9302496,-0.3030966,0.1381102,-0.06960679,-0.100245,-0.02736484,-0.6461906,-0.266538,0.1173782
0.8843328,-0.3149479,0.1462062,-0.1154162,-0.1122339,-0.02004134,-0.43913,-0.4487131,-0.009512458
0.9148444,-0.3010106,0.1352061,-0.08478449,-0.09843531,-0.03182219,-0.2249355,-0.5108998,-0.1626444
0.9280918,-0.3047419,0.0921116,-0.07140053,-0.1023004,-0.07570105,-0.04952214,-0.4321996,-0.1757915
0.9796606,-0.2497738,0.07809822,-0.01967645,-0.04745629,-0.09049734,0.1134991,-0.2951322,-0.159167
0.9692821,-0.2037917,0.0714692,-0.02988034,-0.001585248,-0.09790171,0.1936565,-0.1764199,-0.07888155
0.9275512,-0.1218322,0.07189915,-0.07141726,0.0802765,-0.09823321,0.2147579,-0.1629415,0.142012
0.9344858,-0.08106648,0.08769189,-0.06426864,0.1209552,-0.08318201,0.192188,-0.2078956,0.2546317
0.9458605,-0.08445742,0.06492484,-0.05265884,0.1174828,-0.1066653,0.1355474,-0.2025893,0.2742805
0.9977588,-0.04095936,0.05719442,-0.0005038179,0.1608985,-0.1150814,0.07505593,-0.206515,0.3678768
1.028888,-0.06895433,0.06818829,0.03090312,0.1328137,-0.1047377,0.03967705,-0.2073603,0.4622016
1.027227,-0.1254489,0.07120469,0.02953722,0.07621547,-0.1023309,0.100345,-0.1281648,0.4254661
1.057198,-0.1576074,0.09182336,0.05981697,0.04393555,-0.08227737,0.1985533,-0.04060611,0.3483542
1.081774,-0.2151536,0.09786377,0.08471259,-0.01375128,-0.07675459,0.3312135,-0.002392784,0.2885612
1.09324,-0.2303078,0.1020896,0.09650331,-0.02906458,-0.07299671,0.4994533,-0.01053443,0.1870035
1.067499,-0.1697971,0.118818,0.07108546,0.03127082,-0.05668509,0.5132304,-0.0390158,0.1765162
1.027681,-0.09773198,0.1357188,0.03158423,0.1031454,-0.04014916,0.3935853,-0.04834308,0.158026
1.045042,-0.08609952,0.1598307,0.04925354,0.1145706,-0.01635063,0.3122884,-0.1408138,0.05227519
1.107534,-0.1428665,0.1658515,0.112042,0.05757655,-0.01059299,0.332425,-0.3066926,0.04413807
1.21686,-0.2322733,0.1451299,0.2216477,-0.03207876,-0.03152954,0.4818956,-0.3449967,0.03234244
1.310382,-0.2933924,0.1170838,0.3154246,-0.09346626,-0.05974386,0.6815622,-0.2142919,-0.04232889
1.295898,-0.3070554,0.1078026,0.301158,-0.1074126,-0.06914736,0.7629273,-0.03958135,-0.1778978
1.214262,-0.322576,0.08537494,0.2196897,-0.1232248,-0.09165106,0.6398132,0.005760576,-0.3653791
1.099891,-0.3423516,0.03411528,0.105427,-0.1432927,-0.1429392,0.4355607,-0.03397659,-0.4763014
0.9658842,-0.3502471,0.01858739,-0.02853423,-0.1514737,-0.1584454,0.2759898,-0.01345613,-0.5866243
0.8933742,-0.3549703,0.02150833,-0.1010603,-0.1564677,-0.1554488,0.2209942,0.02781791,-0.6578306
0.9289325,-0.3815267,0.06163508,-0.06557251,-0.1832725,-0.1151889,0.4120236,0.2080248,-0.6154244
1.003117,-0.4190297,0.1532968,0.008494826,-0.2209934,-0.02333474,0.7179856,0.5820067,-0.5239834
1.0299,-0.4072592,0.1771947,0.03511892,-0.2094017,0.0008139584,0.8449269,0.762631,-0.3219792
1.015067,-0.3115157,0.1734802,0.02008803,-0.1137902,-0.002595318,0.7593077,0.5043037,-0.07086449
0.9800289,-0.1784667,0.210598,-0.0151846,0.01917819,0.03487751,0.6153352,0.1657309,0.06414291
0.9499395,-0.1446241,0.2078199,-0.0455414,0.05299102,0.03249855,0.5486636,0.1275878,0.007084129
0.950737,-0.1626148,0.1997987,-0.04504001,0.03501677,0.02491504,0.4434769,0.2697789,-0.1036556
0.930988,-0.07439812,0.22913,-0.06510867,0.1232901,0.05471688,0.2736744,0.4366513,-0.1109697
0.8976975,0.003816899,0.2272808,-0.09873668,0.2015943,0.05336527,0.09782785,0.5547417,-0.1301982
0.8770923,-0.0006320428,0.2025537,-0.1196908,0.1972566,0.0291571,-0.1672107,0.5447454,-0.1080271
0.816967,0.02339682,0.2041413,-0.1801688,0.2214069,0.03127972,-0.3372485,0.4713514,-0.002593834
0.7641656,0.01846961,0.2459148,-0.2333176,0.2165995,0.07359981,-0.3521556,0.2819042,0.04933149
0.7751551,-0.0666583,0.3078686,-0.2226594,0.1315789,0.1361062,-0.305273,0.006623852,0.1463187
0.8167901,-0.1278347,0.3354476,-0.1813286,0.0704893,0.1642368,-0.1110164,-0.1822163,0.2553501
0.8689349,-0.1372357,0.3570028,-0.1294519,0.06115017,0.1863334,0.1355119,-0.287337,0.2629618
0.8857819,-0.1076257,0.3846066,-0.1128307,0.09079482,0.2144587,0.3131774,-0.3532649,0.1879095
0.8672724,-0.06760919,0.3578862,-0.1315194,0.1308164,0.18823,0.3236094,-0.4542398,0.01089959
0.8934,-0.08509289,0.3229176,-0.1055211,0.1133048,0.153714,0.206289,-0.5479301,-0.1328234
0.9836986,-0.1148034,0.2728438,-0.01529962,0.08353005,0.1040467,0.07806609,-0.5050431,-0.165309
1.12044,-0.1380917,0.209153,0.1214155,0.06013905,0.04071187,-0.1313878,-0.2809894,-0.08085385
1.225809,-0.1604405,0.2515998,0.2268023,0.03764832,0.08346275,-0.1993969,0.06779869,0.09069977
1.212807,-0.09760756,0.3301771,0.2138523,0.1003003,0.1622909,-0.02796624,0.1873994,0.1359356
1.19354,-0.03680005,0.392193,0.1946568,0.1608871,0.2245012,0.07434769,0.08275528,0.06817722
1.235895,-0.06484474,0.4398772,0.237091,0.1325792,0.2723172,0.0594145,0.1991645,-0.01676359
1.231863,-0.09242967,0.3461416,0.2331326,0.1046854,0.178643,0.06698303,0.3968959,-0.06485087
1.164268,-0.1581368,0.2378578,0.1655966,0.03862196,0.07034443,0.1213847,0.3698127,0.07073923
1.079279,-0.2958775,0.23985,0.08064157,-0.09952096,0.07224458,0.1420132,0.1884894,0.2662806
1.047434,-0.3585143,0.2128445,0.04880111,-0.1625999,0.04507104,0.1988571,0.02048754,0.2967847
1.042381,-0.3425253,0.1882604,0.04372138,-0.1470831,0.02024628,0.3137521,0.07274304,0.1633176
0.9349579,-0.3784236,0.1880269,-0.06375872,-0.1834725,0.01970357,0.3189489,0.1733724,0.004995245
0.8452236,-0.3843522,0.1308114,-0.1535777,-0.1898995,-0.03788485,0.2750032,0.1145269,-0.05755702
0.859883,-0.3098354,0.09600223,-0.1390233,-0.1158777,-0.07312424,0.238583,0.1065069,0.001035596
0.8387654,-0.2751571,0.07997941,-0.1602572,-0.08168222,-0.08962659,0.2088403,0.03055973,0.1509037
0.8268682,-0.2635374,0.05919015,-0.1722731,-0.07052723,-0.1109357,0.2285399,-0.2107365,0.3016548
0.8883265,-0.2655286,0.0980941,-0.1109275,-0.07296101,-0.07258282,0.2583747,-0.3986162,0.3524587
0.927456,-0.2830459,0.1072667,-0.07189748,-0.09089506,-0.06398412,0.3426444,-0.5694498,0.2613453
0.9360507,-0.2631651,0.08973433,-0.06338492,-0.071402,-0.08210609,0.4386701,-0.6389127,0.135023
0.9405063,-0.2425794,0.1137104,-0.05899136,-0.05117199,-0.05872892,0.4811611,-0.5921856,0.04714583
0.9478278,-0.1852189,0.1088915,-0.05170994,0.005866338,-0.06415013,0.5126194,-0.5647297,-0.02102386
0.9787753,-0.1070833,0.106912,-0.02077943,0.08371248,-0.06673019,0.5156939,-0.4056426,0.009224854
0.9857365,-0.07672859,0.1128375,-0.01381178,0.1138068,-0.06139861,0.5012793,-0.2225631,0.05737095
0.9558589,-0.04022729,0.1012901,-0.04365992,0.1500706,-0.07352879,0.4569375,-0.1939948,0.0972784
0.939932,-0.01129497,0.1087347,-0.05953458,0.1787805,-0.06665157,0.3655034,-0.1797628,0.2165596
0.946677,0.01126142,0.09847318,-0.05271379,0.2011205,-0.07746101,0.2533266,-0.1422098,0.3250059
0.9699842,0.0317835,0.09499882,-0.02930667,0.2214228,-0.08145998,0.13569,-0.1198622,0.4686831
1.002525,0.02275656,0.09313247,0.003357766,0.2121627,-0.08382383,0.03951306,-0.06544059,0.5821136
1.035686,0.02352374,0.07273328,0.03666561,0.212674,-0.1046896,-0.02437055,0.0330509,0.5633919
1.029215,-0.002312224,0.091608,0.03036101,0.1865509,-0.08624689,-0.01696634,0.08435097,0.5184192
1.006991,-0.06579303,0.1074521,0.008320097,0.1227449,-0.07079671,0.03359343,0.1002988,0.3800771
1.048364,-0.1363149,0.1147451,0.04989047,0.05185568,-0.06385723,0.07633109,0.1204799,0.2206532
1.070898,-0.1949411,0.1402501,0.07263043,-0.007180567,-0.03866388,0.1184119,0.09005888,0.1376097
1.042851,-0.1793333,0.1500684,0.04479709,0.007977207,-0.02911491,0.09518531,0.04813853,0.07745552
1.028281,-0.1159251,0.1464965,0.03044211,0.07089856,-0.03291414,0.05169526,-0.0647448,0.1061346
1.022887,-0.06855586,0.1372067,0.02526291,0.117746,-0.04239007,0.07758964,-0.2504547,0.146399
1.104843,-0.09423569,0.1369593,0.1074308,0.09150901,-0.04278285,0.1514546,-0.3002901,0.1521846
1.260893,-0.1926454,0.1411261,0.2636852,-0.007493505,-0.03872133,0.2531885,-0.1789786,0.1021923
1.334906,-0.2845385,0.1480451,0.3378847,-0.1000127,-0.03186787,0.240829,-0.06910475,-0.1136341
1.298316,-0.3518421,0.1541259,0.30145,-0.1679689,-0.02581384,0.05485496,-0.1486397,-0.3836714
1.196782,-0.3756006,0.1125563,0.2000271,-0.1923963,-0.06737244,-0.1603804,-0.226544,-0.5835022
1.042249,-0.4133024,0.06790585,0.04555159,-0.2307711,-0.1119742,-0.2447488,-0.1428603,-0.6506367
0.9038008,-0.49917,0.08041465,-0.09289567,-0.3173026,-0.0993774,0.002090498,-0.04051862,-0.6112082
0.9043864,-0.5073948,0.1066244,-0.09236066,-0.3261668,-0.07303863,0.3951694,0.263023,-0.5458129
0.9923543,-0.4420932,0.1325202,-0.00448799,-0.2614647,-0.04697167,0.5091906,0.677443,-0.40387
1.049395,-0.3213554,0.1851213,0.052419,-0.1412733,0.005842074,0.3750934,0.6952731,-0.2207247
1.060422,-0.1669205,0.2219701,0.06327483,0.01267563,0.04294251,0.1390106,0.3888722,0.01354802
1.006147,-0.1442312,0.2158156,0.008793249,0.03494044,0.03707412,-0.09725517,0.1697977,0.1892783
0.9551932,-0.2121306,0.213189,-0.04240046,-0.03332522,0.03476299,-0.1351757,0.2407744,0.05442003
0.9388771,-0.2194742,0.2111678,-0.05898697,-0.04097972,0.0330818,-0.06499298,0.4341302,-0.1112375
0.8920143,-0.1763229,0.2040709,-0.1061449,0.0019138,0.02634503,-0.1101912,0.5483227,-0.112764
0.8293641,-0.109575,0.203835,-0.1691077,0.06845469,0.02648536,-0.1949277,0.6246852,-0.1446301
0.7615215,-0.03923075,0.194026,-0.2372712,0.1386374,0.01706516,-0.2759433,0.5577183,-0.1104385
0.7406818,-0.01498772,0.2012367,-0.2584282,0.1627564,0.02467408,-0.4446988,0.4108946,-0.02780584
0.7700578,-0.0375266,0.2272383,-0.2293531,0.1401216,0.05108022,-0.5291537,0.3077375,0.0009521942
0.7810195,-0.06528048,0.2564066,-0.2186641,0.1122906,0.08065576,-0.490812,0.1217799,0.08388129
0.8067834,-0.0937527,0.2833437,-0.1931341,0.0837524,0.107998,-0.4624847,-0.02227138,0.1490406
0.815778,-0.09876609,0.28623,-0.1843264,0.07867832,0.1112817,-0.3657548,-0.1665196,0.1747523
0.7999319,-0.06036778,0.3092947,-0.2003053,0.1170164,0.13473,-0.2757078,-0.4235122,0.1774095
0.8270128,-0.04989314,0.347235,-0.1732967,0.1274263,0.1730334,-0.247984,-0.5824163,0.07776353
0.8795032,-0.09902348,0.3428564,-0.1208132,0.07822139,0.1689901,-0.2331819,-0.6421068,-0.07666972
0.9758607,-0.175902,0.3113041,-0.02439477,0.001254639,0.137738,-0.2483208,-0.6100225,-0.2501986
1.101725,-0.2359066,0.2516522,0.101596,-0.05885244,0.07834556,-0.2212728,-0.496501,-0.28914
1.207415,-0.2332414,0.2023619,0.2074723,-0.05630182,0.02927055,-0.1755427,-0.2970639,-0.1093414
1.272383,-0.16805,0.2250386,0.2726728,0.008766232,0.0521178,-0.05221874,0.0534204,0.02857672
1.221796,-0.04720912,0.2861057,0.2223491,0.1294765,0.1133107,0.09093181,0.2472975,-0.01745273
1.163335,0.05608633,0.374797,0.1641672,0.2326311,0.2020812,-0.04011065,0.2747117,-0.142194
1.223753,0.04345703,0.4253474,0.2248688,0.2198435,0.2526592,-0.2602257,0.3628833,-0.1775058
1.256008,-0.07935534,0.300463,0.2573984,0.09684664,0.1277442,-0.342482,0.3863104,-0.03700016
1.240458,-0.2912597,0.1522501,0.2421029,-0.1152728,-0.02056157,-0.3840093,0.3670665,0.1819927
1.227114,-0.4811562,0.1795695,0.2289813,-0.3054111,0.006603471,-0.2468716,0.3989709,0.2433978
1.099577,-0.4859371,0.2127779,0.1016245,-0.3104485,0.03960034,0.02932359,0.427323,0.0832569
0.8731478,-0.3735163,0.1705223,-0.1246704,-0.1982834,-0.002920234,0.05696639,0.3723637,-0.05695384
0.6979369,-0.2877526,0.1555097,-0.2997897,-0.112761,-0.01824713,-0.111861,0.2180258,-0.112085
0.6971741,-0.2498447,0.1129681,-0.300491,-0.07507222,-0.06114726,-0.2504725,0.03718894,-0.1043573
0.8075593,-0.2533176,0.06841512,-0.1900589,-0.07873747,-0.1060968,-0.3718067,-0.1190207,0.01264803
0.8666356,-0.2711166,0.07670017,-0.1309369,-0.09669916,-0.09823838,-0.3739383,-0.2422977,0.1218392
0.9194082,-0.3160965,0.08768093,-0.07811138,-0.1418091,-0.08770603,-0.2170337,-0.4458731,0.1451312
0.9768538,-0.3785977,0.1165511,-0.02060082,-0.2044031,-0.05929863,0.002916464,-0.6005972,0.06559816
0.9490124,-0.3461259,0.1112812,-0.04836324,-0.1719811,-0.06503939,0.1521929,-0.5225242,-0.02260646
0.901772,-0.2888184,0.08372457,-0.09550933,-0.1146742,-0.0930696,0.1577043,-0.4940401,-0.0271111
0.917315,-0.2848989,0.1051256,-0.0798546,-0.1107023,-0.07213946,0.1925579,-0.4958912,-0.01881682
0.9316864,-0.206521,0.09262238,-0.06535173,-0.03221722,-0.0851055,0.2311008,-0.3486017,0.03199472
0.9158666,-0.123125,0.07736606,-0.08101789,0.05133971,-0.1008117,0.1878977,-0.2744979,0.1104145
0.9439633,-0.1209183,0.08976012,-0.0527439,0.05375666,-0.08884966,0.1667706,-0.2357028,0.1773501
0.9521408,-0.1021021,0.07581949,-0.04436421,0.07282596,-0.1031996,0.1137555,-0.126001,0.2323144
0.9358126,-0.08788143,0.08335285,-0.06046504,0.08733549,-0.0960485,0.04163796,-0.07481797,0.2384688
0.9724741,-0.0792538,0.08463482,-0.02355088,0.09628026,-0.09511751,0.002148386,-0.07171973,0.2717103
0.9790767,-0.06151019,0.07330601,-0.01667084,0.1143616,-0.1067623,-0.03400844,-0.07858452,0.3410563
0.9931362,-0.07353901,0.08068088,-0.002310486,0.1026834,-0.09966495,-0.01886791,-0.06933676,0.4147998
1.034885,-0.0680809,0.0748713,0.03976014,0.1084976,-0.1057103,0.03676729,-0.003134722,0.4427628
1.049289,-0.07062622,0.08934819,0.05450375,0.1063069,-0.09142455,0.1061065,0.09813009,0.3663781
1.077474,-0.11719,0.1110778,0.0830427,0.06009019,-0.06983933,0.1456484,0.1650882,0.2679228
1.07091,-0.1763988,0.1145079,0.07683872,0.001216717,-0.06650547,0.1224484,0.1289654,0.164415
1.053962,-0.2028501,0.1146324,0.06025409,-0.02491292,-0.06642886,0.07183907,0.08709332,0.1231954
1.049723,-0.1233834,0.1101598,0.05637646,0.05486175,-0.07090073,-0.01654735,0.05385311,0.1692869
1.031607,-0.05614014,0.1365137,0.03861553,0.1223979,-0.04449773,-0.03620892,-0.1006799,0.1701
1.09803,-0.1294883,0.1599592,0.1053836,0.04932429,-0.02095563,0.115967,-0.2204997,0.1757739
1.222546,-0.2361085,0.146504,0.2302309,-0.0570423,-0.03426842,0.2999974,-0.1440611,0.1668255
1.289949,-0.3044196,0.1420899,0.2979428,-0.1251199,-0.03849636,0.3648876,-0.06509824,0.001743835
1.261524,-0.3349597,0.1407755,0.2697905,-0.1554414,-0.0395829,0.2908977,-0.1010941,-0.2670778
1.179662,-0.3453937,0.1136636,0.1881559,-0.1656646,-0.06642661,0.1238966,-0.07020028,-0.4864919
1.054666,-0.388309,0.08375632,0.06333081,-0.2083683,-0.09602613,-0.08006089,0.009149763,-0.5985596
0.8678295,-0.43718,0.09759123,-0.1233912,-0.2570177,-0.08184373,-0.1372413,-0.01990606,-0.6756559
0.8227834,-0.4604041,0.1299449,-0.1683755,-0.2799999,-0.04910248,0.08666382,0.03980959,-0.6843066
0.9704312,-0.4604123,0.1592221,-0.02070947,-0.2797341,-0.01939825,0.3532685,0.266588,-0.5517182
1.09954,-0.3912592,0.2160323,0.1083814,-0.2102643,0.03787601,0.4365806,0.4473922,-0.3443943
1.166392,-0.2740445,0.2528616,0.1751785,-0.09268238,0.07520184,0.2763984,0.4704744,-0.1285389
1.149504,-0.2140211,0.2563062,0.1581974,-0.03223793,0.07916923,0.006783489,0.3405215,-0.005341855
1.057045,-0.2219417,0.2462338,0.0656019,-0.03968459,0.06963873,-0.06308081,0.2702916,-0.04307329
0.9701875,-0.2072025,0.2107781,-0.02143831,-0.02442178,0.03473775,-0.05978514,0.3587512,-0.1307363
0.8880151,-0.1647862,0.2105622,-0.1038363,0.01856426,0.03508403,-0.1432525,0.4732699,-0.1464324
0.8187212,-0.1456705,0.2256218,-0.1733917,0.03829099,0.05070917,-0.2135642,0.5579891,-0.1088943
0.7505938,-0.09728548,0.2122426,-0.2418063,0.08732212,0.03789498,-0.3194677,0.5333326,-0.05661891
0.7326213,-0.06553332,0.2275078,-0.2600786,0.1197479,0.05372066,-0.3654488,0.4549097,-0.009481818
0.7788338,-0.1126344,0.2447433,-0.2141646,0.07333926,0.07150851,-0.3391889,0.3711535,-0.02089305
0.785199,-0.1222577,0.2499557,-0.2080838,0.06441939,0.07726109,-0.3148003,0.1715723,-0.02940716
0.7992893,-0.1249691,0.2696521,-0.1942529,0.06241581,0.09748092,-0.2203162,-0.02534854,0.003680502
0.8099933,-0.1395503,0.2771404,-0.1837741,0.04854128,0.1054712,-0.1605048,-0.1447239,0.04786151
0.7712578,-0.08550245,0.2911353,-0.2226924,0.1032896,0.1199416,-0.1199245,-0.283147,0.1254878
0.7840854,-0.05055508,0.316355,-0.2099971,0.1389254,0.1456051,-0.05073975,-0.3970716,0.1260291
0.8606067,-0.04972023,0.33391,-0.1335507,0.1404299,0.1635663,-0.04056772,-0.4251383,0.01162754
0.9655093,-0.06867809,0.3406673,-0.02866124,0.1221156,0.1706859,-0.05897496,-0.391521,-0.1253751
1.034869,-0.1355051,0.326104,0.04074673,0.0558997,0.156435,-0.1058229,-0.3638506,-0.2343647
1.115049,-0.2095268,0.2918121,0.1210325,-0.01754687,0.1224,-0.142674,-0.3234903,-0.2147381
1.25833,-0.2437835,0.2541156,0.2644665,-0.05126455,0.08490131,-0.1224096,-0.1865094,-0.09772153
1.271951,-0.1662563,0.2803853,0.2782747,0.02676762,0.1113076,-0.08180566,-0.0409426,0.004524197
1.240723,-0.08035734,0.3650745,0.2472518,0.1131383,0.1960705,-0.05412209,0.0632165,0.006540812
1.311302,-0.0613859,0.4327208,0.3180397,0.1325461,0.2637238,-0.07474302,0.3071733,-0.1287102
1.318038,-0.03311426,0.4272941,0.3249714,0.1612142,0.2582308,-0.1094502,0.576834,-0.1888489
1.2671,-0.163993,0.2396499,0.2741999,0.03068723,0.07044079,-0.1030342,0.4856717,-0.04611859
1.197728,-0.4052729,0.05806636,0.2049531,-0.2102865,-0.1113693,-0.04517568,0.2857852,0.08889127
1.093759,-0.4291527,0.1856108,0.1010584,-0.2338994,0.01587352,-0.01697889,0.3181639,0.03273789
0.9882759,-0.3526714,0.3071991,-0.004405549,-0.1571789,0.1370916,-0.05365616,0.2865632,-0.08870706
0.8267394,-0.3253424,0.1651454,-0.1659766,-0.1296272,-0.0053968,-0.1320767,0.1755331,-0.1253662
0.7328644,-0.2380784,0.08940221,-0.2599311,-0.0421492,-0.08163559,-0.3120889,0.07533173,-0.1292238
0.827808,-0.2225599,0.1159277,-0.1650993,-0.02642083,-0.05565961,-0.4423515,-0.05184279,-0.0596431
0.9313461,-0.3062065,0.08452137,-0.06169298,-0.109859,-0.08766079,-0.4143373,-0.08264078,0.07067524
0.9454458,-0.3278831,0.1056686,-0.0477368,-0.1313254,-0.06714497,-0.3298558,-0.2437402,0.1269973
0.9308174,-0.364988,0.1292105,-0.0625156,-0.1682131,-0.04426305,-0.1345889,-0.4487442,0.08765564
0.893994,-0.3675668,0.1138734,-0.09949233,-0.1705612,-0.0602818,0.07212095,-0.461348,-0.007723531
0.8671097,-0.2880542,0.1296655,-0.1265278,-0.09079794,-0.04518666,0.2013563,-0.5317528,-0.02050848
0.8897246,-0.2397043,0.1162163,-0.1040564,-0.04217328,-0.05934252,0.3545384,-0.5676458,0.01074653
0.9116522,-0.1578134,0.1019732,-0.08225893,0.04001752,-0.07429639,0.413827,-0.460685,0.03432758
0.9140791,-0.1020968,0.0825463,-0.07994463,0.09605653,-0.09443253,0.3716898,-0.3148527,0.1558395
0.9168844,-0.1015008,0.04938764,-0.07723115,0.0969918,-0.1282925,0.3048225,-0.182301,0.2256483
0.9303998,-0.05441321,0.06789715,-0.06378384,0.1444285,-0.1104695,0.1451687,-0.1244975,0.2333804
0.9796496,-0.02864602,0.06327419,-0.01457665,0.1705467,-0.1157575,-0.01393269,-0.05064442,0.2566095
1.019336,-0.02222236,0.04882662,0.02509217,0.1773142,-0.1308423,-0.1095235,-0.01598295,0.2673912
1.000027,-0.0478096,0.06901146,0.005790238,0.1520545,-0.1112609,-0.1672721,-0.04867412,0.354241
0.9776953,-0.09167387,0.0710411,-0.01651262,0.1084937,-0.1097955,-0.1479969,-0.07511826,0.4114469
0.9892662,-0.08047393,0.07271284,-0.004892945,0.1199669,-0.1086445,-0.0768868,-0.09566787,0.4134159
0.9927263,-0.07977306,0.0833474,-0.001365127,0.1209062,-0.09848309,0.01464028,-0.0598387,0.4204836
0.9966143,-0.07829054,0.09822388,0.002608249,0.1225879,-0.08402923,0.09685423,-0.02534833,0.3521845
1.031848,-0.1081835,0.107326,0.03794331,0.09285129,-0.0752969,0.1457939,0.01485061,0.2545813
1.060663,-0.1878084,0.1186998,0.0668729,0.01333725,-0.06423883,0.1718043,0.04442315,0.1446346
1.071831,-0.1972036,0.1447756,0.07816484,0.00400782,-0.03842423,0.1259164,0.009427259,0.08938257
1.066138,-0.136031,0.1367042,0.07260032,0.06520277,-0.04670283,0.06451783,-0.0256653,0.11995
1.066894,-0.07005622,0.1276804,0.07348503,0.1311573,-0.05588062,0.1065406,-0.1179207,0.1193041
1.139912,-0.09207389,0.1428925,0.1466277,0.1090753,-0.04077035,0.1830012,-0.18516,0.1106534
1.256006,-0.1789288,0.1444648,0.2628362,0.02211022,-0.03924881,0.2280286,-0.1372518,0.05366755
1.319694,-0.2336253,0.1611208,0.326617,-0.03274174,-0.02259401,0.1785493,-0.1291614,-0.1377331
1.276215,-0.2604823,0.1696228,0.283198,-0.05979612,-0.01404558,-0.08923998,-0.1948695,-0.4056969
1.175596,-0.2501016,0.1289308,0.1825919,-0.04964892,-0.05464594,-0.4332204,-0.2334563,-0.5950133
1.042208,-0.3096243,0.08566726,0.0491634,-0.1094351,-0.09777403,-0.5075673,-0.1807881,-0.6013226
0.8867367,-0.4592956,0.08530663,-0.1064049,-0.2593917,-0.09795522,-0.2094176,-0.04690239,-0.5945356
0.8732353,-0.5448081,0.1333841,-0.1200538,-0.3451995,-0.04965361,0.1276999,0.1903991,-0.6357166
0.9832177,-0.5408205,0.1812108,-0.01026155,-0.3415008,-0.001558393,0.2430623,0.4954982,-0.5416618
1.071729,-0.4228636,0.1952308,0.07802334,-0.2238097,0.01277212,0.2332583,0.5806045,-0.3117882
1.12247,-0.2509512,0.2058734,0.1285035,-0.05212756,0.02376327,0.06819231,0.302744,-0.006365939
1.083396,-0.1846704,0.2070592,0.08913299,0.01396403,0.02533094,-0.1507327,0.06978654,0.2136704
1.025842,-0.2218981,0.1963545,0.03124589,-0.02341186,0.01503697,-0.1494614,0.2413376,0.06048272
0.9874628,-0.2373929,0.2173812,-0.007504047,-0.03901575,0.03649896,-0.1191513,0.4750032,-0.2001771
0.8884042,-0.1821427,0.2416173,-0.1069663,0.01616312,0.06119017,-0.2117257,0.5633099,-0.207099
0.8000982,-0.1349343,0.2289564,-0.1957025,0.06333541,0.04899928,-0.2799896,0.6694537,-0.1921528
0.7303485,-0.07799994,0.2127985,-0.2658983,0.1202644,0.03332137,-0.3759087,0.573293,-0.1612392
0.7069727,-0.04575926,0.2064769,-0.289722,0.1525236,0.0274855,-0.4515866,0.3643601,-0.04298528
0.7604838,-0.1081707,0.2203624,-0.2366459,0.0901465,0.04185907,-0.34066,0.3068065,-0.03566795
0.7750241,-0.1391158,0.2513177,-0.2225141,0.05924457,0.07330108,-0.1831438,0.1511077,0.006089255
0.767466,-0.1418184,0.257598,-0.2304427,0.0565888,0.08006277,-0.07187581,-0.03584823,0.09652289
0.7434752,-0.109267,0.275503,-0.2547558,0.0891871,0.09843875,0.02601555,-0.1961336,0.1149408
0.7157833,-0.01288863,0.3187073,-0.2827118,0.1856077,0.1420985,0.03053282,-0.4802796,0.1513603
0.8051792,-0.004725578,0.3249374,-0.1935122,0.1938017,0.1487622,0.00121214,-0.6079598,0.1096514
0.9635125,-0.057675,0.3094786,-0.03530053,0.1408638,0.1337084,-0.01417075,-0.5515814,-0.01634709
1.099047,-0.1231918,0.2896995,0.1001876,0.07533233,0.1142995,-0.08081635,-0.5028908,-0.1517418
1.196845,-0.1970413,0.2482424,0.198007,0.001438554,0.07317319,-0.1671029,-0.3773444,-0.2276874
1.263234,-0.1848685,0.2297907,0.2644741,0.01353721,0.05500979,-0.2093959,-0.1632144,-0.1630609
1.296143,-0.09617555,0.2684315,0.2975016,0.102127,0.09389518,-0.1080519,0.03115271,-0.1292841
1.27981,0.03409958,0.3372625,0.2813096,0.2322687,0.1629248,-0.002207023,0.1328035,-0.135744
1.279771,0.09353307,0.398488,0.2814189,0.2915326,0.2242993,-0.1208329,0.1796671,-0.1407582
1.300569,-0.01260148,0.3779765,0.3023556,0.1851834,0.2038807,-0.2332873,0.2511913,-0.1595263
1.28376,-0.2172455,0.2246308,0.2856607,-0.0197272,0.05056615,-0.1909314,0.3489275,0.0464903
1.25922,-0.4618222,0.09891817,0.2611983,-0.2646211,-0.07517873,-0.1462614,0.3320061,0.3253678
1.240801,-0.5778841,0.1700446,0.2428079,-0.3810395,-0.004143963,0.0007469254,0.244646,0.2977006
1.196224,-0.5061543,0.2522576,0.1982008,-0.3096873,0.07792321,0.2317257,0.2862441,0.09350263
1.033377,-0.448408,0.1902131,0.03525861,-0.2523202,0.01568196,0.2227752,0.2222435,-0.07115211
0.7695737,-0.3696502,0.1581176,-0.2287032,-0.1739277,-0.01665855,0.02599199,0.04151927,-0.1362954
0.6883952,-0.2352045,0.1404516,-0.3100952,-0.03982269,-0.03461406,-0.1486301,-0.01787015,-0.06205219
0.7883017,-0.2314242,0.05894575,-0.2104407,-0.03635364,-0.1164481,-0.3155144,-0.1379702,0.06147105
0.8170972,-0.2666946,0.06685498,-0.1819195,-0.07190383,-0.1088984,-0.3198108,-0.3285694,0.1697082
0.8799128,-0.2792826,0.09384456,-0.1193877,-0.08473896,-0.08229124,-0.1142634,-0.5259066,0.2195557
0.9593497,-0.3616926,0.07360819,-0.04023531,-0.1673606,-0.1029251,0.1148178,-0.6483943,0.1305317
0.9038046,-0.3589575,0.08870446,-0.09605984,-0.1647974,-0.08823447,0.3102127,-0.5785906,0.04209398
0.8931965,-0.2800374,0.06931166,-0.1069378,-0.08600423,-0.1080343,0.3864374,-0.565278,0.03316792
0.9073666,-0.2412773,0.05487652,-0.09302313,-0.04732287,-0.1228714,0.4456395,-0.5261828,0.05024936
0.8906842,-0.1924983,0.06181145,-0.1099418,0.001426016,-0.1163269,0.5624013,-0.3417868,0.1540591
0.9415575,-0.1784698,0.04999781,-0.05928122,0.01547093,-0.1285131,0.532696,-0.2765152,0.2714635
0.9406996,-0.1672458,0.07449561,-0.06032516,0.02675419,-0.1043639,0.4771133,-0.2548379,0.3721147
0.929869,-0.1294264,0.07674271,-0.07131311,0.06467116,-0.1024364,0.4495233,-0.2064243,0.4436838
0.9594522,-0.1172009,0.07128208,-0.04185707,0.07702726,-0.1081833,0.3494515,-0.2090096,0.4153674
0.947871,-0.08110182,0.0826992,-0.05353406,0.1132834,-0.09701541,0.2976285,-0.1890922,0.4385035
0.9875138,-0.05980527,0.07273902,-0.01395544,0.1347562,-0.1071845,0.2042963,-0.138062,0.468414
1.041421,-0.06086554,0.08187938,0.03991842,0.1338835,-0.09820969,0.08118065,-0.04832665,0.4296816
1.048552,-0.04550283,0.08261886,0.0470444,0.1494366,-0.09758996,0.08407718,0.021371,0.4228224
1.05991,-0.07488548,0.08607529,0.0584222,0.1202395,-0.09420537,0.1187555,0.03566919,0.3648736
1.078962,-0.1384768,0.1086177,0.07751345,0.05682216,-0.07168537,0.1612928,0.1131679,0.2874725
1.106743,-0.1948009,0.1261558,0.1053473,0.000656488,-0.05411953,0.1991461,0.1729259,0.2286768
1.086214,-0.1825129,0.1521052,0.08488126,0.01308614,-0.02809284,0.1508132,0.1230331,0.1406433
1.039085,-0.09420617,0.1495354,0.03781742,0.1015172,-0.03053725,0.04843976,0.0426956,0.0988712
1.030685,-0.0496126,0.1587314,0.0294837,0.1462156,-0.02117004,-0.002478075,-0.0820661,0.07541822
1.06345,-0.07916791,0.1845792,0.06231166,0.1167411,0.004892208,0.07280709,-0.1782997,0.04398151
1.155296,-0.1542626,0.1495663,0.1542165,0.04169874,-0.0298661,0.2154084,-0.1266925,0.01003009
1.218528,-0.2450012,0.1116542,0.2174951,-0.04901792,-0.06748602,0.2814189,-0.07866775,-0.09901427
1.186519,-0.3182211,0.09753091,0.1855134,-0.1222438,-0.08128061,0.1396888,-0.1298123,-0.3272578
1.085976,-0.3815052,0.05407705,0.08497059,-0.1855556,-0.124369,-0.1280467,-0.159304,-0.6057574
0.9448846,-0.4462762,0.01444553,-0.0561516,-0.2503664,-0.1635965,-0.2153612,-0.1679742,-0.7546914
0.8965152,-0.5278694,0.05668145,-0.1045823,-0.3319992,-0.120915,0.01906907,-0.1017915,-0.7733853
1.012739,-0.5452656,0.1232139,0.01155505,-0.3494199,-0.05389294,0.3624696,0.1764773,-0.7483464
1.155908,-0.4123746,0.1255829,0.154615,-0.2165233,-0.05099018,0.4854981,0.5115052,-0.603824
1.200704,-0.2020559,0.1594536,0.1992784,-0.006157762,-0.01654324,0.3572628,0.6330927,-0.3200901
1.153649,-0.0805101,0.2052988,0.1520609,0.1154787,0.02991746,0.1184292,0.4190535,-0.04677295
1.068087,-0.1448045,0.1731742,0.0663011,0.05131427,-0.001556862,-0.1818863,0.1988781,-0.02738375
1.01039,-0.2199433,0.1757589,0.00836805,-0.0236614,0.001708162,-0.3314887,0.3381736,-0.2292374
0.9974305,-0.1990369,0.1984518,-0.004864737,-0.002562977,0.02510708,-0.2932035,0.5338598,-0.3587079
0.9214173,-0.1693021,0.1928509,-0.08118427,0.02739029,0.0202333,-0.3346679,0.7101362,-0.3621802
0.7680867,-0.09245159,0.2280194,-0.2348482,0.1044822,0.05614538,-0.3917225,0.9261371,-0.2614207
0.7163265,-0.06068433,0.2394407,-0.286958,0.1365078,0.06832138,-0.4176047,0.8569893,-0.09955294
0.747349,-0.1124361,0.2292098,-0.2562868,0.08502424,0.05885052,-0.5031064,0.6364109,0.01158054
0.7008471,-0.1076644,0.2561247,-0.3031267,0.0900669,0.08652496,-0.4783542,0.3358738,0.08455196
0.6979105,-0.126581,0.26398,-0.3063734,0.07141839,0.09513331,-0.3803356,-0.003766206,0.0932157
0.7726708,-0.1364127,0.2552027,-0.2318815,0.06184737,0.08709654,-0.3028426,-0.03078722,0.08906673
0.7781613,-0.08215845,0.2524758,-0.2266061,0.1163506,0.08509204,-0.2127354,-0.04310885,0.13324
0.7814177,-0.07764576,0.2579399,-0.2235026,0.1210963,0.09125497,-0.2139462,-0.2250706,0.1333331
0.8120904,-0.05894304,0.283499,-0.1929131,0.1400105,0.1174846,-0.2274698,-0.3498773,0.08674854
0.880063,-0.03855975,0.3166851,-0.1249487,0.1605779,0.1513075,-0.2260492,-0.4255665,-0.03469344
0.9987458,-0.08225936,0.328113,-0.006196788,0.1170292,0.1633324,-0.3016149,-0.3733841,-0.195692
1.066632,-0.1585706,0.2844602,0.06183299,0.04083112,0.1202302,-0.387616,-0.3094906,-0.2311534
1.148326,-0.2422406,0.2433224,0.1437389,-0.04276474,0.07959184,-0.4173707,-0.2717113,-0.1267773
1.231685,-0.2194349,0.2591891,0.2273675,-0.01992209,0.09590334,-0.2695396,-0.1129587,-0.01694146
1.246885,-0.1232962,0.29237,0.2428791,0.0762196,0.1294723,-0.09107452,0.03228279,-0.05013024
1.269663,-0.05954913,0.3394922,0.2659963,0.1399363,0.1769227,-0.1079299,0.2583484,-0.1756049
1.305369,-0.05740138,0.351056,0.3020515,0.142018,0.1887507,-0.1279909,0.5222558,-0.2240569
1.346505,-0.187204,0.2358065,0.3435321,0.01211023,0.0736969,-0.08806508,0.5004271,-0.08154239
1.244638,-0.3449083,0.1287897,0.2419879,-0.145738,-0.03319433,-0.04110273,0.3872293,0.1250346
1.022555,-0.3983455,0.2082652,0.02019301,-0.1993518,0.04633906,0.03694782,0.3830795,0.07710369
0.9355855,-0.3730782,0.2776722,-0.06652779,-0.1742831,0.1157396,0.0200441,0.3288836,-0.07605158
0.8364268,-0.3049029,0.1602422,-0.165475,-0.1063176,-0.001759517,-0.108797,0.2331169,-0.1143274
0.7367481,-0.2392188,0.06788889,-0.2649712,-0.04084589,-0.09424168,-0.2791928,0.1258414,-0.1361705
0.8416789,-0.2226119,0.06460877,-0.1598753,-0.02444929,-0.09770397,-0.4262459,0.001793926,-0.05228539
0.9311347,-0.2610478,0.0553219,-0.07026138,-0.06309049,-0.1072175,-0.456558,-0.0335369,0.07282107
0.9257009,-0.3065382,0.09426145,-0.07553726,-0.1087783,-0.06854036,-0.4109649,-0.1810447,0.119624
0.9240132,-0.3714266,0.1367506,-0.07706333,-0.1738518,-0.02634173,-0.2607443,-0.4708117,0.1324076
0.9026005,-0.4211849,0.1297285,-0.09830739,-0.2237758,-0.03367695,0.00955396,-0.5522226,0.04888636
0.8875793,-0.3544374,0.1207308,-0.1131492,-0.1571662,-0.04300592,0.2379087,-0.5958392,-0.01699264
0.8686871,-0.2899747,0.1051967,-0.1318472,-0.09280624,-0.05888523,0.420498,-0.693103,-0.02137318
0.8707794,-0.2621231,0.08379855,-0.1295411,-0.06501754,-0.08063785,0.5746973,-0.5602112,0.009441203
0.9195239,-0.1659402,0.06655885,-0.08055916,0.03114318,-0.09823603,0.6041129,-0.365071,0.130132
0.9386304,-0.07238186,0.05629446,-0.06118854,0.1247177,-0.1088571,0.5457958,-0.265978,0.2293669
0.9345571,-0.05457275,0.05580476,-0.0649696,0.142575,-0.1096956,0.4798409,-0.1862193,0.3279568
0.947467,-0.06921593,0.06301947,-0.05173898,0.1280034,-0.1028159,0.3704508,-0.1724526,0.3926131
0.9812223,-0.01446351,0.06819096,-0.0176346,0.1828417,-0.09796019,0.2058731,-0.1807004,0.4184835
1.00754,0.02889978,0.06242045,0.009058759,0.2262955,-0.1040226,0.06598668,-0.1326595,0.5256037
1.007321,-0.02685446,0.05747622,0.009240657,0.1706258,-0.1092305,-0.03787505,-0.05862011,0.5527154
1.035972,-0.0647977,0.0359257,0.03831351,0.1327518,-0.1310122,-0.0637572,0.0336666,0.5332845
1.063952,-0.1206926,0.02436839,0.06673238,0.07690396,-0.1427637,0.03125813,0.1088744,0.513207
1.064248,-0.1722463,0.05965441,0.06747909,0.02537106,-0.1076302,0.1513792,0.1325161,0.3738709
1.090163,-0.1892929,0.1067843,0.09385081,0.008318282,-0.0606078,0.2518463,0.1470581,0.2409475
1.08663,-0.2302102,0.1424359,0.09077596,-0.03263148,-0.02501728,0.2573715,0.1224745,0.1226053
1.036407,-0.142778,0.1380436,0.04100586,0.05474424,-0.02942489,0.1228755,0.04862714,0.04692175
1.000408,-0.01757538,0.1246708,0.005450424,0.1798664,-0.04276882,-0.01478484,-0.0652009,0.08113723
1.014631,-0.01511693,0.1287236,0.02010609,0.182217,-0.03864449,-0.03029659,-0.2594749,0.1082289
1.139906,-0.07072801,0.08942922,0.1458005,0.1264647,-0.07782561,0.09430081,-0.3307344,0.1209362
1.264399,-0.1769511,0.06152349,0.2706938,0.02006256,-0.1055765,0.2166132,-0.1478661,0.06322645
1.226401,-0.2752083,0.1128725,0.2330696,-0.07841171,-0.05403042,0.2033854,-0.008187916,-0.1602757
1.178599,-0.3769075,0.1611274,0.1856014,-0.1803612,-0.005536124,-0.007024726,-0.08540797,-0.497104
1.172087,-0.4085494,0.1388594,0.1793758,-0.2122773,-0.02752419,-0.3629356,-0.2007578,-0.7585357
0.9734272,-0.388342,0.09833461,-0.0190513,-0.1923561,-0.0677308,-0.4906863,-0.2625607,-0.7775408
0.7630516,-0.5176926,0.09022644,-0.2292474,-0.3219923,-0.07548376,-0.2229597,-0.2805003,-0.7390545
0.8784325,-0.5491995,0.09938244,-0.1137325,-0.3537698,-0.06593582,0.1205748,-0.07787104,-0.7418728
1.082868,-0.4908453,0.1246991,0.09080058,-0.2956552,-0.04019079,0.3012364,0.3580981,-0.5960777
1.183035,-0.4587169,0.1523006,0.1910319,-0.2637207,-0.01212584,0.2803709,0.6112566,-0.3241335
1.248448,-0.2090432,0.1919282,0.2564725,-0.01418495,0.02799802,0.02176724,0.4171054,-0.04601341
1.133926,-0.09865604,0.231017,0.1419323,0.0961234,0.0676114,-0.308346,0.1928212,0.07433926
0.9559795,-0.2120244,0.2061281,-0.03608246,-0.01726857,0.04327003,-0.4064356,0.3217151,-0.07292947
0.9483317,-0.1877953,0.1939182,-0.0438484,0.006986658,0.03162474,-0.3659043,0.4844743,-0.2085832
0.9292879,-0.1913955,0.2074715,-0.06305533,0.003458252,0.04575498,-0.4158489,0.6424779,-0.190982
0.8447765,-0.1780964,0.1829002,-0.1477678,0.01687112,0.0217684,-0.4641616,0.8210365,-0.1629628
0.7749978,-0.09449731,0.1852402,-0.2177764,0.1006214,0.02469708,-0.4892003,0.6505339,-0.1064347
0.7134963,-0.1030377,0.2019949,-0.2795247,0.09226368,0.04204108,-0.5169738,0.4289265,-0.05917813
0.7228238,-0.1150098,0.2187141,-0.2704467,0.08049859,0.05934674,-0.4390044,0.2674705,-0.06432572
0.7531026,-0.1349519,0.2434348,-0.2404055,0.06078111,0.08464698,-0.3150004,0.02306381,-0.02309475
0.7728745,-0.1574797,0.2331233,-0.2208465,0.03849008,0.07490345,-0.2022108,0.001594581,0.05744878
0.7860367,-0.1282374,0.2399445,-0.2078616,0.0679768,0.08227638,-0.05524799,-0.08724656,0.1482894
0.7694755,-0.07508526,0.2695072,-0.2245555,0.1213767,0.1123699,0.0402886,-0.3203396,0.2089201
0.7995916,-0.02213427,0.2972941,-0.1945191,0.1745727,0.1406617,0.04048238,-0.4284588,0.1776769
0.8525945,-0.02860524,0.3221341,-0.1415363,0.1683363,0.1659745,0.008352104,-0.5485922,0.05389488
0.9407219,-0.07737635,0.3004079,-0.05336527,0.1197813,0.1446826,-0.03351601,-0.5443574,-0.1364117
1.102748,-0.1591322,0.2599503,0.1087681,0.03821676,0.1046147,-0.09438783,-0.4445551,-0.2167699
1.222391,-0.2248294,0.2293241,0.2285743,-0.02731641,0.07432943,-0.1158299,-0.2615765,-0.1174522
1.28615,-0.1737657,0.2305245,0.2925406,0.0238843,0.07581982,0.02357345,0.08240681,-0.02561394
1.316908,-0.0703585,0.2829553,0.3235339,0.127402,0.1284881,0.1741495,0.2108719,-0.0005673845
1.267277,0.05094022,0.3679878,0.2741475,0.2487822,0.2137028,0.06335625,0.1815155,-0.06436838
1.199791,0.1574667,0.4528543,0.2069003,0.3553531,0.2986908,-0.1858011,0.2930684,-0.1649409
1.228376,0.08740419,0.3907738,0.2357036,0.2852862,0.2366629,-0.3560302,0.4603882,-0.07239883
1.254456,-0.1186024,0.2422873,0.2619712,0.07921557,0.08815269,-0.376723,0.4990058,0.1250409
1.178618,-0.3166898,0.2199752,0.1862799,-0.1189998,0.06573742,-0.2149094,0.3843287,0.2107964
1.126434,-0.4744267,0.2212549,0.1341924,-0.2769227,0.06683574,-0.03297484,0.3308825,0.1624824
1.05383,-0.4683997,0.2039025,0.0616308,-0.2711262,0.04922644,0.04284106,0.345269,-0.02390529
0.8849411,-0.3553979,0.196303,-0.107271,-0.1583831,0.04129767,-0.005014731,0.2903948,-0.1839908
0.7464574,-0.3037161,0.1239078,-0.2458173,-0.1069747,-0.03149488,-0.1714387,0.1697965,-0.1861961
0.7265668,-0.2498433,0.08701022,-0.2658078,-0.0533809,-0.06885199,-0.3172125,0.02800342,-0.0631231
0.8211227,-0.2427027,0.0884968,-0.1713749,-0.04651935,-0.06787919,-0.4372016,-0.07593657,0.1226678
0.8932488,-0.2743197,0.08922472,-0.09938187,-0.07841162,-0.06771068,-0.4495117,-0.2553685,0.2159226
0.9136905,-0.2903608,0.1218351,-0.07907485,-0.09472012,-0.0356972,-0.2672066,-0.5084201,0.2221385
0.9323582,-0.3599852,0.1019539,-0.06053801,-0.1645995,-0.05620565,-0.06875526,-0.6037379,0.1655753
0.9064549,-0.349891,0.08515538,-0.08656436,-0.1547412,-0.07365511,0.1494367,-0.5953458,0.05171293
0.911528,-0.2905985,0.0951758,-0.08160287,-0.09565909,-0.06430269,0.3128568,-0.5950292,0.02172212
0.9419414,-0.2576211,0.06649814,-0.05128614,-0.06286145,-0.09365871,0.3957693,-0.4996505,0.04080048
0.9553834,-0.1686956,0.06106744,-0.03792336,0.02591705,-0.09977133,0.4922588,-0.3617348,0.09219886
0.9743388,-0.1262365,0.06408214,-0.01902831,0.06826088,-0.0974352,0.4413713,-0.3089402,0.2005162
0.9700737,-0.1065365,0.06291711,-0.02333459,0.08787336,-0.09926878,0.3624475,-0.263543,0.2947164
0.9880077,-0.07366622,0.06685904,-0.005422895,0.1206781,-0.0959792,0.275762,-0.179237,0.3664492
0.9922267,-0.08376842,0.05859144,-0.001207693,0.1105257,-0.1048772,0.1311377,-0.1498,0.40984
0.9831688,-0.07437547,0.06144255,-0.01025209,0.1198771,-0.1026294,0.1340711,-0.1588776,0.4745437
1.020483,-0.06951176,0.04997298,0.02709187,0.1247012,-0.1146699,0.09975788,-0.09499103,0.5195163
1.028506,-0.07174598,0.04270646,0.03515903,0.1224232,-0.1224703,0.05408748,0.01437775,0.4835655
1.033159,-0.07672305,0.06492591,0.03986814,0.1173922,-0.1007428,0.1428483,0.09748799,0.432286
1.044142,-0.1226126,0.09491891,0.05091566,0.07143361,-0.07119611,0.1815935,0.1744697,0.3183763
1.03383,-0.1567291,0.1235408,0.0406744,0.03722941,-0.04297256,0.2246271,0.1976333,0.1864467
1.041925,-0.181311,0.1173578,0.04884264,0.01253997,-0.04950525,0.2376781,0.1266337,0.1364635
1.035264,-0.1985889,0.1119917,0.04225489,-0.004864984,-0.05517216,0.1483309,0.05919559,0.1224451
1.027172,-0.1467255,0.1245949,0.03423358,0.04685283,-0.04282118,0.06303045,0.01630586,0.1353661
1.034021,-0.0674696,0.1199445,0.04114894,0.1259447,-0.04767554,0.04238357,-0.07141238,0.1458236
1.071193,-0.08412782,0.136192,0.07838133,0.1091018,-0.03158427,0.1604905,-0.1391185,0.1095466
1.184051,-0.1786216,0.1582531,0.1912893,0.01439975,-0.009632844,0.2724865,-0.09371001,-0.01955723
1.275997,-0.241331,0.1568605,0.283269,-0.04854216,-0.01109055,0.2044997,-0.0659478,-0.2844779
1.254693,-0.258301,0.1564593,0.2619707,-0.06576616,-0.01151467,-0.07028962,-0.1811804,-0.5408506
1.146704,-0.2474025,0.1190561,0.1539502,-0.05513835,-0.04890069,-0.4923053,-0.2737448,-0.6611625
1.020484,-0.3079245,0.04388069,0.02765351,-0.1159423,-0.1240198,-0.6359327,-0.20869,-0.6827312
0.9598073,-0.482968,0.02515431,-0.03314583,-0.291272,-0.1426494,-0.2777254,-0.03329529,-0.655741
0.9870103,-0.6196296,0.07712395,-0.006109621,-0.4282118,-0.09053968,0.1510252,0.2567452,-0.631095
1.039775,-0.6161356,0.1301023,0.04644853,-0.4249705,-0.03737588,0.3557283,0.5353489,-0.54456
1.083217,-0.4424432,0.1805995,0.08964686,-0.2514864,0.01335167,0.3840384,0.5383217,-0.3110199
1.101834,-0.2209943,0.2317445,0.1079815,-0.03018798,0.06476858,0.1904108,0.280313,-0.07190849
1.042212,-0.1583184,0.2307531,0.04804002,0.03239937,0.06408523,-0.06037539,0.06034206,-0.02410455
0.9784686,-0.2101405,0.1954276,-0.01606114,-0.01945181,0.02909774,-0.1051003,0.1188596,-0.1772556
0.9784381,-0.2166076,0.1847795,-0.01648519,-0.02589264,0.01881212,-0.1130753,0.321749,-0.3091724
0.9478832,-0.1630373,0.1901189,-0.04746503,0.0277556,0.02453422,-0.2025468,0.4575165,-0.2969421
0.8797951,-0.1265766,0.1899012,-0.1160037,0.0643417,0.02471569,-0.2791593,0.557205,-0.2488059
0.8303107,-0.0947349,0.191974,-0.1659572,0.09635014,0.02720068,-0.4005958,0.5281859,-0.1526802
0.8059816,-0.08973816,0.2133617,-0.1907641,0.1015476,0.04900991,-0.5257636,0.3894918,-0.01186446
0.7836999,-0.1305388,0.2397241,-0.2135212,0.06097406,0.07579935,-0.5227895,0.2625345,0.06642545
0.7899319,-0.1368849,0.2338885,-0.2077511,0.05487478,0.07039164,-0.4507004,0.04885,0.1134332
0.7854249,-0.1355747,0.2744024,-0.2049642,0.07504283,0.1079529,0.4220089,-0.1551968,0.1235065
0.8000204,-0.09313222,0.2849784,-0.1904265,0.1180477,0.1184468,0.5030086,-0.3115747,0.1344577
0.7895157,-0.04631915,0.308984,-0.2009411,0.1654013,0.1423682,0.5196889,-0.5131516,0.1515084
0.8474234,0.001915513,0.3452133,-0.1429893,0.2141475,0.1785046,0.4955209,-0.5598757,0.07460851
0.9492307,-0.0009647045,0.3586186,-0.04107946,0.2117411,0.191801,0.4177025,-0.5158072,-0.02040434
1.054837,-0.08016935,0.3405601,0.06468783,0.1329638,0.17361,0.2254795,-0.475481,-0.101879
1.14273,-0.1497633,0.2987648,0.1527944,0.06374441,0.1316514,0.02809642,-0.3999878,-0.1025984
1.224804,-0.1808799,0.2553362,0.2351252,0.03294709,0.08802371,-0.003930838,-0.2248481,0.008940833
1.267929,-0.1213743,0.2860101,0.2785367,0.09271634,0.1184599,0.1881759,-0.03516144,0.11068
1.256633,-0.02664396,0.3641227,0.2675411,0.1876542,0.1962933,0.330773,0.03284902,0.07482181
1.278534,0.002640388,0.39803,0.2897398,0.2170862,0.2298756,0.3000434,0.1441854,-0.07831435
1.317336,-0.0589925,0.3592052,0.3288238,0.1555357,0.1906741,0.2847457,0.3055903,-0.1223681
1.298594,-0.2287821,0.2497312,0.3103303,-0.01424064,0.08076653,0.3259092,0.284795,0.07699105
1.24437,-0.3851942,0.1668288,0.2563088,-0.1707065,-0.002627942,0.4477687,0.1751378,0.3625691
1.140034,-0.4309961,0.2072672,0.1521174,-0.2166205,0.03726275,0.6359945,0.1438513,0.3805002
0.9770602,-0.4166228,0.2525877,-0.01077639,-0.2024039,0.08198368,0.6757887,0.1369778,0.1325193
0.8662984,-0.3623495,0.1966434,-0.1215209,-0.1483182,0.0253908,0.4846714,0.09332009,-0.0181475
0.8093498,-0.2652631,0.1326606,-0.1785081,-0.05143901,-0.03928625,0.2379463,-9.002412e-05,-0.02833186
0.7703765,-0.1984728,0.0846185,-0.2175643,0.01513146,-0.08806279,0.04664855,-0.1451731,0.05595016
0.8348421,-0.2254309,0.05684793,-0.1532131,-0.01205568,-0.1165999,-0.05926098,-0.3095538,0.1778106
0.9044781,-0.2559074,0.1002621,-0.08371159,-0.04276867,-0.07397545,-0.0142866,-0.517689,0.220725
0.8809492,-0.2826006,0.1154517,-0.1073864,-0.06970317,-0.05959006,0.1329936,-0.6427763,0.2111197
0.8708904,-0.3429521,0.1002215,-0.1175962,-0.1302968,-0.07563188,0.3146098,-0.5569024,0.1085094
0.8723234,-0.3033915,0.1146458,-0.1163124,-0.09097358,-0.06202049,0.4678702,-0.5497039,0.02429665
0.869531,-0.2061735,0.09258699,-0.1192463,0.006016786,-0.08488757,0.4976569,-0.5959458,0.04081995
0.9044595,-0.1550421,0.07666305,-0.08444568,0.05693234,-0.1016092,0.483056,-0.4238312,0.05883273
0.9548982,-0.1132913,0.08063685,-0.03411709,0.09847749,-0.09841646,0.4959843,-0.2424417,0.1062622
0.9876859,-0.09976427,0.07427205,-0.001419523,0.1118051,-0.1055397,0.4756968,-0.1746573,0.1423407
0.9746486,-0.08266865,0.08526065,-0.01452704,0.1287025,-0.09528125,0.4522706,-0.1863224,0.1698058
0.9629914,-0.04752984,0.07255825,-0.02623503,0.1636382,-0.1086803,0.4021426,-0.2297518,0.1915915
0.9795957,-0.002057062,0.05512614,-0.009662422,0.2088963,-0.1267707,0.2578074,-0.197827,0.2158754
0.9763669,0.0441003,0.04627501,-0.0129043,0.2548191,-0.1362367,0.1273327,-0.1565341,0.3159052
0.9869828,0.0003447493,0.03464424,-0.002283547,0.2107999,-0.1484336,0.07137395,-0.04345398,0.3607265
1.022563,-0.07047725,0.04617624,0.03331823,0.1396766,-0.1374138,0.07518178,0.100849,0.3510672
1.049508,-0.1397392,0.05401354,0.06029964,0.0700704,-0.13003,0.1463242,0.1156272,0.3334959
1.071775,-0.2340182,0.09193403,0.08261321,-0.0245969,-0.09250055,0.2427736,0.1248853,0.2611867
1.066333,-0.2255667,0.140712,0.07722513,-0.01657531,-0.04404922,0.3127146,0.1241925,0.1889091
1.043535,-0.1404245,0.1324201,0.05448397,0.06809962,-0.0526034,0.2986454,0.05616024,0.1350554
1.042247,-0.05735336,0.1192606,0.05325078,0.1506682,-0.06596165,0.2696518,-0.06412342,0.1674265
1.099558,-0.02429658,0.1101006,0.1106105,0.1831859,-0.07525808,0.2961309,-0.2092981,0.234667
1.231367,-0.1245613,0.09936843,0.2424599,0.08234208,-0.08606484,0.3090508,-0.2282532,0.2267201
1.311435,-0.2568996,0.1251637,0.3225494,-0.0506165,-0.06028262,0.3190038,-0.1786775,0.1101672
1.259725,-0.341139,0.1616396,0.2708308,-0.1355136,-0.02375927,0.235601,-0.1909474,-0.20619
1.148167,-0.3839551,0.156317,0.1592215,-0.1790161,-0.02897592,-0.01303522,-0.2758905,-0.5427567
0.9932385,-0.4061933,0.1146825,0.004191787,-0.2019577,-0.07044885,-0.133074,-0.3486326,-0.6789841
0.8723754,-0.4906376,0.08877909,-0.116822,-0.2871092,-0.09613669,0.09118286,-0.2316831,-0.6489542
0.9080366,-0.550028,0.09977642,-0.08135573,-0.3471955,-0.08487042,0.3961551,-0.0609828,-0.5816166
1.016374,-0.5021222,0.1324731,0.02674999,-0.2999576,-0.0518517,0.5302666,0.04305064,-0.5581437
1.128761,-0.4024885,0.1663199,0.1388731,-0.2009486,-0.01763121,0.6043934,0.2469159,-0.4419659
1.209804,-0.2162965,0.1992769,0.2196179,-0.01532715,0.01574819,0.3974344,0.3675152,-0.2164798
1.135376,-0.05750968,0.2154154,0.1448537,0.142946,0.03235333,-0.1584371,0.2415424,0.02340985
1.013918,-0.1043802,0.197227,0.02301723,0.095614,0.0146704,-0.3808559,0.2088959,0.1196107
0.9473019,-0.1748286,0.1886284,-0.04402108,0.02474929,0.006610771,-0.3411236,0.3399006,-0.05568859
0.8680159,-0.1408624,0.1926321,-0.1237673,0.05833847,0.01118242,-0.4507148,0.4507155,-0.1458015
0.8327411,-0.1180235,0.18822,-0.1595327,0.08083508,0.00736302,-0.4904773,0.5788976,-0.1258503
0.7902497,-0.06262562,0.1871539,-0.2025344,0.1359202,0.006910531,-0.5669955,0.6267422,-0.1855952
0.7462123,-0.02339072,0.1827959,-0.2470894,0.1748648,0.003183497,-0.7049641,0.5589733,-0.1173146
0.7832717,-0.08633995,0.1909959,-0.210542,0.1116396,0.01202845,-0.7337956,0.4506904,-0.06069674
0.778359,-0.1295136,0.203767,-0.2159485,0.0681973,0.02545535,-0.7108724,0.2374433,-0.03917832
0.7779115,-0.1955894,0.207537,-0.2168605,0.001855492,0.02988832,-0.577762,0.101962,0.05527518
0.7956269,-0.2546408,0.2404341,-0.1995698,-0.05746011,0.06345179,-0.3864705,0.06415259,0.09630337
0.7636557,-0.2142501,0.2942616,-0.2319169,-0.01733079,0.1179443,-0.1302418,-0.137975,0.1916718
0.7870213,-0.1879621,0.3196899,-0.2088698,0.008700856,0.1440296,0.1215577,-0.3789699,0.2418089
0.8307035,-0.1490863,0.3099852,-0.1654411,0.04732566,0.1349667,0.2131416,-0.5236788,0.2013869
0.9078571,-0.1373716,0.3033816,-0.08847065,0.0587937,0.1289817,0.3044183,-0.6315245,0.1439913
1.050742,-0.2106051,0.2925246,0.05430279,-0.01468367,0.1187136,0.3570197,-0.6209812,-0.04436564
1.157271,-0.2327776,0.2535363,0.1607874,-0.03709777,0.08027859,0.346543,-0.4736718,-0.1418594
1.217837,-0.1914572,0.234794,0.2213672,0.003984377,0.06205014,0.3935702,-0.2786406,-0.09014239
1.228863,-0.07041084,0.2512318,0.2324504,0.1247962,0.07895983,0.4394232,-0.08922457,-0.05985229
1.231335,0.07734048,0.2881994,0.2350095,0.2723131,0.1163549,0.4627581,-0.002249429,-0.04322738
1.242212,0.1028983,0.3674337,0.2459891,0.2976276,0.195969,0.3494335,0.05165906,-0.085137
1.271505,0.05585603,0.4190865,0.275385,0.2503208,0.2479481,0.09378048,0.3428163,-0.1156785
1.311565,-0.07753858,0.3239188,0.3155345,0.1166298,0.153046,-0.04497629,0.6269313,-0.014599
1.205821,-0.3529154,0.1773418,0.209854,-0.1590802,0.006668476,0.06920847,0.3879208,0.19418
1.075611,-0.5218195,0.1588387,0.07967038,-0.3283493,-0.01170171,0.3786289,0.01188658,0.3077214
1.036434,-0.4697401,0.2033913,0.04047723,-0.2766531,0.03292067,0.6673086,0.03620316,0.162489
0.9187131,-0.4644658,0.2020798,-0.07730273,-0.2717632,0.03161951,0.6855006,0.132591,-0.04233161
0.8001015,-0.4206689,0.1713016,-0.1960113,-0.2283366,0.0007953831,0.4965346,0.121814,-0.06267498
0.7678543,-0.2079279,0.1271746,-0.2283839,-0.01594027,-0.04343031,0.3605564,0.04403319,0.1509606
0.7650255,-0.1870143,0.1085798,-0.2313539,0.004659956,-0.06217119,0.2598093,-0.2633591,0.4319309
0.8358665,-0.265568,0.1124845,-0.1606572,-0.07417527,-0.05845388,0.2177421,-0.5785077,0.5032269
0.9261551,-0.2250563,0.1079838,-0.07050566,-0.03391302,-0.06317681,0.3026247,-0.7103269,0.4022249
0.9427228,-0.2781608,0.1103793,-0.05406185,-0.08723383,-0.06103189,0.3198818,-0.7061551,0.2906128
0.9032874,-0.3080285,0.104917,-0.09360448,-0.1172831,-0.06676731,0.3701054,-0.6573449,0.1216014
0.8541341,-0.261756,0.09502244,-0.1428449,-0.07115471,-0.07695164,0.5114181,-0.6868649,0.04788536
0.8609021,-0.2630644,0.08744506,-0.1361396,-0.07256744,-0.08482985,0.6097932,-0.5725249,0.1689789
0.9019331,-0.2098925,0.07457092,-0.09514164,-0.019459,-0.09801001,0.7632251,-0.3565939,0.2249959
0.9167666,-0.1767612,0.07458163,-0.08030769,0.01364894,-0.0983046,0.8659492,-0.2739366,0.26801
0.9270623,-0.1788558,0.07803771,-0.06997582,0.0115689,-0.09514739,0.8832995,-0.2113923,0.3297578
0.9343677,-0.1011824,0.07861834,-0.06259723,0.08929106,-0.09485384,0.8521114,-0.1847964,0.2841071
0.9566918,0.006592239,0.07486341,-0.04016259,0.1971426,-0.09887918,0.6669332,-0.1610556,0.3382304
0.9925742,0.08496625,0.06341589,-0.004132651,0.275612,-0.1105758,0.4416541,-0.09690934,0.4223151
1.020371,0.09054853,0.0508322,0.02384632,0.2812952,-0.1233828,0.2353768,-0.01651239,0.407274
1.054108,0.04695988,0.03799717,0.05779739,0.2377985,-0.1364105,0.1677334,0.1117337,0.3957755
1.050179,-0.02935794,0.06894065,0.05410876,0.1615513,-0.1056242,0.2458092,0.12483,0.3058461
1.048779,-0.1423931,0.1471016,0.05297034,0.04855701,-0.02758162,0.232776,0.05007576,0.1812243
1.064096,-0.1740013,0.1834906,0.06856534,0.01695613,0.008728882,0.1970163,-0.0156563,0.0980551
1.044536,-0.08849546,0.1468466,0.04929408,0.1024352,-0.02795534,0.1161194,-0.1205694,0.07562505
1.059429,-0.005304209,0.1154247,0.06448339,0.1855644,-0.05938082,-0.02181717,-0.161787,0.1243734
1.111232,-0.02172154,0.1350346,0.1165844,0.1690457,-0.03973866,0.006541905,-0.1692216,0.1470978
1.21014,-0.1443177,0.1429256,0.2157853,0.04630409,-0.03177995,0.1269759,-0.2064588,0.1535482
1.301078,-0.3280533,0.1361818,0.307003,-0.1376219,-0.03842137,0.1822787,-0.1881632,0.01610546
1.231223,-0.4583086,0.1410557,0.2374024,-0.2681063,-0.03341125,0.112273,-0.1947609,-0.3251114
1.090463,-0.4630743,0.08726613,0.0968598,-0.2731272,-0.08703154,-0.1000338,-0.271776,-0.618327
0.9756375,-0.4760241,0.03446708,-0.0177926,-0.2863423,-0.1396276,-0.2248011,-0.2930511,-0.7590924
0.9456182,-0.5524991,0.09367453,-0.04768177,-0.3630764,-0.08018142,0.05494594,-0.2004195,-0.7388349
1.036648,-0.5858902,0.1679429,0.04343803,-0.3967033,-0.0056369,0.592502,0.1025431,-0.6198742
1.109972,-0.5275505,0.1873934,0.1168132,-0.3385584,0.0141262,0.8524878,0.5241168,-0.476272
1.164809,-0.3525448,0.2208038,0.1716629,-0.1636913,0.04788216,0.7411723,0.6098146,-0.261979
1.1696,-0.1412683,0.2519263,0.1764219,0.04751118,0.07937812,0.4944798,0.3079705,-0.03063983
1.065193,-0.08314208,0.2227848,0.07193524,0.1056271,0.0506321,0.2181452,0.1255803,0.1034401
1.014022,-0.1672245,0.1990484,0.02063418,0.02159137,0.02730753,0.09848429,0.2680079,0.01938925
0.9821173,-0.1817952,0.2113291,-0.01145026,0.007117468,0.04001178,0.09958764,0.4728705,-0.1221016
0.8716385,-0.1114614,0.1890335,-0.1221541,0.07759247,0.01814764,-0.02337321,0.6526225,-0.05607543
0.7336586,-0.06888541,0.1625931,-0.2603962,0.1203478,-0.007856284,-0.15899,0.7849148,0.01826458
0.651778,-0.02211026,0.1786408,-0.342563,0.1673323,0.008630825,-0.2241035,0.7064883,0.08472197
0.6910031,-0.01513847,0.1939794,-0.3036314,0.1745335,0.02440998,-0.3164694,0.5658064,0.2319702
0.6916605,-0.0641607,0.2185031,-0.3032572,0.1257504,0.04937322,-0.3283784,0.3790325,0.2289634
0.6731982,-0.1001758,0.2699063,-0.3219762,0.08997542,0.1012116,-0.2576247,0.07761112,0.1986418
0.7484224,-0.1581371,0.2923821,-0.2469678,0.03224888,0.1241137,-0.1931217,-0.03377361,0.2249569
0.7764602,-0.1577434,0.2961464,-0.2190932,0.0328683,0.1282892,-0.07358031,-0.1376977,0.1987897
0.7958185,-0.08507792,0.3331124,-0.1998361,0.1057482,0.1656447,0.0592161,-0.4118837,0.1956813
0.8378781,-0.0399168,0.3568086,-0.1578094,0.1511086,0.1897014,0.1255814,-0.5137709,0.09960433
0.8951842,-0.01905667,0.3509799,-0.1004637,0.1721472,0.1841967,0.0865216,-0.5170857,-0.09568582
1.011623,-0.07403745,0.3430817,0.01608833,0.1173174,0.176578,-0.05787963,-0.5344936,-0.2557073
1.100669,-0.1405043,0.3101496,0.1053166,0.05096869,0.1438745,-0.2149631,-0.4946021,-0.2957599
1.197847,-0.1318384,0.2885895,0.2027375,0.05971729,0.1224868,-0.262633,-0.3584887,-0.07454612
1.300582,-0.1178185,0.3090023,0.3057643,0.07378329,0.1430123,-0.08261742,-0.06888776,0.194526
1.366865,-0.09162323,0.3495289,0.3723691,0.09998711,0.1835886,0.123264,0.1733108,0.1948076
1.42334,-0.07043339,0.4098801,0.4291768,0.1211461,0.2439223,0.1261903,0.4483101,-0.02713082
1.421183,-0.1043191,0.408574,0.4273408,0.08718784,0.2425257,0.126717,0.6910426,-0.1573804
1.299079,-0.2238448,0.2622371,0.3055255,-0.03245342,0.09601952,0.2304374,0.4225087,0.005231182
1.094447,-0.4049404,0.1215323,0.1011332,-0.2137047,-0.0449349,0.3520555,0.1035154,0.171781
1.047338,-0.4596925,0.1612058,0.05420794,-0.2686431,-0.005587358,0.3638313,0.1769193,0.1048994
1.021068,-0.3657005,0.2026767,0.02806227,-0.1748548,0.03548772,0.2156119,0.2251933,0.001679232
0.7997239,-0.2715507,0.1200532,-0.1932117,-0.08091374,-0.04759527,0.05610378,0.2063049,-0.02459591
0.7410671,-0.189733,0.1044501,-0.2518459,0.0006977249,-0.06371483,-0.1971797,0.1501924,0.01503217
0.8286788,-0.1652865,0.1158157,-0.1642456,0.02494358,-0.05291497,-0.4619493,-0.08746549,0.1680373
0.8489508,-0.2372607,0.08013003,-0.1440065,-0.0472253,-0.08920739,-0.4641556,-0.3724988,0.2887435
0.9087621,-0.3135002,0.1017891,-0.08423971,-0.1236523,-0.06818779,-0.3288421,-0.6025407,0.2645525
0.9225679,-0.3816451,0.1062428,-0.07048321,-0.191973,-0.06439837,-0.1073637,-0.6422375,0.1782411
0.8679934,-0.3956612,0.09403778,-0.1251065,-0.2061458,-0.07728521,0.1109775,-0.5943266,0.04475748
0.8491117,-0.3101837,0.1029033,-0.1440312,-0.1207977,-0.06911232,0.2299271,-0.6678881,-0.002539545
0.8783385,-0.2364371,0.07732801,-0.1148355,-0.04714685,-0.09538443,0.3576055,-0.5504159,0.09718493
0.9203055,-0.1631708,0.06526843,-0.07288218,0.02605947,-0.1081385,0.3653185,-0.2819345,0.1990131
0.9210799,-0.1152346,0.05323164,-0.07210023,0.07396983,-0.1208605,0.3397554,-0.1706766,0.2904164
0.9289583,-0.1409453,0.05371382,-0.06419062,0.04826301,-0.1210473,0.3639622,-0.105155,0.348882
0.9500812,-0.09799522,0.07635779,-0.04301126,0.0912415,-0.09904927,0.2891793,-0.1050709,0.3718356
0.9601412,-0.03793227,0.05826745,-0.03286887,0.1513513,-0.1177567,0.1891866,-0.1187611,0.4255131
0.9884588,-0.02771077,0.04777715,-0.0044431,0.1616306,-0.1288299,0.03777446,-0.07170583,0.4948674
1.009717,-0.008484919,0.0363467,0.01694752,0.1809164,-0.1408035,-0.04124901,-0.0277759,0.5118232
1.017845,-0.04750121,0.03883093,0.02523041,0.1419533,-0.1388173,0.0330541,0.1114144,0.4344334
1.04323,-0.1395899,0.1060229,0.05078917,0.04990394,-0.07207334,0.08824919,0.189818,0.3303244
1.084471,-0.2168451,0.1595699,0.09221912,-0.02732963,-0.01892179,0.2037132,0.1330067,0.2105269
1.091373,-0.2207256,0.1628203,0.0993201,-0.03120623,-0.01601406,0.2560056,0.08461764,0.1007486
1.061856,-0.1627256,0.1265057,0.07000545,0.02678188,-0.05262003,0.1573712,0.01002814,0.07206328
1.061285,-0.1453521,0.1073113,0.06963578,0.04412895,-0.07205555,0.1172619,-0.0313214,0.06356535
1.107362,-0.1622558,0.1281528,0.1159086,0.027184,-0.05140509,0.1269116,-0.1046409,0.07733366
1.21447,-0.2180518,0.1359227,0.2232012,-0.02866832,-0.04377616,0.1800046,-0.228769,0.07369089
1.316733,-0.3388185,0.1525992,0.3256295,-0.1495043,-0.02719135,0.2399539,-0.2015442,-0.07517116
1.28029,-0.436262,0.1487911,0.2893182,-0.2470242,-0.0310434,0.1577863,-0.1902608,-0.3560868
1.131083,-0.4368236,0.08731578,0.1401986,-0.247659,-0.09251609,-0.06658538,-0.3160575,-0.6502847
0.9887921,-0.4326031,0.04486349,-0.002056053,-0.2434964,-0.1349192,-0.2440624,-0.3638645,-0.8028725
0.9780477,-0.522268,0.09122326,-0.01281756,-0.3331918,-0.0884621,-0.1144035,-0.3205634,-0.8089955
1.117446,-0.5795219,0.1730653,0.1265131,-0.3904354,-0.006473303,0.2657018,-0.1162861,-0.7247398
1.22944,-0.5263615,0.1840651,0.2383896,-0.3372089,0.004721308,0.6152582,0.3634265,-0.5225232
1.221565,-0.3687941,0.1978936,0.2303421,-0.1795066,0.01878926,0.7024665,0.6399838,-0.2508208
1.120551,-0.1222555,0.241591,0.1290957,0.06724234,0.06276585,0.3571174,0.4093707,0.004749351
0.9580677,-0.03825685,0.2099141,-0.03368546,0.1515243,0.03140258,-0.09177679,0.1974425,0.08694308
0.8757202,-0.1346044,0.1818282,-0.1163917,0.05552328,0.003659329,-0.2536432,0.2657414,-0.07286007
0.917666,-0.1548333,0.2022792,-0.07485795,0.03569409,0.02447766,-0.3397752,0.4214912,-0.2321819
0.9141278,-0.1539261,0.1994569,-0.07885208,0.03704623,0.02204393,-0.4083484,0.6970055,-0.2229588
0.798664,-0.153026,0.1942295,-0.1948062,0.03842991,0.01722235,-0.3956654,0.8825681,-0.1370885
0.6972963,-0.07508831,0.202571,-0.2966873,0.1168833,0.02598378,-0.4527293,0.7530956,-0.04999946
0.6922907,-0.05959537,0.2081603,-0.302214,0.1329161,0.0320035,-0.4961455,0.5983981,0.02936642
0.7262968,-0.09122831,0.2204098,-0.2687204,0.1018384,0.0446907,-0.5267912,0.3573874,0.0484805
0.7561574,-0.08763666,0.2379165,-0.2393483,0.1059919,0.06263844,-0.5868891,-0.01322161,0.03473746
0.7986061,-0.1102986,0.234751,-0.1973515,0.083891,0.05991326,-0.5733005,-0.1058582,0.06950005
0.8337296,-0.1047901,0.2384757,-0.1626334,0.08995344,0.06407323,-0.5343713,-0.09865411,0.1211226
0.8467681,-0.06860986,0.29503,-0.1499466,0.1266745,0.1210535,-0.4344633,-0.2469458,0.1460816
0.8572869,-0.06289596,0.3443666,-0.1397207,0.1329101,0.170801,-0.3023766,-0.3922106,0.08205399
0.8815474,-0.06888023,0.334204,-0.1156901,0.1274219,0.1610274,-0.2807545,-0.4737757,-0.09948618
0.9643132,-0.1164112,0.3220996,-0.03308911,0.08035556,0.1492821,-0.3198665,-0.4664056,-0.3125091
1.051123,-0.1678142,0.324873,0.05361957,0.02938158,0.1523781,-0.3925384,-0.4531783,-0.4147906
1.084295,-0.1952729,0.2694168,0.0867512,0.002314792,0.09720208,-0.4585843,-0.4078126,-0.2470736
1.228492,-0.2241697,0.209728,0.2309581,-0.02622655,0.03774738,-0.3658792,-0.2117972,0.05918924
1.395671,-0.1746743,0.2673843,0.3981866,0.02358968,0.09559017,-0.1263764,0.08236399,0.1718028
1.377382,-0.09762205,0.3777482,0.3799667,0.1009291,0.2060914,0.03899007,0.4901448,-0.01239321
1.367226,-0.1262842,0.402838,0.3698806,0.0725195,0.2312651,0.01882269,0.7766139,-0.2111965
1.316988,-0.2093439,0.2553415,0.3196918,-0.01032393,0.08379279,-0.0009465068,0.5850208,-0.08297294
1.118768,-0.3194214,0.0907402,0.1214869,-0.1202206,-0.08084647,0.1324054,0.2274284,0.114159
1.074046,-0.4548545,0.1696293,0.07673638,-0.2555023,-0.002054368,0.2069387,0.174295,0.1226097
1.048684,-0.4575755,0.2501786,0.05129879,-0.2580908,0.07834388,0.1298286,0.2400535,0.05015421
0.8498901,-0.3391043,0.1476481,-0.1476155,-0.1394933,-0.02438804,0.05999689,0.2079154,-0.1280219
0.7935801,-0.2675922,0.1237179,-0.2040854,-0.0678512,-0.04856659,-0.160917,0.1228667,-0.1442615
0.8606312,-0.2335882,0.104923,-0.1372225,-0.03370829,-0.06765147,-0.4247466,-0.02858363,0.03304203
0.871948,-0.2262653,0.03819415,-0.1261116,-0.0262355,-0.1347046,-0.4393663,-0.1336593,0.1309485
0.8930351,-0.2606065,0.08892904,-0.1052387,-0.06041501,-0.08432033,-0.4192844,-0.323995,0.2521474
0.8922058,-0.3299239,0.1137451,-0.1062838,-0.1295576,-0.05987324,-0.2938496,-0.6033791,0.196038
0.8729407,-0.3933465,0.1052768,-0.1257595,-0.1927885,-0.06872233,-0.05186912,-0.6287423,0.03710566
0.8709711,-0.3573576,0.1182387,-0.1279284,-0.1565852,-0.05614783,0.06989,-0.6356015,0.04445356
0.8753595,-0.3048502,0.08172699,-0.1237218,-0.1038346,-0.09304863,0.2444208,-0.6865225,-0.007044086
0.9042559,-0.2551683,0.08224716,-0.09498434,-0.05387696,-0.09291406,0.3910078,-0.5252637,0.03524693
0.9322973,-0.1574899,0.06967264,-0.06707467,0.04411052,-0.1058653,0.395611,-0.3181707,0.138378
0.9508778,-0.1233345,0.03805635,-0.04859606,0.0786054,-0.1378436,0.3877949,-0.1776709,0.1460117
0.9474786,-0.1100805,0.07419099,-0.05206603,0.09222351,-0.1020505,0.3420005,-0.1426292,0.2432945
0.9451353,-0.05775035,0.08098578,-0.05444828,0.144935,-0.09557125,0.2541696,-0.1541271,0.2895978
0.9741325,-0.02363943,0.06939026,-0.0254579,0.1794361,-0.107452,0.1180629,-0.1203684,0.3458416
0.9872792,-0.008502027,0.06834894,-0.01228627,0.1949626,-0.1087444,-0.003936763,-0.07002822,0.4526103
1.003812,-0.03105453,0.05136141,0.004302442,0.1727877,-0.125945,-0.04821648,0.05719676,0.4439898
1.02389,-0.07864715,0.05599622,0.02446374,0.1255521,-0.1214814,0.007992965,0.1608955,0.4205395
1.035977,-0.1439295,0.0792051,0.03665925,0.0605993,-0.09839837,0.145144,0.1748585,0.3370324
1.072996,-0.2030574,0.1233431,0.07380877,0.00176962,-0.05433831,0.2268447,0.1710944,0.2099252
1.081254,-0.1839405,0.1496675,0.08221453,0.02115292,-0.02804331,0.2332148,0.1169536,0.1172433
1.057247,-0.125228,0.134662,0.0583652,0.08010008,-0.04303072,0.1266656,0.01953275,0.05708707
1.053694,-0.0546321,0.1370163,0.05497817,0.1508978,-0.04061209,0.006857609,-0.1024201,0.08448777
1.075743,-0.01474161,0.1424513,0.07719401,0.1909531,-0.03506835,0.0454497,-0.2149446,0.111211
1.151473,-0.1072413,0.1159573,0.1530897,0.09857574,-0.06141036,0.1356752,-0.2481706,0.1115724
1.241727,-0.2478727,0.09322631,0.2435011,-0.04197934,-0.083947,0.2349817,-0.1478955,0.01417171
1.241367,-0.3248756,0.1146623,0.2432795,-0.1189505,-0.06227457,0.2582659,-0.05274071,-0.2586275
1.177291,-0.3637254,0.1470668,0.1793127,-0.1578063,-0.02959181,0.1052228,-0.1625682,-0.5509556
1.117061,-0.3931549,0.1505584,0.1191546,-0.18727,-0.02578132,-0.09457525,-0.2664192,-0.7676858
0.9778416,-0.4678081,0.1446212,-0.02003476,-0.2619744,-0.03136135,-0.1519748,-0.2339543,-0.8495749
0.8442728,-0.5722916,0.1416795,-0.1536153,-0.3665127,-0.03390969,0.1333965,-0.209393,-0.8211957
1.017923,-0.5607092,0.1551906,0.01998697,-0.3549723,-0.0199712,0.5701355,-0.05483526,-0.7149676
1.309371,-0.3843588,0.1771704,0.3113549,-0.1786355,0.002467591,0.6759886,0.2646271,-0.4477731
1.304173,-0.1446847,0.1817785,0.3060398,0.06106394,0.007563125,0.4101945,0.4080926,-0.1155955
1.150122,-0.02269959,0.1867569,0.151824,0.1831137,0.01305404,0.05452002,0.308713,0.0996771
