accx,accy,accz,body_accx,body_accy,body_accz,body_gyrox,body_gyroy,body_gyroz
0.6570508,-0.3261276,0.1449012,-0.3543204,-0.08369807,0.1836958,-0.02932096,-0.416827,0.2425149
0.7363576,-0.2674384,0.1524977,-0.2749906,-0.02437364,0.1915016,0.09621789,-0.53514,0.1892599
0.8019556,-0.2082586,0.1532428,-0.209308,0.03542169,0.1924498,0.2663809,-0.5330975,0.07682448
0.8872232,-0.1941084,0.1081921,-0.1238865,0.05016745,0.1475864,0.3333936,-0.3687529,-0.07246252
0.9706275,-0.1846396,0.1177715,-0.04025582,0.06020977,0.1573289,0.1583441,-0.2177381,-0.1875589
1.128016,-0.1833522,0.1132236,0.1174298,0.06204603,0.1529133,0.05622602,-0.2669656,-0.1689721
1.237372,-0.1611776,0.07648225,0.2271447,0.08474173,0.1162674,-0.04102217,-0.3529355,-0.1331777
1.217035,-0.1387891,0.1069139,0.207215,0.1076204,0.146753,-0.1799067,-0.2758953,-0.08016777
1.412615,-0.1144803,0.1524134,0.4032357,0.1323841,0.1922607,-0.2176301,0.04359462,-0.02090803
1.599486,-0.1001085,0.1791118,0.5905595,0.1471709,0.2189158,-0.2687882,0.5635462,-0.1089507
1.465493,-0.2626478,0.1522293,0.4570043,-0.01499745,0.1919324,-0.2327583,0.8261362,-0.1324341
1.397219,-0.586352,0.05012151,0.3891301,-0.3383741,0.08966074,0.1666667,0.5731335,0.1221314
1.419671,-0.8980478,-0.06018255,0.4119208,-0.649773,-0.02087187,0.8371269,0.4547267,0.334521
1.20981,-0.9961468,-0.1466223,0.2023215,-0.7475807,-0.1076013,1.250094,0.6707118,0.1109424
0.8727105,-0.7706429,-0.09428581,-0.1346008,-0.5217587,-0.05560834,1.299692,0.596509,-0.335746
0.6676385,-0.4187337,0.01511941,-0.3395776,-0.1694775,0.05340749,1.232116,0.0646977,-0.5976082
0.6571466,-0.1324466,-0.04012545,-0.3500398,0.1172478,-0.002267535,0.7596755,-0.6292187,-0.6770114
0.8129846,-0.03680775,-0.1018168,-0.1942177,0.2133882,-0.06442593,0.116594,-0.8518892,-0.5516597
0.9943104,-0.1339897,-0.1408481,-0.01293713,0.1167592,-0.1039555,-0.01528963,-0.5656601,-0.2607999
0.9994655,-0.2214395,-0.2076091,-0.007847991,0.02990094,-0.171238,0.1012517,-0.5179468,-0.01365298
0.9097006,-0.3563924,-0.1164817,-0.09769575,-0.1044296,-0.0806461,0.2482834,-0.5369914,0.05524009
0.8333511,-0.5301965,-0.0162076,-0.1741402,-0.2775821,0.01908665,0.735449,-0.613831,-0.1282434
0.7266192,-0.5056965,-0.01368997,-0.2809708,-0.2523964,0.02106095,1.260861,-1.017778,-0.2440639
0.7325623,-0.4234638,-0.02842334,-0.2751185,-0.169436,0.005783683,1.427823,-1.070229,-0.1876291
0.852347,-0.2997042,-0.1443989,-0.1554042,-0.04490162,-0.1107347,1.462217,-0.9434904,-0.1012461
0.8902725,-0.03497858,-0.2406469,-0.117519,0.2206446,-0.20752,1.367864,-0.9232196,0.1956506
0.8865278,0.02760312,-0.2169674,-0.1212681,0.2840831,-0.1843636,1.105318,-0.6252427,0.4858257
0.9041909,-0.04273706,-0.1784123,-0.1035698,0.21462,-0.146308,0.9201476,-0.4267151,0.6068095
0.9378905,0.01611961,-0.1581487,-0.06979285,0.2743575,-0.1265119,0.7311727,-0.2761548,0.6566366
0.9652599,-0.01503376,-0.1244801,-0.04230288,0.2440729,-0.09327288,0.5650094,-0.0272109,0.5951314
0.9627297,-0.08172983,-0.07527488,-0.04466954,0.1782196,-0.04445547,0.5006698,-0.05613991,0.5800687
1.02715,-0.1101292,-0.06829713,0.01995555,0.1506257,-0.0378219,0.4522719,-0.08658522,0.5077146
1.112375,-0.2198783,-0.05960393,0.1054236,0.04163693,-0.02942912,0.5486672,-0.03441332,0.384457
1.146923,-0.2608585,-0.0499258,0.1402457,0.001368416,-0.0200083,0.7071429,-0.02877326,0.3629492
1.202588,-0.2399618,-0.06603736,0.1962068,0.0229276,-0.03633504,0.8493397,0.009722637,0.2218491
1.241058,-0.1627441,-0.04648628,0.2349849,0.1007592,-0.01695809,0.9609076,-0.1066637,-0.005565349
1.265185,0.02713432,-0.054952,0.2594183,0.2912002,-0.02555808,0.8834122,-0.3004522,-0.237737
1.29042,0.09603684,-0.07110282,0.2849444,0.3606063,-0.0418045,0.7609995,-0.3772629,-0.3290259
1.272776,0.02124622,-0.07964422,0.2675634,0.286248,-0.05040365,0.5760318,-0.3238236,-0.1650383
1.229886,-0.09845752,-0.1192209,0.2248956,0.1668938,-0.09000025,0.2250915,-0.07079029,-0.1218041
1.107453,-0.3026432,-0.1101308,0.1026332,-0.03703082,-0.08089154,-0.1440761,0.1282455,-0.284618
0.9536292,-0.4330009,-0.1221192,-0.05107371,-0.1672136,-0.09282122,-0.6440696,-0.1712565,-0.5006471
0.9592518,-0.399155,-0.1945759,-0.04538818,-0.1332694,-0.1651774,-1.064707,-0.6419842,-0.6926773
1.098029,-0.4110687,-0.2592923,0.09340269,-0.145149,-0.2297476,-0.9396911,-0.518454,-0.6915471
1.231239,-0.4721868,-0.2730569,0.2265785,-0.2062851,-0.2433141,-0.6080172,0.1934083,-0.4728711
1.335778,-0.413466,-0.1900259,0.3310315,-0.1476217,-0.1600266,-0.471242,1.025307,-0.1581287
1.328981,-0.3273661,-0.09002148,0.3240866,-0.0616075,-0.05970217,-0.518794,1.317608,-0.0187906
1.128436,-0.218628,-0.01625084,0.1233215,0.04702395,0.01445209,-0.8196286,0.8857318,-0.04654106
0.8668269,-0.1061408,0.004570455,-0.1385828,0.1593855,0.03571664,-1.103451,0.5869084,0.07883735
0.722723,-0.1407025,-0.03997673,-0.2830516,0.1246767,-0.008333711,-1.122551,0.4287855,0.2710763
0.723084,-0.137967,-0.0566201,-0.2831098,0.1272388,-0.02443242,-1.078161,0.2712524,0.3822734
0.7315561,-0.1123239,-0.07255436,-0.2750924,0.1526777,-0.03977845,-1.083619,0.6262876,0.4442812
0.7074658,-0.1937266,-0.06080284,-0.2996547,0.07103616,-0.02739847,-1.154183,0.881512,0.3759845
0.6962345,-0.2332504,0.02019193,-0.3113574,0.03123677,0.05426147,-1.177939,0.7958351,0.2513092
0.6271167,-0.2869927,0.07984503,-0.380929,-0.02281739,0.114611,-1.07764,0.6283653,0.2036101
0.567071,-0.3275912,0.1289219,-0.4413928,-0.06376067,0.1644071,-0.8392072,0.07887318,0.1972789
0.5790321,-0.3115769,0.1531279,-0.4297946,-0.04811906,0.1893447,-0.4434888,-0.4480456,0.2012435
0.6425688,-0.3259295,0.1466487,-0.366547,-0.0628663,0.1835977,-0.1318566,-0.651251,0.1441609
0.8070133,-0.2764179,0.1390374,-0.202303,-0.01376614,0.1767078,0.07968302,-0.6359335,0.005086239
0.9876627,-0.2308947,0.08327177,-0.02175731,0.03133292,0.1216424,0.1804647,-0.4297311,-0.1040243
1.169012,-0.2400402,0.03392226,0.1595843,0.02175236,0.07296438,0.04573605,-0.1855891,-0.1592002
1.346989,-0.207686,0.0006260979,0.3376382,0.05366155,0.04030596,-0.08261797,0.0004784517,-0.1543044
1.448863,-0.1635139,-0.02499503,0.439656,0.09737815,0.01528646,-0.2183841,-0.04515121,-0.08006841
1.567452,-0.1327817,0.03107134,0.5584307,0.1276425,0.0719173,-0.3695244,0.1723257,-0.04119916
1.575358,-0.1511847,0.09294098,0.5665344,0.1087561,0.1343126,-0.326739,0.9256734,-0.1374482
1.306891,-0.2410376,0.1362097,0.2982516,0.01840145,0.1780643,-0.3311623,1.295754,-0.2700134
1.072953,-0.3772272,0.2013583,0.0644613,-0.1183082,0.2436469,-0.3663786,0.9187213,-0.1976128
1.126772,-0.5159722,0.1417991,0.1183838,-0.2575858,0.1844648,0.04008819,0.4291279,0.06919997
1.196412,-0.7405722,-0.1189402,0.188079,-0.4827183,-0.07595997,0.7400881,0.4532009,0.263873
1.110396,-1.032744,-0.3373126,0.1020663,-0.7754011,-0.2940786,1.167397,0.8280626,0.1414467
1.071027,-0.923011,-0.2573712,0.06264569,-0.6661271,-0.2139332,1.223344,1.000603,-0.242965
0.9449697,-0.4380198,-0.06391333,-0.06351841,-0.1815137,-0.02030753,0.9956708,0.5869318,-0.5681915
0.7230911,-0.08830849,-0.008755456,-0.2855527,0.1679168,0.03499035,0.4375721,-0.2190272,-0.7731497
0.7900442,0.03129724,-0.002750565,-0.218793,0.287335,0.0411099,-0.1567691,-0.617951,-0.7699061
0.8897259,-0.1104831,-0.03148703,-0.119328,0.1454456,0.01246284,-0.2701203,-0.8752737,-0.4372233
0.8420591,-0.3264587,-0.08287281,-0.167223,-0.07057496,-0.0388582,0.0385282,-1.127912,-0.1034562
0.905751,-0.4399703,-0.06257307,-0.1037619,-0.1840741,-0.01851639,0.4762819,-0.9034635,-0.05001104
0.8605461,-0.5552812,-0.05667929,-0.1491923,-0.2993134,-0.01260061,1.136406,-0.866647,-0.2345554
0.7443704,-0.525094,-0.05087871,-0.2655803,-0.2689884,-0.006795774,1.623027,-0.9065057,-0.3912507
0.7898069,-0.3978885,-0.05817969,-0.2203332,-0.1415709,-0.0141084,1.564429,-0.7288879,-0.3882664
0.797448,-0.1344758,-0.1335205,-0.212848,0.122131,-0.08947443,1.439275,-0.8099581,-0.1746177
0.8389388,0.1905944,-0.1664133,-0.1714702,0.4475605,-0.1224023,1.138923,-0.7037467,0.3256303
0.9694933,0.1941531,-0.1945415,-0.04097968,0.4515294,-0.1505693,0.5865727,-0.3821798,0.6902344
1.006402,0.1752472,-0.1860439,-0.004083915,0.4330588,-0.1421071,0.3072417,-0.1491071,0.832156
1.008791,0.106533,-0.1068726,-0.001658086,0.3647798,-0.06296111,0.14078,0.04932474,0.8949026
1.016711,-0.1295373,-0.06123406,0.006345062,0.1291241,-0.01733343,0.1117036,0.01835165,0.7097519
1.025637,-0.1951457,-0.003449658,0.01539583,0.06389724,0.04045581,0.3487345,-0.0663249,0.5442167
1.086777,-0.2556912,0.004232924,0.07669953,0.003695581,0.0481574,0.5302568,-0.1031102,0.4182644
1.17974,-0.2619896,-0.03252946,0.1698579,-0.002297028,0.01142542,0.7143054,-0.07674587,0.2677611
1.232783,-0.1956574,-0.02327919,0.2231187,0.06430397,0.02071505,0.8338723,-0.02489485,0.2087967
1.215788,-0.1316505,-0.03443653,0.2063524,0.1285425,0.009604281,0.7907324,-0.2816999,0.02789497
1.225131,0.05294409,-0.03113941,0.2159232,0.313328,0.01295376,0.7132495,-0.5993383,-0.08187617
1.259828,0.03944779,-0.04572614,0.2508354,0.2999733,-0.001575931,0.5489057,-0.6134701,-0.05727886
1.252877,-0.1177963,-0.1055049,0.2440754,0.1428111,-0.06129331,0.3676642,-0.348223,-0.1048228
1.217813,-0.2070161,-0.133312,0.2091663,0.0536067,-0.08903363,0.1138447,-0.05356072,-0.180129
1.096869,-0.2921428,-0.1494738,0.08833253,-0.03157181,-0.10512,-0.4099089,-0.1105273,-0.362168
0.9632852,-0.3374201,-0.1613839,-0.0451891,-0.07696406,-0.1169421,-0.9551308,-0.4781593,-0.5418295
0.9941717,-0.4612405,-0.1867155,-0.01428783,-0.2009545,-0.1421684,-0.9972205,-0.7123682,-0.6583728
1.153824,-0.5745855,-0.1949037,0.1453347,-0.3145127,-0.150229,-0.4972111,-0.2888152,-0.6831137
1.314126,-0.5637086,-0.1548492,0.3055629,-0.3038758,-0.1100193,-0.0004407858,0.5935267,-0.470938
1.351369,-0.4847204,-0.08196315,0.3426784,-0.2251371,-0.03694679,0.08368995,1.034103,-0.2557855
1.198801,-0.3016149,0.02719227,0.1899211,-0.04227694,0.07242695,-0.1779819,0.8776786,-0.167603
0.968178,-0.1214288,0.0401306,-0.0409623,0.1376749,0.08561201,-0.4951599,0.5290122,-0.07606765
0.8051725,-0.02312745,-0.03339843,-0.2042957,0.2357508,0.01235248,-0.8320992,0.2202098,0.1068037
0.7741822,-0.009231934,-0.07304197,-0.235671,0.2494211,-0.02700335,-1.094093,0.2099714,0.3149183
0.832888,-0.05100545,-0.1095662,-0.1773921,0.2074117,-0.06322369,-1.152789,0.6450832,0.4258781
0.82679,-0.1231771,-0.07854372,-0.1839443,0.1349836,-0.03188116,-1.290952,1.21123,0.4597692
0.7380157,-0.2696051,0.01213832,-0.2731865,-0.01172733,0.05913657,-1.330381,1.281721,0.3709788
0.6432519,-0.3544766,0.07583941,-0.3684173,-0.09690862,0.1231861,-1.104733,0.7385145,0.2749638
0.5683225,-0.3352893,0.1424451,-0.4437951,-0.07805358,0.1901464,-0.8742907,0.08393362,0.2732297
0.5874133,-0.3386835,0.1698829,-0.4251141,-0.08179592,0.2179359,-0.5209194,-0.2959457,0.2576792
0.6506119,-0.3316354,0.1612446,-0.3622666,-0.07510536,0.2096354,-0.1414206,-0.4620689,0.2519132
0.7312577,-0.2755761,0.156206,-0.2818967,-0.01940793,0.2049103,0.1475032,-0.5493542,0.1688393
0.8791724,-0.201908,0.1312681,-0.1341715,0.05389746,0.1802515,0.3227082,-0.3946223,0.02611071
0.981032,-0.1640263,0.115809,-0.03240998,0.09141577,0.1650291,0.2345428,-0.1393126,-0.01535064
1.071118,-0.1970532,0.08130862,0.05766736,0.05802294,0.1307167,0.03284086,-0.08796683,0.004716992
1.155605,-0.2218981,0.03969097,0.1422293,0.0328072,0.08923385,-0.2308388,-0.09567963,0.04751586
1.168862,-0.2017206,0.07927088,0.155632,0.05260758,0.1288927,-0.265134,-0.04472446,0.1185356
1.356415,-0.1980396,0.1710121,0.3433892,0.05590445,0.2206542,-0.08939133,0.1623175,0.1793083
1.60345,-0.1754404,0.2589325,0.5906665,0.07811108,0.3085313,-0.1950029,0.6680441,0.01891415
1.487254,-0.09619957,0.2656206,0.4747263,0.1569487,0.3151042,-0.3172538,1.232738,-0.2348858
1.245256,-0.09195804,0.1943117,0.2329704,0.1607724,0.2435984,-0.3688878,1.190217,-0.142617
1.213893,-0.3068981,0.1360681,0.2018191,-0.05460436,0.1850688,-0.2304281,0.5069623,0.1318629
1.251301,-0.6983846,0.01748736,0.2393951,-0.446544,0.06610955,0.3708876,0.2153136,0.2941593
1.265253,-0.950547,-0.1093367,0.2534643,-0.6991602,-0.06118396,0.8699255,0.5248879,0.2117795
1.113671,-0.8395062,-0.1102174,0.1019389,-0.5885465,-0.06261794,1.053094,0.6142654,-0.1058703
0.7974753,-0.534185,-0.1114301,-0.214263,-0.2835967,-0.06445779,0.9374124,0.04545418,-0.3007166
0.7144469,-0.2081248,-0.1409484,-0.2973531,0.04216588,-0.09466653,0.4503112,-0.588577,-0.3867933
0.8274707,-0.07162705,-0.129204,-0.184432,0.1784426,-0.08366541,-0.03011419,-0.4953974,-0.4643021
0.859756,-0.222395,-0.08748805,-0.1522755,0.0275225,-0.0427356,-0.1477719,-0.5306622,-0.3703748
0.8260513,-0.3049979,0.003868766,-0.1861233,-0.05517203,0.04780031,0.1530387,-1.075444,-0.1845458
0.8272363,-0.3157182,0.01909539,-0.1850851,-0.06592776,0.06217605,0.4387576,-1.068209,-0.003454955
0.9522634,-0.3864514,-0.13324,-0.06019951,-0.1366412,-0.09103696,0.5176141,-0.5368252,0.08383544
1.014908,-0.2538766,-0.2488608,0.00231468,-0.003991272,-0.2075562,0.1969008,-0.2723821,0.0981888
0.8651803,-0.05533801,-0.1790217,-0.1475289,0.1946756,-0.1386261,-0.4643787,-1.270522,0.2693987
0.743738,0.02930423,-0.1052016,-0.2690689,0.2794905,-0.06571458,-0.472501,-2.327146,0.5664551
0.8810106,0.02882988,-0.1524399,-0.1318678,0.2792184,-0.1138525,-0.1883191,-0.9488677,0.6868888
1.052152,-0.1213918,-0.1254521,0.03923459,0.129213,-0.08774883,0.1983491,0.7879173,0.480758
0.977982,-0.1951647,-0.05046443,-0.0349392,0.05565878,-0.01362384,1.018743,0.7473192,0.2162774
0.9240945,-0.151964,-0.06040443,-0.08879771,0.09907365,-0.02440152,0.8514429,0.528258,0.1513931
0.9292077,-0.1353016,-0.02006879,-0.08362194,0.115941,0.01512312,0.2987768,0.2179742,0.289411
0.8803193,-0.1233263,0.002602651,-0.1324126,0.1281067,0.03701057,0.372986,-0.4442112,0.5243228
0.9782838,-0.1826668,-0.03687904,-0.03431297,0.06893689,-0.00322875,0.08102502,-0.425759,0.5936186
1.07719,-0.2630014,-0.02136978,0.06476608,-0.01125032,0.01154858,0.1805634,-0.0600616,0.4496659
1.128477,-0.3522557,-0.03412303,0.1162599,-0.1003806,-0.001911169,0.6537781,0.0481555,0.2386845
1.20339,-0.4140492,-0.04467305,0.191406,-0.1620692,-0.01314224,0.6643597,0.0191731,0.03348173
1.177643,-0.2966474,-0.01522668,0.1659092,-0.04457528,0.01564867,0.8807939,-0.1372144,-0.118702
1.195974,-0.08200207,0.001884655,0.1844946,0.1701539,0.03212981,0.8257035,-0.3464086,-0.2596857
1.264164,0.04357188,0.03857751,0.2529355,0.2958003,0.06821637,0.6023266,-0.404858,-0.3291563
1.25532,-0.06162527,-0.0009125195,0.2443257,0.1906549,0.02814162,0.6868317,-0.2472906,-0.3090636
1.220945,-0.2141139,-0.0918356,0.2101555,0.03818792,-0.06334623,0.259898,-0.004930744,-0.3612198
1.147549,-0.2354501,-0.106815,0.1369273,0.01683897,-0.07886962,-0.3477351,0.08523241,-0.5027242
1.040143,-0.309976,-0.1277514,0.02964531,-0.05773343,-0.100326,-0.8557265,-0.1203261,-0.6683454
0.9960473,-0.4179277,-0.1784213,-0.01437268,-0.1657612,-0.1514872,-1.156607,-0.315798,-0.7376206
1.079711,-0.4903948,-0.1797009,0.06932473,-0.2383259,-0.1532241,-0.7473898,-0.1617589,-0.6261707
1.191185,-0.5449089,-0.08950321,0.180789,-0.2929472,-0.06344376,-0.3138907,-0.04904232,-0.4919399
1.251039,-0.5002552,0.04806701,0.2405854,-0.2483963,0.07375197,-0.2195801,-0.2191845,-0.4312423
1.265158,-0.3563657,0.0838571,0.2545946,-0.1045925,0.1092084,-0.3498949,-0.2123325,-0.4005962
1.145713,-0.1297873,-0.01738069,0.1349792,0.121924,0.007672582,-0.7482826,0.09324473,-0.2701205
0.9516987,0.01790876,-0.1099358,-0.05927106,0.2695802,-0.08514894,-1.128541,0.3804441,0.0871555
0.8438278,-0.005490464,-0.1092516,-0.1674389,0.2461531,-0.08469967,-1.423968,0.4719942,0.3936214
0.8200209,-0.01537456,-0.09676966,-0.191594,0.2362399,-0.07241922,-1.569636,0.6083774,0.5035449
0.8008613,-0.09105112,-0.06969925,-0.2111397,0.1605212,-0.0455148,-1.651724,0.9244321,0.5932538
0.749241,-0.2840479,0.01918315,-0.2631697,-0.03253883,0.04323754,-1.68309,0.888882,0.525449
0.7126667,-0.3699717,0.05403921,-0.3001621,-0.1185485,0.07799722,-1.478803,0.6550309,0.3401565
0.6883477,-0.3793096,0.05747831,-0.3248915,-0.1279902,0.08136885,-1.232304,0.628049,0.2260975
0.6187257,-0.3886442,0.1037786,-0.3948992,-0.1374394,0.1276245,-0.8416304,0.2542495,0.1795427
0.5656047,-0.3679429,0.1217296,-0.4483632,-0.1168553,0.1455466,-0.3298598,-0.3349234,0.2202348
0.598738,-0.3566548,0.1432713,-0.4155114,-0.1056803,0.1670673,-0.03433028,-0.6036772,0.1663581
0.679769,-0.311446,0.1370431,-0.3346823,-0.06057495,0.1608174,0.07470109,-0.6175061,0.05741213
0.8118879,-0.2044164,0.08037988,-0.2026727,0.04636422,0.1041242,0.1285157,-0.5619635,0.01093727
0.9987977,-0.1352966,0.07309124,-0.01577256,0.1154061,0.09679092,0.1941748,-0.5270127,-0.05720257
1.138534,-0.1672417,0.05253315,0.1240518,0.0833916,0.07616938,0.06234743,-0.2423672,-0.04501033
1.249867,-0.191844,0.02655476,0.2355619,0.05872347,0.05010591,-0.1208072,-0.0823175,-0.07177464
1.426619,-0.1419333,0.04784012,0.412562,0.1085676,0.07128286,-0.2017242,-0.1806871,-0.06629709
1.590436,-0.1319062,0.07833242,0.5766767,0.1185232,0.1016419,-0.4417545,0.2172629,0.06456862
1.58065,-0.1554823,0.1770417,0.5672081,0.09486562,0.2001902,-0.4188823,0.7710406,0.002592755
1.360613,-0.1981913,0.2457697,0.3474803,0.05206123,0.2687241,-0.3220393,1.031335,-0.1110097
1.183662,-0.3054673,0.1842976,0.1708058,-0.0553263,0.2070165,-0.4623567,0.8671617,-0.1436153
1.230535,-0.4217201,0.1100959,0.2179104,-0.1717047,0.1325303,-0.1408069,0.3543064,-0.03330552
1.258127,-0.6675362,-0.02099195,0.245679,-0.4176522,0.001104864,0.4104882,0.3105294,0.2012536
1.141582,-0.9671521,-0.1929778,0.1292496,-0.7173882,-0.1712696,0.8780782,0.7658854,0.111596
1.042336,-0.8703441,-0.1632634,0.03005272,-0.6206624,-0.1419868,1.263238,1.074786,-0.09708586
0.9222859,-0.4800665,-0.05982181,-0.09001324,-0.2304017,-0.03900919,1.13047,0.4359959,-0.1884781
0.7665947,-0.1991725,-0.1073642,-0.2457797,0.05055697,-0.0870391,0.6852616,-0.5147754,-0.2872922
0.81069,-0.07633003,-0.104775,-0.2018065,0.1735459,-0.0849539,0.2320872,-0.3659745,-0.2591594
0.9126021,-0.1797246,-0.06512165,-0.1000497,0.07036987,-0.04581483,0.05399183,-0.4692201,-0.2614108
0.8287319,-0.3768414,-0.08831088,-0.1840969,-0.1264663,-0.06952273,0.3635305,-1.23725,-0.2428493
0.8164759,-0.4813049,-0.03496515,-0.1965417,-0.2305909,-0.01669551,0.7859837,-1.297176,-0.1515323
0.8773223,-0.551443,-0.05633911,-0.1358853,-0.3003287,-0.03858416,1.276127,-1.130635,-0.2558824
0.8678718,-0.4537094,-0.1544133,-0.1455181,-0.2021264,-0.1371658,1.606186,-0.8109115,-0.3519862
0.9278521,-0.3023564,-0.1750842,-0.08570511,-0.05023114,-0.1583312,1.459525,-0.2719331,-0.3355816
0.9250223,-0.1432417,-0.1644517,-0.08868197,0.1094987,-0.1481734,1.252318,-0.2037903,-0.1598013
0.8791798,0.120197,-0.08179465,-0.134647,0.3736163,-0.06596367,0.96635,-0.3036377,0.2194715
0.9395731,0.1476131,-0.05829396,-0.07434796,0.4017567,-0.04287853,0.5822181,-0.2106912,0.449208
0.9578263,0.1168606,-0.09306687,-0.05615758,0.3717507,-0.07803273,0.3792341,-0.01155345,0.5501008
0.9920864,0.1284389,-0.05947444,-0.02192735,0.3840742,-0.04478574,0.1099997,0.1237039,0.6236625
1.035335,-0.05613723,-0.06054127,0.02132368,0.2002214,-0.04616085,0.02227408,0.1754975,0.5941096
1.009234,-0.1780421,-0.02805022,-0.004743533,0.07900349,-0.01394043,0.2729022,0.1162575,0.5823894
1.04016,-0.2695433,-0.0009974022,0.02624275,-0.0118542,0.01287879,0.4590629,-0.01281,0.5222447
1.087556,-0.3202861,-0.02889287,0.07372438,-0.06199779,-0.01521488,0.7038081,0.1635621,0.3412518
1.136131,-0.2917263,-0.0070569,0.1224049,-0.03288036,0.006456346,0.9221647,0.2480498,0.07208389
1.168806,-0.3081204,-0.007226589,0.1551989,-0.04875464,0.006153446,0.9948035,-0.1164112,-0.2743202
1.147937,-0.1544395,-0.005148075,0.1344536,0.1054108,0.008128156,1.022705,-0.4860209,-0.4964995
1.194943,-0.04122926,-0.00781118,0.1815806,0.2190693,0.005388449,0.877255,-0.507009,-0.4951665
1.234211,-0.1087453,-0.08187936,0.2209581,0.1519597,-0.06873075,0.5231925,-0.03149175,-0.4382375
1.169027,-0.1796393,-0.1414537,0.1558619,0.08142398,-0.1283303,-0.2479556,0.232477,-0.4477636
1.033639,-0.3069342,-0.1368435,0.02053428,-0.04556409,-0.1237165,-1.036998,-0.4407219,-0.4891892
0.9094098,-0.3611657,-0.1309994,-0.103665,-0.09953838,-0.1178364,-1.157946,-1.276994,-0.5415256
1.015685,-0.3762908,-0.1966681,0.002612411,-0.1144498,-0.1834322,-0.9105057,-1.109082,-0.5563664
1.291196,-0.4732241,-0.2055226,0.2780996,-0.2112047,-0.1921719,-0.4769946,0.08776757,-0.3863338
1.443095,-0.5327772,-0.1202407,0.4299438,-0.2706039,-0.106728,0.03614662,1.271576,-0.1689047
1.365849,-0.4590124,-0.0416749,0.3525978,-0.1966969,-0.02794972,0.0721906,1.387792,-0.1521792
1.092763,-0.2260139,0.06671587,0.07935247,0.03644254,0.08070307,-0.4320184,0.5671212,-0.1514736
0.8420702,-0.01920195,0.1028606,-0.1715628,0.2433973,0.117154,-0.9722799,0.05369055,0.01179418
0.7896727,-0.01124228,0.02708435,-0.224241,0.2514953,0.0417201,-1.221384,0.07761996,0.1725485
0.801729,-0.08293149,-0.03919258,-0.2125099,0.1799289,-0.02418526,-1.266899,0.206777,0.2832468
0.7766212,-0.08953186,-0.06248332,-0.237972,0.1734256,-0.04707918,-1.223257,0.5926558,0.3780049
0.7841584,-0.16979,-0.01952547,-0.2308036,0.09323141,-0.003701041,-1.183104,0.8351944,0.3640674
0.7848781,-0.3099276,0.03990304,-0.2304531,-0.04687931,0.05616916,-1.110776,0.8061917,0.2924606
0.6916976,-0.3122474,0.09673329,-0.3239897,-0.04920837,0.1134583,-0.9125345,0.5365074,0.2329674
0.5787918,-0.3374597,0.1377065,-0.4372234,-0.07446147,0.1549008,-0.7137707,-0.1070627,0.1830753
0.5384833,-0.3513981,0.1263557,-0.4778133,-0.08846683,0.1440212,-0.4494395,-0.4906653,0.2152343
0.6225584,-0.2866011,0.1196511,-0.3939537,-0.02375702,0.1377809,-0.1493145,-0.5825757,0.2410361
0.7723528,-0.2760699,0.08487293,-0.2442916,-0.01332884,0.1034521,-0.005635474,-0.4937324,0.1894387
0.8706671,-0.1836392,0.05532217,-0.1460157,0.07898507,0.07432969,0.04872877,-0.229745,0.1267116
0.977602,-0.1385018,0.1049479,-0.03902167,0.1239915,0.124358,0.00674931,-0.1071452,-0.001242971
1.072724,-0.2026499,0.1495008,0.05625425,0.0596953,0.1692828,-0.09627764,-0.01019226,-0.131654
1.14709,-0.1793315,0.1558227,0.1308624,0.08284561,0.1759397,-0.1912291,-0.1981276,-0.1330257
1.309073,-0.1337641,0.1288465,0.2931618,0.1282224,0.1492552,-0.3128782,-0.4109462,-0.02196487
1.467607,-0.09339042,0.1034064,0.4520704,0.1683795,0.1240574,-0.3523573,-0.08405015,0.09346014
1.539144,-0.1659922,0.1177305,0.5240151,0.09553086,0.1385702,-0.3102628,0.4809338,0.05516441
1.476128,-0.3461305,0.1275796,0.4614128,-0.08488719,0.1485507,-0.2526064,1.033195,-0.03190661
1.348777,-0.4998883,0.1008994,0.334457,-0.2389541,0.1219413,-0.06540996,0.9996241,-0.0003276612
1.292108,-0.7068085,-0.01206869,0.2781428,-0.4462014,0.008981285,0.3223762,0.4980875,0.09565982
1.145337,-0.825124,-0.139837,0.1316733,-0.5648422,-0.1188397,0.8135639,0.3783097,0.1989539
0.8959675,-0.7531392,-0.1097251,-0.1174551,-0.493156,-0.08883498,1.161113,0.4232881,0.1024601
0.6797853,-0.5611056,-0.0217955,-0.3334518,-0.3013701,-0.001058566,1.191074,0.3199676,-0.2077357
0.6029534,-0.2600718,-0.02473751,-0.41014,-0.0005168836,-0.004193635,0.9935361,-0.07850449,-0.4641379
0.7921454,-0.09021779,-0.03364468,-0.2208271,0.169227,-0.01332953,0.7254119,-0.5814455,-0.6318808
0.984675,-0.1181953,-0.04187529,-0.02818352,0.1412028,-0.02182083,0.5048506,-0.6057022,-0.5853046
0.9988626,-0.1403464,-0.07016687,-0.01388095,0.1190572,-0.05040098,0.4172185,-0.5921736,-0.3376259
0.9647924,-0.2223947,-0.05904379,-0.04783313,0.03705658,-0.0395898,0.4741666,-0.7635324,-0.1363424
0.8712378,-0.371167,-0.05828393,-0.141265,-0.1116325,-0.0391605,0.6467152,-0.7072096,-0.03614422
0.7752839,-0.3917318,-0.05065796,-0.2370866,-0.1320797,-0.03187942,0.926097,-0.6950311,-0.1019181
0.7550658,-0.338536,-0.02379649,-0.2571549,-0.07872973,-0.005373522,1.240001,-0.7883897,-0.1093332
0.7781785,-0.3338605,-0.03979027,-0.2338643,-0.07386131,-0.02173071,1.371847,-0.8244899,0.03090502
0.783151,-0.3428974,-0.03831458,-0.2286761,-0.08266564,-0.02062381,1.336613,-0.8397848,0.1430161
0.7921419,-0.2852949,-0.04701692,-0.2194228,-0.02479066,-0.0296979,1.261584,-0.584491,0.4106206
0.9363271,-0.05547239,-0.1185663,-0.07492209,0.2053419,-0.101619,0.9691214,-0.1868587,0.6421047
1.064632,0.1818763,-0.169262,0.05375363,0.4430287,-0.1526817,0.4852855,-0.01714345,0.6791593
1.012701,0.1116679,-0.1176091,0.002245786,0.3731687,-0.1013845,0.1045792,0.04241713,0.6897375
0.9717892,-0.05013486,-0.01059786,-0.03819654,0.2117045,0.005287756,-0.03768663,0.0712173,0.545161
1.048006,-0.05097945,0.0004196102,0.03853214,0.2111729,0.01598559,0.001825157,0.03349013,0.3873803
1.122602,-0.1385982,-0.04095074,0.1136766,0.1238311,-0.02568521,0.08552918,0.08677133,0.3345996
1.166302,-0.258579,-0.04456208,0.1579543,0.00408522,-0.02957805,0.250785,0.2393326,0.3056875
1.211279,-0.2691839,-0.03789525,0.203528,-0.006328087,-0.02317324,0.4591389,0.2887202,0.2293939
1.19214,-0.2964626,-0.01695976,0.1849918,-0.03345652,-0.002479797,0.533556,0.04841071,-0.06141439
1.180539,-0.1980004,-0.02937343,0.1739894,0.06511744,-0.01511555,0.5074347,-0.3445807,-0.3521939
1.218078,-0.09918632,-0.05072685,0.2121096,0.1640058,-0.03667118,0.4225914,-0.377671,-0.4528955
1.181611,-0.1857464,-0.05452809,0.1761988,0.07748028,-0.04065439,0.2076716,-0.07442379,-0.4602229
1.083066,-0.2764009,-0.09499662,0.07817425,-0.01318173,-0.08128349,-0.2988624,-0.06085418,-0.5210295
0.9550013,-0.38189,-0.1412982,-0.04940976,-0.1187187,-0.1277219,-1.038189,-0.6155162,-0.6747505
0.9498337,-0.4062726,-0.1774281,-0.05413641,-0.1431836,-0.163961,-1.360059,-1.103027,-0.693802
1.143829,-0.4112449,-0.1633364,0.1402625,-0.1482637,-0.1499453,-0.8988019,-0.4327029,-0.6307851
1.364801,-0.5786368,-0.1239156,0.361599,-0.3157784,-0.1105619,-0.3285831,0.8110671,-0.5187408
1.505768,-0.6110927,-0.1113219,0.5028802,-0.3483585,-0.09796302,-0.1894236,1.147239,-0.3061299
1.328334,-0.4314997,-0.03580185,0.3256927,-0.1688757,-0.02239321,-0.2486052,0.8450575,-0.2212948
0.9428629,-0.165457,0.03345553,-0.05961248,0.09708139,0.04695795,-0.5433029,0.493401,-0.1080676
0.7903657,0.04450919,0.0002099695,-0.2120263,0.3069868,0.0138468,-1.010192,0.1914991,0.1639819
0.8089059,-0.01009375,-0.05844358,-0.1934751,0.2523379,-0.0446358,-1.179688,0.254664,0.3758471
0.8119772,-0.06905467,-0.08814032,-0.1904505,0.1933321,-0.07412739,-1.224242,0.6190974,0.4983831
0.7631805,-0.04835584,-0.06666665,-0.2393368,0.2139752,-0.05241486,-1.315689,1.03459,0.5200202
0.7312257,-0.21229,-0.0009741371,-0.2714097,0.04996563,0.01354976,-1.265813,1.117773,0.4234191
0.6787356,-0.3325856,0.09456475,-0.3240305,-0.07042937,0.1093914,-1.15551,0.6902233,0.2861413
0.5261602,-0.3002848,0.1636287,-0.476732,-0.0382507,0.1787824,-0.9256311,0.08340093,0.2248071
0.5262062,-0.3209296,0.1589181,-0.4767871,-0.05903622,0.1744138,-0.5783436,-0.4060368,0.2768209
0.5833047,-0.3040447,0.1459785,-0.4197429,-0.04230618,0.1618205,-0.3204724,-0.5800993,0.3017349
0.588457,-0.2781182,0.1406903,-0.4145785,-0.01654501,0.156873,-0.08436032,-0.5811558,0.2310647
0.7387852,-0.2754196,0.1241036,-0.2641554,-0.01401932,0.1406127,0.09928853,-0.5199487,0.1286315
0.8716265,-0.196698,0.1211735,-0.1311261,0.06452318,0.137987,0.07566057,-0.325506,0.02781165
1.003703,-0.176446,0.1139985,0.001234665,0.08458943,0.131088,-0.0798957,-0.1821728,-0.05883934
1.187879,-0.203765,0.07479277,0.185786,0.05707598,0.09212458,-0.3113139,-0.08674173,-0.06720111
1.310797,-0.2125307,0.04628023,0.3091586,0.04810467,0.06381667,-0.4600505,0.07466113,0.03539868
1.457407,-0.2168562,0.0808265,0.4562827,0.04356096,0.09852762,-0.3280278,0.3863923,0.1076007
1.511221,-0.1743944,0.1607235,0.5106443,0.0857908,0.1785469,-0.2208322,0.8776722,-0.02964818
1.410196,-0.1752427,0.2230333,0.4101746,0.08469501,0.2409321,-0.3050134,1.085433,-0.1830027
1.26638,-0.2880457,0.1867013,0.2668967,-0.0283726,0.2046215,-0.2453444,0.7194775,-0.04301651
1.162901,-0.5550024,0.06073483,0.1639202,-0.2956088,0.0786162,0.07263514,0.2921137,0.1953239
1.192172,-0.8731592,-0.06867875,0.1936484,-0.6140483,-0.0508987,0.6440571,0.2184686,0.2869767
1.186603,-0.9601587,-0.1570614,0.1884813,-0.7013106,-0.1394413,1.207,0.3668533,0.1731802
0.9898238,-0.7359266,-0.1583115,-0.007954607,-0.4772916,-0.1409013,1.210518,0.4455847,-0.1399975
0.7495381,-0.3630281,-0.1169947,-0.2479565,-0.104532,-0.09983355,0.7818055,0.1162733,-0.3656455
0.6714492,-0.1411518,-0.09321259,-0.3258116,0.1172896,-0.07633019,0.3460332,-0.3727844,-0.4519954
0.7456978,-0.1371309,-0.05573502,-0.2513632,0.1213359,-0.03915358,0.06414924,-0.6251685,-0.4384252
0.7891451,-0.1912954,-0.0524068,-0.2077344,0.06726684,-0.03614297,0.09278331,-0.9660672,-0.2217071
0.8236075,-0.2873671,-0.07026104,-0.1730956,-0.02864903,-0.05432709,0.3653169,-1.243143,-0.01475632
0.9086434,-0.4298931,-0.08247241,-0.08787911,-0.1709639,-0.06687637,0.8241549,-1.055368,0.03242648
0.9235328,-0.5244295,-0.1446282,-0.07279876,-0.2652337,-0.1293732,1.299323,-0.6756387,-0.1143714
0.902478,-0.4514038,-0.1631965,-0.09364871,-0.1918804,-0.1482794,1.397457,-0.3632581,-0.2613929
0.9090942,-0.2427063,-0.1169117,-0.08681094,0.01720994,-0.1023221,1.239651,-0.4053925,-0.1451043
0.8942738,-0.001902111,-0.09699902,-0.1013904,0.25847,-0.08272031,1.036726,-0.5961093,0.01852581
0.919257,0.1154431,-0.09331805,-0.07614419,0.3763217,-0.07932886,0.7557553,-0.4368137,0.2457013
0.9628952,0.08654692,-0.10693,-0.03221891,0.3479628,-0.09320526,0.4387662,-0.2627199,0.5089372
0.9610991,0.1499542,-0.1129676,-0.03370342,0.4119162,-0.09947892,0.07694821,-0.07137285,0.5828669
0.9698905,0.1192749,-0.08996745,-0.02457677,0.3817702,-0.07668313,-0.1999417,0.1843664,0.6597016
0.9739966,-0.05694576,-0.06821339,-0.02011287,0.2060504,-0.05509902,-0.2343219,0.1008944,0.6757055
0.9820132,-0.1014774,-0.04653168,-0.01171735,0.1619732,-0.0335515,-0.134289,0.06614961,0.5721608
1.030224,-0.2069275,-0.03315737,0.03689141,0.05692326,-0.02027552,0.0003765685,0.1197849,0.4717642
1.101813,-0.2882548,-0.02900497,0.108894,-0.02406069,-0.01618644,0.2461404,0.08726009,0.2656354
1.169788,-0.2461062,-0.02998402,0.177292,0.01837571,-0.0171951,0.5009175,0.2044272,0.07569084
1.180353,-0.2498969,-0.03298677,0.1882805,0.01482031,-0.02019523,0.5610555,0.08678558,-0.05362917
1.176842,-0.1377819,-0.03447392,0.1851835,0.1271198,-0.0216489,0.543272,-0.1742348,-0.2027624
1.216215,-0.05067613,-0.04202703,0.2249505,0.2143584,-0.02913891,0.415132,-0.2577029,-0.2870166
1.268419,-0.1374733,-0.04494716,0.2775177,0.1276381,-0.03196731,0.08561869,-0.2616554,-0.3608765
1.268211,-0.2539489,-0.05891901,0.277631,0.01117975,-0.04581952,-0.2997864,-0.2266628,-0.4638413
1.150095,-0.3482984,-0.08891833,0.1597839,-0.08321124,-0.07567145,-0.7574615,-0.5301273,-0.5580828
1.02938,-0.3472792,-0.1531675,0.03927661,-0.08228699,-0.1397444,-1.059951,-0.78006,-0.5701766
1.065039,-0.3903561,-0.2759609,0.07508114,-0.1255041,-0.2623293,-0.9516335,-0.3097618,-0.5080728
1.186922,-0.5208756,-0.3097016,0.1970464,-0.2561991,-0.2958218,-0.6813345,0.5814547,-0.4763485
1.24719,-0.5570638,-0.1433238,0.2573313,-0.2925853,-0.1291473,-0.4026302,1.167807,-0.3924039
1.203317,-0.4897734,0.04819034,0.2134031,-0.2255004,0.06271737,-0.2338266,0.758793,-0.3241587
1.091806,-0.316172,0.06746546,0.1017589,-0.05209888,0.0823946,-0.4316999,0.1862945,-0.2649037
0.9772095,-0.0984484,-0.03936066,-0.0130495,0.1654368,-0.02398449,-0.7884372,0.3244029,0.03157104
0.905906,-0.00827344,-0.1201933,-0.08464043,0.2554331,-0.1043306,-1.0101,0.4035385,0.3284575
0.8651181,-0.05636037,-0.130563,-0.1257829,0.2071675,-0.1141756,-1.201258,0.5310164,0.40784
0.8145083,-0.1227233,-0.08947879,-0.1768032,0.1406153,-0.07252807,-1.334763,0.996899,0.4012083
0.7430809,-0.2270732,-0.005355964,-0.2486839,0.03605829,0.01219664,-1.38108,1.095701,0.3163414
0.6842507,-0.3523372,0.09089528,-0.3079946,-0.08943292,0.1090851,-1.296464,0.8631783,0.2079369
0.6405374,-0.3474065,0.135377,-0.3521984,-0.08474685,0.1542321,-0.9740726,0.5373614,0.1331606
0.5948852,-0.316377,0.1234602,-0.398332,-0.05397401,0.1429988,-0.6892494,0.1289122,0.1338984
0.5758388,-0.3247534,0.1343451,-0.4178307,-0.06261379,0.1545747,-0.4583135,-0.2028575,0.205436
0.5905599,-0.2821726,0.1468165,-0.4035132,-0.02029896,0.1677343,-0.194742,-0.4877466,0.2214552
0.6519892,-0.2432452,0.120097,-0.3424204,0.01836257,0.1416905,-0.04635361,-0.59743,0.2053378
0.7673152,-0.2020282,0.1114267,-0.2273493,0.05931474,0.1336747,0.01298401,-0.5041465,0.1648785
0.9046603,-0.1818342,0.1005098,-0.0901683,0.07924348,0.1233834,-0.08941581,-0.3660897,0.09562265
1.05525,-0.2236047,0.08774709,0.06034957,0.03720523,0.1112113,-0.2138324,-0.2019716,0.01450179
1.207042,-0.2460273,0.0991891,0.2121567,0.01451046,0.1232037,-0.2585468,-0.1501496,-0.1152227
1.34674,-0.2319706,0.08663891,0.351943,0.02828998,0.111159,-0.3264783,-0.2145404,-0.1620921
1.464441,-0.1776072,0.09584611,0.4697858,0.08237061,0.1208227,-0.3141329,-0.08378177,-0.1218016
1.532559,-0.1007161,0.1484807,0.5380741,0.1589714,0.1738605,-0.363452,0.5689215,-0.1361126
1.451763,-0.1036404,0.1844469,0.4574495,0.1557447,0.2101719,-0.507972,1.330908,-0.1870153
1.252555,-0.3153695,0.1591125,0.2583893,-0.05630346,0.1851183,-0.5607814,1.223045,-0.1678855
1.186426,-0.6820035,0.02350707,0.1923678,-0.4232714,0.04972418,-0.2106228,0.4757479,0.072703
1.203473,-0.8973951,-0.1384533,0.2094714,-0.6389972,-0.112095,0.5914668,0.2113468,0.3524263
1.076325,-0.8556603,-0.1858865,0.08232258,-0.5975714,-0.1594516,1.089937,0.6182796,0.2689084
0.8820734,-0.6518506,-0.1266544,-0.1119894,-0.3940172,-0.1001973,1.125325,0.9250103,-0.05100217
0.7883214,-0.3448119,-0.09074356,-0.2058561,-0.08715966,-0.06430845,0.9472347,0.487621,-0.3395838
0.7866118,-0.1460275,-0.08482283,-0.2077236,0.1115254,-0.05844627,0.5432207,-0.07225289,-0.6130154
0.7659395,-0.1713656,-0.01000799,-0.2285833,0.08616543,0.01627928,0.277381,-0.2240677,-0.6691521
0.76974,-0.2434904,0.01801111,-0.2249856,0.01408756,0.04418176,0.2586654,-0.8533203,-0.4336808
0.831216,-0.3191838,-0.03374065,-0.1637151,-0.0614976,-0.007712386,0.5213112,-1.554825,-0.2056959
0.8864854,-0.4050283,-0.07277695,-0.1086434,-0.147176,-0.04691508,0.99599,-1.334356,-0.1200114
0.9277613,-0.358883,-0.1468713,-0.06755028,-0.1008069,-0.1211961,1.289675,-0.7861851,-0.1690093
0.8905304,-0.2353902,-0.1514679,-0.1049445,0.02296791,-0.1259935,1.403498,-0.1719935,-0.1902695
0.8609531,-0.1042086,-0.06897184,-0.1346617,0.1544861,-0.04370546,1.275433,0.03487136,-0.1335881
0.8888315,0.05261469,-0.03478067,-0.1068953,0.3116906,-0.009724304,1.011865,-0.4012966,-0.05941642
0.8776782,0.1116249,-0.009165058,-0.1181283,0.3711112,0.01568177,0.8315877,-0.4766961,0.1975654
0.8979935,0.116726,-0.02183008,-0.09785675,0.3766317,0.002808375,0.5242394,-0.3869911,0.4506179
0.9034339,0.1169092,-0.06935928,-0.09242102,0.3772227,-0.04492756,0.2039729,-0.3548012,0.5485126
0.8911173,0.03414357,-0.07651541,-0.1047011,0.2948342,-0.05228728,-0.0218928,-0.1171576,0.6438524
0.9457119,-0.05358989,-0.07043916,-0.05002708,0.2074314,-0.04640898,-0.1435817,-0.1284588,0.6441223
1.013229,-0.1445389,-0.04679443,0.01761238,0.1167563,-0.0229541,-0.03350786,-0.1633967,0.597472
1.12757,-0.2276021,-0.05020086,0.1321162,0.0339052,-0.02654047,0.09100915,-0.0130838,0.5364494
1.212508,-0.2445669,-0.06234864,0.2172493,0.01709014,-0.03885701,0.2602316,0.1384232,0.3757498
1.211382,-0.2416223,-0.03075526,0.2163404,0.02012459,-0.007420104,0.4936505,0.2669667,0.1987522
1.220168,-0.1622322,-0.03015256,0.2253522,0.09954688,-0.006960937,0.4759152,0.07696744,0.02251451
1.235503,-0.02608623,-0.02610326,0.2409091,0.2356678,-0.003042231,0.3473628,-0.2304789,-0.1186706
1.281788,0.01887999,-0.0133402,0.2873986,0.2805474,0.00960278,0.2651464,-0.3290586,-0.1799543
1.311433,-0.1048044,-0.03870822,0.3172186,0.1567078,-0.01587133,0.1622225,-0.3132155,-0.1639917
1.258301,-0.2947811,-0.05329893,0.2642189,-0.03349688,-0.03055638,0.04674985,-0.1899744,-0.1638639
1.137403,-0.3431651,-0.070877,0.143399,-0.08217945,-0.04821652,-0.288233,-0.1363597,-0.3131646
0.9535218,-0.3155417,-0.0833425,-0.04046444,-0.05491781,-0.06075046,-0.8056669,-0.3343986,-0.4950967
0.8808565,-0.3392455,-0.09786494,-0.1131708,-0.07903741,-0.0753257,-1.074792,-0.6202883,-0.5701744
0.9829772,-0.412955,-0.15376,-0.01114362,-0.1532077,-0.1312551,-0.9968813,-0.5896061,-0.5374383
1.14562,-0.5385574,-0.1785944,0.1513594,-0.2793047,-0.1561014,-0.7011214,-0.017217,-0.4460387
1.359696,-0.5717351,-0.1121912,0.3652481,-0.3129961,-0.08968232,-0.3270919,0.6184749,-0.3204835
1.404439,-0.4316952,-0.03109873,0.4097477,-0.1734724,-0.00854284,-0.237269,0.6944451,-0.1549194
1.159539,-0.2167623,-0.06479684,0.1645361,0.04095397,-0.04216194,-0.5876063,0.4925542,0.01314184
0.9645081,-0.06866914,-0.1053521,-0.03088142,0.1885546,-0.08260668,-0.9810826,0.5622605,0.2548474
0.8949059,-0.0854152,-0.06055504,-0.1009441,0.1713258,-0.03766735,-1.13517,0.5769484,0.4759266
0.8100945,-0.1285807,-0.07469809,-0.1862803,0.1276798,-0.05163624,-1.202507,0.5044419,0.513538
0.7763177,-0.1342466,-0.07661599,-0.2206329,0.1215293,-0.05334828,-1.284352,0.7859594,0.5102842
0.7495692,-0.226218,-0.01215452,-0.247993,0.02906445,0.01135013,-1.314418,1.007935,0.4483838
0.66671,-0.2986071,0.03190616,-0.3314826,-0.04382829,0.05567668,-1.237935,0.88985,0.293192
0.5872741,-0.282421,0.09024543,-0.4115496,-0.02815427,0.1143062,-1.086459,0.5777162,0.1758654
0.5410977,-0.3135911,0.112212,-0.4583368,-0.05984131,0.1365807,-0.8696023,0.08074916,0.1156824
0.5452213,-0.3362724,0.1145776,-0.4547818,-0.08304003,0.1392635,-0.5406838,-0.3132497,0.1260148
0.5925943,-0.3138081,0.1427276,-0.4079138,-0.06108894,0.1677315,-0.1906388,-0.4767458,0.08359304
0.6669999,-0.3145406,0.1388837,-0.3339308,-0.06232562,0.1641974,0.0528034,-0.4927989,-0.02845777
0.7491251,-0.2435895,0.1319519,-0.2521319,0.008133792,0.1575587,0.1181317,-0.4301433,-0.042839
0.8409619,-0.1177685,0.1111942,-0.160516,0.1334767,0.1370696,0.04567913,-0.3864649,-0.01170242
0.940491,-0.08552392,0.09394471,-0.06109906,0.1652536,0.1200576,-0.1405553,-0.3023796,0.02470673
1.078373,-0.1523468,0.0648962,0.07677752,0.09796764,0.09121069,-0.4451364,-0.1554875,0.0600449
1.308211,-0.2211162,-0.01227598,0.3067071,0.02873439,0.01420108,-0.5252072,-0.03782287,0.05743758
1.469423,-0.2270465,-0.0003453901,0.4680921,0.02233733,0.02625464,-0.4231182,0.05481732,0.05725506
1.498455,-0.1810453,0.07946411,0.4973511,0.06786819,0.106148,-0.5074732,0.5498447,0.01598494
1.491816,-0.08259241,0.1516297,0.4909663,0.1658456,0.1783572,-0.5419658,1.311352,-0.1143939
1.337948,-0.04879342,0.2112568,0.3373529,0.1991599,0.2379831,-0.476443,1.277609,-0.2149861
1.159754,-0.275195,0.1714499,0.1593922,-0.02774103,0.1981236,-0.3219989,0.6427061,-0.09344701
1.208923,-0.6604337,0.03525739,0.2087589,-0.413493,0.06182092,0.1783199,0.2569272,0.1806528
1.260332,-0.9333434,-0.1739917,0.2603236,-0.6869158,-0.1475971,0.7378502,0.1120412,0.3033652
1.154994,-0.9839829,-0.2859959,0.1550894,-0.7380405,-0.2598222,1.091544,0.4043133,0.1229454
0.9976975,-0.7960492,-0.1614923,-0.002161667,-0.5505312,-0.1355786,1.180518,0.6818128,-0.2564054
0.7384572,-0.4396077,-0.05648014,-0.2614128,-0.1944259,-0.03085331,0.9296096,0.1725482,-0.5497474
0.5821003,-0.1780208,-0.03152243,-0.4178262,0.06692656,-0.006201645,0.6297798,-0.4669227,-0.6312153
0.7154063,-0.1078364,0.007906507,-0.2846037,0.1369763,0.0329057,0.4069958,-0.9290669,-0.563622
0.8194335,-0.09357285,-0.02554388,-0.1806687,0.1511947,-0.0008801337,0.25688,-1.323623,-0.3383893
0.8986952,-0.1891851,-0.06735381,-0.1014944,0.05561388,-0.04303774,0.4434726,-1.215747,-0.08222647
0.9951606,-0.3752702,-0.1034006,-0.005104552,-0.1303728,-0.0794415,0.8452587,-0.8092081,-0.0512693
0.8746518,-0.4201788,-0.1403798,-0.1256735,-0.1751196,-0.116782,1.092666,-0.4294883,-0.2126869
0.7847112,-0.3089727,-0.08049967,-0.2156553,-0.06368731,-0.057262,1.235009,-0.3206387,-0.2562516
0.8033546,-0.1677343,-0.04561787,-0.1970275,0.07784129,-0.02273407,1.268564,-0.6422141,-0.1642545
0.8054032,-0.03023929,-0.07972082,-0.1949607,0.2156845,-0.05718149,1.111094,-0.7713236,-0.01982109
0.9123068,0.05608347,-0.1088624,-0.0879981,0.3024011,-0.08665538,0.9367374,-0.4685642,0.2862753
0.9748621,0.06659469,-0.1502377,-0.02533908,0.3133349,-0.1283471,0.6431739,-0.121441,0.5128275
0.9904229,0.07653025,-0.1344926,-0.009629964,0.3237031,-0.1128975,0.2228292,0.07710743,0.5191043
1.051749,0.0481364,-0.09031543,0.05188628,0.2957338,-0.06899,-0.004140819,0.1440824,0.5029329
1.059111,-0.08034192,-0.07098493,0.05947642,0.1676564,-0.04989975,-0.00221812,0.1816656,0.4682128
1.075303,-0.1984662,-0.0275269,0.0759265,0.04989847,-0.006650994,0.1649941,0.09845235,0.4073541
1.087797,-0.2238118,-0.02903176,0.0887044,0.02488001,-0.008334224,0.377009,-0.0180616,0.2898646
1.127491,-0.2144285,-0.0630887,0.1287009,0.03455043,-0.0425395,0.5418148,0.06699107,0.1745657
1.214328,-0.2367688,-0.05460731,0.2158493,0.01245782,-0.03417694,0.6173839,0.07784946,0.0763685
1.215338,-0.1742222,-0.04769036,0.2171693,0.07521319,-0.02734941,0.5329655,-0.1904943,-0.1631873
1.220953,-0.02697956,-0.03810148,0.2230833,0.2226246,-0.01782085,0.4666113,-0.4544513,-0.3143976
1.267811,-0.03118258,-0.03564896,0.2702173,0.2185457,-0.01540031,0.3965949,-0.4154888,-0.267236
1.237941,-0.1574868,-0.07400289,0.2405873,0.09231398,-0.0537587,0.173818,-0.0853695,-0.2739779
1.11214,-0.3017757,-0.1097623,0.114981,-0.05195737,-0.08949498,-0.2664544,0.07697736,-0.373816
0.9787724,-0.41612,-0.1444272,-0.01824297,-0.1663364,-0.1241075,-0.9226637,-0.3143748,-0.5124652
0.9911689,-0.438552,-0.1949752,-0.005753857,-0.1888466,-0.1745707,-1.191308,-0.8374981,-0.6430011
1.122878,-0.4995428,-0.2254993,0.125999,-0.2499468,-0.2049723,-0.8394631,-0.6955829,-0.6849868
1.251173,-0.5518183,-0.1920921,0.2542884,-0.3023491,-0.1713988,-0.3961882,0.2141621,-0.5157505
1.336273,-0.4998701,-0.07665337,0.3393279,-0.2505296,-0.0557449,-0.005657253,1.105285,-0.2479057
1.285382,-0.3945004,0.03621866,0.2883119,-0.145277,0.05739249,0.0660603,1.128736,-0.1677457
1.09577,-0.171319,0.03362911,0.09849991,0.07780755,0.05511479,-0.4836612,0.6007831,-0.06242489
0.8889452,-0.02956216,-0.02941145,-0.1086025,0.2194881,-0.00757341,-1.056097,0.4016993,0.2039124
0.7525273,-0.07325864,-0.04309126,-0.2453692,0.1757287,-0.02086544,-1.247051,0.318336,0.3588043
0.7448006,-0.04256038,-0.06801825,-0.2535018,0.206367,-0.04537235,-1.309321,0.3251584,0.4848077
0.7481723,-0.07543307,-0.09631506,-0.250576,0.1734275,-0.0732185,-1.356626,0.7284267,0.5820884
0.7118401,-0.2627693,-0.02229562,-0.2873767,-0.01399031,0.001281174,-1.363361,0.9416583,0.4648778
0.7145028,-0.3355973,0.05905021,-0.2851884,-0.08691699,0.08313448,-1.224511,0.9107364,0.3216035
0.6202693,-0.3453807,0.09435491,-0.3798852,-0.09681343,0.1189686,-0.9636004,0.5835021,0.2130795
0.5201413,-0.3617323,0.1358966,-0.4804472,-0.1132865,0.1610537,-0.690004,-0.1321587,0.1408094
0.5781164,-0.3216983,0.1612468,-0.4228565,-0.0733765,0.1869515,-0.3636637,-0.5517024,0.1948629
0.6580483,-0.3029903,0.1395298,-0.3432398,-0.05478985,0.1657762,-0.0165711,-0.706316,0.1722552
0.7856067,-0.2473599,0.08630253,-0.2159122,0.0007253009,0.1130747,0.2494299,-0.6406121,0.06969501
0.9630341,-0.1590763,0.1019069,-0.03862297,0.08890032,0.1291814,0.264278,-0.4256349,0.01008603
1.124659,-0.153477,0.1102652,0.1229563,0.09439571,0.1380123,0.1192516,-0.3379883,-0.04481033
1.301907,-0.161802,0.02293844,0.3002428,0.08596732,0.05112295,-0.06679851,-0.1298764,-0.02598827
1.42733,-0.1534499,0.0006619234,0.4257717,0.09421199,0.02924538,-0.3684348,-0.06322306,-0.01867137
1.50183,-0.1323155,0.06924819,0.5004202,0.1152308,0.09819073,-0.4204749,0.08708291,-0.04637156
1.508201,-0.121457,0.156801,0.5069581,0.125961,0.1860607,-0.3076542,0.6873911,-0.05438043
1.3522,-0.1820767,0.1760852,0.351114,0.06519582,0.2056152,-0.4375435,1.084597,-0.1935596
1.202891,-0.3089682,0.09970229,0.2019323,-0.06186072,0.1294495,-0.4404243,0.9003036,-0.2789741
1.289382,-0.6236254,-0.02762909,0.2885054,-0.376699,0.002277753,-0.08089823,0.4080327,-0.03442467
1.401425,-1.0091,-0.2227021,0.4005763,-0.7623567,-0.1926921,0.5399255,0.3532455,0.3279119
1.307497,-1.009624,-0.2517312,0.3066082,-0.763036,-0.2216666,1.095382,0.7809312,0.3839467
1.111235,-0.7504165,-0.1419611,0.1102262,-0.5039247,-0.111878,1.143809,0.9904641,0.0378871
0.7941703,-0.5355779,-0.1469597,-0.2070411,-0.2890945,-0.1168835,0.9439912,0.5628457,-0.3856044
0.5958869,-0.2349915,-0.07578699,-0.4056003,0.01158472,-0.04573496,0.7131425,-0.1769707,-0.6816213
0.7578079,-0.118007,-0.007268899,-0.2440099,0.1287635,0.02274679,0.3418173,-0.3973694,-0.7683563
0.8176132,-0.1806035,-0.0363015,-0.1845698,0.0664536,-0.006332141,0.1857959,-0.7934669,-0.5443282
0.7580634,-0.08556973,-0.002673211,-0.2445034,0.1618539,0.02724049,0.416534,-1.412772,-0.1966224
0.8640928,-0.2599656,-0.07476381,-0.1388635,-0.0121076,-0.04491454,0.6966235,-1.124404,-0.04234648
0.8904207,-0.4602734,-0.1537729,-0.1129197,-0.2119211,-0.1239949,0.9812554,-0.7355431,-0.09830172
0.851573,-0.3394274,-0.1195873,-0.152138,-0.09052283,-0.08988286,1.303276,-0.4589858,-0.1622908
0.846305,-0.3471001,-0.1187493,-0.1577562,-0.09758437,-0.08911548,1.368134,-0.2428684,-0.1874652
0.832741,-0.2124874,-0.07065129,-0.1716426,0.03769721,-0.04108063,1.200735,-0.5789334,-0.1148054
0.8914808,0.01313731,-0.05027019,-0.1131904,0.2640424,-0.02075235,1.028831,-0.5547129,0.1221935
0.9488665,0.05975723,-0.09747273,-0.0560524,0.3114216,-0.06799576,0.7396439,-0.2874307,0.3885154
0.977172,0.1525132,-0.103094,-0.02795236,0.4049566,-0.07364421,0.2957858,-0.1322094,0.6064209
0.9860125,0.1094184,-0.105097,-0.01927521,0.3626394,-0.07565838,-0.07064395,0.1229942,0.6751743
0.9931853,0.0113803,-0.08380538,-0.01222461,0.2653566,-0.05435925,-0.106793,0.0314155,0.5991508
1.060729,-0.1083358,-0.07320514,0.05523599,0.1463575,-0.04373097,0.09223705,0.01347563,0.5511627
1.091441,-0.266426,-0.06209199,0.08589918,-0.01106363,-0.03256821,0.2564582,0.07671432,0.4748419
1.115216,-0.2611823,-0.02894289,0.1096541,-0.005201254,0.0006521912,0.4966683,-0.05857989,0.3342024
1.156268,-0.2852668,-0.03784354,0.1507093,-0.02871607,-0.008156294,0.7908031,0.002464931,0.1617973
1.138719,-0.2546241,-0.03343654,0.1331765,0.002450162,-0.003637649,0.9030154,-0.07815082,-0.08301865
1.142618,-0.1158207,-0.03582339,0.1370972,0.1417324,-0.005894831,0.8694128,-0.3237662,-0.2931906
1.187853,-0.008371611,-0.05789925,0.1823528,0.2496134,-0.02782425,0.7018406,-0.3753319,-0.3767677
1.24493,0.03180031,-0.0978262,0.239439,0.2901631,-0.06758849,0.3153521,-0.10376,-0.3865906
1.256521,-0.1421835,-0.1571535,0.2510188,0.1164936,-0.1267357,-0.3013895,0.2564712,-0.402735
1.138645,-0.3103835,-0.109346,0.1331014,-0.05146088,-0.07872812,-0.9297845,-0.09275641,-0.4553603
0.9950282,-0.3651028,-0.06416942,-0.01059383,-0.1060017,-0.0333288,-1.292923,-0.8758113,-0.5063367
0.9956854,-0.4503408,-0.1515373,-0.01005336,-0.1911201,-0.1204498,-1.280164,-1.186843,-0.552415
1.155235,-0.5237683,-0.2259008,0.1493435,-0.2644754,-0.1945398,-0.8241121,-0.4882423,-0.5516776
1.306518,-0.5639477,-0.2040687,0.3004349,-0.3046151,-0.1724031,-0.2833963,0.8885683,-0.4347861
1.307774,-0.4968579,-0.07952444,0.3014542,-0.2375021,-0.04751787,-0.1235754,1.321411,-0.290054
1.19538,-0.3417063,0.08543796,0.1887686,-0.08233004,0.117823,-0.2889677,0.8149278,-0.1984202
1.045621,-0.1463446,0.1186453,0.0386563,0.113057,0.1514413,-0.6323735,0.5087268,-0.08222964
0.8718509,-0.003397049,0.01853243,-0.1355293,0.2560337,0.05176321,-1.037145,0.2377614,0.1273416
0.7572971,-0.007542078,-0.04892774,-0.2505528,0.251913,-0.01524592,-1.238807,0.2236652,0.3378628
0.791594,-0.01876977,-0.06229568,-0.2167658,0.2406929,-0.02815047,-1.213109,0.6329647,0.4338341
0.81092,-0.1155359,-0.05216271,-0.1979746,0.1439068,-0.01754329,-1.268462,0.947973,0.4239325
0.738996,-0.274787,-0.00169991,-0.2704434,-0.0153988,0.03340321,-1.231477,1.032611,0.3361512
0.6862903,-0.3175209,0.04701872,-0.3236892,-0.05822272,0.08261236,-0.921127,0.7155644,0.2445123
0.5971046,-0.3555363,0.1039458,-0.4133938,-0.09635964,0.1400319,-0.6875189,0.2382453,0.1900319
0.5352285,-0.3577455,0.1540722,-0.4757486,-0.09871564,0.1906454,-0.3708495,-0.08186042,0.1574365
0.5819417,-0.3251311,0.1656061,-0.4294534,-0.06626639,0.2026521,0.03291844,-0.4624739,0.173432
0.629361,-0.3111018,0.177402,-0.3823721,-0.05241474,0.214896,0.2538173,-0.7572057,0.1495923
0.7419136,-0.2187142,0.1522453,-0.2700618,0.03978683,0.1901528,0.4244962,-0.7537216,0.08866553
0.9104595,-0.1233406,0.112,-0.1016526,0.1349669,0.1502775,0.3908331,-0.5615429,0.07281468
1.039926,-0.09183891,0.08341015,0.02778452,0.1662646,0.1220078,0.1818754,-0.3502148,0.05913818
1.216829,-0.1306551,0.02487504,0.2047608,0.1272282,0.0637387,-0.1137368,-0.2208769,0.06377823
1.398979,-0.1855433,0.01698412,0.3870715,0.07209854,0.05605792,-0.4072018,-0.002506675,0.06608336
1.518375,-0.1650104,0.09710359,0.5066934,0.09236528,0.1363312,-0.4198161,0.4201595,0.03804715
1.56175,-0.1398573,0.1885499,0.550334,0.1172254,0.2278729,-0.4459482,0.8230904,-0.05474883
1.446548,-0.1586213,0.2022108,0.435406,0.09813902,0.2415661,-0.5024812,0.953391,-0.1710094
1.294257,-0.3433329,0.1261588,0.2833735,-0.08692544,0.1654765,-0.4209475,0.780122,-0.05683358
1.258612,-0.7341358,0.02768363,0.2479521,-0.4781064,0.06688923,-0.1155899,0.3867416,0.1997697
1.238751,-0.9720511,-0.08754331,0.228266,-0.7164071,-0.0485242,0.6410048,0.09887157,0.2640789
1.064897,-0.8668121,-0.1335799,0.0545314,-0.6115318,-0.09481667,1.253769,0.3364232,0.01513413
0.7572463,-0.5677112,-0.0522562,-0.2530571,-0.3127425,-0.01380995,1.339021,0.5379283,-0.3762509
0.6144969,-0.1924893,-0.01026448,-0.3957934,0.06223895,0.0278111,1.091737,-0.0944785,-0.5267062
0.744953,0.01064349,-0.06998388,-0.2653555,0.2652051,-0.03232713,0.5380537,-0.7321608,-0.4789954
0.9048674,-0.08047421,-0.1200074,-0.1054733,0.1739841,-0.08281234,0.02118209,-0.5920302,-0.3484307
0.9995952,-0.1678447,-0.1127011,-0.01078053,0.08656014,-0.07600354,-0.150286,-0.4742489,-0.01319222
0.9574189,-0.2608234,-0.07397862,-0.05299039,-0.006432687,-0.03780705,0.1079508,-0.6647307,0.1325798
0.7564431,-0.4767638,-0.02113994,-0.2539945,-0.2223517,0.01448339,0.5881241,-0.8190287,-0.05933462
0.69822,-0.5221736,-0.007750338,-0.3122331,-0.2677018,0.02730638,1.070934,-1.094254,-0.1845494
0.806445,-0.3696268,-0.101978,-0.203999,-0.1150496,-0.06750355,1.52089,-1.152627,-0.2288769
0.8916218,-0.1701568,-0.2082143,-0.1187779,0.08457623,-0.1743331,1.530276,-0.7501691,-0.2035195
0.9466793,-0.02514021,-0.2109837,-0.06363489,0.2297957,-0.1776988,1.295248,-0.3977346,0.009786229
0.9296389,-0.01729789,-0.1774466,-0.08054655,0.2378773,-0.1447511,1.145714,-0.2168627,0.3234696
0.9243264,0.0745654,-0.1526112,-0.08568623,0.330001,-0.1204886,0.7452778,-0.165805,0.5719108
0.9522414,0.1996385,-0.1008944,-0.05755428,0.4553382,-0.06932153,0.321007,-0.1711757,0.644506
0.9500131,0.1300877,-0.06947159,-0.05952138,0.3860349,-0.03842027,0.06195392,-0.006316208,0.6393226
1.006548,0.0324571,-0.07067224,-0.002682774,0.2886154,-0.04011192,-0.1168304,0.1180163,0.5844577
1.070156,-0.02682047,-0.05264544,0.06126991,0.2294972,-0.02254433,-0.09174205,0.1321025,0.4493115
1.121414,-0.156981,-0.0435433,0.1129072,0.09943438,-0.01386909,0.07067809,0.1548292,0.3610328
1.153948,-0.2639863,-0.02474644,0.145848,-0.00753881,0.004532917,0.3905044,0.05882644,0.3110823
1.149675,-0.2417945,0.001833159,0.141999,0.01462082,0.03074861,0.6672095,-0.05975515,0.2253348
1.214385,-0.1942789,-0.02194535,0.2071413,0.06204357,0.006635245,0.7011698,-0.1303688,0.03732707
1.260624,-0.1217816,-0.02717138,0.2538078,0.1343898,0.001101452,0.6690337,-0.29415,-0.2129001
1.256312,-0.02927763,-0.02888678,0.2499087,0.2266835,-0.0008960686,0.569837,-0.3900851,-0.2948369
1.255762,-0.07542381,-0.07528031,0.2497422,0.1802644,-0.04754692,0.3468818,-0.1264844,-0.2538082
1.198494,-0.1757446,-0.1026061,0.1928177,0.07960406,-0.07510494,-0.1576459,0.1103201,-0.309042
1.093391,-0.272535,-0.1144793,0.08801038,-0.01759327,-0.0871834,-0.8787484,-0.2537747,-0.4402499
0.9912117,-0.3769217,-0.1420449,-0.01392748,-0.1224497,-0.1149247,-1.304601,-0.8562793,-0.5411293
1.025699,-0.4421834,-0.2085718,0.02074909,-0.1882348,-0.1815937,-1.221367,-0.9895431,-0.5909208
1.198068,-0.5409678,-0.2416238,0.1932561,-0.2875829,-0.2147486,-0.7784033,-0.1818642,-0.5662188
1.350631,-0.566651,-0.1784302,0.3459021,-0.3138535,-0.1516118,-0.2806356,1.077863,-0.4406294
1.37614,-0.4874298,-0.0766389,0.3714314,-0.2352259,-0.04982588,-0.1106198,1.336429,-0.2901353
1.166663,-0.3522772,0.05366185,0.1618994,-0.1006577,0.08052194,-0.3525165,0.7198974,-0.1642662
0.8951989,-0.08515548,0.07163271,-0.109701,0.165897,0.09858815,-0.7046705,0.3217076,-0.02326245
0.7834361,0.05924927,-0.04219761,-0.2216772,0.3097509,-0.01510534,-1.075918,0.1441573,0.1922031
0.7674468,0.01056434,-0.09332437,-0.2379439,0.2605212,-0.06605891,-1.393139,0.3020853,0.4337314
0.7667875,-0.001950872,-0.1214224,-0.2389281,0.2474548,-0.0939489,-1.430778,0.7499532,0.5384851
0.7262769,-0.1147161,-0.08731702,-0.2797943,0.1341211,-0.05960029,-1.469739,0.9731631,0.5105161
0.6884388,-0.3237453,0.03438463,-0.3180017,-0.0754996,0.06237969,-1.425638,1.018117,0.3940403
0.6661721,-0.3873251,0.08645387,-0.3406341,-0.1396924,0.1147588,-1.097648,0.7850312,0.2188276
0.5964205,-0.3641923,0.1291488,-0.41073,-0.1171869,0.157788,-0.8443523,0.2598074,0.1354635
0.5543068,-0.3569303,0.1697509,-0.4531476,-0.1105575,0.198739,-0.5183732,-0.2805995,0.1626707
0.5855366,-0.3251117,0.1582801,-0.4221619,-0.07936882,0.187621,-0.132251,-0.7874182,0.178733
0.6957147,-0.2677016,0.1329974,-0.31215,-0.02257996,0.1626841,0.1255874,-0.910309,0.1263019
0.8320789,-0.2218312,0.08922489,-0.1758611,0.02268153,0.1192412,0.2999828,-0.6421702,0.0631899
0.944195,-0.1778044,0.09415338,-0.0637231,0.06611271,0.1244758,0.2268361,-0.3559531,-0.006472035
1.106708,-0.1368451,0.07799578,0.09890751,0.1064879,0.1085954,0.03577693,-0.1361936,-0.09984604
1.280887,-0.1410203,-0.01918844,0.2732918,0.1017369,0.01165525,-0.2768941,-0.1155465,-0.09978463
1.429948,-0.1459351,-0.03926248,0.4226291,0.09625042,-0.00820908,-0.4718787,-0.0726804,0.04579153
1.580534,-0.1151952,0.06135183,0.5735388,0.1264186,0.09258113,-0.3298467,0.2606113,0.1803558
1.615983,-0.1183791,0.1682844,0.6093294,0.1226589,0.1996547,-0.3666354,0.8088134,0.02311273
1.409461,-0.2127553,0.1465368,0.4031361,0.02769896,0.1780087,-0.3923548,1.277584,-0.1954772
1.159544,-0.4499282,0.08201192,0.153511,-0.2100657,0.1135399,-0.2083828,0.9977366,-0.05226011
1.16981,-0.7653438,0.0201219,0.1640178,-0.5260728,0.05165637,0.152099,0.3308017,0.1672613
1.206323,-0.9126226,-0.1522903,0.2007145,-0.6739228,-0.120799,0.8514185,0.2731637,0.2700153
1.041313,-0.8069033,-0.1910884,0.03582609,-0.5687262,-0.1596844,1.22484,0.5793633,0.175958
0.8722763,-0.5430206,-0.07550824,-0.1331517,-0.3052901,-0.0442271,1.111747,0.6878217,-0.1863095
0.7623404,-0.1988134,-0.07462992,-0.2430854,0.03856297,-0.04349908,0.8159956,0.2497299,-0.3982151
0.795149,-0.01936025,-0.06798487,-0.2103184,0.2177564,-0.03702645,0.2434279,-0.4318198,-0.4901554
0.8907241,-0.1047256,-0.03800672,-0.114815,0.1322157,-0.007238868,-0.08257825,-0.5408176,-0.5011081
0.8445269,-0.2380049,-0.03473302,-0.1611028,-0.001167297,-0.004170893,0.03548739,-0.7560788,-0.2729327
0.8498169,-0.4282491,-0.0004069141,-0.155913,-0.1914511,0.02993628,0.3548872,-1.23656,-0.1874222
0.8526707,-0.5503153,-0.0427261,-0.1531601,-0.3134925,-0.01261387,0.9985313,-1.056201,-0.2388955
0.7799583,-0.4155512,-0.1042126,-0.2259653,-0.178633,-0.07434174,1.517563,-0.8403946,-0.28548
0.8236728,-0.2759051,-0.1105193,-0.1823263,-0.03881539,-0.08089662,1.583292,-0.7952557,-0.3312876
0.8407609,-0.08779675,-0.1179901,-0.1652875,0.1495401,-0.08861779,1.542463,-0.6403124,-0.2043936
0.8525079,0.1268945,-0.12683,-0.1535562,0.3645444,-0.09770486,1.369364,-0.6992646,0.02412189
0.9251066,0.1078096,-0.1547151,-0.08093411,0.345821,-0.1258286,1.056652,-0.4917104,0.3751319
0.9315325,0.1122191,-0.1373908,-0.07444267,0.3506189,-0.1087288,0.7452492,-0.1341165,0.6826392
0.9594024,0.1270726,-0.08668313,-0.0464638,0.3658665,-0.05822639,0.3926949,-0.06413196,0.7427022
0.9986315,0.01312054,-0.06617788,-0.007082945,0.252295,-0.03790361,0.113621,0.01121975,0.7571227
1.054626,-0.05893371,-0.03528523,0.04910415,0.1805924,-0.007169225,-0.03232863,0.05394248,0.6789165
1.134097,-0.1783136,-0.05221669,0.1288027,0.0615252,-0.02423467,-0.004502923,0.08872933,0.5195783
1.169401,-0.3022044,-0.08259713,0.1643618,-0.06209585,-0.05472499,0.2067407,0.1216407,0.3990034
1.242464,-0.3336063,-0.0551062,0.2376991,-0.09326905,-0.02731957,0.4578933,0.1330372,0.2399466
1.275705,-0.2868778,-0.03486996,0.2712186,-0.04634765,-0.00714418,0.629518,0.1317057,-0.01928995
1.270171,-0.1308318,0.006833005,0.265955,0.1098599,0.03452175,0.6136754,-0.1199699,-0.328919
1.304801,-0.02033451,0.02959652,0.3008331,0.2204872,0.0572697,0.558547,-0.3647556,-0.4140193
1.284595,-0.0337079,-0.05452629,0.2808384,0.2072067,-0.02685029,0.4710033,-0.3304969,-0.2616239
1.229994,-0.1493121,-0.131984,0.2264005,0.09165129,-0.1042883,0.1323487,-0.1406037,-0.1911306
1.114471,-0.2621639,-0.1373691,0.110984,-0.02119997,-0.1096351,-0.4316309,-0.06345099,-0.3364891
0.9841945,-0.3036704,-0.174793,-0.0192495,-0.06275295,-0.1469985,-1.117865,-0.3361369,-0.5491985
1.01588,-0.4022961,-0.2519888,0.01241817,-0.1614665,-0.2241061,-1.389386,-0.5586563,-0.660842
1.157481,-0.5068676,-0.2473791,0.1539435,-0.2661577,-0.2193735,-0.9926163,-0.2536348,-0.6749948
1.309391,-0.5578301,-0.1944051,0.3057193,-0.3172585,-0.1662342,-0.5572088,0.474465,-0.4567394
1.350846,-0.5352283,-0.1651303,0.3469737,-0.2947977,-0.1367454,-0.2776627,1.061684,-0.1522369
1.189368,-0.3672298,-0.06316168,0.1852209,-0.1269276,-0.03451075,-0.2191294,1.031292,-0.1332163
0.965415,-0.143789,0.04465592,-0.03908751,0.09640598,0.07362437,-0.5886394,0.7184041,-0.07701402
0.8077139,-0.02796791,0.00123933,-0.1972219,0.2121412,0.03057209,-0.9534257,0.5058966,0.1987956
0.7489671,-0.06045542,-0.07386402,-0.2564679,0.1795814,-0.04412607,-1.095793,0.2922901,0.3507346
0.7557372,-0.07151496,-0.06700383,-0.250246,0.1684532,-0.03682385,-1.206979,0.4098076,0.4093434
0.7326177,-0.08891578,-0.06081613,-0.2739448,0.1509781,-0.03015961,-1.321428,0.8974882,0.4487358
0.7089041,-0.1759848,-0.05314644,-0.2982512,0.06382212,-0.02198095,-1.386278,1.001151,0.3644406
0.6967096,-0.2122479,0.02574916,-0.3110348,0.02745502,0.05745317,-1.236878,0.7629854,0.2416953
0.623334,-0.3054707,0.1289505,-0.3849784,-0.06588953,0.1612174,-0.9777051,0.3883736,0.1440847
0.5549772,-0.3598288,0.180895,-0.4538637,-0.1203845,0.2137405,-0.6834306,-0.2311491,0.1088591
0.5526166,-0.2878214,0.1680999,-0.4566936,-0.04852377,0.2015279,-0.2814316,-0.6035574,0.1628136
0.5969232,-0.2911502,0.1582122,-0.4127771,-0.05200397,0.1922144,-0.04210573,-0.6349476,0.1699102
0.6798104,-0.2748133,0.1603651,-0.330184,-0.0358194,0.1949221,0.07778105,-0.5345173,0.1163973
0.8091606,-0.2109088,0.114993,-0.2010191,0.02793404,0.1500755,0.1576059,-0.3657128,0.07250411
1.016951,-0.1995121,0.09350136,0.006699586,0.03918155,0.129072,0.03680361,-0.1776303,0.02206205
1.188532,-0.2204086,0.07241531,0.1783208,0.01813693,0.1084306,-0.1035569,-0.01210708,-0.003716729
1.261477,-0.2703104,-0.02295395,0.2514044,-0.0319129,0.01345901,-0.2462376,-0.1522331,-0.002343469
1.391903,-0.2482502,-0.03644389,0.3820487,-0.009999982,0.0003187395,-0.3622698,-0.1593643,-0.006770942
1.560152,-0.1557344,0.1346477,0.550574,0.08236974,0.1717125,-0.364407,0.3573529,-0.07134262
1.613617,-0.07074049,0.2891932,0.6043431,0.1672169,0.3265098,-0.5853215,1.08365,-0.2033049
1.452495,-0.07794806,0.1825802,0.4435233,0.1598564,0.22009,-0.8187477,1.519437,-0.2293511
1.177452,-0.3596632,0.02870683,0.1687545,-0.122023,0.06634302,-0.3928931,1.055666,-0.01591482
1.119252,-0.7854576,0.007391595,0.1107866,-0.54799,0.04508383,0.4152378,0.6372149,0.2854093
1.176996,-0.9954174,-0.1333687,0.168713,-0.7581127,-0.09568877,0.9244718,0.9076387,0.3369802
1.059922,-0.883278,-0.2246331,0.05176721,-0.6460967,-0.187027,1.112019,0.7817584,0.1074728
0.916643,-0.5784886,-0.1192355,-0.09143788,-0.3413607,-0.08175444,0.9490164,0.4024204,-0.1630494
0.8426234,-0.2593067,-0.1058722,-0.1654331,-0.02214302,-0.06855717,0.474529,0.1538333,-0.4748082
0.8191542,-0.1326662,-0.06898224,-0.1889184,0.1046264,-0.03186623,0.0757354,-0.357168,-0.6952473
0.8237072,-0.2008801,0.03822669,-0.1844104,0.0366277,0.07511544,-0.0508635,-1.018483,-0.5199351
0.7815918,-0.2564277,0.01304348,-0.2265876,-0.01862754,0.04967873,0.3290838,-1.455393,-0.2132954
0.7932796,-0.3999905,-0.03282026,-0.2149665,-0.1618274,0.003535625,0.9887983,-1.28554,-0.1267364
0.8151751,-0.5367743,-0.061987,-0.193131,-0.2981785,-0.02593505,1.446296,-0.9619722,-0.1025741
0.7722719,-0.3826494,-0.1093124,-0.2360771,-0.1435474,-0.07358573,1.682726,-0.901921,-0.1101667
0.7800877,-0.2128922,-0.1048461,-0.228277,0.02679198,-0.06946136,1.577341,-0.7919133,-0.1319978
0.8123526,-0.06015959,-0.1032902,-0.1959909,0.1801789,-0.06825837,1.349153,-0.8287342,0.08145138
0.8757497,0.1004862,-0.142409,-0.1325279,0.3415387,-0.1077356,1.134904,-0.6711052,0.3814147
0.9598931,0.06944366,-0.1604653,-0.04826932,0.3112513,-0.1261497,0.8083804,-0.1725454,0.5767924
0.9709845,0.09322015,-0.136445,-0.03701222,0.3358031,-0.1024801,0.5322537,-0.002775347,0.7140869
0.9723773,0.1177919,-0.09754096,-0.03540464,0.3611497,-0.06391354,0.1051059,0.08454438,0.7387477
0.9962549,0.02359469,-0.06497589,-0.01126558,0.2677075,-0.03166866,-0.1491567,0.1529538,0.6583228
1.037127,-0.02601846,-0.04474432,0.02991182,0.2188131,-0.01173772,-0.04022775,0.1217652,0.5097934
1.104844,-0.1332558,-0.03173115,0.09797255,0.1122466,0.0009949971,-0.05786565,0.1845741,0.3741553
1.172668,-0.2269377,-0.0169224,0.1661722,0.0191808,0.01554311,0.121602,0.1401161,0.2724609
1.2227,-0.248301,0.003789138,0.2166012,-0.001622624,0.03601261,0.4216437,0.07464316,0.1003363
1.238152,-0.24353,0.02493237,0.2324588,0.003653446,0.05693036,0.5269114,-0.1949759,-0.1139728
1.25739,-0.1280732,0.02368081,0.2520999,0.1195621,0.05546702,0.5993507,-0.5991613,-0.2769157
1.271627,-0.03240666,-0.003854625,0.2667225,0.2156263,0.0277305,0.5192567,-0.5610054,-0.2783628
1.250689,-0.1080839,-0.05690252,0.2461389,0.1402878,-0.02550982,0.3580565,-0.2649778,-0.2650646
1.195041,-0.2637226,-0.1110483,0.1908046,-0.01507519,-0.0798393,-0.0761393,-0.1007796,-0.4313536
1.067557,-0.3159927,-0.1209427,0.06358446,-0.06713224,-0.08990645,-0.7832998,-0.3150636,-0.5998534
0.9887101,-0.3479111,-0.1553396,-0.01505257,-0.09889499,-0.1244612,-1.156112,-0.708541,-0.7009721
1.049963,-0.4727523,-0.2335671,0.04635758,-0.2236294,-0.2028263,-1.070258,-0.6873736,-0.7409415
1.166535,-0.5298485,-0.2359257,0.1630351,-0.2806557,-0.2052952,-0.7228959,-0.009329399,-0.615121
1.332298,-0.5190722,-0.2006867,0.3288505,-0.2698321,-0.1701309,-0.4947473,0.9120229,-0.3854525
1.413485,-0.4866869,-0.182508,0.4100258,-0.2374069,-0.1519842,-0.5693843,1.088749,-0.2335616
1.236851,-0.3556424,-0.07623574,0.2333065,-0.1063171,-0.04569646,-0.8131868,0.723629,-0.1696653
1.007366,-0.1777545,0.04833286,0.00365114,0.07162897,0.07893607,-1.077056,0.5965646,-0.009129654
0.8923421,-0.1288107,0.02896802,-0.1116265,0.1206441,0.05967986,-1.106479,0.35526,0.2318406
0.8002012,-0.1571832,-0.05715219,-0.2040963,0.09235131,-0.02629278,-1.078345,0.3387158,0.4068306
0.7908651,-0.09840984,-0.09848652,-0.2138227,0.1512063,-0.06744454,-1.152219,0.8920266,0.4536477
0.8311186,-0.1442947,-0.1045835,-0.1740054,0.1053986,-0.07332512,-1.175007,1.252447,0.376426
0.7600693,-0.2483462,-0.0296781,-0.2455217,0.001414155,0.001830391,-1.149739,1.269512,0.2874669
0.6626065,-0.2519415,0.09083975,-0.3434675,-0.00212646,0.1226299,-1.04503,0.7783649,0.2109173
0.5605959,-0.2959649,0.10733,-0.4459587,-0.04610731,0.1394276,-0.8881505,-0.03382159,0.2116991
0.5056865,-0.2793269,0.1007861,-0.5013254,-0.02943703,0.133208,-0.6522132,-0.3395165,0.3361112
0.6023871,-0.2683986,0.1429042,-0.4050361,-0.01848447,0.1756582,-0.3014006,-0.4805593,0.3883486
0.6633605,-0.3118041,0.1384699,-0.3444073,-0.06187148,0.1715543,0.024826,-0.6599108,0.3083738
0.6994391,-0.2595027,0.1429187,-0.3085909,-0.009555316,0.1763221,0.2319133,-0.6065654,0.1610341
0.8681568,-0.2565644,0.1690033,-0.1400423,-0.00660406,0.2027054,0.2670422,-0.4290032,-0.01345582
1.081725,-0.2541008,0.1355958,0.07345388,-0.004128556,0.1695672,0.1436015,-0.1037671,-0.168099
1.244347,-0.2316714,0.03209851,0.2360969,0.01831181,0.06630239,-0.1157906,-0.01480243,-0.2197797
1.316522,-0.2411535,-0.07281982,0.3083712,0.008839597,-0.03842371,-0.3061239,-0.1326319,-0.04753518
1.387227,-0.1608638,-0.001629699,0.3792342,0.0891371,0.03291889,-0.2359733,0.02909648,0.0990978
1.481854,-0.07932554,0.1566642,0.4740556,0.170678,0.1913264,-0.2204696,0.501423,-0.04326968
1.458776,-0.03785639,0.1749477,0.451184,0.2121386,0.2096817,-0.4466852,1.294007,-0.1980309
1.341871,-0.1539525,0.1433619,0.3344738,0.09601495,0.1781198,-0.5015387,1.523701,-0.1446169
1.218436,-0.5232136,0.09333541,0.2112008,-0.2732965,0.1280628,0.05246077,0.5785282,0.06782769
1.155768,-0.9137636,-0.04974863,0.1486523,-0.6639115,-0.01510903,0.9392323,-0.068137,0.2723539
1.146575,-1.089135,-0.1809564,0.1395269,-0.8393381,-0.14646,1.40264,0.4608955,0.1490561
1.031898,-0.8459669,-0.1885181,0.02486263,-0.5961822,-0.1542125,1.320227,0.7729607,-0.2327398
0.8223514,-0.4066599,-0.1182668,-0.1847247,-0.1568134,-0.08418919,0.9794774,0.07094914,-0.514854
0.7332467,-0.1272628,-0.1103496,-0.2739159,0.1227327,-0.07652787,0.3501936,-0.4586543,-0.5897831
0.8426397,-0.002859951,-0.1188849,-0.1646419,0.2473681,-0.08533947,-0.2228028,-0.4652989,-0.379792
0.9270059,-0.08798805,-0.0644918,-0.08041424,0.162542,-0.03123695,-0.2544681,-0.7910084,-0.09617096
0.8629534,-0.279618,-0.02942237,-0.1446156,-0.02873071,0.00353209,0.1008144,-1.158611,-0.053174
0.8400354,-0.4833102,-0.0125988,-0.167685,-0.2320182,0.020048,0.6783393,-1.114496,-0.1182824
0.8411079,-0.6045272,-0.0257303,-0.1667583,-0.3527814,0.006602639,1.233459,-0.9628678,-0.2379247
0.7787862,-0.4154387,-0.0456919,-0.2292115,-0.1631821,-0.01367818,1.43124,-0.9154445,-0.3092599
0.749201,-0.225755,-0.04337657,-0.2589038,0.02707513,-0.01168606,1.426302,-1.063307,-0.211895
0.7475241,-0.1072288,-0.1001223,-0.2606529,0.1462354,-0.06875693,1.355396,-1.14829,-0.05095732
0.8556526,0.1037746,-0.1717372,-0.1525516,0.3579227,-0.1406953,1.106941,-0.6994072,0.2568583
1.022791,0.1501464,-0.2264645,0.01461086,0.4050101,-0.1957383,0.6960026,0.01694193,0.5668792
0.9925603,0.1444737,-0.1773223,-0.01554291,0.4000622,-0.1468958,0.3675405,0.2412305,0.6685857
0.9104224,0.1375179,-0.03275171,-0.09755456,0.3938174,-0.002601611,0.0665207,0.01230255,0.6555651
0.9307789,0.03134378,-0.03525349,-0.07702338,0.2883195,-0.005353343,-0.2592867,-0.03333037,0.6262081
0.995889,-0.05455532,-0.08263126,-0.01169051,0.2030457,-0.05295438,-0.1898912,0.1018424,0.6144529
1.144821,-0.2087745,-0.07347768,0.1375092,0.04939025,-0.04399727,-0.01263871,0.2473347,0.4581799
1.242372,-0.3278841,-0.09109261,0.2353661,-0.06922033,-0.06178099,0.1058158,0.5043621,0.2215123
1.2127,-0.3211945,-0.06044203,0.2060255,-0.06209384,-0.03127045,0.4826603,0.5519314,0.06413317
1.196343,-0.2299753,-0.01051188,0.1900128,0.02950563,0.01854867,0.5963043,0.1810517,-0.1278878
1.187489,-0.05529436,0.04520694,0.1815037,0.204513,0.0741838,0.5074047,-0.2662762,-0.3132331
1.197296,-0.02584523,0.05653451,0.1916439,0.234232,0.08545116,0.5544645,-0.4880761,-0.3769792
1.270416,-0.06510326,-0.06390559,0.2650767,0.1951809,-0.03503023,0.3626798,-0.2971704,-0.2359092
1.296961,-0.05564489,-0.1404071,0.291902,0.2047761,-0.1115561,-0.04993138,-0.09908467,-0.1243495
1.166099,-0.1831981,-0.1262143,0.1612773,0.07728478,-0.09736888,-0.6786414,-0.4233147,-0.375302
0.9781729,-0.391115,-0.1773571,-0.02646298,-0.1306458,-0.1484948,-1.320265,-0.8057714,-0.6711465
0.962314,-0.5224337,-0.3022925,-0.04218847,-0.2620471,-0.2733851,-1.416285,-0.8496621,-0.7469005
1.080417,-0.5554421,-0.3255328,0.07599839,-0.2951924,-0.2965437,-0.9366825,-0.2653719,-0.7229114
1.272066,-0.5666655,-0.2176469,0.2676834,-0.3065892,-0.1885291,-0.3241729,0.907421,-0.5581217
1.516618,-0.5706021,-0.157436,0.512218,-0.3107174,-0.1281343,-0.1891687,1.386342,-0.3125067
1.433219,-0.4881894,-0.07474888,0.4287319,-0.2284972,-0.04520412,-0.4237754,1.010369,-0.2119043
1.108534,-0.3016514,0.072912,0.1038763,-0.04213929,0.1027577,-0.6677201,0.5583336,-0.1088919
0.9281495,-0.1056329,0.09139533,-0.07676985,0.1537174,0.1215939,-1.042604,-0.001940169,0.17946
0.7666786,-0.05105212,-0.006740609,-0.2385872,0.2081516,0.02385373,-1.214401,-0.1453969,0.3754992
0.7555045,-0.05363057,-0.08420632,-0.2501787,0.2054332,-0.0531806,-1.204481,0.3559948,0.4547144
0.8408199,-0.04478673,-0.09470315,-0.1653343,0.2141331,-0.06321402,-1.470275,0.8076423,0.5291186
0.7360811,-0.1288743,-0.05450303,-0.2705812,0.1298881,-0.0225198,-1.553758,1.048383,0.4286548
0.7007246,-0.2443444,0.0253261,-0.3064666,0.01424029,0.05783215,-1.30786,0.949619,0.2996553
0.6368306,-0.3302961,0.106519,-0.3708929,-0.07191112,0.1395719,-1.109497,0.4808156,0.2348606
0.5005893,-0.3570839,0.1445656,-0.5076501,-0.09891745,0.1781813,-0.8065239,-0.07442248,0.1933143
0.5318713,-0.3304224,0.1647839,-0.4768453,-0.07248776,0.1989679,-0.4676667,-0.6638403,0.2429721
0.5801845,-0.3172029,0.1600705,-0.4289477,-0.0595075,0.1948169,-0.1777337,-0.846142,0.1945016
0.7188946,-0.2697863,0.1315242,-0.2905725,-0.0123332,0.1668159,0.1335596,-0.6278787,0.07056921
0.8874208,-0.2024649,0.09938548,-0.1222875,0.05474525,0.1351963,0.2042372,-0.5366551,-0.02494537
0.9995224,-0.1724671,0.08220594,-0.01032873,0.08449915,0.1185022,0.1158119,-0.2682731,-0.1321071
1.21425,-0.186086,0.05118939,0.2043503,0.07063324,0.08793186,-0.05232333,-0.03370284,-0.1281416
1.353222,-0.2052633,-0.003225669,0.3433574,0.05120277,0.03392044,-0.3603972,-0.1388452,-0.0579771
1.477032,-0.1551007,0.07450413,0.4672653,0.1011039,0.1120094,-0.4623306,0.03735331,0.008148734
1.598525,-0.09927867,0.1947213,0.5888933,0.1566528,0.2325387,-0.4121997,0.5636393,-0.007297765
1.477769,-0.1235598,0.1751693,0.4682814,0.1320826,0.2132459,-0.5361947,1.157143,-0.09139439
1.277119,-0.2952099,0.1363784,0.2677576,-0.0398769,0.1746541,-0.5541361,1.192768,-0.007372273
1.181748,-0.6052054,0.08033479,0.1724772,-0.3502001,0.1187435,-0.03547573,0.4524296,0.1934251
1.192478,-0.8753038,-0.06566246,0.1832522,-0.6206316,-0.02718931,0.7627922,0.1339536,0.3479965
1.12127,-0.9840158,-0.1842534,0.1120365,-0.729657,-0.1457815,1.21224,0.6227809,0.1584313
0.8767056,-0.7255459,-0.1405779,-0.1325901,-0.47145,-0.102165,1.275773,0.8994957,-0.3027594
0.7391274,-0.207244,-0.0646217,-0.2702797,0.04666344,-0.02631596,1.033553,0.1923172,-0.4609282
0.7947819,-0.01690384,-0.1468935,-0.2147736,0.2368961,-0.1087352,0.3897914,-0.595336,-0.4907843
0.8796431,-0.08790133,-0.1754149,-0.1300837,0.1658631,-0.1374368,-0.1183159,-0.3850658,-0.4629404
0.9203452,-0.1466092,-0.08661353,-0.08956449,0.1071777,-0.04884036,-0.1135741,-0.3255453,-0.2007769
0.9031506,-0.3655424,-0.05279978,-0.106946,-0.1116854,-0.01524941,0.1537209,-0.7966519,-0.1107684
0.8388945,-0.5407495,-0.01529465,-0.1713865,-0.2867776,0.02201891,0.6347471,-0.9056178,-0.1937203
0.7971401,-0.5027167,-0.03644992,-0.2133149,-0.2485799,0.0006146656,1.177177,-0.9524889,-0.3053784
0.8043643,-0.3671679,-0.1038783,-0.2062455,-0.1128086,-0.06707316,1.494873,-0.8241851,-0.3855686
0.8236643,-0.1442286,-0.1080105,-0.1870713,0.1104141,-0.07147228,1.526453,-0.5299824,-0.3055502
0.8526595,-0.008651613,-0.1208977,-0.1581649,0.2463304,-0.08462933,1.295339,-0.5984505,-0.1472638
0.8856233,0.05582901,-0.1064084,-0.1252464,0.3111929,-0.07040796,0.9646235,-0.5043379,0.2057116
0.9302104,0.1798976,-0.100227,-0.08065687,0.4356676,-0.06448808,0.6735332,-0.2280412,0.5279751
0.94492,0.1680519,-0.1057407,-0.06589528,0.4242307,-0.07025303,0.438537,-0.1875645,0.5703213
0.9237603,0.02214681,-0.04520028,-0.08695285,0.2787151,-0.009950568,0.2330216,-0.1625813,0.5915815
0.9668827,-0.05272766,-0.02158582,-0.04367846,0.2041935,0.01344085,0.1499657,-0.1613057,0.5692308
1.010704,-0.09816311,-0.03090967,0.0003432605,0.1590629,0.003908746,0.2332977,-0.1797801,0.4817042
1.042885,-0.1675078,-0.05292275,0.03277192,0.08996828,-0.01829846,0.3420227,-0.08122104,0.3747219
1.163703,-0.2421597,-0.08448294,0.1538765,0.01550876,-0.05003863,0.5899918,0.04308093,0.2284707
1.252287,-0.3120609,-0.0811709,0.2427798,-0.05425694,-0.04689135,0.8643355,0.08953124,0.1145586
1.238344,-0.231354,-0.06186006,0.2291748,0.02653254,-0.02772854,0.8751758,-0.02645124,-0.0400754
1.248811,-0.06304474,0.004657505,0.2399859,0.1948741,0.03865842,0.8398298,-0.2264931,-0.1724537
1.279368,0.01839193,0.02865315,0.2708767,0.2762907,0.06253969,0.8132477,-0.2741564,-0.1760643
1.248152,0.001763427,-0.04485291,0.2399737,0.2595827,-0.0110671,0.5588367,-0.0794069,-0.1509501
1.227468,-0.1419011,-0.1050455,0.2195691,0.1157712,-0.07134822,0.04818083,0.07373604,-0.2041193
1.185386,-0.2541988,-0.1334507,0.1777219,0.003255584,-0.09982874,-0.5496656,-0.2146724,-0.3857201
1.015962,-0.3469077,-0.1883191,0.008482552,-0.08974007,-0.1547554,-0.992337,-0.6947908,-0.5952244
0.9241416,-0.4913769,-0.2791871,-0.08320598,-0.2345565,-0.2456588,-1.041345,-0.7493705,-0.6390591
1.068197,-0.5190397,-0.2676515,0.06093238,-0.2626139,-0.2341275,-0.5833826,-0.1913549,-0.502571
1.24829,-0.5448379,-0.1844896,0.2410629,-0.2888372,-0.1509295,-0.06636309,0.6439536,-0.3620329
1.271963,-0.5041155,-0.1043833,0.2647223,-0.2485534,-0.07074055,-0.04933156,0.9652911,-0.2456123
1.209439,-0.2864842,0.04267046,0.2021262,-0.03135983,0.07644427,-0.4131278,0.6447052,-0.1411027
1.101514,-0.09421949,0.03372419,0.09406494,0.1604756,0.06767399,-0.8586834,0.4629091,-0.02395268
0.8925944,0.01522756,-0.06899251,-0.1150575,0.2694998,-0.03482765,-1.225676,0.4267742,0.2432861
0.7898343,0.01538086,-0.04449185,-0.2180812,0.2692273,-0.01007734,-1.398478,0.3506609,0.4682683
0.8128958,0.005181137,-0.1074044,-0.1953317,0.2585871,-0.07270798,-1.576542,0.6260306,0.5398887
0.7490266,-0.03397808,-0.131857,-0.2595466,0.2189618,-0.09684697,-1.876517,0.9606888,0.5517784
0.7046402,-0.1997118,-0.04248868,-0.3042967,0.05272808,-0.007133205,-1.953245,0.9092214,0.4348995
0.6811053,-0.3218699,0.008490801,-0.3281967,-0.06996662,0.04422252,-1.696636,0.5974109,0.3218464
0.6276595,-0.4093329,0.1573837,-0.3819916,-0.1579986,0.1935178,-1.326652,0.1454312,0.2374715
0.6408321,-0.4334025,0.1867288,-0.3691342,-0.1826605,0.2232826,-0.8703302,-0.1993489,0.1546327
0.6498132,-0.36361,0.07395852,-0.360417,-0.1134726,0.1109377,-0.4391569,-0.2832754,0.1289322
0.671915,-0.3275204,0.1027095,-0.338512,-0.07798993,0.1401095,-0.2354892,-0.3390403,0.0325554
0.7488881,-0.2664538,0.08373417,-0.2616554,-0.01752585,0.1215427,-0.1567751,-0.4555614,-0.03216747
0.8455599,-0.1943615,0.05078681,-0.1650102,0.05397196,0.0889849,-0.0766247,-0.4661149,-0.03283818
0.9792089,-0.1468343,0.07451486,-0.03129393,0.1009128,0.1130781,-0.1243225,-0.2471429,-0.03045113
1.081295,-0.121926,0.02900951,0.0709517,0.1252401,0.06790924,-0.3110302,0.006641125,0.01889746
1.216355,-0.1210285,0.02662578,0.206255,0.1255579,0.06582992,-0.4507469,-0.009522949,0.01431913
1.397603,-0.07504381,0.01300066,0.387816,0.170959,0.05247498,-0.5923457,-0.05612703,0.03953954
1.434426,-0.086651,0.01241429,0.4249999,0.1587584,0.05212326,-0.7467134,0.2292262,0.06428911
1.428066,-0.135879,0.1220807,0.4190265,0.1089219,0.1619872,-0.7395429,0.6833895,-0.04301525
1.413422,-0.182869,0.1755732,0.4047687,0.0613042,0.2156364,-0.6832124,1.014053,-0.1389485
1.291933,-0.4361303,0.1042666,0.2836447,-0.1926038,0.1444397,-0.6309124,0.9565852,-0.125439
1.286947,-0.7874195,-0.08070354,0.2789854,-0.5445503,-0.04047207,-0.2612268,0.5460936,0.06658947
1.312745,-0.9585832,-0.2435904,0.3050579,-0.7163609,-0.2033506,0.3902612,0.3900064,0.2733707
1.136606,-0.9393766,-0.2502443,0.1291296,-0.6977595,-0.2100374,0.8099881,0.8474525,0.2210137
0.9417755,-0.7990904,-0.2001548,-0.06555816,-0.5580038,-0.1600097,0.9107366,1.235991,-0.005927474
0.7823236,-0.5270825,-0.1536983,-0.2249337,-0.2864247,-0.1136325,0.8299268,0.6279626,-0.2665822
0.6872108,-0.2410468,-0.09595944,-0.3200248,-0.0007017314,-0.05598176,0.5294714,-0.2043405,-0.4824726
0.720301,-0.1776503,-0.02916127,-0.2869507,0.06249956,0.01072447,0.2751769,-0.3422024,-0.563502
0.7404869,-0.2120077,-0.01767858,-0.2668009,0.02805669,0.02211343,0.2403001,-0.7902864,-0.5055491
0.7703889,-0.2417194,-0.04336033,-0.2369394,-0.00164005,-0.003663708,0.4073891,-1.493978,-0.3484997
0.8697357,-0.3890579,-0.06144908,-0.1376244,-0.1488705,-0.0218494,0.7852105,-1.499325,-0.1696344
0.9542371,-0.4430271,-0.1508331,-0.05313745,-0.2026416,-0.1113304,1.1609,-1.14995,-0.1310261
0.952077,-0.3393608,-0.1950641,-0.05529018,-0.09868671,-0.1556547,1.415358,-0.5431566,-0.2371591
0.9009986,-0.2258544,-0.1230435,-0.1063373,0.01519799,-0.08371784,1.463159,-0.1276505,-0.2513631
0.8906422,-0.05325847,-0.06793307,-0.1166363,0.1882562,-0.02867643,1.335298,-0.4343702,-0.1225998
0.9058703,0.07544342,-0.05384518,-0.1013211,0.3174917,-0.01464048,1.184135,-0.6372698,0.07314642
0.9382703,0.1012016,-0.08562036,-0.06880172,0.3438359,-0.04644996,0.9210339,-0.5035753,0.3006123
0.9501088,0.1103151,-0.1136533,-0.05680949,0.3535661,-0.07449893,0.5991318,-0.4012432,0.4456525
0.9422698,0.05498306,-0.09594932,-0.06446003,0.2988602,-0.05679109,0.3193356,-0.236412,0.5222006
0.9877142,-0.04571722,-0.08311163,-0.0187925,0.198777,-0.04392808,0.1706095,-0.1280381,0.5603585
1.038102,-0.1207373,-0.07184853,0.03185217,0.124351,-0.03261714,0.2197658,-0.131763,0.5180924
1.07286,-0.1698923,-0.07222374,0.06689579,0.07575866,-0.03292172,0.3284505,-0.06630065,0.466531
1.092875,-0.1978434,-0.09199814,0.08722205,0.0483339,-0.05260263,0.5104236,-0.0003310524,0.3955106
1.115477,-0.2195755,-0.1048003,0.1101535,0.02708972,-0.06528813,0.6517106,0.07334925,0.2527971
1.14299,-0.2071001,-0.09084236,0.1380066,0.04001383,-0.05118942,0.6407208,0.1807792,0.07190219
1.131932,-0.1088807,-0.04119093,0.1272903,0.1386419,-0.001372747,0.6451335,0.03550459,-0.1507704
1.170839,-0.02111867,-0.002072887,0.1665348,0.2267692,0.03793401,0.6471126,-0.2074311,-0.3552456
1.233992,-0.07508202,-0.01758878,0.2300116,0.1731215,0.02262756,0.622195,-0.2249303,-0.4102632
1.233457,-0.1525148,-0.05171215,0.2297763,0.0959481,-0.01126882,0.563227,-0.1519966,-0.3457566
1.190711,-0.1660443,-0.07777413,0.1872967,0.0826181,-0.03708837,0.2433773,-0.1883864,-0.340502
1.12231,-0.2283668,-0.1285027,0.1191188,0.02043406,-0.08755953,-0.4576209,-0.6315456,-0.447032
1.104884,-0.2990086,-0.1844349,0.1018677,-0.05012837,-0.1432177,-1.02137,-1.0584,-0.5346202
1.093233,-0.423336,-0.2899347,0.0903407,-0.1744304,-0.2484225,-0.8676041,-0.5137698,-0.5408039
1.080352,-0.6246328,-0.3941829,0.07753067,-0.3757451,-0.3523465,-0.4045245,0.6124078,-0.5595142
1.162155,-0.5966982,-0.1950564,0.1593514,-0.3478556,-0.1528563,-0.04691128,1.096598,-0.6090018
1.196254,-0.4851281,0.1186311,0.1934099,-0.2363387,0.1612409,0.1529588,0.5488152,-0.5826628
1.136412,-0.4145219,0.1203539,0.1334682,-0.1657786,0.1634161,-0.117466,-0.08537411,-0.4398541
1.075031,-0.09695374,-0.02983435,0.07192259,0.1517595,0.01371324,-0.5328479,0.06770302,-0.1534158
1.011948,0.07833761,-0.132017,0.00861247,0.3270354,-0.08795873,-0.7891423,0.3408479,0.2056814
0.9610083,-0.01390768,-0.1549229,-0.04261646,0.2347783,-0.1103308,-1.143919,0.4490054,0.4063297
0.9091775,-0.005799064,-0.1005876,-0.09479083,0.2428654,-0.05543754,-1.406047,0.8715743,0.4236793
0.8666694,-0.1349151,-0.05729329,-0.137689,0.1137066,-0.01156053,-1.564623,1.131222,0.3498718
0.8066949,-0.3071337,0.0460884,-0.1980895,-0.05858226,0.09242658,-1.554303,1.076493,0.2106382
0.7125965,-0.3093501,0.1220774,-0.292637,-0.0608966,0.1690381,-1.210963,0.8135097,0.09443162
0.6656537,-0.3209938,0.07046961,-0.3400365,-0.0726615,0.1180613,-0.9214604,0.1952953,0.05605208
0.6639203,-0.2999376,0.07585278,-0.3422167,-0.05174441,0.1240746,-0.6785409,-0.1849765,0.08298886
0.7011751,-0.3187896,0.08344667,-0.3053814,-0.07074859,0.1322894,-0.4931678,-0.2612398,0.07341524
0.7408105,-0.337885,0.0528914,-0.2661224,-0.09000431,0.1023385,-0.3167458,-0.2876961,-0.01076522
0.7590433,-0.2666332,0.09853233,-0.2482101,-0.01891658,0.1485604,0.05136784,-0.2227652,-0.07168285
1.295804,-0.1120066,-0.04502603,0.2755218,0.08733085,-0.01806385,0.7585751,-0.3773143,-0.3585047
1.200507,-0.2201829,-0.08369465,0.180792,-0.01938291,-0.05667317,0.2880107,-0.1872157,-0.4058795
1.070709,-0.3104217,-0.1183116,0.05151711,-0.1081938,-0.09121456,-0.2611653,-0.5482627,-0.5520375
0.976145,-0.3517599,-0.1777791,-0.04257468,-0.1481373,-0.1505878,-0.5611114,-0.8210228,-0.6035022
1.030821,-0.3953455,-0.2336412,0.01252546,-0.1903564,-0.206332,-0.4484675,-0.499693,-0.5720799
1.193911,-0.4782593,-0.2004271,0.1759912,-0.2719247,-0.1729698,-0.02975545,0.1108661,-0.5421462
1.346661,-0.5132072,-0.07918572,0.3290681,-0.3055384,-0.05154424,0.2918528,0.7170632,-0.4128227
1.402142,-0.4117477,0.01465782,0.3848149,-0.202745,0.04252198,0.3686172,0.8144395,-0.3013142
1.200419,-0.2597639,0.04881804,0.1832855,-0.04941941,0.07694071,0.07971261,0.5137858,-0.2080144
0.9455054,-0.1282508,0.02368411,-0.07151498,0.08344548,0.05209553,-0.4102631,0.4383472,-0.01288998
0.8348378,-0.02866575,-0.03125369,-0.1821477,0.1843873,-0.002529063,-0.5913134,0.2802555,0.18217
0.7246147,0.01117161,-0.05111793,-0.2924029,0.225576,-0.02205954,-0.7474628,0.2018323,0.331517
0.7057802,-0.001752851,-0.05322033,-0.3113201,0.2139844,-0.02380977,-0.9616551,0.586847,0.3872591
0.7394657,-0.1163568,-0.0197344,-0.2777493,0.1006821,0.01004529,-1.014757,0.7689709,0.3349394
0.6574387,-0.243895,0.02581127,-0.3599048,-0.02559435,0.05597486,-1.018839,0.7175683,0.2714122
0.6001752,-0.297993,0.08341093,-0.417292,-0.07847329,0.1139692,-0.7858099,0.4882558,0.1780264
0.5526324,-0.3633029,0.17679,-0.464934,-0.1426049,0.2077472,-0.4352599,-0.1038107,0.09958036
0.4999336,-0.3759421,0.1871461,-0.5176863,-0.1541014,0.218497,-0.09261936,-0.559711,0.1073052
0.5785907,-0.3302512,0.1534998,-0.4390157,-0.1072969,0.1852284,0.2677618,-0.8515802,0.09099066
0.706343,-0.2861371,0.1326121,-0.3111641,-0.06209288,0.1646922,0.4651599,-0.9082286,0.004668842
0.8510008,-0.2130533,0.09857283,-0.1663088,0.01206006,0.1309702,0.5365069,-0.6292772,-0.09052117
1.038652,-0.1673511,0.09839716,0.02164227,0.05881047,0.1310715,0.4298327,-0.3894645,-0.1744176
1.180595,-0.1650411,0.05981477,0.1639832,0.06214511,0.09272104,0.2847952,-0.1623683,-0.2218017
1.291395,-0.1558775,0.02068932,0.275266,0.07230564,0.05377973,0.08339912,-0.07986798,-0.1917825
1.452709,-0.1137413,0.1015404,0.4371303,0.1154068,0.1347655,-0.3169003,-0.08097833,-0.01642503
1.640865,-0.07380751,0.2130385,0.6258772,0.1562681,0.2463463,-0.4837242,0.2576178,0.1518242
1.616717,-0.1529741,0.2440331,0.6023303,0.07798559,0.2773656,-0.4295214,0.8151426,-0.00858048
1.364274,-0.4698776,0.1779836,0.350467,-0.2380804,0.2112746,-0.3093492,1.080752,-0.198361
1.261604,-0.9050576,0.0378805,0.2483324,-0.6724617,0.07105718,0.127065,0.8339948,-0.03760372
1.297454,-1.053123,-0.13317,0.284658,-0.8197443,-0.1001814,0.8727681,0.625802,0.1525665
1.251592,-0.9444853,-0.1890137,0.2391991,-0.7103059,-0.156281,1.486887,0.5881482,0.2202735
1.078327,-0.8890633,-0.1304474,0.06625704,-0.6540302,-0.09802757,1.579365,0.4999112,0.1334552
0.8310957,-0.7110825,-0.1410128,-0.1807319,-0.4751145,-0.1089515,1.438054,0.4131955,-0.1987447
0.7931679,-0.3940963,-0.121058,-0.2184914,-0.157093,-0.08939102,1.12284,-0.06721787,-0.4689119
0.8594512,-0.1638068,-0.03472093,-0.1521008,0.074338,-0.003475959,0.6212656,-0.721473,-0.5862115
0.819109,-0.03291055,-0.05142724,-0.1923827,0.2064745,-0.02062611,0.4643268,-1.173479,-0.5029819
0.8555048,-0.08967966,-0.0770201,-0.1559614,0.1510283,-0.0466805,0.5667179,-1.533921,-0.2303099
0.8713378,-0.23609,-0.06601792,-0.1401266,0.006006621,-0.03615344,0.8225536,-1.463394,-0.1541288
0.8160048,-0.3733944,-0.09310458,-0.1954715,-0.1298556,-0.06372437,1.36377,-1.240688,-0.1518562
0.797678,-0.4873534,-0.09673244,-0.2138141,-0.2423237,-0.067841,1.760994,-1.222854,-0.1677795
0.7680961,-0.3618268,-0.1076232,-0.2434048,-0.1152572,-0.07922009,1.856304,-1.189993,-0.2716717
0.8135584,-0.1771021,-0.1700103,-0.1979335,0.07105592,-0.1420895,1.770861,-1.177897,-0.1435989
0.9177546,-0.02675996,-0.2238901,-0.09370135,0.2230282,-0.1964389,1.525562,-0.8868929,0.08911859
0.9916401,0.1487644,-0.2372425,-0.01974757,0.4002092,-0.2102392,1.229647,-0.3337455,0.38459
1.02104,0.1217935,-0.2017323,0.009753463,0.3749002,-0.1751458,0.805369,-0.02128482,0.6636539
0.9566453,0.09565514,-0.1428588,-0.05450797,0.3504054,-0.1166495,0.3960496,-0.0002812481,0.6540166
0.8783527,0.09668383,-0.08041782,-0.1326367,0.3530371,-0.05454079,0.2663822,-0.1791022,0.6665732
0.8631644,-0.03612947,-0.05518896,-0.1476284,0.2217674,-0.02959681,0.2011908,-0.3141823,0.6475778
0.9451374,-0.09929898,-0.09413077,-0.06542295,0.1600678,-0.06877602,0.2169941,-0.2934491,0.4881719
1.114547,-0.1728308,-0.1248995,0.1042561,0.08792322,-0.09973453,0.3701204,-0.1367853,0.4247711
1.224439,-0.2499651,-0.1461831,0.2144498,0.01208939,-0.1211591,0.5156877,0.1863593,0.3203428
1.253437,-0.2567553,-0.1531759,0.2437721,0.006512672,-0.1282415,0.8036629,0.3292158,0.1850915
1.262375,-0.2522151,-0.1060768,0.2530418,0.01218137,-0.08117827,0.937984,0.1630301,0.03748271
1.269823,-0.1424625,-0.08100624,0.2608153,0.1229792,-0.05608844,0.7540431,-0.04177246,-0.1196469
1.312527,-0.06764191,-0.09366852,0.3038262,0.1987612,-0.06867637,0.6629972,-0.06827495,-0.117968
1.336548,-0.1273241,-0.1127462,0.3281193,0.1399527,-0.0876254,0.5438196,0.1456307,-0.1164947
1.296872,-0.2073692,-0.1335221,0.2886669,0.06068989,-0.1082184,0.1303954,0.2887749,-0.2372001
1.168776,-0.238839,-0.1378053,0.1607358,0.02991001,-0.1122641,-0.5890809,-0.02641514,-0.4066069
0.9679412,-0.239247,-0.192776,-0.04000205,0.03010158,-0.1669414,-1.269574,-0.5545523,-0.5031058
0.9290301,-0.3105833,-0.2912747,-0.07888161,-0.0407218,-0.2650878,-1.346539,-0.5751804,-0.4604203
1.110956,-0.3982356,-0.3063494,0.1030153,-0.1279422,-0.2797456,-0.9446433,0.09424951,-0.3951672
1.270728,-0.4692318,-0.2327265,0.2627008,-0.1985785,-0.2056341,-0.5785351,0.9943295,-0.2784122
1.301055,-0.5102672,-0.1375919,0.2928789,-0.2393135,-0.109934,-0.4427097,1.340893,-0.1658766
1.20367,-0.4300293,-0.02585034,0.195275,-0.1588209,0.002450729,-0.4929874,0.8243394,-0.1810429
0.9968822,-0.2830921,0.05244318,-0.01180697,-0.01166314,0.08146062,-0.6596601,0.3470444,-0.0752214
0.8181033,-0.1437912,0.02127366,-0.1909528,0.1278302,0.05107214,-0.8174105,0.2940949,0.204379
0.7967301,-0.08051373,-0.04889034,-0.2127557,0.191271,-0.01825547,-0.9300008,0.3383725,0.3986406
0.8283204,-0.05116536,-0.1141634,-0.181643,0.2207477,-0.08264376,-1.143219,0.6107333,0.507269
0.7698792,-0.02170957,-0.1683903,-0.2405947,0.2502887,-0.1359408,-1.428544,0.9431765,0.5399703
0.7264157,-0.1304592,-0.09677042,-0.2845862,0.1415726,-0.0633472,-1.565502,1.04948,0.4025405
0.6773005,-0.2882339,0.03159843,-0.3342307,-0.0162252,0.06603743,-1.384282,0.7289945,0.2106591
0.5555727,-0.371008,0.09579906,-0.4564712,-0.09907856,0.13129,-0.9873724,0.08904705,0.0922102
0.5261943,-0.4004783,0.1470373,-0.4863252,-0.1286776,0.1836063,-0.5490795,-0.3134152,0.06475649
0.5388597,-0.3684842,0.1567648,-0.4740762,-0.09685282,0.1944253,-0.1117441,-0.5725806,0.07274376
0.5740836,-0.3430257,0.1332704,-0.4391883,-0.07159526,0.1720226,0.1982745,-0.7539211,-0.01033606
0.7259493,-0.3063457,0.1280765,-0.2875605,-0.03514061,0.1679083,0.3774369,-0.7062387,-0.116385
0.8882085,-0.2375707,0.102947,-0.1254295,0.03338942,0.1438354,0.4197027,-0.5893783,-0.1296936
1.098641,-0.2111323,0.05385853,0.08498747,0.05956556,0.09577153,0.2925546,-0.4061736,-0.1476167
1.30198,-0.1675521,-0.04430544,0.288415,0.1028657,-0.001405983,0.112254,-0.3417144,-0.1790914
1.373601,-0.1088742,-0.09498815,0.3602133,0.1612436,-0.05114276,-0.2224838,-0.2042841,-0.09874915
1.479281,-0.08587157,0.04311206,0.4661358,0.1839219,0.08786306,-0.5502623,0.2993793,-0.005591635
1.58613,-0.08558932,0.1674939,0.5732659,0.1838495,0.2131086,-0.5347491,0.7481226,-0.06456663
1.455688,-0.2287955,0.1162987,0.4431151,0.04025313,0.1627291,-0.4454925,0.9748729,-0.09578165
1.25618,-0.5340626,0.06304245,0.2438807,-0.2654398,0.1102336,-0.2649695,0.927055,0.05373047
1.31206,-0.82106,0.01644224,0.3000011,-0.5528882,0.06433379,0.3986125,0.7944071,0.2322438
1.313207,-1.009291,-0.12571,0.3013388,-0.7415723,-0.07717986,1.164118,0.9045362,0.2679264
1.010164,-0.9830683,-0.1610666,-0.001571328,-0.7157712,-0.1119565,1.593346,0.8013438,-0.007661762
0.7495343,-0.6430984,-0.06356787,-0.2621282,-0.376159,-0.01393069,1.66601,0.3211827,-0.4135807
0.6689999,-0.221214,-0.06252292,-0.3426413,0.04545369,-0.01240596,1.142466,-0.2448231,-0.5486792
0.8208458,0.01783128,-0.09752521,-0.1908085,0.2843171,-0.04697216,0.3237221,-0.5744766,-0.5169383
1.014409,0.01230607,-0.110325,0.00272152,0.2786879,-0.05937599,-0.08111469,-0.5225049,-0.3944577
0.9783053,-0.09360926,-0.1234535,-0.03342715,0.1727288,-0.07214412,-0.05588699,-0.7009238,-0.1282562
0.957882,-0.1635206,-0.09405992,-0.05390475,0.1028186,-0.04242109,0.2934486,-0.9483414,-0.06815176
0.8721475,-0.3817469,-0.07013922,-0.1396993,-0.1153715,-0.01819784,0.8872907,-0.8411403,-0.2166763
0.697718,-0.6089664,-0.03467769,-0.314188,-0.342521,0.01754202,1.357659,-0.8884371,-0.2930225
0.7190226,-0.4431609,-0.03742283,-0.2929306,-0.1766049,0.01505218,1.556404,-0.9164266,-0.3328245
0.7777186,-0.1346413,-0.1092013,-0.2342564,0.1320725,-0.05649321,1.546683,-0.8378552,-0.1963822
0.8290976,0.009517654,-0.1483335,-0.1828622,0.2764339,-0.0954122,1.34606,-0.8150321,0.1345882
0.9212622,0.1215561,-0.1909505,-0.0906376,0.3887063,-0.1378314,1.031918,-0.4663857,0.3917765
0.9804502,0.1705147,-0.1908361,-0.03134105,0.437911,-0.1375282,0.6813035,-0.08585123,0.5865291
1.013965,0.1065111,-0.133616,0.002330836,0.3741438,-0.08012167,0.2541046,0.07425426,0.681039
1.006561,0.06728898,-0.09769378,-0.004871438,0.3351281,-0.04401036,-0.0941839,0.1557079,0.6466691
1.020051,-0.04322748,-0.04339587,0.008861867,0.2247717,0.0104818,-0.101724,0.1547051,0.6181784
1.069415,-0.2201948,-0.02503334,0.05850782,0.04790735,0.02904382,0.06002599,0.1681063,0.5073625
1.139969,-0.2936313,-0.02316402,0.1293752,-0.02548653,0.03111625,0.2372081,0.1596522,0.3102067
1.20749,-0.3298983,-0.00234056,0.1972326,-0.06176863,0.05214406,0.5303741,0.1760176,0.1240232
1.222438,-0.242966,-0.01832997,0.2125314,0.02509637,0.03635756,0.7119053,0.09306074,-0.07406956
1.250474,-0.0517416,-0.004268028,0.2409177,0.2162048,0.05061828,0.6527676,-0.217579,-0.2490012
1.292758,0.00036323,-0.006470006,0.283541,0.2681427,0.04860837,0.608921,-0.4361556,-0.3463368
1.296322,-0.09814058,-0.06808341,0.287419,0.1694146,-0.0128218,0.4922619,-0.396749,-0.3227108
1.195632,-0.24936,-0.1046267,0.1870041,0.01790831,-0.04919125,0.06841263,-0.272553,-0.3079975
1.008455,-0.2803501,-0.1183471,5.551455e-05,-0.01343113,-0.06274571,-0.5581908,-0.3810666,-0.4232911
0.9225264,-0.2937135,-0.1596532,-0.08569486,-0.0272019,-0.1038907,-1.107008,-0.6958882,-0.508734
0.9874021,-0.4143865,-0.2374565,-0.0206863,-0.1483333,-0.181533,-1.178349,-0.8497526,-0.5288281
1.16335,-0.4768299,-0.2171265,0.1553525,-0.2112764,-0.1610359,-0.752415,-0.2910932,-0.4818513
1.386456,-0.5413369,-0.1028667,0.3785067,-0.276311,-0.04659585,-0.3399774,0.7639064,-0.3066984
1.41643,-0.506212,-0.03416543,0.4084752,-0.2417264,0.02230225,-0.2452598,0.9604521,-0.1321807
1.201727,-0.2823231,0.01023308,0.1937004,-0.0183763,0.06691353,-0.4296214,0.5679486,-0.04566385
1.011397,-0.1075202,-0.006478259,0.003222086,0.1558963,0.05042741,-0.7523564,0.5450532,0.02957135
0.903481,-0.03173094,-0.03247728,-0.104918,0.2311621,0.02466197,-1.088207,0.4282101,0.2130733
0.7851324,-0.02226149,-0.02097806,-0.223558,0.2401068,0.03639976,-1.310958,0.3330077,0.4002836
0.7469129,-0.01280806,-0.06313395,-0.2621226,0.2490241,-0.00551505,-1.376836,0.5215013,0.4732512
0.7445052,-0.08315023,-0.04762988,-0.2649125,0.1781246,0.01023092,-1.430067,0.7233324,0.5131318
0.6626774,-0.2576704,0.005518325,-0.3471421,0.00301912,0.06362043,-1.38206,0.838279,0.436368
0.5914669,-0.3170857,0.0349755,-0.418755,-0.05701059,0.09331566,-1.184247,0.657792,0.3144593
0.5575768,-0.3655294,0.1197805,-0.4530277,-0.1060934,0.1783508,-0.9629786,0.3019,0.2513329
0.5304765,-0.4053159,0.1699231,-0.4804689,-0.1465361,0.2287084,-0.587227,-0.1584081,0.1532372
0.5696158,-0.3570019,0.1800588,-0.4416072,-0.09888649,0.2390346,-0.1697272,-0.6573141,0.1246528
0.6651704,-0.3372435,0.1571589,-0.3462479,-0.07979229,0.2162902,0.1264353,-0.8393869,0.0829273
0.7982353,-0.2478837,0.09998816,-0.2132816,0.00890964,0.1592308,0.3170549,-0.7931709,-0.03691406
0.9954192,-0.1612527,0.09859539,-0.01609262,0.09489185,0.1578982,0.3182985,-0.6040004,-0.08442855
1.185644,-0.1772361,0.08639034,0.1742387,0.0782679,0.1456974,0.1911729,-0.2586597,-0.131747
1.343922,-0.1732654,0.06595006,0.3327137,0.08160352,0.1252017,-0.1019159,-0.05570549,-0.155504
1.489305,-0.1492714,0.07729688,0.4783639,0.1049648,0.1364307,-0.3908044,-0.1055217,-0.06495879
1.560388,-0.1320704,0.1190808,0.5497589,0.1215321,0.1780322,-0.4209167,-0.004629449,0.02789065
1.556829,-0.1659856,0.1923283,0.5465255,0.08697857,0.2510294,-0.382726,0.5568857,-0.03101465
1.503584,-0.285171,0.1416617,0.4935917,-0.03285214,0.2000396,-0.2962844,1.129059,-0.1108487
1.40072,-0.602268,-0.03259761,0.3909973,-0.3505988,0.02538049,-0.08507042,1.169435,0.00387495
1.28962,-1.020741,-0.1978308,0.2801063,-0.7697122,-0.1403277,0.3948364,0.9539158,0.1859764
1.209238,-0.9883847,-0.2286942,0.1998581,-0.7379584,-0.1717323,1.094203,0.9983095,0.2920919
0.9301646,-0.5782958,-0.05095199,-0.07916167,-0.3284024,0.005414561,1.478944,0.9245999,0.06817879
0.4787862,-0.3436157,0.05863999,-0.5305629,-0.09416298,0.1143659,1.42532,0.2400134,-0.4063734
0.5506869,-0.2578998,-0.01763448,-0.4587419,-0.00878766,0.03740925,1.00703,-0.5002278,-0.541829
0.9287959,-0.1715533,-0.08871816,-0.08074506,0.07731537,-0.03439614,0.4205659,-0.6336441,-0.469956
0.9920189,-0.06393355,-0.1411005,-0.01764987,0.1847805,-0.08753503,0.203096,-0.4584492,-0.3264788
1.058071,-0.07188412,-0.1372467,0.04826478,0.1767521,-0.08446541,0.3153571,-0.7025264,-0.02064703
0.9700965,-0.3355052,-0.05840738,-0.03985585,-0.08688245,-0.006430174,0.5263657,-1.003852,-0.02707469
0.7550835,-0.4888894,-0.01967199,-0.2550207,-0.2402217,0.03148707,0.9782626,-0.8685442,-0.2184127
0.8025589,-0.4478247,-0.03476784,-0.2076954,-0.1990516,0.0155622,1.385724,-0.8448556,-0.2690672
0.7408642,-0.3742655,-0.06173132,-0.2695272,-0.1253213,-0.0122389,1.399301,-0.8047251,-0.2724655
0.751862,-0.1741191,-0.07782862,-0.2586415,0.07506408,-0.0291796,1.246385,-0.6630011,0.01775443
0.8832849,-0.0264609,-0.09637952,-0.1272949,0.2230242,-0.04857591,1.085549,-0.6937342,0.3709678
0.8273293,0.0322134,-0.1276409,-0.1832829,0.2820513,-0.08068018,0.9234903,-0.4699578,0.4278345
0.908766,0.1118187,-0.14658,-0.1018296,0.362043,-0.1004541,0.6234899,-0.2017274,0.577455
0.9773788,0.1232753,-0.1245226,-0.0331481,0.3738998,-0.07921749,0.1843643,-0.1510467,0.7261108
0.9825821,0.04146436,-0.07450689,-0.02782406,0.2924828,-0.03000319,0.009884595,-0.06580692,0.5746028
1.091962,-0.08296467,-0.07166973,0.08172616,0.1684244,-0.02794421,-0.02162228,0.04230088,0.5070277
1.104042,-0.1714621,-0.0664357,0.09401945,0.08026329,-0.02346295,0.02910197,0.1057504,0.4820147
1.153482,-0.2800836,-0.008237026,0.1437093,-0.02806116,0.03400956,0.3062848,0.06440271,0.2486958
1.204817,-0.3075454,0.01132818,0.1953203,-0.05526501,0.05287488,0.506844,0.01322068,0.06554634
1.185441,-0.1982721,0.007288796,0.1762348,0.05423001,0.04816008,0.6618855,-0.1628955,-0.09316696
1.24788,-0.1559932,0.01577187,0.2389681,0.0966961,0.05598972,0.6585278,-0.4013512,-0.2130427
1.283665,-0.1804321,0.02639618,0.2750399,0.07240882,0.06598001,0.503512,-0.3915087,-0.230447
1.253585,-0.2811866,0.02699273,0.2452247,-0.02823087,0.06595917,0.3829737,-0.3066102,-0.4033034
1.168012,-0.3766167,-0.06948403,0.1598831,-0.1235814,-0.03112059,-0.2224214,-0.1251773,-0.5466781
1.067117,-0.4193626,-0.2239793,0.05917783,-0.1662771,-0.1862038,-0.9603204,0.04009595,-0.5294013
1.049006,-0.485322,-0.272595,0.04121261,-0.2322063,-0.2353864,-1.042746,-0.07230666,-0.5431134
1.06668,-0.4889306,-0.1780932,0.05898614,-0.2357932,-0.1414213,-0.763026,-0.1647712,-0.5451845
1.112282,-0.5024283,-0.06261731,0.104643,-0.2492656,-0.02644403,-0.4718154,-0.1827336,-0.3829567
1.206233,-0.5195041,-0.02727495,0.1986007,-0.2663001,0.008441221,-0.1680359,-0.3240393,-0.07241272
1.257365,-0.4848278,-0.0410045,0.2496894,-0.231555,-0.005704413,-0.08778592,-0.3342569,0.03424101
1.217691,-0.4066641,-0.07022178,0.2099125,-0.1532846,-0.03529827,-0.5708423,0.1799744,-0.04104105
1.17224,-0.2275762,-0.1258485,0.1642939,0.02595364,-0.09126259,-1.10523,0.9079318,0.01769705
1.026756,-0.09797032,-0.181245,0.01857362,0.1557529,-0.1469561,-1.127289,1.07566,0.2012461
0.7155396,-0.07651686,-0.1225939,-0.2929447,0.1774354,-0.08855823,-1.039665,0.7026876,0.4250222
0.5865559,-0.1124441,-0.01837381,-0.4222844,0.1417622,0.01545504,-1.067627,0.6109622,0.4389467
0.7261977,-0.1737956,-0.06096566,-0.2830318,0.08067954,-0.02729755,-1.079742,1.041569,0.2875016
0.7725522,-0.2017829,-0.05603414,-0.2370791,0.05296825,-0.02248263,-1.005555,1.311156,0.2308672
0.6208716,-0.2837054,0.0739619,-0.3891568,-0.02867574,0.1074383,-0.8528816,1.074102,0.1511299
0.5053672,-0.3775722,0.1036026,-0.5050356,-0.1222626,0.1370401,-0.7398866,0.7895978,0.04976715
0.5474696,-0.360543,0.07599907,-0.4632638,-0.1049497,0.1094261,-0.7609132,0.8186871,-0.03193889
0.6598323,-0.2989866,0.05842874,-0.3511665,-0.04310188,0.09186572,-0.8875073,0.8913281,-0.1002417
0.7593307,-0.2602565,0.1167164,-0.2518519,-0.004070501,0.1501764,-0.7815307,0.8166765,-0.1018243
0.796457,-0.2109911,0.283439,-0.2148169,0.0455059,0.3169267,-0.3826768,0.5896834,-0.1296357
0.8780209,-0.1689762,0.3685693,-0.1332464,0.08783882,0.4020767,-0.007135299,0.04837863,-0.139635
1.065593,-0.1787144,0.3010572,0.05443111,0.07842127,0.3345598,0.069008,-0.3273181,-0.115933
1.189496,-0.163855,0.186994,0.1785327,0.09359874,0.2204514,-0.2056781,-0.2789778,-0.1282422
1.322734,-0.1302119,0.1925324,0.3120506,0.1275519,0.2258924,-0.4470775,-0.2535613,-0.04334092
1.492174,-0.1355264,0.286819,0.4818298,0.1225337,0.3200206,-0.5552298,-0.02235008,0.05479196
1.478558,-0.1758881,0.3413693,0.4685902,0.08244859,0.374342,-0.5351017,0.3741379,0.01297219
1.386283,-0.3337143,0.353762,0.3766999,-0.0751242,0.3864236,-0.3004847,0.3584381,0.01211686
1.338714,-0.5860574,0.2325376,0.3295015,-0.327235,0.2647943,0.05391178,0.1169378,0.1490396
1.2443,-0.7915681,0.04095567,0.2354261,-0.5325229,0.07270607,0.5984408,-0.1624291,0.3267011
1.088755,-0.8494848,-0.06824524,0.08017531,-0.5902053,-0.03710261,0.9790618,-0.4578529,0.378894
0.905073,-0.6776573,-0.05045808,-0.1032623,-0.4181069,-0.0200179,1.076742,-0.2161824,0.1346904
0.7928956,-0.3547891,0.004453808,-0.2152419,-0.09491103,0.03410607,1.071998,0.1612583,-0.2506843
0.8127632,-0.111335,-0.05735625,-0.1952133,0.1489353,-0.02856885,0.6621018,-0.2308203,-0.461396
0.9106033,-0.07363133,-0.05366025,-0.09723755,0.1870903,-0.02580653,0.2377684,-0.629199,-0.4669625
1.011654,-0.1519649,-0.01705983,0.003932354,0.1092551,0.009799731,0.06462166,-0.6630118,-0.3658
1.001738,-0.2520233,-0.06913867,-0.005877917,0.009730742,-0.04332587,-0.03312586,-0.793605,-0.2117346
0.8736925,-0.3984037,-0.02944994,-0.1338281,-0.1360869,-0.004728967,0.2170173,-0.6796032,-0.1344589
0.742002,-0.4966031,-0.02647873,-0.265429,-0.233695,-0.002887506,0.5848227,-0.623572,-0.1929829
0.6998812,-0.4514913,-0.04383151,-0.3074561,-0.1879589,-0.02140154,0.8729032,-0.8191965,-0.2718552
0.7540473,-0.3561475,-0.02032568,-0.253179,-0.09195218,0.0009174908,1.16461,-0.9118356,-0.2764123
0.821131,-0.2083487,-0.09993101,-0.1859549,0.05655014,-0.07989414,1.239661,-1.021181,-0.1474359
0.9055194,-0.04516298,-0.1538211,-0.1013881,0.2204755,-0.1350028,1.135074,-0.8479357,0.1474362
0.9831021,0.01223032,-0.1733451,-0.02358484,0.2786334,-0.1557483,1.036654,-0.4236083,0.4446482
0.9684802,0.06562067,-0.1592047,-0.03794387,0.3327972,-0.1428215,0.8266065,-0.08635083,0.5821738
0.9662582,0.111795,-0.09048721,-0.03986242,0.3797353,-0.07530004,0.345112,0.08857498,0.6318887
0.9984183,0.07805224,-0.04721111,-0.007360295,0.3467276,-0.0331949,-0.02263592,-0.02011425,0.6190497
1.001593,-0.009742963,0.01017645,-0.003807906,0.2596207,0.02305104,-0.009230162,-0.02397394,0.5407217
1.055351,-0.18314,0.002167592,0.05036063,0.08685213,0.01393148,0.1223172,0.01075895,0.4660775
1.125257,-0.2664539,-0.01406386,0.120705,0.004100555,-0.003379427,0.3180026,-0.08529492,0.3758744
1.164557,-0.2451624,0.01884467,0.1604629,0.02588777,0.02848104,0.5625351,0.06481322,0.3166122
1.201187,-0.2804973,0.002669834,0.1975608,-0.009015621,0.01128947,0.811683,0.11604,0.228238
1.201272,-0.1907575,0.01553205,0.1981127,0.08109418,0.0231659,0.8924879,-0.1814992,-0.02973908
1.219236,-0.04225117,-0.004333189,0.2165317,0.2299094,0.002345401,0.6177555,-0.4643921,-0.268531
1.281805,-0.08607275,-0.07594367,0.2795317,0.1863319,-0.07018952,0.2238504,-0.4278017,-0.3690365
1.27535,-0.2295104,-0.09442979,0.2734727,0.04306888,-0.08956725,-0.2035615,-0.1251049,-0.4587124
1.148928,-0.3480723,-0.1011769,0.1473981,-0.07538891,-0.09716939,-0.7216735,0.006582815,-0.5810177
1.033552,-0.3642605,-0.1040174,0.03231587,-0.09153848,-0.1008238,-1.124712,0.01149459,-0.6449262
1.092859,-0.3445424,-0.1532018,0.09185837,-0.07183922,-0.1507766,-1.14308,0.2062902,-0.5989275
1.24402,-0.4579971,-0.2015203,0.2431958,-0.1853612,-0.1998121,-0.886029,0.4947203,-0.5381206
1.318596,-0.5612531,-0.1283992,0.3178849,-0.2887218,-0.1273505,-0.6735396,0.5219029,-0.4096205
1.302483,-0.5041102,-0.0319505,0.3018112,-0.2317067,-0.03149834,-0.5308601,0.4260429,-0.2585937
1.228781,-0.3849962,-0.001059768,0.2280668,-0.1127296,-0.00113989,-0.5781653,0.7187313,-0.2633057
1.099579,-0.2176645,-0.008729697,0.09873176,0.05446535,-0.009279509,-0.7903784,0.9026887,-0.1350707
0.8853585,-0.07543332,-0.01019576,-0.115712,0.1965615,-0.01115546,-0.942631,0.6307644,0.1693903
0.7293403,-0.08269974,-0.008620597,-0.2720359,0.1891568,-0.009933131,-1.080385,0.488128,0.2551832
0.7610568,-0.1192443,-0.0239448,-0.2406923,0.1524624,-0.02555567,-1.130884,0.5961572,0.2482192
0.7661086,-0.1493299,-0.0201654,-0.2360626,0.1222081,-0.02202233,-1.163247,0.8016225,0.3146461
0.708686,-0.2406274,0.02980076,-0.2939388,0.03071811,0.02774772,-1.194263,0.8786213,0.2700399
0.6797793,-0.3047666,0.1046268,-0.3233134,-0.03363887,0.1024239,-1.00504,0.6201836,0.180128
0.5958491,-0.3112108,0.1431668,-0.4077072,-0.04032421,0.140854,-0.7234577,0.1278998,0.1324787
0.5423273,-0.3055401,0.164544,-0.4616682,-0.03491417,0.1621529,-0.3985414,-0.2962806,0.07898161
0.5458804,-0.2875489,0.1861243,-0.4585088,-0.01719924,0.1836765,-0.1225082,-0.4422136,0.09631794
0.6142561,-0.2431383,0.1619216,-0.3904605,0.0269225,0.1594288,0.01448108,-0.5042423,0.09630919
0.8052398,-0.1835124,0.1486738,-0.1997212,0.08624812,0.1461383,0.1264784,-0.3846584,0.01356201
0.957124,-0.1611577,0.1344188,-0.04798893,0.10829,0.1318349,0.05787307,-0.1070953,-0.02224463
1.062318,-0.1779799,0.1023406,0.05714585,0.09113976,0.09969596,-0.05202802,-0.04298138,-0.03353139
1.193956,-0.1848455,0.1139795,0.1888114,0.08392767,0.111257,-0.1267697,-0.10932,0.029033
1.320402,-0.1625302,0.1164989,0.3153584,0.1058758,0.1136769,-0.3237597,-0.1623335,0.1579273
1.456106,-0.1259428,0.1539774,0.4512182,0.1420727,0.1510303,-0.3646377,0.03793479,0.1479142
1.51727,-0.1242487,0.2280334,0.5125699,0.1433493,0.2249305,-0.4101786,0.4503937,0.01842057
1.450808,-0.2561271,0.1915607,0.4462993,0.01102331,0.1882647,-0.5536735,0.6134684,-0.05076718
1.400072,-0.5666507,0.08161122,0.395735,-0.2999765,0.0780786,-0.2545751,0.4347724,0.1105155
1.38755,-0.8800746,-0.04490454,0.383343,-0.6138933,-0.0487198,0.4089599,0.2509109,0.3112737
1.150002,-0.9467814,-0.109811,0.1458678,-0.681085,-0.1139518,0.9868544,0.4687225,0.1955211
0.7620884,-0.6786855,-0.03903668,-0.2420375,-0.4134357,-0.04353914,1.212327,0.5695476,-0.0736746
0.6684774,-0.2261535,-0.01440524,-0.3356989,0.03871139,-0.01929823,0.9924237,0.09764303,-0.3338701
0.8151794,0.04788049,-0.07215297,-0.1890901,0.3124283,-0.07745978,0.4742874,-0.3142912,-0.4598897
0.8792531,-0.005446446,-0.07669398,-0.1251361,0.2588424,-0.08243239,-0.1900696,-0.4177744,-0.2551335
0.9427929,-0.1054417,-0.06364083,-0.06173215,0.1586303,-0.0698225,-0.4168858,-0.4271512,-0.09662462
1.067738,-0.151618,-0.04831124,0.06306769,0.1122661,-0.05494194,-0.006935627,-0.5375724,-0.125239
0.9686153,-0.3451323,-0.01701318,-0.03620876,-0.08141514,-0.02409395,0.2980948,-0.6698598,-0.1059668
0.7597162,-0.5108208,-0.007460625,-0.2452666,-0.2472507,-0.01498912,0.623981,-0.6422474,-0.1947006
0.7671769,-0.4410336,-0.02226367,-0.2379626,-0.1775852,-0.03023517,1.098294,-0.6280143,-0.2905938
0.776076,-0.3319733,-0.04782838,-0.2292068,-0.0686131,-0.05623591,1.173657,-0.5846557,-0.2188662
0.7664644,-0.1930817,-0.05384655,-0.2389367,0.07022711,-0.06268027,1.180773,-0.6079099,-0.0745454
0.861595,-0.05801867,-0.06958896,-0.1438893,0.2052731,-0.07883557,1.124814,-0.6693683,0.1770131
0.8804471,-0.00843243,-0.1131474,-0.125078,0.2548675,-0.1227896,0.8099409,-0.4878389,0.410624
0.8950904,0.1157772,-0.1156142,-0.1104287,0.3790969,-0.1256296,0.5664965,-0.3408379,0.5520178
0.9419481,0.1184017,-0.09348521,-0.06351563,0.3817358,-0.1038462,0.2424958,-0.2847267,0.6634562
0.9696803,-0.03045455,-0.07790074,-0.0356779,0.2328711,-0.0885748,0.07162316,-0.2147351,0.6537072
1.049673,-0.07741122,-0.04890357,0.04446903,0.1858692,-0.05985492,0.1843348,-0.1393466,0.5757836
1.118288,-0.1869069,-0.02067614,0.113282,0.07628333,-0.03186701,0.2841004,0.02524811,0.481334
1.176029,-0.272304,-0.00846913,0.1712575,-0.009251987,-0.01986137,0.5400677,0.1407756,0.320057
1.21508,-0.2487373,-0.01679116,0.2105681,0.01412983,-0.02834728,0.7391908,0.1551776,0.1733722
1.217699,-0.2926321,-0.01550622,0.2134611,-0.02999316,-0.02718969,0.791841,-0.03205481,0.03398092
1.226662,-0.2049973,0.01093386,0.2226998,0.05737402,-0.0008415104,0.8674612,-0.3661065,-0.1566744
1.207917,-0.05259322,0.01659083,0.2042196,0.2094726,0.004757366,0.7950041,-0.4648774,-0.2499987
1.209488,-0.06606102,-0.0335273,0.2060342,0.1956588,-0.04538695,0.5562441,-0.2187264,-0.2490313
1.198222,-0.1426323,-0.1085015,0.1949801,0.118696,-0.1203561,0.001215027,0.1357394,-0.3644727
1.1168,-0.2572916,-0.1273014,0.1137308,0.003596454,-0.139118,-0.8017855,0.04934097,-0.5566835
1.045456,-0.3407114,-0.1197805,0.04251453,-0.08031053,-0.1315223,-1.438367,-0.6892395,-0.7275204
1.053175,-0.3891994,-0.1689185,0.05031444,-0.1293265,-0.1805446,-1.590974,-1.236178,-0.8083098
1.229597,-0.4694854,-0.2284752,0.226771,-0.2101714,-0.2399393,-1.052658,-0.4706469,-0.5949847
1.442102,-0.4893428,-0.2302099,0.4392581,-0.2306063,-0.2414591,-0.4380865,0.8603688,-0.2218189
1.451712,-0.4513296,-0.1337117,0.4487859,-0.1931756,-0.1446861,-0.4118821,1.116067,-0.08012407
1.268874,-0.3317806,0.003798459,0.2657848,-0.07420212,-0.006837248,-0.71834,0.9033535,-0.115153
0.9885423,-0.1497913,0.03138091,-0.01479927,0.1072257,0.02114655,-1.059375,0.8213812,-0.03936427
0.7397496,-0.06622351,-0.01733147,-0.263934,0.1902458,-0.02710661,-1.257292,0.4811068,0.1579884
0.6511927,-0.072871,-0.02695982,-0.3529087,0.1830586,-0.03622296,-1.245325,0.5088209,0.3501942
0.6830856,-0.07952857,-0.02858035,-0.3214886,0.1758611,-0.03728262,-1.237164,0.7240669,0.4594889
0.6664026,-0.09579751,-0.03760164,-0.3386772,0.1590443,-0.04569734,-1.299761,0.6948279,0.4515491
0.6180833,-0.1734481,0.004592095,-0.3875135,0.08083181,-0.002854474,-1.336578,0.7056507,0.3205538
0.6268902,-0.2743659,0.08644725,-0.3792143,-0.02066495,0.07968818,-1.256674,0.5106555,0.1326985
0.57797,-0.3274338,0.1442263,-0.4286124,-0.07432787,0.1381864,-1.030532,0.1968612,0.05123672
0.5272031,-0.3226017,0.1737717,-0.4798069,-0.07010221,0.1684729,-0.6654178,-0.1788523,0.09351583
0.5790701,-0.2812397,0.1879083,-0.4282969,-0.02935245,0.1833615,-0.2367588,-0.6141252,0.09591427
0.6788263,-0.2452083,0.1652853,-0.3288089,0.00606524,0.1614897,0.04293476,-0.7501197,0.04886541
0.8651398,-0.213034,0.1206385,-0.1426618,0.03762706,0.1175828,0.08428533,-0.6300694,-0.004837303
1.072603,-0.2156971,0.08712366,0.06474158,0.03435315,0.08478818,-0.04115378,-0.2981724,-0.1240609
1.190495,-0.2361647,0.05785161,0.1826749,0.01327661,0.05621087,-0.2165223,-0.08178292,-0.1873406
1.294321,-0.202428,0.05933246,0.28663,0.04640617,0.05835702,-0.3564635,-0.2166685,-0.09337882
1.504407,-0.1693697,0.1344724,0.4969138,0.07885899,0.1341295,-0.4375879,-0.204424,0.009768228
1.6773,-0.1705455,0.1915564,0.6700467,0.07707764,0.1918087,-0.4066406,0.2990535,0.0385097
1.530796,-0.3261294,0.1248306,0.5237946,-0.07911277,0.1256342,-0.3583417,0.9782731,-0.01400613
1.329791,-0.6812308,0.02904469,0.3230212,-0.4348177,0.03035025,-0.2491306,1.049551,-0.03006319
1.352732,-0.9343347,-0.01331081,0.3461537,-0.688507,-0.01155462,0.2768606,0.606106,0.1807832
1.276321,-0.9616868,-0.09526028,0.2698767,-0.7163988,-0.09310287,1.086004,0.4277695,0.3420749
0.9811146,-0.8264659,-0.1583013,-0.02526297,-0.5816403,-0.1557867,1.576113,0.4910635,0.04229283
0.6657413,-0.5174615,-0.06250729,-0.340636,-0.272994,-0.05967222,1.494262,0.3660027,-0.4293101
0.5867213,-0.1515657,0.008654091,-0.4197099,0.09266212,0.0117796,1.051867,-0.1393745,-0.6005264
0.8348095,0.0634109,-0.07962203,-0.1717097,0.3075147,-0.07623239,0.5302263,-0.5995357,-0.5459746
1.017214,0.03516223,-0.1505294,0.01058912,0.2792418,-0.1468981,0.1664343,-0.6536113,-0.3099131
1.028368,-0.1476245,-0.1340763,0.02162662,0.0965109,-0.13022,0.1551467,-0.644514,0.04082959
0.993358,-0.3819717,-0.07261668,-0.01350785,-0.1377148,-0.06854477,0.4201661,-0.6462217,0.05023501
0.8295775,-0.4987068,0.0005378397,-0.1774203,-0.2542672,0.004820558,0.8143067,-0.5896272,-0.2008277
0.7242037,-0.3987077,0.001883675,-0.2829266,-0.154021,0.006374278,1.169468,-0.6417116,-0.3424173
0.7276101,-0.2738562,-0.03801459,-0.2796422,-0.02885457,-0.03331894,1.297171,-0.7692851,-0.3965905
0.7609575,-0.1015854,-0.0560449,-0.2463931,0.1437975,-0.05114659,1.302285,-0.8693378,-0.2182156
0.8539989,0.08826408,-0.1100773,-0.1534148,0.3340854,-0.1049768,1.184206,-0.8576558,0.154067
0.9041072,0.07800292,-0.1662316,-0.1033263,0.3243033,-0.1609256,0.9322992,-0.5409979,0.4574952
0.9555352,0.06285671,-0.1508834,-0.05187127,0.3096567,-0.1453631,0.6783867,-0.04815244,0.6961158
0.9710522,0.06226246,-0.1102277,-0.0362797,0.3095635,-0.1044782,0.3930931,0.1210263,0.7460924
0.9471275,-0.039229,-0.0687178,-0.06008294,0.2085576,-0.06271951,0.2203248,0.02014208,0.6646489
1.007466,-0.0968897,-0.04287036,0.0004218598,0.1513537,-0.03660149,0.2090382,-0.01600731,0.6340853
1.085027,-0.183338,-0.03330912,0.07819236,0.0653249,-0.02674743,0.2753436,-0.05354077,0.4981362
1.201077,-0.2769589,-0.02513764,0.1944872,-0.02791756,-0.01826153,0.4601136,-0.01068966,0.3112546
1.256768,-0.2824767,-0.04316138,0.2504499,-0.03309753,-0.03595036,0.6758388,0.1099386,0.1857615
1.215366,-0.2738021,-0.02604928,0.2093329,-0.02412268,-0.01848391,0.841952,0.03110428,0.01300397
1.234012,-0.2264796,-0.003609371,0.2282623,0.02346537,0.004328539,0.8303422,-0.1984362,-0.182582
1.241556,-0.1493043,-0.0561579,0.2360781,0.1008729,-0.04783078,0.6890477,-0.3214331,-0.2914346
1.245348,-0.06732401,-0.09012143,0.2401171,0.1830506,-0.08138923,0.4477661,-0.07332262,-0.2968288
1.223386,-0.1022597,-0.09743162,0.2183669,0.1482728,-0.08827767,-0.1376567,0.229584,-0.3493226
1.067334,-0.3067845,-0.1330213,0.0624818,-0.05613798,-0.1234269,-0.787016,-0.1218271,-0.4941257
0.9179405,-0.4284876,-0.1788681,-0.08679181,-0.1777698,-0.1688114,-1.136664,-0.7131633,-0.6442015
0.9781681,-0.4203107,-0.1923679,-0.02649012,-0.1695567,-0.1818226,-1.118043,-0.7629576,-0.7300162
1.244435,-0.4472031,-0.1604965,0.239809,-0.1964373,-0.1494309,-0.7107311,-0.08521289,-0.5241626
1.495196,-0.5556128,-0.1460435,0.4905555,-0.3048476,-0.1344213,-0.2791856,1.028042,-0.1874733
1.554003,-0.5710438,-0.1068249,0.5492889,-0.3202779,-0.09460657,-0.1851679,1.367002,-0.1096025
1.335503,-0.3797683,-0.01927748,0.330635,-0.1289862,-0.0064227,-0.5441954,0.8321207,-0.09357087
0.9610992,-0.1457187,0.03910177,-0.04401521,0.1051038,0.05263119,-1.057065,0.5586759,0.05240705
0.7433483,0.02379763,0.03542146,-0.2621056,0.2746837,0.04965848,-1.295985,0.4471624,0.2426827
0.7456865,-0.004807666,-0.03949798,-0.2601867,0.2461552,-0.02452652,-1.431869,0.4552798,0.4073005
0.7473311,-0.0874229,-0.07430665,-0.2590222,0.1636169,-0.05857829,-1.496426,0.7049582,0.4779078
0.631919,-0.05362775,-0.04763848,-0.3749554,0.1974781,-0.03113301,-1.421663,0.7191876,0.4798174
0.6236018,-0.2087651,-0.01117776,-0.3838139,0.04238746,0.006123317,-1.350752,0.6442851,0.3625892
0.6484903,-0.3454928,0.08175131,-0.3594651,-0.09431657,0.09986317,-1.152315,0.5045892,0.1754026
0.5472441,-0.3221826,0.1380932,-0.4612284,-0.07100399,0.1570248,-0.8938176,0.1685764,0.1105398
0.5729408,-0.3854518,0.159078,-0.4360051,-0.1342867,0.1788293,-0.5677922,-0.2994586,0.1376083
0.5777835,-0.3268872,0.1960438,-0.4315718,-0.0757452,0.216604,-0.1171676,-0.8497792,0.144067
0.5853751,-0.2575858,0.1711852,-0.4243063,-0.006471348,0.1925322,0.06550819,-0.949799,0.08419909
0.79499,-0.2572285,0.1379155,-0.2149187,-0.006142952,0.1600163,0.04276143,-0.6924394,0.01374487
0.9698007,-0.187599,0.09958896,-0.0402277,0.0634567,0.1224021,0.04215834,-0.3564748,-0.04132397
1.186119,-0.2260812,0.02273202,0.1760777,0.02494253,0.04621001,-0.1100427,0.1790942,-0.09985649
1.326279,-0.2364498,-0.003836512,0.3163202,0.01453848,0.02025609,-0.3454412,0.2394247,-0.09111542
1.342211,-0.1806312,0.07215173,0.3324116,0.07031691,0.09680793,-0.4453918,-0.009198199,-0.007478258
1.535368,-0.1526659,0.1887335,0.5257824,0.09823515,0.2139005,-0.4132339,0.2506098,0.05978956
1.616183,-0.1031796,0.2156682,0.6068385,0.1476639,0.241288,-0.4435716,0.6418514,-0.06132801
1.446463,-0.2250986,0.1589154,0.4373566,0.02567242,0.1849223,-0.4598997,0.9417945,-0.2000342
1.272936,-0.522312,0.08528069,0.2640394,-0.2716294,0.1116023,-0.09881678,0.911368,-0.003107505
1.206816,-0.8412428,-0.03821942,0.198084,-0.5906555,-0.01165825,0.512757,0.5179476,0.2624356
1.167141,-1.00517,-0.1613642,0.1585169,-0.7546625,-0.134636,0.9898226,0.5402903,0.3040483
1.005564,-0.8625191,-0.1599229,-0.003011491,-0.6120456,-0.1330927,1.233743,0.5629085,0.1403169
0.8541926,-0.5451633,-0.1070802,-0.1543944,-0.2946487,-0.08020252,1.188595,0.2649279,-0.2041715
0.7890644,-0.2132864,-0.1201884,-0.2195856,0.03736103,-0.09330849,0.7556787,0.136539,-0.5115407
0.8472596,-0.1233074,-0.08553649,-0.1614928,0.1275656,-0.05869162,0.2381654,-0.07071839,-0.6140624
0.9567127,-0.2156173,-0.01629143,-0.05216975,0.03556514,0.01048725,0.2381846,-0.4597525,-0.4509338
0.8942738,-0.2052802,-0.01246948,-0.1147576,0.04628482,0.01421576,0.5637718,-0.9808189,-0.2102375
0.8632302,-0.346314,-0.009008592,-0.1459621,-0.09430121,0.01755799,0.8225352,-1.067752,-0.2163091
0.8803302,-0.4891509,-0.04575465,-0.1290274,-0.236629,-0.01933034,1.258771,-0.5585354,-0.2763269
0.7693469,-0.3441898,-0.07492126,-0.240172,-0.09109672,-0.0486605,1.513947,-0.4769158,-0.2573536
0.7158568,-0.2258747,-0.03341301,-0.2938093,0.02785248,-0.007333809,1.341899,-0.5785469,-0.2313422
0.726338,-0.0429779,-0.03486465,-0.2834488,0.2114413,-0.00898196,1.225299,-0.5889796,-0.04475301
0.7881534,0.1400835,-0.06930261,-0.2217151,0.3952401,-0.04362884,0.9853272,-0.6095902,0.2621671
0.9305395,0.09127548,-0.1229638,-0.07936209,0.3471952,-0.09750818,0.6124425,-0.2432445,0.5489669
0.9716977,0.1074414,-0.1407295,-0.0381838,0.364128,-0.1154965,0.3924147,0.03418391,0.6950115
0.96031,0.09350557,-0.07410908,-0.04949836,0.3509419,-0.04909748,0.09527766,0.05487882,0.6765871
1.016151,-0.02007046,-0.03078099,0.006467284,0.2380799,-0.00598521,-0.07734395,0.05245233,0.6285202
1.084238,-0.09232467,-0.0138239,0.07472696,0.1664899,0.01076358,0.0176631,0.1208726,0.4968159
1.137252,-0.2187293,-0.004136828,0.1279546,0.04069118,0.02024998,0.1268598,0.2041361,0.3337613
1.180272,-0.2636733,0.009700165,0.1712222,-0.003708283,0.03389314,0.3647949,0.08201339,0.2257042
1.223572,-0.2440624,0.02686212,0.2147913,0.01638689,0.0508667,0.6531165,0.09733019,0.09660231
1.235868,-0.2026878,0.01483922,0.2273677,0.05818777,0.03865894,0.7354069,-0.0614735,-0.01555761
1.235396,-0.0388742,0.01759282,0.2271733,0.2223697,0.04122924,0.6684661,-0.439461,-0.142588
1.260027,0.03313288,0.002051689,0.252067,0.294683,0.02550473,0.4958593,-0.4194411,-0.2289592
1.238137,-0.09178254,-0.03431699,0.2304123,0.1700038,-0.01104839,0.1551372,-0.2099361,-0.213859
1.153148,-0.2731288,-0.05228687,0.145623,-0.01118203,-0.02920352,-0.3507918,-0.0152654,-0.3261631
1.051008,-0.3591894,-0.0877282,0.04363768,-0.09715737,-0.06482932,-0.9427688,-0.2814651,-0.5488885
1.02129,-0.3744624,-0.1421228,0.01402793,-0.1124133,-0.1194046,-1.344646,-0.9212626,-0.6482139
1.110248,-0.4464727,-0.1991731,0.103048,-0.1844646,-0.1766264,-1.18472,-1.013382,-0.6316777
1.233644,-0.5007279,-0.1871712,0.2264587,-0.2388064,-0.1647801,-0.6732558,-0.1886113,-0.4910081
1.414306,-0.5118346,-0.1173247,0.4070821,-0.2500314,-0.09506594,-0.2648292,1.067219,-0.2363174
1.525884,-0.4948497,-0.05770026,0.5185576,-0.2331816,-0.03554541,-0.1269611,1.288609,-0.1652319
1.277358,-0.3441413,0.01902059,0.2698476,-0.08261214,0.04110138,-0.4822447,0.6867933,-0.2190494
0.8787998,-0.08239672,0.03337279,-0.128987,0.1789968,0.05540761,-1.012933,0.4795817,-0.04234565
0.7192952,0.03796816,-0.01870326,-0.2888564,0.2992273,0.003310073,-1.299351,0.2577201,0.2055998
0.7398192,-0.05149971,-0.04270445,-0.2687703,0.2096164,-0.02069107,-1.500707,0.2952918,0.3516107
0.7305575,-0.07742166,-0.06290427,-0.2785232,0.1835318,-0.04087066,-1.54958,0.650301,0.4508053
0.6911783,-0.1080971,-0.03058776,-0.318427,0.1526652,-0.008514005,-1.546521,0.694819,0.4419664
0.6863985,-0.2914923,0.05054794,-0.3237457,-0.03095459,0.07268079,-1.501715,0.8114562,0.3610939
0.6420333,-0.3890923,0.08724746,-0.3686448,-0.1288122,0.1094552,-1.224167,0.6462253,0.2550269
0.5647371,-0.4067212,0.1192925,-0.4464507,-0.1467258,0.1415851,-0.9356609,0.1302403,0.1750077
0.5501661,-0.4197645,0.1847639,-0.4614866,-0.1600715,0.2071437,-0.4939398,-0.2042755,0.175564
0.575893,-0.3618191,0.2281141,-0.4361589,-0.1024366,0.250574,-0.005090579,-0.6792628,0.1430086
0.6848229,-0.2938757,0.1798582,-0.3275441,-0.03480402,0.2023804,0.256499,-0.9094946,0.02892891
0.8810112,-0.1958552,0.1089245,-0.1315732,0.06290926,0.1314813,0.4052571,-0.6287941,-0.09177626
1.060363,-0.1270859,0.07849983,0.04766351,0.131375,0.1010566,0.2411774,-0.3248379,-0.1244015
1.197397,-0.168109,-4.845635e-05,0.1846807,0.09004833,0.02247038,-0.05298441,-0.08442352,-0.06571241
1.281438,-0.1809165,-0.03134365,0.2687908,0.07693293,-0.008901025,-0.3255656,-0.1116821,0.02761429
1.418533,-0.1535174,0.1048013,0.4060218,0.1040162,0.1271306,-0.570777,-0.2061594,0.1991896
1.64513,-0.1454644,0.2750426,0.6327984,0.1117421,0.2972203,-0.4667273,0.07142345,0.2741696
1.670107,-0.1302896,0.3305814,0.6579689,0.1265747,0.3525619,-0.4137505,0.607501,0.04068434
1.375012,-0.1466649,0.2740477,0.3630497,0.1098383,0.2957739,-0.5213084,1.130133,-0.1612359
1.136969,-0.2617629,0.2219322,0.1251426,-0.005642826,0.2433358,-0.3649814,1.062262,-0.06135682
1.198233,-0.5925003,0.08482137,0.1864872,-0.3367833,0.1058266,0.02798871,0.5609907,0.08435855
1.227873,-0.9991314,-0.175941,0.2161493,-0.7438241,-0.155411,0.7221784,0.4526274,0.2087921
1.10162,-0.9507066,-0.229867,0.08985336,-0.6957886,-0.2098815,1.283064,0.5453756,0.3183053
1.002368,-0.5386992,-0.1323694,-0.009508524,-0.2841187,-0.1129841,1.223948,0.5545046,0.1252417
0.8365403,-0.3124495,-0.1680156,-0.1755094,-0.05813342,-0.1492721,0.9672892,0.4832435,-0.2523298
0.7708761,-0.2267195,-0.1655637,-0.2414007,0.0274118,-0.1474916,0.6337232,0.2547114,-0.5148999
0.8807457,-0.1979943,-0.05458003,-0.1317986,0.05602844,-0.03719821,0.3121035,-0.0482475,-0.6451056
0.8234472,-0.1846016,0.01333367,-0.1893918,0.06938191,0.03001398,0.3416435,-0.7309441,-0.4622016
0.7953865,-0.1542431,0.02146727,-0.2177623,0.09976238,0.03743842,0.5174131,-1.298921,-0.1660811
0.8714636,-0.3364513,-0.02460189,-0.1419984,-0.08237028,-0.009346086,0.8289098,-1.070679,-0.1444958
0.8208629,-0.4532968,-0.06002032,-0.1929055,-0.1990903,-0.04548406,1.286204,-0.7848798,-0.1685481
0.8204024,-0.3818441,-0.07374215,-0.1936559,-0.1274605,-0.05992617,1.544413,-0.6739253,-0.2132834
0.8096739,-0.2912537,-0.09440556,-0.2046486,-0.03663844,-0.08130593,1.561861,-0.6468957,-0.2861842
0.7940978,-0.03090042,-0.07712498,-0.2204538,0.2239994,-0.06473266,1.359868,-0.7626592,-0.09682811
0.9104317,0.1405901,-0.09727636,-0.1043059,0.3958174,-0.08557725,1.027426,-0.5369489,0.2199918
