accx,accy,accz,body_accx,body_accy,body_accz,body_gyrox,body_gyroy,body_gyroz
0.847131,0.1150236,-0.228685,-0.1541005,0.1512729,0.02028505,0.6388259,-0.2202411,-0.06959639
0.8866203,0.1004507,-0.222978,-0.1146343,0.1377786,0.02609147,0.6760491,-0.1771623,0.0297311
0.9215332,0.06129553,-0.1944611,-0.07968255,0.09971374,0.05472689,0.7315941,-0.1738326,0.1015903
0.9447066,0.04709328,-0.1982617,-0.05640784,0.0866037,0.05106025,0.850799,-0.2000122,0.09511698
0.9740413,0.03079638,-0.2048371,-0.02691077,0.07139278,0.04463008,0.9149919,-0.239468,0.04301167
0.993005,0.05711284,-0.226644,-0.00772609,0.09878213,0.02297621,0.8575195,-0.2348327,-0.0189383
1.034986,0.07364028,-0.2750988,0.03453049,0.1163628,-0.02532018,0.7110055,-0.05659016,-0.06777154
1.08486,0.09080544,-0.3170471,0.08472847,0.1345545,-0.06710533,0.4287132,0.2488517,-0.08192319
1.105659,0.1474056,-0.3252138,0.1058933,0.1921471,-0.07510292,0.1427834,0.4303773,-0.1407644
1.128573,0.158695,-0.2653118,0.1292053,0.204386,-0.01502362,0.05877781,0.3876129,-0.2839379
1.182828,0.122321,-0.1644902,0.1838811,0.1689094,0.08598399,0.3271103,0.3272172,-0.4132701
1.238826,0.0437096,-0.09221603,0.2403128,0.09113584,0.1584498,0.7619602,0.1558695,-0.4633604
1.220487,0.01266376,-0.1407401,0.2224062,0.06086336,0.1101167,0.828819,-0.2579548,-0.4656062
1.179254,0.07764115,-0.312307,0.1815918,0.1265474,-0.0612657,0.4182159,-0.538116,-0.4704321
1.165072,0.07643978,-0.4726068,0.1678058,0.1259839,-0.221388,-0.006345363,-0.4474383,-0.4525138
1.124591,-0.09582776,-0.5195245,0.127688,-0.04571638,-0.2681288,-0.0702544,-0.2246189,-0.3742306
1.058094,-0.3574849,-0.4978041,0.0615163,-0.3068736,-0.2462209,0.08095762,-0.02622127,-0.3124683
0.971632,-0.4715791,-0.4615137,-0.02466152,-0.4205231,-0.2097211,0.215046,0.1665817,-0.3223638
0.9364085,-0.4304657,-0.3409892,-0.05964049,-0.3790004,-0.08895627,0.4077482,0.1739611,-0.347259
0.9837177,-0.3548243,-0.2505524,-0.01212291,-0.3029644,0.001756188,0.477022,0.05306877,-0.3318726
1.039251,-0.1461411,-0.2867434,0.04358555,-0.09388479,-0.03412381,0.2820723,-0.004148957,-0.2402112
1.110403,0.04318912,-0.3004985,0.1148816,0.095852,-0.04753462,0.1312113,-0.0667802,-0.07154441
1.124713,0.04612438,-0.3501,0.1293008,0.0992034,-0.09675954,-0.03756215,0.1076623,0.08238413
1.054046,0.03924836,-0.4058064,0.05870621,0.09274747,-0.1520565,-0.2405182,0.418847,0.1504111
0.9998019,0.007568242,-0.357019,0.004495415,0.06148524,-0.1028246,-0.2672076,0.4386172,0.1809676
0.9149812,-0.107324,-0.3183493,-0.08032966,-0.0529956,-0.063673,-0.3074413,0.4215208,0.2242165
0.8286985,-0.1580704,-0.2374245,-0.1666496,-0.1033378,0.01777106,-0.3114501,0.4261178,0.2649651
0.8137029,-0.1458041,-0.1477693,-0.1817069,-0.09067193,0.1079796,-0.2417396,0.3110557,0.2586953
0.8015586,-0.1323972,-0.1404072,-0.193927,-0.0768662,0.1159224,-0.2545966,0.2396231,0.2216644
0.8016814,-0.08254669,-0.1283134,-0.1938832,-0.02661457,0.1286155,-0.2293904,0.1754018,0.2165305
0.7951107,-0.04143275,-0.149349,-0.2005256,0.01490399,0.1081884,-0.2434318,0.1290356,0.2132182
0.7602525,-0.04945779,-0.1649353,-0.2354382,0.007286402,0.0932118,-0.286617,0.0970413,0.2431039
0.7643016,-0.08066616,-0.1212065,-0.2314162,-0.02351313,0.137544,-0.2550195,0.02153941,0.3025744
0.7808675,-0.1245512,-0.08450834,-0.2148401,-0.06698854,0.1748318,-0.225854,0.02241688,0.2453783
0.8073662,-0.1194828,-0.04837386,-0.1882855,-0.06150872,0.2115335,-0.1393805,-0.01186087,0.1377781
0.8648714,-0.07397783,-0.01729564,-0.1306718,-0.01558908,0.2431467,-0.0983963,-0.1644488,0.02395501
0.9142867,-0.04667815,-0.008971933,-0.08109169,0.01212896,0.2519625,-0.1133646,-0.3071132,-0.1421824
0.966274,-0.02414159,-0.03667043,-0.02888206,0.03508641,0.2247025,-0.04580798,-0.4950825,-0.2051898
1.037587,-0.0386662,-0.07536703,0.04270817,0.02098293,0.1863816,0.01204849,-0.6734393,-0.1400909
1.131446,-0.06975891,-0.09267688,0.1368947,-0.009690675,0.1693774,0.04929691,-0.5699289,-0.04604694
1.220978,-0.0707972,-0.08898706,0.2267953,-0.01031327,0.1732977,0.02724184,-0.04926665,0.002190442
1.246457,-0.02798787,-0.03608366,0.2526697,0.0329075,0.2263518,-0.06466922,0.4899,-0.1101594
1.236415,0.1059298,-0.007227301,0.2430372,0.1672301,0.2552742,-0.1155917,0.2601433,-0.2289962
1.29191,0.1973937,-0.07905087,0.2989384,0.2590863,0.1834262,-0.1117758,-0.5247289,-0.06705578
1.42845,0.1381253,-0.2009578,0.4358674,0.2001876,0.06140069,0.09314662,-0.8631198,0.2583826
1.486766,0.01642081,-0.2919243,0.4945349,0.07882043,-0.02977754,0.4972819,-0.464255,0.4147495
1.323643,-0.2742738,-0.3558434,0.3317073,-0.2115736,-0.09399541,0.6932612,0.277048,0.3011788
1.051406,-0.5994828,-0.4515561,0.05969238,-0.536512,-0.1900835,0.4822289,0.6529424,0.0339193
0.8699826,-0.3970552,-0.4588212,-0.121588,-0.3338264,-0.197787,0.1704944,0.6059271,-0.1838004
0.802847,0.0181377,-0.3964018,-0.1886527,0.08162987,-0.1358544,-0.05074468,0.3776628,-0.2339585
0.8061323,0.001636724,-0.4346593,-0.1853574,0.06540443,-0.1746334,-0.2297764,-0.2596087,-0.1349004
0.8563719,-0.02604245,-0.4351961,-0.1351553,0.03801038,-0.175714,-0.1085059,-0.6314295,-0.005336572
0.9077571,-0.002219883,-0.3990283,-0.08384363,0.06212326,-0.1401007,0.193103,-0.4174389,0.02295383
1.01268,-0.2846157,-0.4163674,0.02097765,-0.2199791,-0.1579942,0.2799525,-0.08286789,-0.03768505
1.137013,-0.473487,-0.3660944,0.1451849,-0.4085496,-0.1082667,0.3722196,0.4494085,-0.2709723
1.080519,-0.4188079,-0.3295219,0.08853958,-0.3535494,-0.07222316,0.4427572,0.5959418,-0.6074831
0.8965301,-0.2664973,-0.2884428,-0.09562799,-0.2008825,-0.03165174,0.4491455,0.2082966,-0.7104123
0.7793071,-0.1099643,-0.1880281,-0.213054,-0.04394778,0.06827873,0.6072218,-0.07883339,-0.6443669
0.7709943,-0.06390477,-0.2215921,-0.221585,0.002561533,0.0342532,0.6846783,-0.2835167,-0.5560591
0.8245252,-0.007870067,-0.2895395,-0.1682756,0.05909101,-0.03413503,0.7150771,-0.2857482,-0.4072621
0.8326313,0.02108277,-0.2783496,-0.1603834,0.08857752,-0.02336584,0.7589091,-0.1207926,-0.320444
0.8306555,0.005934359,-0.2802772,-0.1625569,0.07399405,-0.02569339,0.7170103,0.006035723,-0.3284333
0.8720739,-0.01880736,-0.2567131,-0.1213123,0.04984088,-0.002507452,0.7239032,0.1051091,-0.3190147
0.8444396,-0.005787335,-0.2437476,-0.1490903,0.06346634,0.0101015,0.6714576,0.02044715,-0.2907695
0.8161537,0.07752899,-0.2509015,-0.1774842,0.1473985,0.002612148,0.612172,-0.1203051,-0.2338347
0.8463611,0.06514833,-0.2206971,-0.1473432,0.1356363,0.03250132,0.585612,-0.1590233,-0.09031317
0.8510849,0.1148457,-0.2027491,-0.1426391,0.1859459,0.05015233,0.5174786,-0.1516734,0.03815439
0.8913873,0.1586188,-0.1785607,-0.1023056,0.230315,0.07405963,0.5621798,-0.117338,0.1073991
0.9483984,0.06309483,-0.1634772,-0.04521028,0.1353606,0.08887424,0.5767384,-0.107312,0.1553514
0.9674652,0.06699208,-0.182735,-0.02600634,0.1397922,0.06935568,0.5617819,-0.08353356,0.1229795
0.9857436,0.05625252,-0.1814521,-0.007539861,0.1295451,0.07038204,0.6054378,-0.06726049,0.07728885
0.9858822,0.07281519,-0.2020287,-0.007165765,0.1465531,0.04955004,0.5419676,-0.1477466,0.05003761
1.000183,0.1470489,-0.2457532,0.007414632,0.2211796,0.005569028,0.3793872,-0.1783488,0.03251259
1.049204,0.138738,-0.2563674,0.0567542,0.2132022,-0.005303527,0.1012039,0.001206205,0.05811247
1.110087,0.1699749,-0.2272025,0.1179911,0.2447059,0.0236016,-0.1250585,0.2593095,0.02158057
1.164303,0.148715,-0.1497029,0.1725854,0.2236383,0.1008397,-0.08956163,0.2840271,-0.07721607
1.183154,0.07950266,-0.08044104,0.1918315,0.1545374,0.1698358,0.09520678,-0.07930214,-0.1715747
1.202923,0.04715617,-0.09007683,0.211999,0.1222173,0.1599245,0.2541148,-0.5870269,-0.229474
1.243743,0.02362239,-0.1983388,0.2532108,0.09862356,0.05137143,0.120528,-0.7739873,-0.2740663
1.268565,0.04324564,-0.340952,0.2784048,0.1181009,-0.09155108,-0.1149538,-0.4945336,-0.3983809
1.20833,-0.01372707,-0.4118467,0.2185079,0.06089748,-0.1627704,-0.07777266,-0.2339336,-0.4230816
1.063357,-0.1281183,-0.4455998,0.07383036,-0.05380613,-0.1968556,0.0143449,-0.2090322,-0.2617923
0.9512217,-0.2540816,-0.463389,-0.03805714,-0.1801564,-0.2149739,0.1525339,0.004792403,-0.1205418
0.9206218,-0.3748023,-0.3805713,-0.06845629,-0.3013262,-0.1324719,0.3641681,0.2071892,-0.0802537
0.9575622,-0.3565599,-0.2473452,-0.03135725,-0.2835776,0.0004600037,0.3566133,0.04150471,-0.1773725
1.023494,-0.269742,-0.2101455,0.03469519,-0.1972801,0.03738978,0.2734249,-0.1500845,-0.2488022
1.110046,-0.1029329,-0.2873275,0.1213334,-0.03100309,-0.04003837,0.1964427,-0.2562152,-0.1124767
1.197712,0.1075956,-0.3820569,0.2090477,0.1789891,-0.1349904,0.01114851,-0.2020411,0.06844497
1.144833,0.1168534,-0.4237329,0.1561734,0.1877053,-0.1768622,-0.1196417,0.1516898,0.2468659
1.025131,0.01780902,-0.4006332,0.03642973,0.08810841,-0.1539257,-0.2209959,0.4808134,0.4238139
0.9589483,-0.04013153,-0.3237177,-0.02984338,0.02960006,-0.07713505,-0.3269907,0.5724998,0.4740314
0.86437,-0.1126704,-0.2272478,-0.1245576,-0.04352244,0.01925164,-0.3219179,0.4789368,0.4534068
0.8253351,-0.1440825,-0.1756379,-0.1637663,-0.07553109,0.07081876,-0.3054424,0.3964056,0.4391212
0.817829,-0.1156624,-0.1572995,-0.171474,-0.04771534,0.08915004,-0.318346,0.3544755,0.3982526
0.7384169,-0.119798,-0.109165,-0.2511039,-0.05245804,0.1373065,-0.3223032,0.2108282,0.333382
0.7285451,-0.1086005,-0.1066603,-0.2611972,-0.04186572,0.1398544,-0.3907425,0.2139848,0.2786341
0.7352275,-0.05602351,-0.1461949,-0.2547262,0.01011152,0.1003758,-0.4737959,0.2213123,0.2586052
0.7043009,-0.04652792,-0.1080039,-0.285841,0.01901495,0.1386282,-0.4752775,0.005213243,0.2867402
0.7566009,-0.04673099,-0.07845385,-0.2336935,0.01822792,0.168238,-0.4530013,-0.04336191,0.3113961
0.8178033,-0.03312441,-0.08192485,-0.1725971,0.03125877,0.1648172,-0.4576455,-0.0240644,0.2859886
0.8465553,-0.03122059,-0.04731731,-0.1438972,0.03259477,0.1994574,-0.4757786,-0.1309285,0.2157844
0.8793943,-0.02135816,-0.04930994,-0.1110519,0.04189666,0.1974716,-0.4858346,-0.3158333,0.08083953
0.9188308,-0.03420475,-0.06489936,-0.07154817,0.02849598,0.1818552,-0.4369075,-0.6511049,0.002153248
1.023499,-0.09730834,-0.08996092,0.03324809,-0.03515556,0.1567258,-0.274732,-0.7873648,0.06927114
1.152601,-0.2078395,-0.1605181,0.1625328,-0.1462266,0.08605454,-0.06132549,-0.5178532,0.144064
1.236451,-0.2809609,-0.1589735,0.2466135,-0.2198743,0.08743608,0.007197512,0.05266757,0.1503411
1.290419,-0.2029587,-0.06720906,0.3008438,-0.1423761,0.1789871,-0.04525748,0.5671023,-0.0116923
1.311523,-0.006637708,0.009189678,0.3222264,0.05347066,0.2551188,-0.02381293,0.3057547,-0.2051838
1.323651,0.2086929,-0.03245856,0.3346308,0.2683572,0.2131442,0.003421947,-0.4356675,0.005077181
1.400561,0.2487691,-0.1592225,0.4117976,0.3080115,0.08598901,0.06391967,-0.6792556,0.401235
1.497828,0.03477131,-0.2605073,0.5092822,0.09360104,-0.01575344,0.3756693,-0.1313618,0.4944997
1.424124,-0.240494,-0.3568797,0.4357359,-0.1820754,-0.1126457,0.6420204,0.7212051,0.3271276
1.1584,-0.4585183,-0.3995542,0.1700923,-0.4005058,-0.1558937,0.4561349,0.8897563,0.05137758
0.8955838,-0.4467022,-0.3653826,-0.09273051,-0.3890771,-0.1223375,0.1107869,0.5206267,-0.1323199
0.7622449,-0.1950837,-0.358452,-0.2261592,-0.1378102,-0.1160526,-0.117403,0.26549,-0.1224064
0.7439197,-0.0272594,-0.405188,-0.2446444,0.02970938,-0.1634539,-0.3153086,-0.3472478,-0.02819539
0.780083,0.02905966,-0.4709385,-0.2086949,0.08577197,-0.2298786,-0.2892076,-0.8346572,0.1254466
0.8815521,-0.03729518,-0.4748554,-0.1074778,0.01920467,-0.2344661,-0.06990096,-0.5809716,0.1693779
1.018383,-0.2587353,-0.4358419,0.0290733,-0.2024074,-0.1961066,0.06265918,-0.1513402,0.02330362
1.120658,-0.4066944,-0.3918004,0.1310465,-0.3504953,-0.1526913,0.1950569,0.3854437,-0.2201818
1.119765,-0.4008318,-0.3192645,0.1298282,-0.3447081,-0.08074521,0.2567644,0.463622,-0.5186353
0.9911577,-0.288633,-0.2820987,0.000870235,-0.2325189,-0.04412786,0.2594658,0.05344262,-0.6266209
0.9366829,-0.2305857,-0.2481576,-0.05398198,-0.1744055,-0.01069179,0.3144616,0.07330512,-0.5366904
0.8711006,-0.1318185,-0.2248732,-0.1199639,-0.0754916,0.01213066,0.2657041,0.02080141,-0.472921
0.7164949,0.06925019,-0.2502818,-0.2749835,0.1258037,-0.01369832,0.281919,-0.1989377,-0.3823517
0.7706632,0.002501861,-0.2242332,-0.2212321,0.05935512,0.01196964,0.3589948,-0.2681737,-0.29072
0.8287831,-0.07441291,-0.2142314,-0.163519,-0.0171958,0.02162849,0.3839024,-0.401589,-0.2988571
0.7873718,0.01496615,-0.2435664,-0.2053162,0.07260344,-0.008014026,0.4790661,-0.3036686,-0.2965522
0.8375308,-0.002801349,-0.2317507,-0.1555132,0.05530542,0.003527414,0.46558,-0.244764,-0.2160829
0.823383,0.06824526,-0.2393221,-0.169979,0.1268627,-0.004286562,0.4168967,-0.3042255,-0.1177968
0.8258013,0.1523644,-0.2403074,-0.1678339,0.2115241,-0.005484369,0.4157493,-0.2167646,0.006005107
0.8877512,0.127964,-0.2216398,-0.1061068,0.1876855,0.01299927,0.3698599,-0.2847361,0.1272788
0.9080981,0.1449227,-0.2209512,-0.08592829,0.2052127,0.01353068,0.4185857,-0.3289539,0.1838465
0.969914,0.1240407,-0.2141173,-0.02422493,0.1848938,0.02023206,0.4483068,-0.3653348,0.1909875
1.022648,0.10507,-0.236814,0.02845115,0.1664698,-0.002574667,0.4217849,-0.4147824,0.1527302
1.053139,0.1116135,-0.2676575,0.05893561,0.1735341,-0.03350714,0.3515013,-0.1500156,0.1356514
1.070863,0.1169792,-0.2740563,0.07669833,0.179386,-0.0399745,0.1435562,0.1640899,0.1364519
1.06675,0.1704337,-0.2680474,0.07266194,0.2332841,-0.03401323,-0.04705555,0.3548365,0.08617242
1.113776,0.1808197,-0.2210464,0.1197974,0.2440623,0.0129612,-0.1853108,0.3748035,-0.01639821
1.202117,0.09012531,-0.131545,0.2082697,0.1536997,0.1024556,-0.1707243,0.2611131,-0.1925026
1.268879,-0.01832696,-0.06172671,0.275177,0.04551312,0.172282,0.1239226,0.03144235,-0.2922789
1.251061,-0.01484973,-0.1801873,0.2575034,0.04918811,0.05383772,0.3259705,-0.4212881,-0.2841625
1.223044,0.02036147,-0.4317283,0.2296171,0.08453017,-0.1976832,0.07270593,-0.5181852,-0.3643893
1.243858,-0.0368008,-0.5207085,0.2505356,0.02743333,-0.2866364,-0.2128316,-0.2355434,-0.4478647
1.205117,-0.08788157,-0.4765259,0.2118632,-0.02364523,-0.2424096,-0.04077735,-0.114235,-0.4183297
1.106846,-0.2189496,-0.4669766,0.1136142,-0.1547692,-0.2327877,0.1285308,0.03214117,-0.3569329
0.9741504,-0.4405737,-0.4710238,-0.0191089,-0.3764976,-0.2367231,0.1866739,0.1212967,-0.3261932
0.8959987,-0.4519153,-0.4120568,-0.09733701,-0.3879748,-0.1775968,0.43383,-0.001262145,-0.3279726
0.9948702,-0.2851088,-0.3219514,0.001414525,-0.2213154,-0.08727832,0.3869447,-0.1094106,-0.2856308
1.131009,-0.1349627,-0.3287999,0.1373944,-0.07131213,-0.09385709,0.09703044,-0.1585506,-0.1269913
1.240365,0.007285858,-0.3933775,0.2465517,0.07080581,-0.1581076,-0.1045818,0.06615515,0.06485853
1.282478,0.06585693,-0.4498454,0.2884213,0.1292585,-0.2141892,-0.3792032,0.4994731,0.1503876
1.131414,0.01793676,-0.4843554,0.1370605,0.08122764,-0.2482497,-0.5360576,0.6484792,0.196826
0.9643102,-0.02090897,-0.4192477,-0.03039901,0.0422739,-0.182624,-0.6269194,0.5805209,0.30533
0.8676896,-0.07350553,-0.3178089,-0.1274314,-0.01043104,-0.08059466,-0.6667973,0.5546393,0.4002551
0.7826973,-0.1177412,-0.232861,-0.2128829,-0.05477594,0.005015818,-0.5616912,0.454571,0.4567213
0.7778104,-0.09055193,-0.157364,-0.2182637,-0.02769523,0.0812427,-0.6066026,0.2942669,0.4905943
0.7804155,-0.08440819,-0.152422,-0.2161727,-0.02165732,0.08697318,-0.6031121,0.264731,0.4559315
0.7656021,-0.08952947,-0.1707763,-0.2315062,-0.02688012,0.06945592,-0.5766463,0.3022982,0.3786508
0.7544225,-0.07890165,-0.1638291,-0.2431984,-0.01634832,0.07727875,-0.6734471,0.2686606,0.3535206
0.7086991,-0.1008447,-0.1510584,-0.2894137,-0.03838078,0.09095464,-0.5938748,0.2561173,0.3636313
0.6920865,-0.1004568,-0.1182743,-0.3064838,-0.03807452,0.1246641,-0.5479351,0.293047,0.3389788
0.6894061,-0.08268348,-0.06304384,-0.3095734,-0.02037361,0.1808305,-0.5472045,0.2692361,0.3056257
0.6778671,-0.05898863,-0.01080857,-0.3214598,0.003258916,0.2340008,-0.4838513,0.1335981,0.2384962
0.6898959,-0.01150598,-0.004001546,-0.3097041,0.05068902,0.2417291,-0.534726,-0.2149359,0.1523804
0.7344554,0.01617643,-0.02081878,-0.2653321,0.07832667,0.225806,-0.5183984,-0.7701155,0.13987
0.8368763,0.03337959,-0.0352338,-0.1630044,0.09548928,0.2122456,-0.4335915,-1.280324,0.1561462
0.9939995,-0.04009732,-0.09676433,-0.005876432,0.02197202,0.1515197,-0.3233375,-1.280422,0.1855552
1.218927,-0.2190702,-0.1544049,0.2191502,-0.1570427,0.09462611,-0.1962432,-0.3432778,0.2014613
1.405635,-0.2745131,-0.1287133,0.4060386,-0.2125253,0.1210023,-0.2042894,0.8483231,0.05792387
1.410516,-0.1442132,-0.06387751,0.411161,-0.08225555,0.1864564,-0.2042665,0.9293379,-0.2185348
1.337825,0.06854473,-0.02302498,0.3387469,0.1304871,0.2278562,-0.1802415,-0.0427057,-0.3119991
1.332209,0.2517049,-0.07976325,0.3334215,0.3136443,0.1715879,-0.1432138,-0.9506406,0.02204046
1.430405,0.2020161,-0.2367952,0.4319006,0.263954,0.01494389,0.1035265,-1.075848,0.408145
1.539035,-0.0804951,-0.3851892,0.5407871,-0.01856898,-0.1331435,0.4596814,-0.09419375,0.3695539
1.482273,-0.2928742,-0.4668475,0.48423,-0.2309748,-0.2145688,0.5501207,1.03444,0.1421787
1.246151,-0.2854659,-0.4762618,0.2482416,-0.2236024,-0.2238111,0.2325209,1.028384,-0.009593686
0.920062,-0.2475106,-0.4852456,-0.07779704,-0.1856814,-0.2326691,-0.1740613,0.7173362,-0.1389702
0.6980474,-0.2113648,-0.4960241,-0.2998442,-0.1495578,-0.243353,-0.4369825,0.4947176,-0.1376318
0.7474377,-0.01028617,-0.4140356,-0.2505554,0.05151745,-0.1612876,-0.454708,-0.3474654,-0.03804762
0.8441365,0.08196491,-0.3777888,-0.1540098,0.1437848,-0.1249703,-0.1679454,-0.683596,0.04116145
0.9286093,-0.1001095,-0.4341149,-0.0697275,-0.0382577,-0.1812237,0.06665657,-0.09289705,0.08704742
1.14239,-0.2401985,-0.4411016,0.1438343,-0.1783017,-0.1881278,0.06625544,0.3591484,-0.1030182
1.185744,-0.3427061,-0.4215601,0.1869404,-0.2807471,-0.1684855,0.02606009,0.7396874,-0.4508624
1.014517,-0.3834976,-0.3523246,0.01543535,-0.3214495,-0.09912415,0.06403702,0.7896486,-0.647724
0.8858112,-0.249362,-0.2540953,-0.1135818,-0.187186,-0.0007394527,0.1784249,0.3338641,-0.6832187
0.7653269,-0.1343012,-0.2342572,-0.234404,-0.07194963,0.01928368,0.3069993,0.08886519,-0.5777602
0.7179594,-0.03510955,-0.2473427,-0.282125,0.02746824,0.006410532,0.4440334,-0.09992586,-0.4115439
0.744642,0.009312883,-0.246066,-0.255797,0.07216491,0.007923897,0.4859683,-0.2513925,-0.2827885
0.7641084,-0.03267738,-0.2381445,-0.2366718,0.03049097,0.01610328,0.451336,-0.1975376,-0.2093466
0.8304191,-0.009122699,-0.2447664,-0.1706766,0.05439763,0.009757711,0.4632839,-0.2124499,-0.2415737
0.8595375,0.007521287,-0.2454303,-0.1418383,0.07142312,0.009386015,0.4058407,-0.1486702,-0.2514903
0.8590927,0.04691985,-0.2317515,-0.1425214,0.1112262,0.02337009,0.3602184,-0.1139447,-0.1902285
0.8816361,0.1240322,-0.2237931,-0.1201693,0.1887582,0.03164438,0.386178,-0.1313007,-0.1111132
0.8765298,0.1253331,-0.1853641,-0.125416,0.190484,0.07039655,0.3977988,-0.03337563,0.06073084
0.864352,0.09506537,-0.1615078,-0.1376802,0.1606359,0.09457911,0.4646994,-0.07127873,0.2100165
0.8481703,0.04980143,-0.1652897,-0.1538909,0.1157769,0.0911215,0.5385155,-0.2037137,0.2322925
0.8667378,0.03098356,-0.1659515,-0.135292,0.09734182,0.09077672,0.6120647,-0.4090808,0.2146331
0.9383403,0.04232423,-0.2059507,-0.06359509,0.1090379,0.05108234,0.6413829,-0.5422198,0.1703261
1.027301,0.05053762,-0.2686166,0.02552282,0.1175749,-0.01129411,0.4942763,-0.3733582,0.1135692
1.127319,0.1018843,-0.3098682,0.1257567,0.1692087,-0.05227228,0.2366156,-0.04628577,0.07865024
1.186279,0.164883,-0.280791,0.1849823,0.2324521,-0.02293622,-0.06741503,0.5113012,0.03506241
1.211168,0.2002432,-0.1892137,0.2101756,0.2680067,0.06888682,-0.30045,0.8797024,-0.06611905
1.223212,0.1740314,-0.07561886,0.2225479,0.2419298,0.1827127,-0.2843694,0.6574708,-0.1970611
1.204942,0.1148157,-0.001817155,0.2046172,0.1827809,0.256725,-0.004128285,0.2728048,-0.2716962
1.184103,0.09969887,-0.1034641,0.1841162,0.1676566,0.155259,0.2412542,-0.2672349,-0.2888237
1.161422,0.1008034,-0.2853867,0.1617619,0.1686752,-0.02651945,0.1045332,-0.8315946,-0.2652968
1.151692,0.08245204,-0.3975306,0.1523364,0.1501568,-0.1385572,-0.1774206,-0.9151419,-0.2209362
1.174265,-0.01004494,-0.4502231,0.1751849,0.05741049,-0.1911755,-0.2732417,-0.5719949,-0.1916345
1.179837,-0.1356309,-0.4318662,0.180996,-0.0685052,-0.1727667,-0.2188111,-0.08338919,-0.1549028
1.096197,-0.2316032,-0.4178076,0.09755269,-0.1648806,-0.1586679,-0.01710551,0.1666839,-0.1517579
0.9284269,-0.3977826,-0.3821403,-0.07006703,-0.3315237,-0.122963,0.1994065,0.2623776,-0.2097181
0.8418306,-0.4783262,-0.2928351,-0.1565569,-0.4125732,-0.03361581,0.258923,0.3791093,-0.2745611
0.931958,-0.3173326,-0.274203,-0.06635986,-0.2521063,-0.01493383,0.205257,0.001813265,-0.2932996
1.068566,-0.1467294,-0.2571687,0.07028759,-0.08203187,0.002159391,0.08498514,-0.4241371,-0.1456236
1.169745,-0.01436739,-0.2906999,0.1714779,0.04980957,-0.03130406,-0.0580559,-0.2140937,0.1090827
1.235711,0.08182437,-0.4362494,0.2374237,0.1454911,-0.1767759,-0.2292834,0.2212403,0.2365515
1.192557,0.02326011,-0.4610077,0.1942092,0.08642374,-0.2014425,-0.3669968,0.6769978,0.2526607
1.070438,-0.03212995,-0.383487,0.07198479,0.03053364,-0.1238087,-0.3995383,0.8280591,0.2710756
0.9434349,-0.06927242,-0.2973735,-0.05517322,-0.007107833,-0.03755506,-0.3819996,0.5705569,0.3026804
0.8087738,-0.1509263,-0.1743152,-0.1900342,-0.08925884,0.08567206,-0.3003188,0.3899764,0.3647604
0.7575955,-0.1299782,-0.1162584,-0.2414479,-0.06880264,0.1439226,-0.2488752,0.1499285,0.4238007
0.7606414,-0.0988668,-0.1205338,-0.2386595,-0.0381736,0.1398585,-0.2529739,-0.003388992,0.4309193
0.74375,-0.09025307,-0.1357589,-0.2558159,-0.03002923,0.1248535,-0.253615,0.1172582,0.4259939
0.7619948,-0.03198325,-0.1554517,-0.2378297,0.02778616,0.1053817,-0.3049561,0.07167536,0.4329854
0.7463982,-0.03507806,-0.1217637,-0.2536657,0.02425215,0.1392847,-0.314871,0.05091992,0.4201716
0.7275186,-0.05292668,-0.06514268,-0.2727531,0.0059788,0.1961076,-0.3156641,0.096013,0.3874736
0.7492937,-0.05111241,-0.02850857,-0.2511425,0.00738211,0.2329224,-0.3375363,-0.06499824,0.333922
0.7393774,-0.05692582,-0.003211822,-0.2611695,0.001171221,0.2583687,-0.3246097,-0.1811191,0.2477945
0.7648781,-0.02815739,-0.006877702,-0.235716,0.02955535,0.2548106,-0.3517667,-0.3823517,0.1406505
0.8172972,-0.01671385,-0.03090163,-0.1832727,0.04062697,0.2308427,-0.3386402,-0.7529282,0.03833074
0.9181728,-0.02389419,-0.07334291,-0.08229638,0.03308563,0.1883968,-0.2786111,-1.030886,0.01578631
1.113426,-0.06348082,-0.134379,0.1131344,-0.006852459,0.1272894,-0.2017172,-1.070597,0.06344307
1.300068,-0.1695933,-0.1548732,0.3000231,-0.1133066,0.106654,-0.107992,-0.448572,0.06488585
1.426574,-0.2220798,-0.1274195,0.4268285,-0.1661217,0.1338953,-0.1020796,0.645095,-0.00208106
1.382894,-0.08954015,-0.07751621,0.3834798,-0.0338917,0.1835143,-0.1311206,1.113337,-0.1066207
1.250984,0.1406573,-0.01706813,0.2519096,0.1960177,0.2436036,-0.1443347,0.3988825,-0.1198372
1.265867,0.1888013,-0.05069414,0.2671235,0.2438908,0.2095403,-0.04038955,-0.6730263,0.1329948
1.336898,0.001879442,-0.2058018,0.3384608,0.05670601,0.05391348,0.2216793,-1.014752,0.438932
1.374376,-0.2591888,-0.3889994,0.3762064,-0.2046227,-0.1298837,0.3842882,-0.6514502,0.3913609
1.307263,-0.4375526,-0.5274725,0.3093054,-0.3832403,-0.2690275,0.3331326,0.1456788,0.0309339
1.080553,-0.3854274,-0.5314618,0.08274117,-0.3313488,-0.2737423,0.1544062,0.9706845,-0.2867816
0.8727934,-0.2008456,-0.482891,-0.1249456,-0.1469654,-0.2259332,-0.1113208,1.048473,-0.3434134
0.7273419,-0.03000031,-0.4637703,-0.2703903,0.02372645,-0.2075928,-0.3904676,0.4156214,-0.1915844
0.7021295,0.04194948,-0.3852936,-0.2956485,0.09556872,-0.1299007,-0.3959676,-0.309529,-0.05962563
0.8428935,-0.08409248,-0.3567712,-0.1549661,-0.03053899,-0.1021559,-0.1118476,-0.632716,0.04711154
0.9569444,-0.2413681,-0.3999436,-0.04101906,-0.1878417,-0.1460907,0.131785,-0.4189185,0.1198847
1.019203,-0.3344231,-0.3782246,0.02112047,-0.2808823,-0.1251112,0.3324571,0.001149658,-0.06000397
1.01276,-0.394336,-0.3485347,0.01454755,-0.340731,-0.09613126,0.4419515,0.2909237,-0.3217877
0.957165,-0.326712,-0.3199455,-0.04118984,-0.2729819,-0.06821696,0.4743451,0.3385072,-0.4773424
0.9166315,-0.1964221,-0.290324,-0.08187413,-0.1424959,-0.03923168,0.61491,0.1610845,-0.5472953
0.8037786,-0.05451848,-0.2840372,-0.1948823,-0.0003208726,-0.03354058,0.6570757,0.01300047,-0.4810304
0.7955023,0.01916129,-0.270526,-0.2033104,0.07370361,-0.02058393,0.6269978,0.07294486,-0.439084
0.8618252,-0.03175665,-0.2719455,-0.1371267,0.02319672,-0.02251687,0.648464,0.06708303,-0.3886892
0.8119455,0.01050338,-0.2438322,-0.1871245,0.0659259,0.005123626,0.6220448,0.03025304,-0.2849071
0.8286298,0.04072696,-0.2150702,-0.1705297,0.09666838,0.03345189,0.6131973,0.05676437,-0.2868181
0.8390668,-0.004198151,-0.2360897,-0.1601465,0.05230329,0.01203556,0.5745696,-0.04953944,-0.2400398
0.7969167,0.07431085,-0.2258127,-0.2023083,0.1314047,0.0219499,0.5276975,-0.1363456,-0.129711
0.83568,0.09614206,-0.2166597,-0.1635086,0.1538516,0.03077194,0.5279998,-0.2150031,-0.01368613
0.8633574,0.06970123,-0.2096767,-0.135741,0.1280397,0.03745281,0.5148614,-0.2354489,0.1140378
0.9259184,0.1066398,-0.1720405,-0.07303281,0.1656104,0.07481256,0.5558372,-0.1213068,0.1440485
0.9929641,0.08697251,-0.1744806,-0.005782221,0.1465688,0.07211774,0.6103823,-0.09100303,0.1635538
0.9740192,0.09579826,-0.1916355,-0.02446685,0.1560047,0.05472561,0.6229183,-0.06503273,0.1388429
0.9762627,0.1286705,-0.2107649,-0.02191111,0.1894628,0.03537262,0.5598879,-0.1434299,0.06945352
0.9880449,0.1448442,-0.2610638,-0.009768434,0.2061893,-0.01513875,0.3336008,-0.2225102,0.08823445
1.026397,0.1669378,-0.2854417,0.02898897,0.2287935,-0.03971875,-0.003096851,0.02352345,0.09753899
1.11868,0.1440634,-0.2623484,0.1217151,0.2063781,-0.01681635,-0.2752713,0.3395518,0.08499067
1.176503,0.1298652,-0.2160996,0.1800129,0.1925787,0.02925354,-0.2736897,0.4566239,-0.006467665
1.218163,0.07465076,-0.1421203,0.2221683,0.1376962,0.1030646,-0.01255018,0.2497771,-0.204764
1.259219,-0.01654591,-0.08754208,0.2637257,0.04676052,0.1574818,0.1963513,-0.1643803,-0.3245818
1.259166,-0.02303537,-0.1614155,0.2641676,0.0404604,0.08344856,0.1045428,-0.3974904,-0.4049945
1.22868,-0.008661643,-0.3118405,0.2341545,0.05495359,-0.06713962,-0.0188554,-0.1810622,-0.4888703
1.157359,-0.02604674,-0.4053248,0.1632736,0.03762044,-0.16079,0.1038822,0.1171832,-0.4478636
1.016073,-0.09128719,-0.4515127,0.02238528,-0.0276327,-0.207141,0.1629791,-0.08798714,-0.2945275
0.8834211,-0.2239742,-0.449699,-0.1099126,-0.1603918,-0.2054784,0.1628647,-0.2500567,-0.1675129
0.8557735,-0.3483882,-0.3956472,-0.1372467,-0.2849276,-0.1515562,0.2077333,-0.140642,-0.164164
0.9562619,-0.3538812,-0.3257447,-0.0364783,-0.2905774,-0.08175389,0.1019729,-0.2260065,-0.2375612
1.165513,-0.2335147,-0.2789067,0.1730238,-0.1703865,-0.03498291,0.04330132,-0.08862025,-0.2432525
1.303703,-0.08130615,-0.3269777,0.3114342,-0.01835969,-0.08308594,-0.0349967,0.22121,-0.1221368
1.273543,0.05870637,-0.3920113,0.2814537,0.1214707,-0.1481153,-0.2343077,0.3427938,0.06638631
1.156249,0.1123964,-0.3969483,0.1642875,0.1749767,-0.1530088,-0.3478895,0.4077887,0.2462228
0.9716542,0.07059475,-0.3924269,-0.02023854,0.1329834,-0.1484003,-0.5018837,0.3158636,0.359715
0.8551257,0.02663762,-0.3424953,-0.1367565,0.08882053,-0.0983339,-0.5838524,0.2832744,0.4519306
0.8477978,-0.04803846,-0.2536015,-0.1441252,0.01392085,-0.009255653,-0.5720487,0.3207883,0.5506934
0.8274213,-0.1146825,-0.1745466,-0.1645834,-0.0529653,0.07003178,-0.6289267,0.2747406,0.5697471
0.8327217,-0.1104625,-0.1257494,-0.1593944,-0.04900332,0.1191043,-0.6321885,0.3492691,0.5173216
0.825291,-0.1033657,-0.1298168,-0.1669555,-0.04217654,0.1153465,-0.6846537,0.3752316,0.4417665
0.7618743,-0.09043478,-0.123815,-0.2305111,-0.02952377,0.1216835,-0.7137936,0.3454638,0.4033178
0.7082995,-0.07433916,-0.09084,-0.2842216,-0.01371116,0.1550097,-0.6135348,0.2815528,0.4110321
0.677106,-0.09151037,-0.0484023,-0.3155345,-0.03116786,0.1978055,-0.5083295,0.0646187,0.3766652
0.7058389,-0.09697194,-0.009717383,-0.2868905,-0.03691514,0.2368445,-0.3904007,-0.07472397,0.3334859
0.7560339,-0.05356621,-0.02552035,-0.236741,0.006206825,0.2213803,-0.3925924,-0.1292026,0.2764664
0.7890638,-0.0004040688,-0.04682159,-0.2037027,0.0590882,0.2003911,-0.4446498,-0.233892,0.1630793
0.8644694,-0.005159472,-0.0594529,-0.1282274,0.05405421,0.1880354,-0.4070989,-0.478402,0.05174284
1.01097,-0.05850381,-0.1029457,0.01840732,0.0004318255,0.1447737,-0.3360949,-0.784797,-0.005843775
1.194248,-0.121734,-0.1251655,0.2018804,-0.06307621,0.1227345,-0.1597711,-0.8085999,0.01605142
1.283141,-0.1946113,-0.125024,0.2910206,-0.1362285,0.1230024,-0.05664194,-0.3777803,0.03137348
1.288098,-0.2265867,-0.1173766,0.2962596,-0.1684708,0.1307187,-0.1432479,0.3951814,-0.006114254
1.282726,-0.1628322,-0.05084637,0.2911868,-0.1049679,0.1972575,-0.2092775,0.7670369,-0.08442819
1.219856,-0.0346942,0.03101017,0.228617,0.02293955,0.2790577,-0.1878202,0.1214581,-0.1355622
1.236297,0.1075976,0.004086718,0.245344,0.1650224,0.2520062,0.01145272,-0.6929224,0.09898971
1.387275,0.1752851,-0.1391215,0.3965798,0.2325172,0.1085914,0.3410974,-0.6176776,0.4026992
1.530858,0.01681184,-0.3126257,0.5403786,0.07385839,-0.06519992,0.3946482,0.1676374,0.2963742
1.553934,-0.239789,-0.4254892,0.563606,-0.1829266,-0.1784257,0.09306769,0.9837755,0.03903638
1.305247,-0.2701879,-0.4152659,0.314984,-0.2135058,-0.1686283,-0.2418459,1.151996,-0.05596232
0.9490712,-0.1534824,-0.3788308,-0.04122676,-0.0969688,-0.132669,-0.5016511,0.5694126,-0.04756744
0.7495908,-0.07093941,-0.3890918,-0.2408421,-0.0145756,-0.1434429,-0.5925034,-0.03997518,0.102565
0.6948921,-0.008547913,-0.3886484,-0.2957628,0.0476871,-0.143538,-0.4139315,-0.6394772,0.2246841
0.7708064,-0.06306013,-0.4193597,-0.2201386,-0.006934062,-0.1748026,-0.209958,-1.011268,0.1936718
0.9136495,-0.2150496,-0.4602586,-0.07763591,-0.1590134,-0.2162583,-0.1138586,-0.4731689,0.08124202
1.084414,-0.3573652,-0.4342696,0.09274954,-0.3013962,-0.1908183,-0.005497369,0.1695782,-0.2114884
1.164797,-0.4307128,-0.3710092,0.1727188,-0.3747783,-0.1280883,0.1589859,0.4177481,-0.5252586
1.038909,-0.3332459,-0.2734471,0.04638116,-0.2772996,-0.03103004,0.2959561,0.5020151,-0.6548853
0.9131724,-0.1906142,-0.2102789,-0.07984239,-0.1345978,0.03166432,0.3376886,0.2470044,-0.648942
0.8052153,-0.07878491,-0.2223293,-0.1883178,-0.02263394,0.01916996,0.3636079,-0.002496529,-0.5248055
0.6958983,0.03744882,-0.2296191,-0.2981744,0.09379795,0.01146428,0.3575844,-0.2297494,-0.3795253
0.7207546,0.03400569,-0.2323979,-0.2738642,0.09061034,0.008295897,0.3257396,-0.4677643,-0.2858332
0.7706167,0.006380118,-0.235356,-0.2245391,0.06328895,0.004973109,0.381934,-0.4303874,-0.2495189
0.8293589,0.03562501,-0.2345675,-0.1663113,0.09287813,0.005420617,0.4333675,-0.3557591,-0.2240983
0.8919855,0.03707695,-0.2484407,-0.1041666,0.0947064,-0.008770681,0.4343146,-0.2121978,-0.170348
0.8619085,0.09530124,-0.2519774,-0.1346866,0.1533307,-0.01260347,0.3987952,-0.09721266,-0.1203763
0.8478839,0.1750903,-0.2466356,-0.1491104,0.2335337,-0.007536045,0.2800598,-0.1721118,0.01659894
0.8552094,0.1831871,-0.2347173,-0.1421351,0.2420465,0.004129154,0.191315,-0.1884286,0.1850425
0.8510157,0.1575253,-0.2038796,-0.1466253,0.21679,0.03473415,0.2156663,-0.2592782,0.2629276
0.9046424,0.1200262,-0.1855523,-0.09323716,0.1796736,0.05284733,0.3006216,-0.3631397,0.2840542
0.9761208,0.1087574,-0.2032142,-0.02193728,0.168755,0.03498699,0.3627638,-0.355128,0.2551115
1.039301,0.1120998,-0.2328585,0.04112325,0.1724075,0.005157524,0.33651,-0.2581206,0.2081447
1.090986,0.1120655,-0.2622785,0.09274325,0.1726362,-0.0244358,0.1978415,0.02702266,0.144964
1.120099,0.1286696,-0.2901818,0.1218395,0.18945,-0.05250049,-0.0780194,0.397216,0.09697051
1.128742,0.1682301,-0.2648181,0.1305046,0.2291606,-0.02728514,-0.377868,0.6168706,0.06069056
1.124707,0.2112765,-0.1614336,0.1265212,0.2722904,0.07596492,-0.4524648,0.5698297,-0.06640628
1.159851,0.1781459,-0.04931283,0.1617376,0.2391686,0.1879625,-0.1637218,0.3648439,-0.2026643
1.186648,0.1065778,-0.05397028,0.1886181,0.1675278,0.1831866,0.2830474,-0.05823079,-0.2402351
1.183977,0.07965123,-0.2341491,0.1860323,0.1404425,0.002886397,0.3918302,-0.7979002,-0.2218772
1.208329,0.06066281,-0.4403281,0.2104607,0.1212076,-0.2034199,-0.02985856,-1.10525,-0.2409898
1.199441,-0.02845512,-0.5326137,0.2016311,0.0317564,-0.2958333,-0.4436262,-0.5884622,-0.2807453
1.141815,-0.2494005,-0.5528612,0.1440368,-0.1896047,-0.3161972,-0.3448052,0.03541803,-0.2517551
1.063917,-0.4519378,-0.4966084,0.06613603,-0.3926281,-0.2600349,-0.08199166,0.4335528,-0.2487973
1.004125,-0.4688359,-0.3440746,0.00630515,-0.4100625,-0.1075535,0.1575638,0.5727179,-0.3352418
1.019622,-0.360483,-0.244363,0.02172655,-0.3022725,-0.007849808,0.4750345,0.1513837,-0.3834426
1.078956,-0.1561666,-0.298204,0.08094968,-0.09852492,-0.06165313,0.3412555,-0.4449337,-0.2832684
1.183647,0.07582429,-0.3964525,0.1854943,0.1329026,-0.1598185,-0.06462919,-0.4631071,-0.03828976
1.243427,0.1724296,-0.4817177,0.2450888,0.228951,-0.2449529,-0.2803539,0.0687996,0.2538136
1.158635,0.1255615,-0.5382604,0.1600656,0.1815261,-0.3013108,-0.6465124,0.6890775,0.4820977
1.026693,0.0284428,-0.4465366,0.0278409,0.08384262,-0.2093395,-0.7967156,0.9373557,0.5298181
0.8590309,-0.095848,-0.265794,-0.1401549,-0.04102498,-0.02828044,-0.667845,0.7540698,0.4771298
0.7243074,-0.1845723,-0.1500087,-0.2752554,-0.1303369,0.0878904,-0.6632791,0.514519,0.5087816
0.7218224,-0.1395855,-0.1176252,-0.278147,-0.08594264,0.1207219,-0.4441813,0.2208342,0.5160194
0.7113061,-0.09558072,-0.1375528,-0.2890826,-0.04252886,0.1012945,-0.3658439,0.03668299,0.4805463
0.6971746,-0.09561831,-0.1328068,-0.3036296,-0.04315065,0.1065823,-0.5160852,0.1282877,0.4972161
0.736571,-0.02282094,-0.1417756,-0.2646289,0.02907242,0.09818672,-0.4708817,0.09575721,0.4567724
0.7217266,-0.01888821,-0.1690012,-0.2798349,0.03244195,0.07155697,-0.5443282,0.08169261,0.4076087
0.7087815,-0.06534254,-0.1148902,-0.2930946,-0.01456458,0.1262783,-0.5682366,0.1286443,0.3890219
0.7305479,-0.05406669,-0.07685586,-0.2715838,-0.003829717,0.1649293,-0.4960851,-0.08959771,0.330788
0.7301346,-0.0799817,-0.07221792,-0.2721828,-0.03027349,0.1701809,-0.5502648,-0.3064574,0.2823299
0.80719,-0.07195158,-0.05199576,-0.1952341,-0.02275845,0.1910036,-0.515996,-0.3989294,0.177743
0.9208825,-0.04743988,-0.0518881,-0.08156345,0.001253309,0.1916888,-0.5137152,-0.4488997,0.01639817
0.94889,-0.07032576,-0.04377493,-0.05349153,-0.02211635,0.2003468,-0.4762464,-0.5975203,-0.06909121
1.028447,-0.08243387,-0.07273444,0.02621348,-0.03469115,0.1718903,-0.3030792,-0.782378,-0.05900972
1.259297,-0.1575078,-0.127711,0.2572876,-0.1102128,0.1173674,-0.1521334,-0.4743425,0.01026963
1.411968,-0.2182717,-0.1477466,0.4102453,-0.1714016,0.09773104,-0.002966234,0.2433443,0.02911255
1.326862,-0.1172451,-0.09872348,0.3254682,-0.07077149,0.1470955,0.01993712,0.7854219,-0.05722715
1.248788,0.1160161,0.005292374,0.2477439,0.1621251,0.251391,-0.06320724,0.5373727,-0.1280727
1.269052,0.3103985,-0.004091267,0.2683602,0.3561704,0.2422191,-0.09789554,-0.2773798,-0.008337922
1.260237,0.2426188,-0.09354513,0.2598842,0.2880688,0.1529019,0.01612467,-0.5914636,0.2898411
1.299005,0.04273403,-0.203695,0.2989658,0.08786278,0.04280916,0.3224457,-0.4006556,0.4530939
1.293524,-0.1731187,-0.3796744,0.2937591,-0.1283184,-0.1331914,0.4886163,0.04483837,0.2844144
1.144066,-0.4546327,-0.4873183,0.1445232,-0.4101648,-0.2409269,0.2576306,0.6122642,0.0277677
0.9776804,-0.4538117,-0.5267684,-0.02169828,-0.4096669,-0.2805247,-0.1436781,0.705725,-0.05313384
0.838418,-0.1606371,-0.5550268,-0.1608549,-0.1167882,-0.3089696,-0.411267,0.326958,-0.08574952
0.8243596,0.03249408,-0.5524122,-0.1748577,0.07608556,-0.306562,-0.5416048,-0.1424228,-0.07240889
0.9177895,0.09177026,-0.4934603,-0.0814121,0.1351431,-0.2478202,-0.4330618,-0.1839348,0.08822895
1.016096,-0.106599,-0.3520359,0.01687942,-0.06341105,-0.1065948,-0.04996932,0.1240995,0.1191917
1.089804,-0.380631,-0.3134127,0.09054489,-0.337596,-0.0681504,0.1950655,0.3213754,-0.02555153
1.030925,-0.3704364,-0.3507853,0.0315973,-0.3275151,-0.1056771,0.2546204,0.4933571,-0.2633813
0.938222,-0.3624274,-0.2861867,-0.06120092,-0.3195679,-0.04120482,0.2517793,0.3300741,-0.5344984
0.8629925,-0.3052118,-0.2610215,-0.1365493,-0.2623494,-0.01613646,0.2734801,0.04147493,-0.5601812
0.7579455,-0.05998528,-0.283223,-0.2417313,-0.01704632,-0.03840519,0.4675564,0.008776652,-0.4982497
0.7457319,0.04199891,-0.2713017,-0.2540853,0.08508926,-0.02652196,0.5636392,-0.09445216,-0.4330144
0.7592584,0.03024334,-0.2659947,-0.2406918,0.07355404,-0.02122436,0.6027702,-0.1396007,-0.230031
0.7739278,0.01436483,-0.240741,-0.2261356,0.05795587,0.004047564,0.6941387,-0.2056966,-0.1767501
0.8361483,0.008341215,-0.226879,-0.1639977,0.05226404,0.01795399,0.6699655,-0.269289,-0.2354286
0.8518909,0.04652071,-0.2443275,-0.1482992,0.09081894,0.0005736165,0.6302143,-0.18278,-0.2018297
0.8531305,0.08813437,-0.2541691,-0.1470595,0.1328434,-0.009178445,0.5100794,-0.2180303,-0.1730487
0.853439,0.1617744,-0.244419,-0.146702,0.20692,0.0006810871,0.371826,-0.2132085,-0.07967955
0.8540705,0.1847717,-0.213866,-0.1459689,0.2303678,0.03136143,0.3026598,-0.1980415,0.1087403
0.8822236,0.1418033,-0.1895743,-0.1176581,0.1878512,0.05579587,0.2402352,-0.2297668,0.2539622
0.9099331,0.108076,-0.1782629,-0.08973278,0.1545651,0.06726182,0.3036835,-0.1921364,0.3304605
0.9680394,0.06896632,-0.1902572,-0.03135228,0.1158767,0.05542959,0.3404777,-0.2332657,0.3366596
1.031689,0.06882457,-0.2144949,0.0326282,0.1161296,0.03135755,0.3382558,-0.2321152,0.2541059
1.08113,0.09367283,-0.2421499,0.08245068,0.1413402,0.003868979,0.3061257,-0.1708901,0.1552658
1.132411,0.1149791,-0.2804657,0.134158,0.1629711,-0.03428095,0.07064029,-0.02001812,0.09299586
1.160706,0.137073,-0.2749631,0.1629121,0.185346,-0.02861286,-0.158195,0.3455141,0.07031375
1.178891,0.1282402,-0.2236559,0.1815796,0.176744,0.02285999,-0.2409566,0.6829382,0.03330739
1.175758,0.07187491,-0.07774051,0.1789397,0.1205536,0.1689401,-0.1202206,0.7485306,-0.1116746
1.169443,-0.007385529,0.1192091,0.173118,0.04140856,0.3660471,0.2121001,0.4014495,-0.2593232
1.178058,-0.003900411,0.0490322,0.1822158,0.04494892,0.296008,0.5249493,-0.237005,-0.3214973
1.162481,0.05337012,-0.2853629,0.1671009,0.1022157,-0.03828153,0.5223448,-0.8140101,-0.3741634
1.153486,0.05902097,-0.5556247,0.1585392,0.1078043,-0.3084732,0.06750512,-0.9354587,-0.3760151
1.150974,0.02892518,-0.6016457,0.1564233,0.07758722,-0.3544502,-0.2876932,-0.49637,-0.2807682
1.09864,-0.1234959,-0.4913163,0.104443,-0.07501322,-0.2440864,-0.1852795,-0.008722114,-0.1538083
1.007783,-0.4067404,-0.4262957,0.01389297,-0.3584889,-0.1790257,-0.009620193,0.3074209,-0.1172102
0.9633607,-0.5365479,-0.3622763,-0.03027026,-0.488564,-0.1149498,0.1669914,0.4740324,-0.2345822
1.015656,-0.3735503,-0.2646073,0.02223879,-0.325848,-0.01720173,0.349768,0.2785401,-0.3443493
1.091371,-0.1240238,-0.2760291,0.0981252,-0.0765968,-0.02852005,0.2682898,-0.1015892,-0.2897519
1.144468,0.05096232,-0.2960749,0.1513492,0.09813099,-0.04843804,0.004582603,-0.3085617,-0.08709376
1.163003,0.1491886,-0.3808815,0.1699649,0.1961157,-0.1330921,-0.2049339,-0.0983198,0.2053301
1.122798,0.1520369,-0.4950377,0.129789,0.1987323,-0.2470679,-0.4345137,0.3539339,0.4345301
1.056269,0.08831434,-0.4391605,0.06323427,0.1347785,-0.1909762,-0.6104472,0.5364512,0.4805799
0.9418857,-0.0285066,-0.3804722,-0.05122937,0.01771972,-0.1320321,-0.6112519,0.534502,0.4750916
0.8322251,-0.1322981,-0.2681038,-0.1610219,-0.0863189,-0.01936235,-0.5642569,0.481164,0.5138178
0.817412,-0.1275966,-0.1404941,-0.1760091,-0.0818714,0.1085936,-0.4500947,0.3798925,0.5531959
0.792647,-0.1267846,-0.1591228,-0.2009786,-0.08131538,0.0903505,-0.4162511,0.4748975,0.5613272
0.7472816,-0.1241177,-0.1265027,-0.2465664,-0.07890143,0.1233869,-0.491383,0.5117329,0.4923825
0.7232051,-0.08832047,-0.09695742,-0.2708696,-0.04334973,0.1533701,-0.482057,0.3133712,0.4042459
0.6856182,-0.1044811,-0.09352018,-0.3086732,-0.0597451,0.1572571,-0.5220328,0.1110244,0.349322
0.6966659,-0.1034008,-0.06708763,-0.2978179,-0.05888586,0.1841413,-0.5103789,-0.05389152,0.3064192
0.7267604,-0.1021638,-0.06994241,-0.2678772,-0.05785383,0.1817297,-0.4062248,-0.1164571,0.2900086
0.7492645,-0.09724726,-0.02220785,-0.2454764,-0.0531238,0.229889,-0.3327897,-0.1815964,0.2217205
0.8216149,-0.04876349,-0.03009353,-0.173169,-0.00480625,0.2223991,-0.2691986,-0.3065131,0.07182439
0.9101908,-0.03972296,-0.06050755,-0.08456974,0.004088756,0.1923417,-0.3293553,-0.4332992,-0.07632261
1.021725,-0.04727033,-0.0539507,0.02705556,-0.003584151,0.1992072,-0.3316458,-0.7033823,-0.107908
1.155659,-0.08927146,-0.1116749,0.1611448,-0.04569165,0.1417363,-0.200539,-0.7515431,0.01997473
1.289774,-0.1489922,-0.1051318,0.2954688,-0.105499,0.148472,-0.09284798,-0.112224,0.09309781
1.363089,-0.1234969,-0.04702359,0.3690305,-0.08006843,0.2067076,-0.03652712,0.7040347,0.005545168
1.303672,0.005795333,-0.02090183,0.3098782,0.04918316,0.2328868,-0.1538731,0.7410759,-0.1024939
1.287046,0.2088065,-0.0220964,0.2935169,0.2521758,0.2316735,-0.2373152,0.0677253,-0.09244237
1.379209,0.2603114,-0.1177782,0.3859274,0.3036755,0.1358913,-0.1242834,-0.3502038,0.1435661
1.40278,0.0093391,-0.2613898,0.4097107,0.05269903,-0.00790479,0.07925373,-0.2869405,0.4110977
1.305797,-0.3221034,-0.3916804,0.312888,-0.2787536,-0.1384604,0.3282662,-0.09551721,0.3462855
1.109355,-0.4393914,-0.4634936,0.1165394,-0.3960521,-0.2106092,0.3193116,0.1784607,0.05603923
0.9213991,-0.3445041,-0.4773076,-0.07139408,-0.3011611,-0.2248152,0.01471994,0.4897836,-0.1260932
0.8609514,-0.278655,-0.5003483,-0.1318887,-0.2352781,-0.2482881,-0.3341135,0.4431347,-0.1457465
0.8810523,-0.1842413,-0.4893767,-0.1118946,-0.140789,-0.2377729,-0.5993239,-0.03973599,-0.01484042
0.8971096,0.01657547,-0.4405737,-0.09599361,0.06015044,-0.1894352,-0.5092531,-0.3368012,0.1290264
0.9318496,-0.007119332,-0.3970791,-0.06144998,0.03662462,-0.1464022,-0.1285302,-0.2795581,0.1259018
1.062506,-0.2301136,-0.3650982,0.06897696,-0.1861579,-0.1148695,0.2076372,-0.004296554,0.02501554
1.136041,-0.3698645,-0.3542602,0.1422512,-0.3256535,-0.1044589,0.3417745,0.3599813,-0.2639243
1.038948,-0.443709,-0.3165524,0.04486574,-0.3991906,-0.06715247,0.231243,0.3838533,-0.6016175
0.9370954,-0.3414275,-0.2619848,-0.05731166,-0.2965372,-0.01295694,0.2207957,0.2338961,-0.6687418
0.8366376,-0.1411209,-0.242878,-0.1581231,-0.09578363,0.005808191,0.3469975,0.1222882,-0.5956343
0.7402779,-0.06518066,-0.2411302,-0.2548565,-0.01931782,0.007244074,0.3540559,-0.02383558,-0.5078946
0.7259415,0.01618482,-0.2382201,-0.2695743,0.06264849,0.009870312,0.4670707,-0.1521525,-0.3599464
0.723565,0.02473693,-0.2194687,-0.2723253,0.07186887,0.02836423,0.5612104,-0.3493604,-0.2304282
0.7576486,-0.02969918,-0.2090839,-0.238595,0.01815915,0.03851556,0.5607305,-0.4031992,-0.2103025
0.8281995,0.01034297,-0.2253846,-0.1683643,0.05897707,0.02200294,0.6509671,-0.2805583,-0.2080889
0.8464576,0.02335392,-0.2345196,-0.150384,0.07280505,0.01267494,0.5790994,-0.2202785,-0.1523432
0.830775,0.09250262,-0.2416973,-0.1662957,0.1428032,0.005321645,0.4869899,-0.2310585,-0.07276521
0.8217688,0.1791514,-0.2385662,-0.1754768,0.2303231,0.00829298,0.4580795,-0.2700131,0.1175554
0.8391707,0.1628219,-0.2137014,-0.1581903,0.2148734,0.03301274,0.3562073,-0.2430503,0.292627
0.8669151,0.1544039,-0.1970968,-0.1304976,0.20733,0.04948504,0.3943434,-0.3043954,0.3346541
0.9144901,0.1111332,-0.2037602,-0.0829078,0.1649159,0.04269975,0.4307634,-0.4306791,0.3389278
0.9933355,0.09010078,-0.2454732,-0.003980828,0.1447115,0.0008727716,0.4044585,-0.4480833,0.2582876
1.058115,0.1066395,-0.2969187,0.06094451,0.1620411,-0.05067989,0.3452361,-0.3845126,0.181865
1.119326,0.09027036,-0.308345,0.1223583,0.1464184,-0.06220565,0.1064107,-0.06834652,0.1694683
1.171213,0.1256086,-0.2725617,0.1744958,0.1824515,-0.026512,-0.127714,0.3611228,0.1124013
1.202398,0.156094,-0.2004587,0.2059685,0.2135736,0.04551239,-0.2964598,0.5675964,-0.0269075
1.240011,0.147579,-0.1046924,0.2438929,0.2056293,0.1412097,-0.3302022,0.5101531,-0.2191693
1.251636,0.1288048,-0.05549107,0.2558377,0.1873528,0.1903463,-0.0577814,0.2140154,-0.2981378
1.232649,0.1087121,-0.1595677,0.2371663,0.1676785,0.08620202,0.197544,-0.2787603,-0.2750631
1.222384,0.1076923,-0.367656,0.2271983,0.1669932,-0.1219619,0.06694658,-0.6146706,-0.2711602
1.217106,0.02815312,-0.5137474,0.2221884,0.08770155,-0.2681351,-0.2661742,-0.353731,-0.2641531
1.156747,-0.1646674,-0.5273435,0.1620577,-0.1049581,-0.2818096,-0.4238767,0.02217069,-0.2581885
1.015729,-0.3788726,-0.469693,0.02122156,-0.3190819,-0.2242213,-0.3114386,0.1297761,-0.2441835
0.9137529,-0.4810749,-0.4136731,-0.08061971,-0.4212664,-0.1682357,-0.03725734,0.2289455,-0.2549737
0.9402026,-0.4341986,-0.3142058,-0.05407963,-0.3744139,-0.06876692,0.1758074,0.1017077,-0.3188659
1.04736,-0.3010638,-0.2572026,0.05312924,-0.2413224,-0.01172295,0.2352602,-0.1038495,-0.3721874
1.178157,-0.08331301,-0.3537362,0.1839401,-0.02361807,-0.1081762,0.1152773,-0.1359988,-0.3088451
1.240795,0.08584498,-0.4282969,0.2465516,0.1454973,-0.182616,-0.2021047,-0.0406509,-0.09665799
1.175585,0.09112013,-0.4453919,0.1812689,0.1507316,-0.1995459,-0.3915378,0.3938086,0.1208801
1.063497,0.04635265,-0.432854,0.06905353,0.1059189,-0.186793,-0.4978332,0.7432962,0.2711854
0.9294344,-0.01615035,-0.3256156,-0.06519047,0.04336044,-0.07928478,-0.6662695,0.7185022,0.3343315
0.801,-0.1054968,-0.2428189,-0.1938574,-0.0460543,0.003838215,-0.6576597,0.5779714,0.346165
0.7893849,-0.1308585,-0.2042254,-0.2057454,-0.07149613,0.04281193,-0.6206645,0.3738757,0.4068508
0.7906268,-0.1010325,-0.1671672,-0.2048039,-0.04175888,0.08029838,-0.5966841,0.2991588,0.4363509
0.7366178,-0.09704422,-0.1384092,-0.2591267,-0.03786422,0.1095248,-0.551689,0.3093432,0.4171401
0.7445497,-0.09726039,-0.1202558,-0.2515086,-0.03817613,0.128178,-0.5885775,0.2818104,0.4048458
0.7529105,-0.08404105,-0.1484579,-0.2434478,-0.0250523,0.1004975,-0.5637245,0.2265291,0.3805937
0.7273649,-0.08900653,-0.1181758,-0.2692668,-0.03011116,0.1313142,-0.5172132,0.1316158,0.3669932
0.7250394,-0.0958107,-0.0757518,-0.2718269,-0.03700491,0.1742767,-0.4075793,0.1256336,0.3604821
0.7224255,-0.1211355,-0.06152372,-0.2746252,-0.06241363,0.1890379,-0.226432,0.04720165,0.34529
0.7272724,-0.1556252,0.02182262,-0.2699013,-0.09697909,0.272901,-0.152421,-0.1430112,0.2763172
0.7480981,-0.1198015,0.01319953,-0.2491276,-0.06121971,0.2647665,-0.141778,-0.3292622,0.1136431
0.8284031,-0.04925558,-0.0436888,-0.1687957,0.009276267,0.2083263,-0.1886759,-0.6126056,-0.06794929
0.9629168,-0.02112387,-0.0515984,-0.03417199,0.03737276,0.2008139,-0.2001992,-0.9697117,-0.1111137
1.066051,-0.05056208,-0.1176506,0.06915425,0.007912553,0.1350999,-0.09637262,-1.046534,0.003111657
1.200585,-0.1219947,-0.1431291,0.2039552,-0.06353031,0.1098956,0.01778476,-0.1777352,0.04357319
1.380125,-0.1559521,-0.1290419,0.3838224,-0.09748542,0.12419,0.04469577,1.062109,-0.06321054
1.414086,-0.08030833,-0.09210281,0.4181514,-0.02182472,0.1612671,-0.09519484,1.094382,-0.2104807
1.284482,0.102096,-0.014467,0.2889344,0.1606119,0.2389687,-0.3044528,0.04182072,-0.2551661
1.238559,0.2627965,-0.05832898,0.2433965,0.3213546,0.1950954,-0.4197168,-0.691832,0.02567549
1.347349,0.2027384,-0.1741703,0.3525538,0.261337,0.07916143,-0.2351226,-0.5236507,0.4345079
1.409401,-0.12022,-0.2890379,0.4149383,-0.06159462,-0.03588057,0.2074938,-0.07657827,0.4856077
1.300478,-0.528079,-0.4036416,0.3062983,-0.4694424,-0.1507352,0.431942,0.2129869,0.1886915
1.104498,-0.6548337,-0.4085045,0.1105368,-0.596188,-0.1559153,0.2893629,0.5795237,-0.08873823
0.8957759,-0.3777543,-0.4086127,-0.09803848,-0.3190784,-0.1563939,0.06642357,0.5755875,-0.1783223
0.6961924,-0.1108993,-0.4772705,-0.2975409,-0.05215267,-0.2254621,-0.1142003,0.04450297,-0.1407854
0.7003506,0.004439189,-0.481924,-0.2933545,0.06330466,-0.2305521,-0.3020493,-0.3992682,-0.04655318
0.8835001,0.1060349,-0.4328517,-0.1102131,0.1650642,-0.1819281,-0.2049564,-0.6399101,0.0961307
1.006291,-0.03689707,-0.3762145,0.01254596,0.02233321,-0.125739,0.1843689,-0.3503107,0.1849149
1.138102,-0.3192331,-0.3427605,0.1443054,-0.2597704,-0.09272339,0.3277629,0.219905,0.01959925
1.171969,-0.3837446,-0.330038,0.1781,-0.3240153,-0.08042313,0.3605119,0.3666019,-0.3445231
1.027715,-0.3476529,-0.2642951,0.03374662,-0.287613,-0.01508225,0.4250278,0.4080208,-0.6718698
0.9289204,-0.2502404,-0.2249913,-0.06517456,-0.1898353,0.02384167,0.4178487,0.2722608,-0.7647481
0.8122743,-0.05954766,-0.2483623,-0.1819733,0.001283659,0.0001128826,0.5243609,0.03834542,-0.5842492
0.7275324,0.05564463,-0.2434888,-0.2668846,0.1169624,0.004649644,0.5335883,-0.01041914,-0.4078071
0.7450716,0.06923141,-0.2295484,-0.2495193,0.1310882,0.01827322,0.5335535,-0.218263,-0.2793248
0.7448285,0.02829025,-0.2236532,-0.2499272,0.09072786,0.02387044,0.6392076,-0.2898418,-0.1377109
0.7958434,-0.01016564,-0.2165734,-0.1990554,0.05288469,0.03066951,0.62868,-0.2752761,-0.1497459
0.82461,-0.006535793,-0.2185749,-0.1704003,0.05715114,0.02840271,0.659314,-0.3482705,-0.1478525
0.8227783,0.02259563,-0.2178536,-0.1723037,0.08693627,0.02887216,0.633063,-0.3160693,-0.06269824
0.8643269,0.08236455,-0.218025,-0.1307811,0.1473689,0.02846074,0.5956176,-0.4112607,0.01012453
0.8811166,0.1242265,-0.218286,-0.1139672,0.1898959,0.02796978,0.6289776,-0.3634451,0.1508988
0.9387222,0.1334607,-0.2199966,-0.05628463,0.1997862,0.02603772,0.5678542,-0.2331149,0.2289816
0.9873055,0.1403067,-0.231373,-0.007571576,0.2072684,0.01444705,0.5728516,-0.2657769,0.2322416
1.004007,0.14992,-0.2463584,0.00931045,0.2174871,-0.0007464012,0.5040643,-0.1705229,0.1993182
1.045643,0.1722641,-0.2560741,0.05117262,0.2403953,-0.01066403,0.3445976,-0.09907867,0.1153787
1.049697,0.1782975,-0.2627636,0.05549484,0.2469413,-0.01754906,0.1907945,-0.03440989,0.1186034
1.075788,0.1713994,-0.2650172,0.0818878,0.2404942,-0.01999103,-0.1009863,0.1256201,0.1253051
1.119687,0.176037,-0.2310078,0.1261162,0.2455118,0.01383782,-0.3336912,0.3360001,0.0745502
1.147504,0.1595722,-0.1677574,0.1542822,0.2293478,0.0769151,-0.4040821,0.5295056,-0.04074837
1.207581,0.0888385,-0.08731224,0.2147179,0.1588287,0.1571921,-0.199126,0.4276685,-0.2168797
1.252094,0.02155724,-0.02675115,0.2595875,0.09167182,0.2175838,0.243125,0.1504354,-0.2731837
1.220073,0.07074841,-0.1711175,0.2279078,0.1408962,0.07303936,0.424824,-0.2634713,-0.2917217
1.130468,0.1186452,-0.4500214,0.1386196,0.1887347,-0.2060557,0.1373969,-0.6329521,-0.3288355
1.080819,-0.0245061,-0.5230106,0.08925211,0.04543341,-0.2792446,-0.3150411,-0.5449925,-0.2634843
1.042513,-0.2355861,-0.4782545,0.05118941,-0.1658859,-0.234685,-0.4286203,-0.3227589,-0.1731439
0.993101,-0.3648672,-0.4872018,0.001980558,-0.2954852,-0.2438127,-0.2659386,-0.0354454,-0.1265148
1.007757,-0.4122298,-0.3836917,0.01680022,-0.3432276,-0.1404555,-0.0873821,0.3130819,-0.1827854
1.010268,-0.3798851,-0.2496769,0.01943604,-0.3113033,-0.006558558,0.1709481,0.2584234,-0.3149269
1.048938,-0.246231,-0.2736377,0.05819477,-0.1780904,-0.03059992,0.225655,-0.02870737,-0.3312412
1.168686,0.007668129,-0.3520982,0.1779948,0.07536065,-0.1091039,0.02757762,-0.2539412,-0.181442
1.210894,0.165802,-0.4022803,0.2202143,0.2330438,-0.159291,-0.174493,-0.2559082,0.08957648
1.162884,0.09139982,-0.4434617,0.1721684,0.1581839,-0.2004352,-0.4104758,0.1149203,0.3425139
1.069394,0.0249589,-0.4452568,0.07859017,0.09127125,-0.202145,-0.549485,0.4699961,0.416752
0.9522184,-0.0297628,-0.3720222,-0.03872807,0.03605965,-0.128771,-0.5718766,0.5492078,0.4144288
0.8555657,-0.1392067,-0.27477,-0.1355747,-0.07389266,-0.03132196,-0.5917229,0.466801,0.4306418
0.8169021,-0.1361934,-0.218516,-0.1744752,-0.07140309,0.02518606,-0.5190506,0.3477272,0.4517572
0.8146807,-0.1064316,-0.1708581,-0.1769654,-0.04217476,0.07315076,-0.4403278,0.2825941,0.4922516
0.7753822,-0.1217977,-0.09819566,-0.2165524,-0.05807883,0.1461655,-0.4672108,0.3058947,0.464924
0.7604131,-0.1005486,-0.08465435,-0.2318171,-0.03736798,0.1600947,-0.4980418,0.4027377,0.3864691
0.7323162,-0.1067403,-0.1172255,-0.2602041,-0.0440941,0.1279364,-0.5025588,0.3411682,0.3543591
0.6400976,-0.1234534,-0.06375492,-0.3526936,-0.0613344,0.181834,-0.4833469,0.1298976,0.332257
0.6467395,-0.116569,-0.03564788,-0.3462884,-0.05496631,0.2103717,-0.4109448,-0.07884249,0.3343913
0.7083693,-0.1088684,-0.07390275,-0.284846,-0.04776779,0.1725402,-0.3482915,-0.3141276,0.3232815
0.7602192,-0.05199404,-0.05122302,-0.2331213,0.008621544,0.1956254,-0.3276643,-0.4400282,0.2088691
0.8595043,-0.0003721003,-0.05554517,-0.1338902,0.05977621,0.1916815,-0.3171208,-0.5874312,0.0441584
0.9425394,-0.03634881,-0.08298143,-0.05083352,0.02334885,0.1645873,-0.2757904,-0.780339,-0.07221696
1.114274,-0.1252622,-0.1257575,0.1209969,-0.06599976,0.12211,-0.1513263,-0.7729071,-0.07142384
1.316422,-0.18978,-0.209234,0.3233063,-0.1309361,0.0388843,0.007471376,-0.4092567,-0.04648045
1.289114,-0.1712363,-0.1615694,0.2962113,-0.1127898,0.08674961,0.07982825,0.5219916,-0.1001203
1.277299,-0.1117978,-0.04178529,0.2846397,-0.0537226,0.2066831,0.0323481,1.133452,-0.1687074
1.341503,-0.01714771,0.01131748,0.3491013,0.04058527,0.2598794,-0.03056333,0.5545767,-0.2043478
1.262627,0.1859151,-0.01941828,0.2704775,0.2433331,0.2291742,-0.04470113,-0.3645198,-0.06908818
1.294851,0.306653,-0.1494503,0.3029339,0.3637748,0.09910286,0.001045545,-0.7673441,0.2496688
1.386311,0.1084135,-0.2690784,0.3945905,0.165244,-0.02063726,0.1911012,-0.489651,0.394534
1.330369,-0.2250232,-0.3489669,0.3387944,-0.1684891,-0.1007072,0.3740186,0.08810631,0.1972161
1.22831,-0.451014,-0.382257,0.2368156,-0.3947801,-0.1342401,0.3208332,0.3816984,-0.05312756
0.976187,-0.4751143,-0.3740749,-0.01530194,-0.4191708,-0.1263515,0.1502141,0.5169974,-0.09717198
0.7676558,-0.2511269,-0.4381794,-0.2239014,-0.1954458,-0.1907888,-0.107445,0.4112685,-0.06276109
0.7636626,0.001413165,-0.4976596,-0.2280269,0.05687266,-0.2506287,-0.4567291,-0.1148308,-0.006428145
0.7833789,0.05879982,-0.4897943,-0.2084916,0.1140808,-0.2431361,-0.5058152,-0.5228162,0.1470533
0.9342514,-0.05379931,-0.4620482,-0.05783453,0.001341604,-0.2157616,-0.1733558,-0.527811,0.1897248
1.122021,-0.2385204,-0.4019842,0.1296939,-0.183485,-0.1560557,0.1416774,-0.1316585,0.09154259
1.161806,-0.383399,-0.3510162,0.1692138,-0.3284319,-0.1054227,0.31171,0.378099,-0.1082891
1.07982,-0.4167233,-0.2983461,0.08693524,-0.3617774,-0.05305859,0.3601348,0.5192634,-0.4855132
0.9229148,-0.2989812,-0.2420982,-0.07029321,-0.2439969,0.002915061,0.3395744,0.4380339,-0.6902006
0.8162018,-0.1294463,-0.2329047,-0.1773566,-0.07435399,0.01186623,0.360649,0.2633472,-0.5994925
0.7264521,-0.02198124,-0.2356152,-0.2674752,0.03329171,0.008943514,0.3662285,0.02335894,-0.5250928
0.7079419,0.0528744,-0.2369027,-0.2863595,0.1083964,0.007471966,0.4009056,-0.1894243,-0.4277018
0.7702416,0.04573036,-0.2346625,-0.2244245,0.1015613,0.009554227,0.5064399,-0.3749827,-0.2731097
0.7828419,0.01345449,-0.2313082,-0.2121661,0.06964436,0.01277469,0.5886392,-0.3602649,-0.2180333
0.8337722,0.02802094,-0.2385715,-0.1615443,0.08461052,0.005399912,0.6214122,-0.2530977,-0.1868466
0.8490564,0.03556774,-0.2390337,-0.1465271,0.09258951,0.004846721,0.5753382,-0.1789498,-0.115492
0.8227983,0.1050858,-0.2458387,-0.1730045,0.1625638,-0.002030297,0.5015867,-0.2119384,-0.02343451
0.8502612,0.1735633,-0.2477282,-0.1457081,0.2315115,-0.003974031,0.4125604,-0.316038,0.1119106
0.8550964,0.1572456,-0.2306887,-0.1409818,0.2156663,0.01302792,0.3593827,-0.2645066,0.2031246
0.9055897,0.1346344,-0.2180899,-0.09053646,0.1935172,0.02560433,0.4215971,-0.3245588,0.2365112
0.9596672,0.1199415,-0.2222163,-0.0364446,0.1792651,0.02146871,0.4237187,-0.4218234,0.2522128
0.9692566,0.1201788,-0.243138,-0.02677962,0.1799123,0.0005492706,0.3636092,-0.3402653,0.218585
1.045964,0.1124024,-0.281933,0.05006111,0.172507,-0.0382333,0.2398225,-0.2089665,0.1891269
1.135954,0.09696344,-0.3213188,0.140238,0.1573928,-0.07759623,-0.07665208,0.1551286,0.1617497
1.173361,0.1070968,-0.2621003,0.1778745,0.1677987,-0.01834285,-0.360831,0.5302021,0.09498095
1.21639,0.0994025,-0.1135692,0.2211642,0.1603192,0.1302355,-0.4111947,0.6253869,-0.0265234
1.273212,0.05187721,-0.02222983,0.2782661,0.1129465,0.2216303,-0.1794257,0.5708445,-0.1850949
1.23887,0.01366892,-0.0329737,0.2442072,0.07482579,0.2109413,0.2357505,0.2467714,-0.2431411
1.183039,0.06997327,-0.2046839,0.1886496,0.1311518,0.03927575,0.3848092,-0.3432771,-0.2339602
1.184348,0.1379193,-0.4428576,0.190211,0.1990522,-0.1988678,0.04872264,-0.6352527,-0.2767355
1.152963,0.08812836,-0.4750153,0.1590472,0.1491454,-0.2310058,-0.3807085,-0.3579672,-0.2988776
1.124834,-0.01884626,-0.4320627,0.131102,0.04198252,-0.1880338,-0.4661684,-0.1069045,-0.2451447
1.034764,-0.1885057,-0.5131692,0.04117346,-0.1279361,-0.2691101,-0.329497,-0.009694735,-0.1845147
0.9302254,-0.3594998,-0.5180407,-0.0632683,-0.2992518,-0.2739296,-0.1555935,0.2047051,-0.2074753
0.9701711,-0.3605524,-0.3746627,-0.02326637,-0.3006732,-0.1304667,0.1460721,0.1721911,-0.2813088
1.014829,-0.310345,-0.2515678,0.0214108,-0.2508631,-0.007247112,0.2859439,-0.05711782,-0.3069974
1.09864,-0.2554529,-0.2487924,0.1052059,-0.1963798,-0.004305944,0.07943797,-0.1367721,-0.2133442
1.243248,-0.04058272,-0.3581136,0.249762,0.01808237,-0.1134221,-0.1378687,0.03327579,0.007626633
1.285249,0.1391853,-0.4478334,0.2916694,0.1974481,-0.2028972,-0.3304361,0.4647744,0.204995
1.206644,0.09826319,-0.4553548,0.2129196,0.1561263,-0.2101303,-0.5350334,0.6998253,0.3235974
1.033068,0.03296415,-0.4331581,0.03913924,0.09042339,-0.1875958,-0.590236,0.6438513,0.4100939
0.9079923,-0.01512487,-0.3555003,-0.08620052,0.04192147,-0.1095455,-0.5700965,0.5750475,0.4345462
0.840018,-0.1325115,-0.2276753,-0.1544937,-0.07588842,0.0187288,-0.5225103,0.4582251,0.4547546
0.765634,-0.177926,-0.1361298,-0.2292404,-0.1217337,0.1107771,-0.4503919,0.3765993,0.4760204
0.7548273,-0.1290574,-0.109759,-0.24044,-0.07329765,0.1376964,-0.4552165,0.3231135,0.4566269
0.7343285,-0.1144707,-0.1028034,-0.2613469,-0.0591394,0.1452353,-0.4986465,0.2747672,0.4395212
0.7114323,-0.07849804,-0.09965121,-0.284651,-0.02358665,0.1489945,-0.5311273,0.2676666,0.4063687
0.6955852,-0.04408177,-0.1010444,-0.3008908,0.01042077,0.1482211,-0.5255029,0.1638489,0.3849267
0.6617852,-0.07550227,-0.06698729,-0.335053,-0.02139641,0.1829002,-0.4700615,-0.01904172,0.3890138
0.7040054,-0.06383196,-0.03744467,-0.2931498,-0.01011,0.2130565,-0.4270321,-0.2438504,0.3288818
0.7741963,-0.03941396,-0.03630199,-0.2232175,0.01393747,0.2147934,-0.4019871,-0.4137488,0.2027253
0.8499708,-0.04083157,-0.03802493,-0.1476336,0.01216272,0.2136342,-0.4073075,-0.4876081,0.05998525
0.9377756,-0.03647282,-0.0643378,-0.0599465,0.01617719,0.1878443,-0.3897473,-0.66459,-0.0298239
1.040796,-0.09422948,-0.08853734,0.04302913,-0.04191126,0.1641184,-0.2636305,-0.7779236,-0.0134516
1.218681,-0.1786571,-0.1165321,0.2209377,-0.126657,0.136541,-0.08373871,-0.4222586,0.0195184
1.362702,-0.2158309,-0.1246821,0.3650382,-0.164131,0.1287474,0.03342388,0.3687705,-0.0219346
1.401399,-0.158096,-0.05417479,0.4038517,-0.1066723,0.1995459,4.984949e-06,0.8975975,-0.1271716
1.337804,0.0226115,0.0006306479,0.3403886,0.0737874,0.2545724,-0.06168437,0.4948735,-0.1958681
1.267947,0.2189217,-0.03569898,0.2706599,0.2698769,0.2183873,-0.04308351,-0.4788772,0.004186202
1.344667,0.2442119,-0.1439616,0.3474867,0.2949644,0.1101866,0.0385239,-1.003465,0.3910615
1.393399,-0.01533085,-0.2935283,0.3962892,0.03522434,-0.03940266,0.2080068,-0.386356,0.4647667
1.31993,-0.3359619,-0.4170776,0.3228383,-0.2856047,-0.1630546,0.2300701,0.8034675,0.1795096
1.200083,-0.422002,-0.4362195,0.2029444,-0.3718374,-0.1823688,-0.02484848,1.163113,-0.07109393
0.9821997,-0.3248701,-0.4037625,-0.01506053,-0.2748785,-0.1501402,-0.3017345,0.7392343,-0.1121193
0.8000645,-0.1840616,-0.4215998,-0.1973894,-0.134209,-0.1682487,-0.4373144,0.2452114,-0.03245042
0.7486901,-0.03790044,-0.4275444,-0.2490198,0.01185522,-0.174495,-0.3886079,-0.5044235,0.02053907
0.800964,0.01848909,-0.4170519,-0.1970488,0.06819087,-0.1643231,-0.2020886,-0.8247437,0.1275791
0.9863557,-0.1359856,-0.4280692,-0.0119929,-0.08629779,-0.1756688,0.04396542,-0.1743717,0.1958319
1.133356,-0.3180198,-0.4039284,0.1346472,-0.2683068,-0.1518541,0.1949762,0.4991405,-0.06793065
1.132342,-0.3334872,-0.3590297,0.1332485,-0.2837047,-0.1072703,0.1912253,0.7173662,-0.4439132
1.02893,-0.299072,-0.2871264,0.02942644,-0.2491662,-0.03566439,0.2379157,0.4755375,-0.6621643
0.866634,-0.2031421,-0.2215993,-0.1333073,-0.1530503,0.02958607,0.2458714,0.05056976,-0.7068462
0.7774272,-0.04730716,-0.2235528,-0.222972,0.003037832,0.02737649,0.2062477,-0.1098594,-0.5740341
0.7449634,0.04323945,-0.233148,-0.2559035,0.09390312,0.01754391,0.2779405,-0.2352315,-0.3999676
0.7307743,0.05400328,-0.236383,-0.2705561,0.1050439,0.01408855,0.3004691,-0.3359421,-0.2603222
0.7836409,0.009314682,-0.2350907,-0.2181348,0.0607811,0.01517587,0.3491612,-0.3276082,-0.176002
0.8421257,-0.009266723,-0.2311166,-0.1600651,0.04266544,0.01895913,0.4254175,-0.3526848,-0.1740958
0.8890922,-0.009422972,-0.2436738,-0.1134747,0.04300778,0.006223755,0.3920101,-0.2357057,-0.1836663
0.8996419,0.02686886,-0.241662,-0.1032566,0.07982473,0.008069135,0.3809231,-0.09263067,-0.1587902
0.8682741,0.1310487,-0.2266094,-0.1349076,0.184549,0.02296594,0.3192646,-0.07961447,-0.07761578
0.8603401,0.17438,-0.2057238,-0.1430731,0.2284343,0.04370528,0.2314484,-0.07933237,0.04195757
0.8605145,0.1679706,-0.1831927,-0.1430744,0.2225763,0.06609754,0.2263224,-0.1365851,0.1468763
0.8848632,0.1569113,-0.1598027,-0.1188421,0.2120532,0.08935311,0.2256022,-0.2161499,0.2071089
0.9393971,0.1333366,-0.1443668,-0.06436297,0.1889881,0.1046551,0.2563579,-0.2780637,0.2239363
0.9957194,0.1038682,-0.1738289,-0.008033559,0.1599928,0.07505516,0.2718384,-0.2672927,0.215468
1.036422,0.07937524,-0.2058388,0.03273524,0.135929,0.04289995,0.2326596,-0.1631971,0.1896566
1.044343,0.1135983,-0.2220163,0.04077749,0.1705311,0.0265675,0.09803552,-0.0636343,0.1641122
1.080181,0.1532118,-0.2370972,0.07678466,0.2104679,0.01132106,-0.1829686,0.1366374,0.10227
1.145887,0.175332,-0.2102644,0.1427009,0.2328492,0.03797782,-0.398909,0.3809806,-0.02166219
1.204591,0.1340297,-0.1349032,0.2016471,0.1917383,0.1131518,-0.3356044,0.5772452,-0.1639661
1.247837,-0.00513138,-0.02886193,0.2451555,0.0526939,0.2189917,0.04042518,0.5876926,-0.2610603
1.228759,-0.05001317,-0.01785489,0.2263459,0.007852725,0.2297766,0.3934504,0.04049324,-0.2914021
1.187465,0.01682606,-0.2069962,0.1853145,0.07465907,0.04038476,0.2613638,-0.6848003,-0.3495466
1.157889,0.0435991,-0.4398922,0.1559837,0.1013285,-0.1927928,-0.1300226,-0.8336048,-0.3879734
1.092844,-0.06826863,-0.5264851,0.0911595,-0.01071139,-0.2796919,-0.3062155,-0.3977461,-0.2959008
1.019531,-0.319407,-0.4579684,0.01803704,-0.2620857,-0.2114933,-0.2343284,0.1105409,-0.1828594
0.9715705,-0.4917722,-0.3816819,-0.02976392,-0.4347379,-0.1355233,0.03473372,0.3844578,-0.1493073
0.9755897,-0.4305033,-0.3113115,-0.02561481,-0.3737865,-0.06545824,0.3063145,0.4018285,-0.2134814
1.068076,-0.2154208,-0.1958613,0.06697441,-0.1590306,0.04970279,0.3152982,0.09339802,-0.2627929
1.165255,-0.0215446,-0.2169628,0.1642281,0.03452427,0.02832891,0.1747407,-0.2654159,-0.1419702
1.201674,0.07380667,-0.3263538,0.2006918,0.1295641,-0.08131869,-0.03897672,-0.2987101,0.0805438
1.20228,0.1005476,-0.3803213,0.2013044,0.1560003,-0.1355259,-0.3002383,0.03195859,0.2905976
1.124638,0.04944442,-0.4305622,0.1236245,0.1045931,-0.1859849,-0.4355726,0.4730806,0.3850585
0.9755974,-0.05500029,-0.3509721,-0.0255031,-0.0001599087,-0.1065849,-0.4725482,0.5126176,0.3564394
0.8607218,-0.1413096,-0.2149766,-0.1405127,-0.08678324,0.02925324,-0.4716421,0.308288,0.3613219
0.8056335,-0.1518608,-0.164182,-0.1957747,-0.09765125,0.07992362,-0.3820675,0.1937859,0.3933545
0.7724155,-0.1295936,-0.1002511,-0.2291947,-0.07569853,0.1437589,-0.276575,0.03249772,0.3976632
0.7668214,-0.1281697,-0.1019296,-0.2350058,-0.07458169,0.1420062,-0.2929688,0.002554242,0.4001242
0.7830788,-0.09671417,-0.1267663,-0.218967,-0.04342161,0.1171086,-0.3449052,0.03997655,0.3770103
0.7810296,-0.06540426,-0.09788683,-0.2212241,-0.01239278,0.1459327,-0.3397705,-0.008493662,0.3553287
0.7692143,-0.07367112,-0.09680575,-0.233225,-0.02092493,0.1469567,-0.3547335,0.0496337,0.3347659
0.7519753,-0.08270905,-0.05608935,-0.2506169,-0.03021164,0.1876071,-0.3206184,0.06791524,0.2966614
0.7357192,-0.0639183,-0.0173064,-0.2669826,-0.01165256,0.226307,-0.2628435,-0.04606039,0.255259
0.7504713,-0.03298881,-0.02629457,-0.2522864,0.01906262,0.2172099,-0.2750634,-0.2406647,0.1726235
0.7963871,-0.02818319,-0.02856552,-0.2063635,0.02367048,0.214795,-0.2737812,-0.5087759,0.08569793
0.888765,-0.0435464,-0.04814908,-0.1139089,0.008124628,0.1950244,-0.2539463,-0.7190164,0.02397452
1.000933,-0.08897132,-0.05792225,-0.001592099,-0.03746893,0.1850142,-0.1897555,-0.9232152,-0.006040498
1.17147,-0.1615788,-0.08817485,0.169163,-0.1102305,0.1544692,-0.07853257,-0.9246583,0.03914458
1.419303,-0.2336446,-0.1359972,0.4172728,-0.1824324,0.1062953,-0.01716888,-0.2441583,0.04597091
1.45549,-0.1948545,-0.1137942,0.4537745,-0.1437546,0.1280858,-0.01450363,0.7003224,-0.07037456
1.297193,0.04738789,-0.07142524,0.2958086,0.09840426,0.1699803,-0.05195779,0.8089961,-0.187698
1.288669,0.2732347,-0.05606795,0.2876097,0.3241944,0.1847992,-0.06726395,-0.04934984,-0.1398706
1.311524,0.2781531,-0.07568651,0.310767,0.3290719,0.1645758,0.04476354,-0.7624076,0.08930105
1.292084,0.1056872,-0.1813938,0.2915929,0.1565656,0.05819542,0.2568971,-0.6159872,0.255011
1.341951,-0.1560655,-0.3439286,0.341676,-0.1052379,-0.1050788,0.3565376,-0.0110227,0.1568201
1.284489,-0.3578985,-0.4181622,0.2843654,-0.3071323,-0.1801101,0.254149,0.562833,-0.04229798
1.07862,-0.3045702,-0.3716898,0.07857348,-0.2538664,-0.1344816,0.1152788,0.7776363,-0.1119603
0.795353,-0.133278,-0.3647635,-0.2046928,-0.08262531,-0.1284318,-0.04891789,0.3814485,-0.1000039
0.6449319,-0.1210504,-0.4134195,-0.3551815,-0.07042933,-0.1779849,-0.2729074,-0.2511752,-0.02385482
0.7849584,-0.05181733,-0.4445596,-0.2152739,-0.001204934,-0.2100306,-0.3148539,-0.623791,0.1204415
0.8789156,0.04819621,-0.5063768,-0.1214699,0.09882236,-0.2727486,-0.130348,-0.5448532,0.1456626
0.9901347,-0.1178821,-0.5141191,-0.01042636,-0.06722241,-0.2813726,0.04615591,0.01381187,0.07382572
1.215295,-0.2999531,-0.4254792,0.2145411,-0.2492405,-0.1935809,0.2110339,0.5801505,-0.1191256
1.175488,-0.374052,-0.3369301,0.1745204,-0.3232613,-0.1058349,0.3907018,0.743978,-0.493138
1.032958,-0.3611103,-0.2113491,0.03175066,-0.3102046,0.01899437,0.4789403,0.5356508,-0.6951276
0.9223668,-0.2427172,-0.155162,-0.07910806,-0.1916477,0.07448203,0.5095918,0.2410042,-0.6636884
0.740095,-0.1138336,-0.2241608,-0.2616715,-0.06254324,0.004832923,0.5317366,0.08927396,-0.5986049
0.6907276,0.01971989,-0.2359673,-0.3113433,0.07129003,-0.007578096,0.5504251,-0.2004257,-0.4589944
0.718826,0.01038617,-0.2480811,-0.2835471,0.06229049,-0.02025259,0.6022291,-0.4366629,-0.3322774
0.736898,-0.02492383,-0.2834292,-0.2657597,0.02736188,-0.05611828,0.6687657,-0.3822274,-0.2897558
0.8031987,0.02961059,-0.26139,-0.1997122,0.08231769,-0.03455359,0.7027348,-0.3401362,-0.243932
0.8451288,0.0006731863,-0.2595692,-0.1579938,0.05383477,-0.03316402,0.6975939,-0.1988736,-0.1939111
0.8716808,0.04718273,-0.2449194,-0.131605,0.1008248,-0.01890221,0.6607882,-0.1432891,-0.115107
0.8854029,0.1326951,-0.2078332,-0.117993,0.1868357,0.01783823,0.5688585,-0.1964185,0.004907082
0.8879309,0.1344159,-0.1980035,-0.1155189,0.1890631,0.02736231,0.4784506,-0.1186463,0.09849907
0.8953521,0.1447976,-0.1777689,-0.1080932,0.1999486,0.04732828,0.4776806,-0.2145157,0.1859476
0.9015467,0.1064275,-0.1684671,-0.1018344,0.1620683,0.05639466,0.5253976,-0.2989564,0.2457089
0.9612225,0.07521862,-0.1828305,-0.04203397,0.131326,0.04182476,0.5705833,-0.2664894,0.2070573
1.036243,0.07430714,-0.2162359,0.03317036,0.1308503,0.008238024,0.5699593,-0.2307694,0.1436212
1.084962,0.07507512,-0.272638,0.08212729,0.1320175,-0.04832273,0.4391155,-0.02694761,0.08614582
1.117739,0.1088878,-0.2958697,0.1151888,0.1661872,-0.07169048,0.1572898,0.2441705,0.03701732
1.128535,0.1326567,-0.2528982,0.1263079,0.1902653,-0.02883134,-0.1289637,0.5132254,0.01123984
1.148963,0.1519309,-0.1766788,0.1470874,0.2097944,0.04730006,-0.1525193,0.5487536,-0.08707716
1.178379,0.1115093,-0.0809535,0.1768731,0.1695667,0.1429592,0.1809403,0.2637283,-0.2011159
1.20881,0.04525618,-0.005778109,0.2076811,0.1034411,0.218084,0.5951543,-0.1535389,-0.2327172
1.216932,0.05005144,-0.09048606,0.2161761,0.1082947,0.133332,0.6429137,-0.6094063,-0.2695871
1.201646,0.04121608,-0.3138346,0.2012471,0.09944752,-0.09006163,0.2619617,-0.6538136,-0.3333589
1.190727,-0.02587342,-0.4995134,0.1906599,0.03227626,-0.2757869,-0.0505015,-0.2931972,-0.3711888
1.121992,-0.1779332,-0.568128,0.1222214,-0.1199324,-0.3444405,0.004508652,0.03965828,-0.3346969
1.00975,-0.3589225,-0.501546,0.01023606,-0.3011294,-0.2778761,0.16976,0.2735418,-0.2870931
0.9375249,-0.4057495,-0.3859895,-0.06177452,-0.3482079,-0.1623027,0.3368171,0.2328377,-0.3468279
0.9314504,-0.3362366,-0.278493,-0.06767271,-0.2789713,-0.05474603,0.5264996,-0.03137474,-0.3697703
1.025491,-0.2033817,-0.2296301,0.02651023,-0.1463999,-0.005776963,0.4219403,-0.2630149,-0.2375005
1.187641,-0.002342865,-0.3447621,0.188771,0.05435965,-0.1207575,0.1368858,-0.3222536,-0.04134433
1.266743,0.1124401,-0.4416646,0.2679478,0.1688705,-0.2174627,0.002848698,0.01163054,0.1447745
1.172419,0.03014765,-0.4353091,0.1736562,0.0863094,-0.21086,-0.2428156,0.4644942,0.2360347
1.052287,-0.04375519,-0.4227823,0.05350563,0.0121365,-0.1980301,-0.4645289,0.586112,0.2561881
0.9821251,-0.05577991,-0.3302003,-0.01672646,-0.0001618643,-0.105084,-0.4291382,0.4780957,0.3006068
0.8512763,-0.1387456,-0.2292685,-0.1476951,-0.08340404,-0.003725123,-0.4183588,0.3730559,0.3607839
0.7681478,-0.1421428,-0.156495,-0.2309846,-0.08707741,0.06953549,-0.3635934,0.3070447,0.4083182
0.7896212,-0.0829135,-0.09365268,-0.2097011,-0.02811986,0.1329178,-0.3166673,0.21862,0.4166582
0.7725482,-0.09447081,-0.1026343,-0.2269794,-0.039941,0.1245191,-0.379233,0.2095165,0.3905379
0.7606335,-0.07528354,-0.09800419,-0.2391015,-0.02100749,0.129764,-0.3854364,0.2527467,0.3437307
0.7545732,-0.08384221,-0.0922117,-0.2453587,-0.02980832,0.1361926,-0.44596,0.1663641,0.3046965
0.7084069,-0.1131776,-0.08271147,-0.2916989,-0.05937282,0.14634,-0.474084,0.0802304,0.2982363
0.7142221,-0.08712311,-0.03595772,-0.2860221,-0.03353266,0.1937419,-0.401503,-0.02240432,0.2657933
0.7534878,-0.07187076,-0.02466768,-0.2468469,-0.01847822,0.2056704,-0.3679642,-0.1614298,0.2033157
0.7968156,-0.02817572,-0.01466306,-0.2035516,0.0250359,0.2162926,-0.3553709,-0.2430881,0.1230529
0.8538051,0.007388224,-0.02747332,-0.1465292,0.06043489,0.2040683,-0.3778363,-0.4698579,0.02345847
0.9209261,0.01169115,-0.07089253,-0.07930588,0.06458616,0.1611935,-0.3476588,-0.7932373,-0.01302072
1.051238,-0.0205036,-0.1062008,0.05117799,0.03224971,0.1263804,-0.2481103,-0.8751072,0.04359541
1.202259,-0.1521551,-0.1236824,0.2024351,-0.09953544,0.1093392,-0.1382476,-0.3700399,0.08980587
1.333801,-0.2085155,-0.07109184,0.3342656,-0.1560199,0.1623117,-0.07968343,0.5358856,0.008975425
1.393885,-0.131125,-0.0212418,0.3946717,-0.07873888,0.212481,-0.1694594,0.9081869,-0.1534613
1.302525,0.02129907,-0.002937663,0.3036484,0.07359426,0.2310358,-0.2517076,0.4397548,-0.2288141
1.253434,0.2477733,-0.006858483,0.2548888,0.2999941,0.2272903,-0.2624831,-0.3342165,-0.03424233
1.332994,0.2690785,-0.09791227,0.3347578,0.3212318,0.1363303,-0.06143022,-0.8025516,0.3640971
1.355263,-0.05351368,-0.2368953,0.3572997,-0.001433965,-0.002643183,0.4547635,-0.550402,0.4931105
1.304963,-0.4289457,-0.3682431,0.3072203,-0.3769506,-0.1340629,0.697163,0.1042598,0.1997855
1.175014,-0.5435306,-0.4402251,0.177428,-0.4916217,-0.206189,0.3585542,0.5931122,-0.1029062
0.9370257,-0.361629,-0.4772252,-0.06047532,-0.3097888,-0.2433916,-0.08958415,0.7633507,-0.1641906
0.7537383,-0.1443204,-0.5314043,-0.2437473,-0.09251379,-0.2978154,-0.3581815,0.3833191,-0.1210599
0.7530757,-0.05038265,-0.5246937,-0.2444526,0.001433793,-0.2913741,-0.4898639,-0.2783363,-0.04964369
0.909127,-0.07486205,-0.442054,-0.08848722,-0.02299148,-0.2090116,-0.2885771,-0.4363638,0.1300779
1.07435,-0.1929493,-0.3608368,0.07661735,-0.1409818,-0.1280657,0.146736,-0.2002438,0.1875657
1.101886,-0.3029833,-0.3574756,0.1040064,-0.2508747,-0.1249603,0.2902333,0.1538192,-0.03146139
1.058086,-0.3908974,-0.3459923,0.06003006,-0.3385971,-0.1137108,0.2924068,0.4644256,-0.3364309
1.014901,-0.3712007,-0.2437573,0.01663784,-0.3186479,-0.01168313,0.3413734,0.3628839,-0.6626951
0.8979423,-0.2143401,-0.2237073,-0.1005573,-0.1614639,0.008188012,0.3390725,0.2295314,-0.7802321
0.7972744,-0.0960991,-0.2539656,-0.2014855,-0.04282285,-0.02222139,0.4706874,0.2501328,-0.6243067
0.7837497,0.02041388,-0.2258987,-0.215285,0.07416582,0.005720782,0.5539351,0.1728585,-0.4940348
0.745159,0.05415865,-0.2323092,-0.2541528,0.1084548,-0.0007892365,0.5585478,0.05785724,-0.3440512
0.748924,-0.01806151,-0.2250418,-0.2506541,0.0368374,0.006402283,0.6551947,-0.1567115,-0.205896
0.8024466,0.0154109,-0.2039718,-0.1973749,0.07096148,0.02741817,0.6673594,-0.3150916,-0.2219729
0.8220924,0.02219685,-0.2174484,-0.177939,0.07843938,0.01390703,0.6694517,-0.2667541,-0.2245201
0.8576751,0.03597837,-0.2094007,-0.1425246,0.09294458,0.02193742,0.6616891,-0.1961,-0.1531827
0.8532277,0.1190305,-0.2032404,-0.1470932,0.176743,0.02809557,0.5919855,-0.1576915,-0.02856007
0.84424,0.1239046,-0.1880423,-0.1561499,0.1823752,0.04330405,0.5420216,-0.1336412,0.1285569
0.8865245,0.1492682,-0.1686778,-0.1138786,0.2084971,0.06268872,0.5028389,-0.1558183,0.2018839
0.9286543,0.1542921,-0.1842637,-0.07170339,0.2142672,0.04712936,0.5315942,-0.2326456,0.2095931
1.019253,0.1449889,-0.1986544,0.01899928,0.2056862,0.03276857,0.5047725,-0.2703684,0.1946554
1.075594,0.1710675,-0.2187531,0.07549913,0.232452,0.01270066,0.4032284,-0.2244261,0.1276773
1.088563,0.1308662,-0.241122,0.08867682,0.1928923,-0.009637846,0.24409,-0.0794673,0.07119312
1.148036,0.1238669,-0.2382595,0.148399,0.1864798,-0.006745528,-0.07315352,0.2221629,0.05700959
1.163981,0.1441865,-0.1808975,0.1646239,0.2073237,0.05064557,-0.3222432,0.5817856,0.01856956
1.177668,0.1410465,-0.05830537,0.1786105,0.2046382,0.173264,-0.3464364,0.6654734,-0.07420829
1.23187,0.1245025,-0.0004770255,0.2331202,0.1884725,0.2311104,-0.1157368,0.2595967,-0.1596129
1.250824,0.07306056,-0.1083898,0.2523792,0.1373273,0.1231989,0.114794,-0.3048853,-0.1729544
1.252485,0.03122175,-0.3119877,0.2543292,0.09570048,-0.08042071,-0.02510262,-0.5644457,-0.1959165
1.218966,-0.0734555,-0.4631758,0.2210698,-0.008849553,-0.2316526,-0.1813873,-0.3313686,-0.286882
1.147274,-0.1741756,-0.4537256,0.1495993,-0.1095233,-0.2222599,-0.1582632,-0.03294838,-0.3353103
1.066416,-0.2114783,-0.3950156,0.06891601,-0.1468522,-0.1636095,-0.152302,-0.06959516,-0.2726125
0.9757868,-0.3345397,-0.3928587,-0.02158687,-0.2700001,-0.1615041,-0.02204353,0.04971223,-0.2077736
0.9940047,-0.3811511,-0.3219692,-0.003290132,-0.316743,-0.09065002,0.1226292,0.1396958,-0.2386814
1.130021,-0.2318343,-0.2559879,0.1327599,-0.1675856,-0.02468312,0.0638771,-0.1320475,-0.2484615
1.228315,-0.0795362,-0.3218565,0.2310418,-0.01546115,-0.0905427,-0.04696424,-0.1557946,-0.1804842
1.283108,0.03086334,-0.37185,0.2857724,0.09475692,-0.1405017,-0.1767549,-0.02430301,-0.04750824
1.271212,0.07253167,-0.4063074,0.2737535,0.1362357,-0.1748955,-0.3612756,0.2186505,0.1843842
1.181464,0.02754843,-0.4225086,0.1838137,0.0910511,-0.1909981,-0.4883941,0.6331419,0.3054362
1.077946,0.01430694,-0.365832,0.08003011,0.0775922,-0.1341821,-0.5474344,0.6541083,0.3076348
0.9138127,-0.02137794,-0.3218841,-0.08444435,0.04167127,-0.09004917,-0.5598272,0.5111853,0.4024259
0.7919722,-0.1061429,-0.1951197,-0.2066936,-0.04334903,0.03694729,-0.5061983,0.4327571,0.4623494
0.7557749,-0.1236741,-0.07267692,-0.2433549,-0.06115274,0.1596661,-0.4742461,0.2718244,0.4861626
0.708194,-0.1202454,-0.09864028,-0.2914387,-0.05800979,0.1340145,-0.5055002,0.2408263,0.5083153
0.7205777,-0.1022332,-0.09211505,-0.2795791,-0.0402918,0.1408772,-0.5519242,0.2509223,0.3985601
0.7223621,-0.05042866,-0.08438746,-0.2783226,0.01121364,0.1489577,-0.6021876,0.1755661,0.3112255
0.6840103,-0.04231919,-0.09848278,-0.3171896,0.01902111,0.1352213,-0.6055872,0.05390432,0.3226253
0.6895491,-0.05687493,-0.06094372,-0.3121376,0.004161159,0.1731163,-0.5452766,-0.1552525,0.3683125
0.6992778,-0.07416773,-0.0444182,-0.302852,-0.01343752,0.189986,-0.4871273,-0.3585479,0.4107366
0.7623764,-0.08820163,-0.01807492,-0.2401393,-0.02777774,0.2166523,-0.4675496,-0.4220409,0.2907701
0.8471448,-0.07608397,-0.01130949,-0.155689,-0.01596512,0.2237097,-0.4859398,-0.4361189,0.04923444
0.9061701,-0.06962164,-0.02798147,-0.09690801,-0.00980481,0.2072891,-0.4709011,-0.6188158,-0.1580962
0.9928482,-0.09392432,-0.03057682,-0.01039861,-0.03440497,0.2048957,-0.3384766,-1.015949,-0.2072711
1.10554,-0.1732516,-0.1072802,0.1021978,-0.1140231,0.1283377,-0.1389372,-1.198024,-0.05100861
1.245318,-0.2703978,-0.1606378,0.2419457,-0.2114487,0.07506423,-0.01304493,-0.3860429,0.02871609
1.353931,-0.2536378,-0.08276446,0.3505794,-0.1949491,0.1529584,0.03987656,0.8909465,-0.1009417
1.410569,-0.04982348,-0.008695976,0.4072722,0.008631748,0.2269824,0.07646722,0.9948518,-0.189986
1.377309,0.2055452,-0.05012138,0.3740786,0.2637958,0.185443,-0.07563979,-0.05349248,-0.05999812
1.297534,0.3027436,-0.1203578,0.2943623,0.3608106,0.1150186,-0.259464,-0.8148822,0.2686126
1.345986,0.2315975,-0.1889014,0.3428468,0.2894869,0.04621144,-0.02756043,-0.5679537,0.6071516
1.345754,-0.001118824,-0.3202595,0.3426072,0.0565842,-0.08548344,0.2570682,0.1183693,0.6172347
1.17648,-0.3433994,-0.3658727,0.1732705,-0.2858974,-0.1314994,0.183976,0.6389604,0.2465167
0.9426499,-0.4019343,-0.3372689,-0.06068376,-0.3446415,-0.1033539,0.03213159,0.8993616,-0.06658434
0.677638,-0.1272882,-0.4224104,-0.325879,-0.07019952,-0.1889978,-0.2801383,0.2828355,-0.09572578
0.633324,0.02541866,-0.500782,-0.3704223,0.08231799,-0.2679029,-0.670403,-0.7354493,0.04293808
0.8534948,-0.001473443,-0.47403,-0.1505076,0.05525233,-0.2417008,-0.5650498,-0.8722055,0.1971888
1.108802,-0.139882,-0.4433085,0.104531,-0.08331631,-0.2115304,-0.1676156,-0.5172502,0.1880313
1.269054,-0.3824764,-0.4407569,0.2645039,-0.3260558,-0.2095178,0.1521009,0.1002465,0.04922561
1.200272,-0.4463955,-0.3776611,0.1954276,-0.3900955,-0.1469375,0.4265434,0.8474493,-0.2656995
1.03081,-0.3426342,-0.2622771,0.02564899,-0.2864157,-0.03203727,0.4959706,0.8707993,-0.7174246
0.860816,-0.2298597,-0.2133128,-0.1446885,-0.1736697,0.01647859,0.4731929,0.5026778,-0.887752
0.6780499,-0.0681028,-0.2009986,-0.3278176,-0.01188067,0.02837937,0.4781334,0.2696982,-0.76233
0.6517943,0.05560353,-0.2013576,-0.3544424,0.1119187,0.02763987,0.3805488,0.02614465,-0.6000868
0.6817124,0.08414607,-0.2158126,-0.3248819,0.1406087,0.01283462,0.3792811,-0.2607993,-0.4160481
0.7051995,0.06943054,-0.2109596,-0.3017235,0.1260852,0.01736522,0.4440893,-0.466651,-0.2310878
0.8172728,0.06022426,-0.224116,-0.1899356,0.117105,0.003912408,0.4640191,-0.4895097,-0.1565175
0.873305,0.05796943,-0.2345859,-0.1341354,0.1151009,-0.006829422,0.514857,-0.3791084,-0.1348322
0.8755473,0.06576957,-0.2408143,-0.1320657,0.1231678,-0.01330633,0.4136528,-0.1821603,-0.07199182
0.8733774,0.134581,-0.2399847,-0.1343456,0.1922536,-0.01270231,0.2557583,-0.1073876,-0.0237853
0.8462258,0.1974903,-0.2122432,-0.1615417,0.2554351,0.01483581,0.1972348,-0.1258677,0.1287704
0.8565785,0.1831903,-0.2083545,-0.151165,0.2413933,0.01854231,0.1902096,-0.0964279,0.3235753
0.8623812,0.1211692,-0.1889614,-0.1452671,0.179605,0.03777252,0.3039641,-0.2503837,0.3909428
0.8804843,0.07490094,-0.1589661,-0.1269954,0.1335345,0.06762174,0.4258209,-0.5007053,0.4302772
0.944887,0.0712646,-0.1859537,-0.06234984,0.1300544,0.04050146,0.4531378,-0.6142266,0.3327406
1.054885,0.08281876,-0.2556102,0.04796396,0.1417188,-0.02927698,0.342072,-0.4779742,0.1715688
1.237884,0.1189323,-0.3326485,0.2313436,0.1778923,-0.106427,0.0275185,-0.009574396,0.1055272
1.31118,0.1627251,-0.3411557,0.3050741,0.2216899,-0.1150327,-0.349193,0.6741681,-0.007660752
1.247691,0.1789408,-0.2893675,0.2420556,0.2378489,-0.06332604,-0.5018788,1.106548,-0.1245754
1.236125,0.1434234,-0.2177163,0.2309786,0.2022066,0.008263973,-0.2840803,0.833349,-0.2063589
1.199696,0.07480906,-0.1296793,0.1950418,0.1333938,0.09625988,0.0679536,0.07100942,-0.2408623
1.150216,0.03583622,-0.18098,0.1460446,0.09414603,0.04493502,0.3246779,-0.9512671,-0.2358569
1.2273,0.002296699,-0.3839282,0.223593,0.06025536,-0.1580234,0.2645011,-1.436037,-0.2921122
1.26103,-0.09489396,-0.5334802,0.2577573,-0.03735978,-0.3075691,0.01744574,-0.6292461,-0.3313573
1.136989,-0.281586,-0.5794502,0.1341123,-0.2245428,-0.3535065,0.08495722,0.2019889,-0.3223866
0.9986785,-0.4096258,-0.5262809,-0.003849749,-0.3531267,-0.3002646,0.1327018,0.4662183,-0.3136082
0.9414975,-0.3695588,-0.3874902,-0.06072985,-0.3136385,-0.1613486,0.1076951,0.5730862,-0.3246311
0.9545624,-0.2764984,-0.2345042,-0.0474086,-0.2211715,-0.008177551,0.3154442,0.1634466,-0.327943
0.9991012,-0.1692451,-0.1657824,-0.002653466,-0.1145101,0.06078893,0.293716,-0.2951514,-0.2452162
1.07642,-0.09964075,-0.2414987,0.07484489,-0.04548596,-0.01462776,0.1750673,-0.4162928,-0.08547043
1.175227,-0.03229608,-0.3386205,0.1737946,0.02129539,-0.1114001,0.06704781,-0.2047641,0.09823223
1.256803,0.1061544,-0.4488335,0.255473,0.1592,-0.2212149,-0.2169719,0.3352554,0.1889054
1.221176,0.07107422,-0.5046264,0.2198995,0.1235874,-0.276557,-0.3628489,0.5029404,0.2096755
0.9923686,-0.09050002,-0.3644266,-0.008910011,-0.03851046,-0.1358478,-0.4725661,0.4957117,0.2711359
0.792754,-0.1359998,-0.2771376,-0.2085823,-0.08452648,-0.04798663,-0.4828983,0.5437221,0.3291195
0.7784498,-0.1537069,-0.2479502,-0.2229914,-0.1027393,-0.0181651,-0.3725898,0.395577,0.4420356
0.7982781,-0.1270523,-0.1550319,-0.2033017,-0.07657496,0.07544491,-0.3883924,0.3683759,0.5331507
0.7623127,-0.07823684,-0.1073753,-0.2394257,-0.02822978,0.1238431,-0.3482318,0.3549913,0.4749663
0.7429784,-0.08931373,-0.06673756,-0.2589249,-0.03975429,0.1652617,-0.377677,0.3355523,0.4300987
0.7591317,-0.07564288,-0.08872816,-0.2429293,-0.02650679,0.1440793,-0.4497679,0.2915707,0.3817554
0.6967263,-0.09317602,-0.07999311,-0.3054722,-0.04443786,0.153638,-0.4397065,0.09040926,0.2937018
0.65634,-0.1091094,-0.01997657,-0.3459623,-0.06074254,0.214482,-0.4804926,-0.03083605,0.2702416
0.7188825,-0.07360261,-0.0588071,-0.283476,-0.02557885,0.176471,-0.4347808,-0.1775437,0.2190373
0.752119,-0.06290806,-0.0238464,-0.2502357,-0.01519836,0.2122317,-0.4099557,-0.230677,0.1223601
0.8278364,-0.01794486,-0.007963695,-0.1744452,0.02947961,0.2288837,-0.4196082,-0.2474301,0.04172121
0.9120569,-0.001567892,-0.05414818,-0.09007682,0.04559844,0.1834271,-0.3419001,-0.5345097,-3.037426e-05
0.9623186,-0.0490863,-0.04854837,-0.03959142,-0.0021536,0.1897038,-0.2477094,-0.7891217,0.06607767
1.108688,-0.1109478,-0.1166601,0.1070747,-0.06422596,0.1222103,-0.1106278,-0.6153899,0.1238112
1.285377,-0.2099993,-0.1100932,0.2841242,-0.1634647,0.1293313,-0.09108135,0.2879726,0.04944044
1.390177,-0.1926132,-0.01620598,0.3893333,-0.1462378,0.2237042,-0.1452655,1.079157,-0.110597
1.357993,0.004151127,0.01370817,0.357586,0.0503995,0.2540299,-0.1908443,0.5220827,-0.2375425
1.321061,0.2456815,-0.0269349,0.3210968,0.2918343,0.213717,-0.2829376,-0.5683739,-0.04932545
1.380641,0.2964851,-0.1761247,0.381107,0.3425639,0.06477009,-0.04073358,-0.8532047,0.383426
1.364988,-0.01242984,-0.3149256,0.3658518,0.03358214,-0.07387596,0.4464782,-0.3862238,0.5229981
1.317646,-0.3911815,-0.4208147,0.3188591,-0.3452363,-0.1796925,0.5646487,0.3086302,0.2602238
1.176799,-0.4984949,-0.4635191,0.1782963,-0.4526095,-0.2223948,0.2054593,0.7867101,-0.03670494
0.8625817,-0.3533819,-0.4140671,-0.1357062,-0.3075325,-0.1729966,-0.2809684,0.7483401,-0.09005818
0.6855088,-0.1557062,-0.4476389,-0.3126318,-0.1098529,-0.206664,-0.546473,0.211226,0.02288438
0.7162789,-0.03223461,-0.4694637,-0.2817678,0.01367031,-0.2286123,-0.5828732,-0.5936901,0.09516348
0.8585272,-0.02690459,-0.4328782,-0.139462,0.01909995,-0.1921654,-0.2941673,-0.8131199,0.1569761
1.082033,-0.1895479,-0.4391287,0.08407735,-0.1433985,-0.1985572,0.236488,-0.1760962,0.1372232
1.172415,-0.3336936,-0.4163256,0.1744711,-0.2873537,-0.1758874,0.3905689,0.3848067,-0.09217728
1.082258,-0.3329229,-0.3565719,0.08430348,-0.2863406,-0.1162498,0.3378091,0.5970525,-0.4281077
0.9866402,-0.3112443,-0.2571378,-0.01135412,-0.2643585,-0.01690877,0.4645731,0.4952759,-0.7290188
0.8776524,-0.2419206,-0.1954102,-0.1204085,-0.1946614,0.04475101,0.4672596,0.2503603,-0.7880692
0.7381093,-0.09186786,-0.2231144,-0.2600398,-0.04416073,0.01700251,0.4612904,0.1183603,-0.6244505
0.6780761,0.04717901,-0.2202788,-0.3201713,0.09540779,0.01981476,0.5233471,-0.2554637,-0.4415029
0.6952387,0.04602796,-0.2313169,-0.3031023,0.09484497,0.008771583,0.4849814,-0.5052764,-0.2784902
0.7652353,-0.01006597,-0.2711159,-0.2331793,0.03939574,-0.03101593,0.5257509,-0.4524939,-0.2050376
0.8469507,0.03811461,-0.2715493,-0.1515055,0.08826785,-0.03142202,0.5631653,-0.4241241,-0.1882563
0.8698965,0.03521259,-0.2732193,-0.1285611,0.08609526,-0.03304887,0.521314,-0.2332751,-0.1630035
0.8865063,0.04129699,-0.2697849,-0.1119078,0.092938,-0.02955484,0.4978106,-0.166825,-0.1234331
0.8773197,0.1330517,-0.253919,-0.1210031,0.1854705,-0.01361297,0.4240998,-0.2548671,0.007327443
0.8480001,0.1371121,-0.2272498,-0.1501809,0.1903176,0.01314833,0.3498534,-0.2797322,0.1490282
0.879669,0.1341122,-0.1957134,-0.1183169,0.1881012,0.04479131,0.3319896,-0.3961747,0.2409226
0.9188691,0.1255763,-0.2027583,-0.07886667,0.1803342,0.03786489,0.3650717,-0.4733579,0.2893587
0.9757273,0.08932034,-0.2365493,-0.02170271,0.1448221,0.004201321,0.3839354,-0.4718993,0.2590571
1.060211,0.09849589,-0.2732506,0.06313913,0.1547077,-0.03236543,0.2945311,-0.3141105,0.225433
1.117476,0.0932638,-0.2813786,0.1208103,0.1501445,-0.04035204,0.1227435,0.04165135,0.1891606
1.158948,0.1236289,-0.2565255,0.1627263,0.1811305,-0.01535021,-0.1371643,0.4632959,0.1191166
1.166628,0.1702137,-0.2285733,0.1708764,0.2282812,0.01275837,-0.426979,0.8386697,0.02117602
1.161003,0.1558034,-0.1669453,0.1657374,0.2143737,0.07454926,-0.544335,0.893978,-0.1524316
1.169568,0.09271091,-0.06633814,0.1747928,0.1517136,0.1753221,-0.2709011,0.7003126,-0.2713075
1.164897,0.02088346,0.01980837,0.1706066,0.08024289,0.2616299,0.2565446,0.3053306,-0.2405825
1.165428,0.04229524,-0.01783998,0.1716065,0.1019338,0.224128,0.4391419,-0.3448143,-0.2358518
1.164755,0.06430926,-0.2338081,0.1713769,0.1241489,0.008281378,0.07624907,-0.7540776,-0.2944191
1.141226,0.02048399,-0.4836645,0.1482585,0.08044644,-0.2414814,-0.3751211,-0.6236901,-0.3029717
1.112344,-0.01879858,-0.596582,0.119748,0.04120875,-0.3543262,-0.5187763,-0.2574974,-0.2486675
1.065147,-0.2026183,-0.512408,0.07287673,-0.1426407,-0.2700858,-0.4180936,0.1390296,-0.193786
1.002539,-0.4963111,-0.377837,0.01054847,-0.436428,-0.13544,-0.1951559,0.5308825,-0.247346
0.9916463,-0.5586544,-0.3187457,-0.0001117927,-0.4989115,-0.07625548,0.1523362,0.5293662,-0.3415437
1.035562,-0.3974595,-0.2507608,0.04399102,-0.3378776,-0.008154899,0.2835757,0.1402352,-0.3189476
1.077867,-0.2412475,-0.2265026,0.08644074,-0.1818254,0.01624212,0.1339711,-0.1448992,-0.1917982
1.133711,-0.03994595,-0.2793185,0.1423838,0.01933139,-0.03641344,0.01432388,-0.2004713,0.04082587
1.170711,0.1435207,-0.3607532,0.1794364,0.2026714,-0.1176671,-0.2372027,0.1554761,0.2780375
1.128091,0.1230657,-0.4315154,0.1368168,0.1821027,-0.1882254,-0.4896284,0.6010393,0.3767894
1.060627,0.02285814,-0.3773769,0.06929799,0.08178549,-0.1338553,-0.4481345,0.6544876,0.3883218
0.9622565,-0.09439373,-0.2925862,-0.02918387,-0.03557797,-0.04880068,-0.3810683,0.6228277,0.3502394
0.8377864,-0.1977895,-0.1887654,-0.1538175,-0.1390881,0.05531763,-0.2891134,0.5084678,0.341807
0.7765809,-0.1823991,-0.06909145,-0.2152303,-0.1238105,0.1753191,-0.1425689,0.3263954,0.3806011
0.7408158,-0.1503512,-0.07439001,-0.2512336,-0.09186801,0.1703697,-0.1640333,0.3021384,0.3752592
0.7142441,-0.09775987,-0.06510063,-0.2780599,-0.03936939,0.1800191,-0.2549877,0.2738502,0.3583667
0.7119795,-0.02008565,-0.06108486,-0.2805801,0.03822714,0.184395,-0.3381816,0.1722908,0.3290439
0.6941335,-0.01414232,-0.08884127,-0.2986675,0.04410728,0.1569886,-0.4056071,0.03233572,0.3189506
0.7042913,-0.01328758,-0.038086,-0.2887225,0.04491081,0.2080745,-0.394998,-0.1154923,0.332352
0.7449091,-0.01062158,-0.02420502,-0.2482755,0.04753459,0.2222574,-0.3862826,-0.329559,0.2701185
0.8020038,-0.01070849,-0.01893344,-0.1912988,0.04741152,0.2277927,-0.3803403,-0.5230575,0.163179
0.8955291,-0.005342776,-0.02120747,-0.09783106,0.05274432,0.2257348,-0.3442465,-0.585135,0.03123279
0.9896682,-0.04902026,-0.06299864,-0.003686027,0.009034736,0.1841035,-0.292975,-0.8135315,-0.03599319
1.120774,-0.1299217,-0.08773717,0.1274871,-0.07189902,0.159462,-0.2013627,-0.9503101,0.02869137
1.291832,-0.2334929,-0.1263346,0.2986647,-0.1755006,0.120894,-0.1162782,-0.2756853,0.04339492
1.394908,-0.2514404,-0.06988602,0.4018978,-0.1934707,0.1773014,-0.05778498,0.8245554,-0.03027711
1.385254,-0.07826194,0.03235429,0.3924191,-0.02029974,0.2794268,-0.01979571,1.057172,-0.09392476
1.306179,0.1725242,0.02761828,0.3135163,0.2304967,0.2744963,-0.08304262,0.1815441,-0.06607725
1.267267,0.2647632,-0.04539614,0.2747551,0.3227575,0.2012009,-0.1171795,-0.6388877,0.1579929
1.319205,0.07838182,-0.2019468,0.3268075,0.1363971,0.04427867,0.1462429,-0.614699,0.3961291
1.358606,-0.2200948,-0.3712427,0.3662717,-0.1620687,-0.1254776,0.3990111,0.02993571,0.3233143
1.265257,-0.4246472,-0.443029,0.2729231,-0.3666188,-0.1978038,0.1834773,0.75448,0.06591442
1.02683,-0.3999116,-0.442323,0.03442236,-0.3418774,-0.1977028,-0.1632032,0.9791196,-0.07343753
0.7696117,-0.1732648,-0.4440767,-0.2229441,-0.1152062,-0.2001103,-0.3937185,0.3314661,-0.087625
0.7097811,-0.009477646,-0.4747467,-0.2829888,0.04863374,-0.2314672,-0.6201812,-0.5409314,0.006378803
0.8670713,0.01123613,-0.4625127,-0.1259624,0.06942936,-0.2199379,-0.465121,-0.6636609,0.1172518
1.000858,-0.06616054,-0.4442136,0.007524167,-0.007860233,-0.2023467,-0.06563389,-0.2132869,0.1269998
1.089818,-0.224352,-0.4303884,0.09615515,-0.1659219,-0.1892194,0.054857,0.3230863,0.06088771
1.174555,-0.3765315,-0.3351981,0.1805347,-0.317946,-0.09470651,0.1444967,0.6139105,-0.2067488
1.083696,-0.4280763,-0.2453528,0.08928675,-0.3693001,-0.005510716,0.2115435,0.4067116,-0.5929038
0.9233847,-0.2880154,-0.2172763,-0.07144705,-0.2290007,0.02194701,0.1925701,0.1443828,-0.7740369
0.8274295,-0.1113024,-0.2057564,-0.167855,-0.05199143,0.03287823,0.3399537,0.01459479,-0.6923912
0.7335984,-0.01147498,-0.2200903,-0.26216,0.04819264,0.0179841,0.4208223,-0.1514531,-0.510955
0.714016,0.07427262,-0.2471589,-0.282224,0.1343524,-0.009617893,0.4356797,-0.2169673,-0.3356521
0.7311776,0.04478393,-0.2494614,-0.2655365,0.1053225,-0.01242769,0.5063307,-0.2911515,-0.1389915
0.7492938,-0.001079269,-0.231334,-0.2478723,0.05995471,0.005218298,0.4890356,-0.409205,-0.1156576
0.8200437,0.006329565,-0.2276739,-0.1775395,0.06788698,0.008422474,0.4979343,-0.4014292,-0.2000019
0.8540693,-0.001416704,-0.2272438,-0.143887,0.06068521,0.008421172,0.5106357,-0.3481335,-0.1151721
0.8501416,0.07118677,-0.218973,-0.1481369,0.1338475,0.01628407,0.4858475,-0.2839083,-0.06155293
0.8424874,0.136002,-0.21612,-0.1560576,0.1992278,0.01875151,0.4597545,-0.2294978,0.05136112
0.8342964,0.1536602,-0.2065219,-0.1644547,0.2174469,0.02798483,0.4180359,-0.270335,0.2502483
0.8811747,0.1575064,-0.2116178,-0.1177181,0.2218386,0.02254334,0.4578043,-0.4185443,0.285505
0.9597168,0.130205,-0.2300871,-0.03925076,0.1950556,0.003745954,0.4756039,-0.6428444,0.3107028
1.019721,0.1490865,-0.2414492,0.02074511,0.2144182,-0.007927578,0.3885048,-0.658896,0.271024
1.074098,0.1340003,-0.2564293,0.07517503,0.1997665,-0.02320291,0.2336392,-0.2779558,0.1792161
1.163496,0.1136979,-0.2695675,0.1646818,0.1798438,-0.0366195,0.01675462,0.2585952,0.1605727
1.20819,0.1559006,-0.2731726,0.2095276,0.2223642,-0.04048533,-0.1888813,0.6529691,0.07711257
1.159529,0.1606601,-0.2254422,0.1610517,0.2273724,0.007003161,-0.3399679,0.6923463,-0.03948978
1.168603,0.1515677,-0.1099254,0.1703292,0.2184527,0.1222962,-0.2819333,0.5222871,-0.1771827
1.206898,0.1082711,-0.002581164,0.2088368,0.1752468,0.2294304,0.04809639,0.2530341,-0.2280301
1.197529,0.03923915,-0.009942023,0.1996788,0.1062196,0.2218645,0.2747919,-0.3464986,-0.1782222
1.211919,0.02134417,-0.1795797,0.2142664,0.08824188,0.05201725,0.02442361,-0.7901287,-0.2345381
1.192297,0.01525386,-0.4167855,0.1948184,0.08198273,-0.1854076,-0.3270899,-0.5955675,-0.2556769
1.126534,-0.05971672,-0.5692792,0.1291982,0.006759832,-0.3381248,-0.270875,-0.2166147,-0.2141137
1.05031,-0.2589287,-0.5611688,0.05307739,-0.1927822,-0.3302299,-0.1731308,0.2742541,-0.234437
0.9840613,-0.4399163,-0.4699916,-0.01310705,-0.3741656,-0.2392443,-0.06067499,0.7240303,-0.2726081
0.9957172,-0.4610592,-0.3641602,-0.001426599,-0.3957507,-0.1335678,0.3007779,0.4002134,-0.3316535
1.022309,-0.3381349,-0.2505724,0.02515271,-0.2732924,-0.02009093,0.3026783,-0.158536,-0.310579
1.081409,-0.1143163,-0.2734708,0.08420669,-0.04994513,-0.04305442,0.02952857,-0.2098159,-0.1331797
1.187226,0.06686312,-0.3984427,0.1899412,0.1307675,-0.1680455,-0.1306175,-0.1449717,0.1162838
1.195192,0.1176396,-0.4524124,0.1977845,0.1810816,-0.2219861,-0.4588225,0.1704717,0.3001745
1.108729,0.06161331,-0.4588929,0.1111555,0.1245917,-0.2283836,-0.6753737,0.6489653,0.3444782
0.9702809,-0.03648191,-0.3948278,-0.02750834,0.02602625,-0.1641749,-0.6607425,0.671521,0.4041645
0.8388352,-0.12102,-0.2870551,-0.1592155,-0.05899075,-0.0561933,-0.6137857,0.510303,0.4942811
0.782515,-0.1829725,-0.1892265,-0.2158348,-0.1214283,0.04190968,-0.4358827,0.3872399,0.4942475
0.7517259,-0.1617384,-0.09744632,-0.2469482,-0.1006795,0.1340246,-0.3911652,0.2795753,0.4808006
0.7441036,-0.1287249,-0.09802842,-0.2549055,-0.06814527,0.1338284,-0.4743703,0.2008808,0.4299169
0.7493846,-0.1318325,-0.109137,-0.249956,-0.07172058,0.1231459,-0.5047891,0.09261757,0.3049632
0.7443364,-0.09964247,-0.09110974,-0.2553185,-0.03998278,0.1416286,-0.5615029,0.07205082,0.2531547
0.7395845,-0.1064517,-0.1030818,-0.2603546,-0.04722562,0.1301311,-0.4963326,0.03562947,0.2722288
0.7297468,-0.1105256,-0.07538523,-0.2704347,-0.05171224,0.1583116,-0.3826364,-0.02666324,0.2658042
0.7411588,-0.07892715,-0.05608308,-0.2592118,-0.02050362,0.1780974,-0.3167835,-0.1700009,0.2358424
0.7721202,-0.07879243,-0.05699391,-0.2283765,-0.02073471,0.17766,-0.237334,-0.4284985,0.1393619
0.8308954,-0.04858272,-0.05262584,-0.169656,0.009133582,0.1824819,-0.2389961,-0.5351667,-0.03103806
0.9287432,-0.05050249,-0.07976671,-0.07178692,0.006896257,0.1557661,-0.2448324,-0.6519887,-0.09091053
1.037317,-0.1098199,-0.1032646,0.03688446,-0.05271551,0.1326571,-0.1834778,-0.6970018,0.001081095
1.173251,-0.1617689,-0.1292595,0.1729869,-0.1049352,0.1070088,-0.08883971,-0.229034,0.02988005
1.314245,-0.1997408,-0.1095302,0.3142104,-0.1431509,0.1270382,-0.0004172059,0.596197,-0.03797965
1.362392,-0.1324243,-0.03556024,0.3626289,-0.07604708,0.2012575,0.0097889,0.9310446,-0.1084101
1.295315,0.01095921,-0.002704508,0.2958469,0.06715755,0.2343064,0.02772782,0.1861352,-0.1199976
1.247098,0.1200383,-0.03672163,0.2479282,0.1760897,0.2004193,0.1600931,-0.794119,0.08363703
1.285002,0.09654155,-0.1621043,0.28612,0.1524708,0.07509745,0.3877738,-1.008648,0.3370617
1.316127,-0.1154583,-0.315391,0.3175059,-0.05963435,-0.07819911,0.5282415,-0.4171575,0.2539913
1.316321,-0.3449251,-0.4079106,0.3179206,-0.2891915,-0.1707942,0.4357357,0.5162704,-0.01385478
1.216694,-0.4074198,-0.4317293,0.2184621,-0.3517544,-0.1947434,0.2274151,1.026033,-0.16178
0.9548335,-0.2315282,-0.4274872,-0.04329294,-0.1758965,-0.1906737,-0.08668242,0.8390711,-0.1442419
0.7259853,0.003827674,-0.4678691,-0.272097,0.05946967,-0.2312564,-0.441219,0.09106238,0.07101551
0.6923129,0.04191791,-0.5060357,-0.3057757,0.09761471,-0.2696384,-0.4750837,-0.8590041,0.2643571
0.8595815,-0.05406771,-0.5317654,-0.138548,0.001723165,-0.2955835,-0.2270332,-1.054175,0.2488418
1.122997,-0.2269812,-0.5519364,0.1248041,-0.1710613,-0.3159549,-0.0305769,-0.2664776,0.1487296
1.252463,-0.4078287,-0.4719665,0.2541873,-0.3517428,-0.2361559,0.08473896,0.5692697,-0.102136
1.19813,-0.4309831,-0.3363176,0.1997448,-0.3746848,-0.1006367,0.1735929,0.8704764,-0.4807666
1.065184,-0.3078962,-0.2262605,0.06665657,-0.2513264,0.009337596,0.2681058,0.768136,-0.6608941
0.8834283,-0.1312312,-0.1875911,-0.1152794,-0.07432087,0.04797093,0.3387423,0.5201392,-0.5986774
0.7269099,-0.01342936,-0.2207969,-0.2720101,0.0438931,0.01477206,0.336425,0.2419274,-0.5067832
0.6771834,0.03619052,-0.2235595,-0.3219693,0.09399187,0.01205477,0.3382766,-0.1407011,-0.3762906
0.6697346,0.04899733,-0.2205252,-0.3296548,0.1073353,0.01516907,0.3471892,-0.4973595,-0.2085938
0.6619741,0.01923684,-0.24603,-0.3376383,0.07815888,-0.01022457,0.3933164,-0.5981275,-0.1816503
0.7294445,-0.01310626,-0.2439971,-0.2703609,0.04643769,-0.008051773,0.4876812,-0.5065774,-0.2005244
0.8293793,-0.05964041,-0.2507678,-0.1705759,0.000555763,-0.0146562,0.5267899,-0.3474221,-0.1698825
0.8530644,-0.02329362,-0.2704874,-0.1469882,0.03757945,-0.03418457,0.5080602,-0.2703582,-0.1282744
0.8418614,0.08764891,-0.260675,-0.1582311,0.1492179,-0.02415739,0.4376959,-0.2524773,-0.01776487
0.8531196,0.1291702,-0.2496779,-0.1469513,0.191446,-0.01292272,0.3503384,-0.2376416,0.08088116
0.8779632,0.1650742,-0.2372351,-0.1220214,0.2280566,-0.0002210869,0.2748935,-0.2914961,0.1619217
0.9169197,0.1687598,-0.2114135,-0.0829122,0.2324361,0.02587853,0.2121619,-0.2987772,0.2204143
0.9782695,0.1345105,-0.211442,-0.02134344,0.1988557,0.02614475,0.1917937,-0.3138265,0.1962844
1.032039,0.1311442,-0.2334755,0.03270869,0.1961223,0.004419482,0.159026,-0.2434937,0.1809083
1.050012,0.09345382,-0.2480857,0.05102166,0.1590191,-0.009871575,0.09751864,-0.003188557,0.1575964
1.052809,0.08057196,-0.2526227,0.05421066,0.1466717,-0.0140801,-0.004524991,0.1156941,0.1623805
1.062701,0.09593321,-0.2386236,0.06453756,0.1625087,0.0002557499,-0.129591,0.2110189,0.1766392
1.115591,0.07779725,-0.192103,0.117899,0.1447847,0.04711976,-0.1906406,0.3448685,0.06988236
1.203893,0.06437578,-0.08773594,0.206699,0.1317074,0.1518337,-0.1301696,0.4385495,-0.08212226
1.251697,0.01310271,0.02282336,0.2550151,0.08070751,0.2627367,0.1681348,0.442629,-0.2168126
1.240993,-0.02965777,0.02016448,0.2448257,0.03814849,0.2604075,0.5674122,0.04219,-0.2897131
1.209073,-0.004414037,-0.1320304,0.2134076,0.06352301,0.1085166,0.6145972,-0.6269144,-0.3046316
1.175679,-0.0009985229,-0.4041661,0.1804906,0.06700051,-0.1633475,0.1784353,-0.9143237,-0.3050773
1.127688,-0.04683039,-0.6307557,0.1329422,0.02116373,-0.3896945,-0.2220103,-0.4552064,-0.2539182
1.064067,-0.16807,-0.6187758,0.0697235,-0.1001443,-0.3774871,-0.1480802,0.2148554,-0.226135
1.009143,-0.3583882,-0.4565963,0.01515706,-0.2905866,-0.2150773,0.1408737,0.5657636,-0.2580686
0.9865197,-0.4305373,-0.2893189,-0.00715338,-0.3629014,-0.04755338,0.4378166,0.7043862,-0.3075719
0.99849,-0.3144615,-0.1951364,0.005087452,-0.2470146,0.04689711,0.6242709,0.3038037,-0.3313177
1.037482,-0.1312213,-0.2653058,0.04430961,-0.06397016,-0.02298341,0.3795253,-0.3962829,-0.2448975
1.126202,0.08826864,-0.3770573,0.1332189,0.1553255,-0.1344268,-0.05083293,-0.4624707,-0.05455722
1.17938,0.2015532,-0.448104,0.1865448,0.2684157,-0.2051445,-0.3801117,0.08019782,0.195603
1.095775,0.07784194,-0.5058855,0.1030404,0.1445019,-0.26257,-0.7415657,0.7691327,0.4016781
0.9725939,-0.04090648,-0.3928059,-0.02009084,0.02553476,-0.1490993,-0.8753387,1.005103,0.4501372
0.8805343,-0.1071942,-0.2227266,-0.1121486,-0.04099082,0.02141157,-0.707699,0.6633378,0.4075705
0.8160041,-0.2079872,-0.1793049,-0.1767192,-0.1420386,0.06530503,-0.5891861,0.3784314,0.3909533
0.7877002,-0.2027102,-0.1055109,-0.2050954,-0.137027,0.139605,-0.4799884,0.2022848,0.4022368
0.7741078,-0.1572783,-0.08237473,-0.2187798,-0.09186347,0.1632725,-0.4248892,0.1430439,0.3767467
0.7807756,-0.1041748,-0.1655916,-0.2122116,-0.0390247,0.08060208,-0.5492028,0.2469051,0.3423896
0.774911,-0.02272452,-0.1783616,-0.2181713,0.04216816,0.06838501,-0.6410185,0.1727507,0.324673
0.7518281,-0.02967726,-0.1743348,-0.2413336,0.03496569,0.07296493,-0.6586156,0.1016005,0.303592
0.7594533,-0.04060627,-0.1483961,-0.2337613,0.02379339,0.09945143,-0.6460735,0.1005001,0.3150168
0.7706539,-0.04865178,-0.07925853,-0.2225767,0.01550975,0.1691255,-0.6228536,-0.01818154,0.303165
0.7963961,-0.07583432,-0.0685821,-0.1968048,-0.01190642,0.1803197,-0.6523197,-0.09531838,0.2211982
0.8424071,-0.04224094,-0.07202956,-0.150711,0.0214578,0.1773627,-0.6698511,-0.1657756,0.1016065
0.8831039,-0.02251992,-0.07000738,-0.1098737,0.04095387,0.1798394,-0.6737004,-0.3038027,-0.008107682
0.9366965,-0.02608908,-0.0760078,-0.05608061,0.03716291,0.1742497,-0.6350211,-0.5559637,-0.01157092
1.02083,-0.0632249,-0.08146137,0.02831255,-0.0001928132,0.1691561,-0.4951317,-0.73051,0.03290476
1.180555,-0.1565977,-0.1112648,0.1883503,-0.0937836,0.1396558,-0.3654203,-0.3100089,0.03516695
1.30236,-0.1999391,-0.1199441,0.3105123,-0.137338,0.1312184,-0.3177102,0.3606469,-0.007416464
1.25898,-0.123186,-0.08132264,0.2675172,-0.06078794,0.1700165,-0.3443812,0.5668111,-0.1293046
1.222313,0.0700491,-0.04438815,0.2312454,0.1322575,0.2070588,-0.4033635,0.271415,-0.1914662
1.257584,0.2635603,-0.07350515,0.2669078,0.3255894,0.1779761,-0.438664,-0.2358005,-0.01285416
1.29855,0.2899559,-0.1720443,0.3082465,0.351805,0.07939403,-0.359008,-0.508602,0.2981035
1.371855,0.02885087,-0.3002364,0.3818899,0.09050542,-0.04891863,-0.0357561,-0.3194716,0.4357352
1.352082,-0.3497723,-0.4251721,0.3624072,-0.2883342,-0.1740471,0.2327858,0.2378326,0.300991
1.166209,-0.4561186,-0.4579154,0.1767599,-0.3949125,-0.2070445,-0.008748167,0.9099692,0.1173468
0.919419,-0.3222668,-0.4272515,-0.06987719,-0.2612923,-0.176682,-0.4219003,1.090235,-0.0134216
0.7048129,-0.169493,-0.4176552,-0.2844001,-0.1087336,-0.1674206,-0.5651902,0.4675917,-0.06622098
0.6747114,-0.008135887,-0.3817038,-0.3144761,0.05243352,-0.1318253,-0.6522595,-0.3543571,0.0488182
0.8249205,0.02689019,-0.3571496,-0.1642817,0.08729567,-0.1076383,-0.541409,-0.7363005,0.1986303
1.012685,-0.1614692,-0.3996318,0.02344179,-0.1012044,-0.1504904,-0.1303319,-0.6577312,0.2338144
1.168608,-0.3523435,-0.4283308,0.1793029,-0.2921956,-0.1795535,0.04785871,-0.08994959,0.08625074
1.166036,-0.3954698,-0.3747941,0.176646,-0.3354072,-0.126367,0.07966094,0.5983723,-0.2575109
1.033458,-0.3354337,-0.2850381,0.04395355,-0.2754123,-0.0369399,0.171904,0.6186243,-0.5715716
0.899232,-0.1974401,-0.2272812,-0.0904167,-0.1374043,0.02051275,0.1978576,0.261217,-0.6881457
0.7910871,-0.03720581,-0.1999616,-0.1987336,0.0229059,0.04755267,0.283005,0.07321128,-0.5985129
0.7768115,0.08942266,-0.2267668,-0.2131993,0.1496702,0.02049012,0.2947193,-0.1497802,-0.4173145
0.7962414,0.1288192,-0.2657467,-0.193966,0.189254,-0.01872704,0.2770242,-0.3186383,-0.2914672
0.7941225,0.08862242,-0.2488091,-0.1962765,0.1492841,-0.002007769,0.3297906,-0.2686822,-0.1526245
0.8357473,0.04407597,-0.2450912,-0.1548283,0.1049924,0.001510276,0.2902007,-0.2194312,-0.09771772
0.8709436,-0.02970569,-0.2501342,-0.1197854,0.03148435,-0.003714712,0.3125862,-0.1687176,-0.1361783
0.8630216,-0.03886413,-0.2403435,-0.1278315,0.02261241,0.005910948,0.3329474,-0.1183169,-0.07742528
0.8544407,0.02960001,-0.2498825,-0.1365021,0.09137197,-0.00377689,0.314209,-0.20854,-0.06092561
0.8806607,0.0625096,-0.248291,-0.1103333,0.1245812,-0.002318756,0.3371088,-0.2681169,-0.01077124
0.908348,0.1240436,-0.2466041,-0.08265505,0.1864125,-0.0007503785,0.2960465,-0.2255799,0.1358523
0.9296197,0.1183918,-0.2426649,-0.06134839,0.181047,0.003084232,0.3152004,-0.2181737,0.1824153
1.004113,0.06144266,-0.2192879,0.01322443,0.1243647,0.02636991,0.3350567,-0.2073286,0.2131238
1.048324,0.08779497,-0.2145641,0.05755602,0.1509569,0.03101402,0.3168053,-0.1420631,0.1857713
1.035605,0.07426235,-0.2111405,0.04499538,0.1376312,0.03436766,0.3343021,-0.03329528,0.08884158
1.052567,0.0694521,-0.2055693,0.06214717,0.1329894,0.03987633,0.2609238,0.03563967,0.01953752
1.060586,0.1068288,-0.2286075,0.07038231,0.170491,0.01678103,0.1146924,0.07321079,-0.02991054
1.055228,0.1259897,-0.2493063,0.06526031,0.1897283,-0.003971124,-0.08923459,0.2134851,0.001638871
1.15402,0.07077174,-0.3333826,0.1553822,0.118092,-0.09875622,0.0008930833,-0.03143631,0.2324618
1.119504,0.07226069,-0.3359968,0.1209532,0.1198204,-0.1011624,-0.1627517,0.4223116,0.385676
1.0269,-0.02998521,-0.3384025,0.02838021,0.01778186,-0.1033242,-0.2054791,0.4734708,0.3984416
0.9783792,-0.04168623,-0.3105264,-0.02016538,0.006254501,-0.07516642,-0.2734363,0.4520197,0.3935695
0.8729122,-0.0902753,-0.2111078,-0.1257081,-0.04219367,0.02457192,-0.2639467,0.275534,0.4194016
0.7424527,-0.1777156,-0.08528327,-0.2562863,-0.1295224,0.1507514,-0.2251748,0.07430736,0.4170098
0.7443981,-0.1111896,-0.09147705,-0.2544903,-0.06290861,0.1449403,-0.2456979,0.0006164706,0.4182693
0.7854545,-0.08211953,-0.1462887,-0.213599,-0.03376894,0.09052955,-0.262816,0.08560155,0.3982554
0.7521252,-0.09023724,-0.1115362,-0.2470953,-0.04183103,0.1256925,-0.3304948,0.2336042,0.3539755
0.7251877,-0.05945889,-0.1227631,-0.2741888,-0.01100828,0.1148778,-0.3605057,0.1498094,0.3723481
0.7245961,-0.07949501,-0.1210513,-0.2749124,-0.03100906,0.1169965,-0.2977521,0.04048473,0.3724118
0.7061785,-0.1010289,-0.0379459,-0.2934254,-0.0525147,0.200496,-0.2520433,-0.1294699,0.3122345
0.7508525,-0.1086703,-0.0202692,-0.2487982,-0.06013251,0.2185455,-0.2298871,-0.3717352,0.2174344
0.8289255,-0.09461556,-0.01059303,-0.1707135,-0.0460557,0.2285636,-0.2271777,-0.4543176,0.05285752
0.893765,-0.0780295,-0.0143474,-0.1057972,-0.02944661,0.22511,-0.2248145,-0.6186426,-0.1002588
1.003013,-0.07856645,-0.07430854,0.003594617,-0.02995761,0.1653994,-0.1865359,-0.8044857,-0.1361849
1.115659,-0.09154471,-0.1149501,0.1164487,-0.04290557,0.1249513,-0.1049291,-0.7432162,-0.05128608
1.256257,-0.1449824,-0.1511028,0.2573095,-0.09630673,0.08893097,0.001128236,-0.1799334,0.008785151
1.370304,-0.15009,-0.1178549,0.3716616,-0.1013687,0.1222481,0.01663846,0.6866063,-0.06730685
1.355496,-0.05324754,-0.0661167,0.3571796,-0.004468106,0.173991,-0.04775197,0.7510415,-0.1291898
1.3098,0.1126804,-0.07983859,0.3118126,0.161531,0.1602065,-0.07044996,-0.02169891,-0.06499274
1.284745,0.2083776,-0.06895934,0.2870691,0.2573074,0.1709525,-0.04291888,-0.5314534,0.1155822
1.32521,0.1039196,-0.1418008,0.3278142,0.1529266,0.09790441,0.08896516,-0.4441791,0.3161423
1.365412,-0.1264701,-0.306145,0.368249,-0.07739655,-0.06671953,0.3376173,-0.1357565,0.2725664
1.244799,-0.4207853,-0.369862,0.2478086,-0.3716558,-0.1307843,0.4580568,0.1593291,0.0297357
1.048626,-0.5440008,-0.3761034,0.05173603,-0.4948144,-0.1374314,0.2882354,0.4974054,-0.1135067
0.8735934,-0.3335598,-0.4197047,-0.1232699,-0.2842969,-0.1814845,-0.00615813,0.5106676,-0.1359443
0.7544595,-0.1071547,-0.4907563,-0.2424443,-0.05777927,-0.2530204,-0.3181305,0.007198924,-0.07417933
0.7630468,-0.002040139,-0.5366258,-0.2339514,0.04749028,-0.2993921,-0.5192541,-0.3503235,0.01974533
0.9030791,0.01146538,-0.5053448,-0.09405263,0.0611915,-0.2686147,-0.3149928,-0.2967955,0.09228175
1.060577,-0.1168828,-0.4523533,0.06328317,-0.0669251,-0.2161128,0.04950087,0.03982921,0.13616
1.070414,-0.2548296,-0.392433,0.07293407,-0.2046065,-0.1566555,0.2401554,0.4213179,-0.05149776
1.007145,-0.376173,-0.265397,0.009454717,-0.3256471,-0.03004731,0.4187061,0.4714635,-0.4122236
0.9817613,-0.4073727,-0.1755096,-0.01616355,-0.3564969,0.05945057,0.5218623,0.3121649,-0.662352
0.8728444,-0.2643723,-0.2023712,-0.1253355,-0.2130882,0.03223646,0.5323867,0.1255302,-0.7161189
0.7421106,-0.14903,-0.2237618,-0.2563387,-0.09727057,0.0105268,0.5652333,-0.03423137,-0.6205684
0.7258359,-0.04159,-0.2247317,-0.2728861,0.01071366,0.009268584,0.5515619,-0.1883589,-0.562018
0.7316596,0.0410018,-0.2512379,-0.2673245,0.09391463,-0.0174972,0.609579,-0.3548577,-0.464971
0.7508626,0.01502257,-0.2521315,-0.2483597,0.06860127,-0.0186227,0.6666857,-0.361966,-0.3198354
0.8086207,0.03674649,-0.2457608,-0.1908037,0.09103802,-0.01245708,0.6394485,-0.3122241,-0.3001793
0.8398542,0.04454865,-0.2527207,-0.1597271,0.09959026,-0.01959552,0.6347087,-0.2650008,-0.2110349
0.8547404,0.06411263,-0.2486317,-0.144946,0.1199319,-0.01565927,0.539258,-0.2398123,-0.08810827
0.8661247,0.1483536,-0.2443972,-0.1336108,0.2049679,-0.01155237,0.4244525,-0.2803104,0.006159637
0.8866181,0.1573147,-0.2307807,-0.113107,0.2147295,0.001960909,0.3729805,-0.2600316,0.1489609
0.9239828,0.1547928,-0.2079224,-0.07567057,0.2130008,0.02473901,0.3639617,-0.2947394,0.1840427
0.9578224,0.1430371,-0.2017364,-0.04169791,0.2020185,0.0308657,0.4160009,-0.3284106,0.2106954
1.008811,0.1203411,-0.2102746,0.00948324,0.1800647,0.0222865,0.3985327,-0.2704801,0.2195165
1.051667,0.1273242,-0.2226994,0.05258681,0.1877491,0.009836606,0.3316985,-0.1874451,0.1551636
1.070079,0.1199911,-0.2432584,0.07129703,0.181068,-0.01073355,0.1792765,0.0459892,0.1653123
1.091424,0.1433522,-0.2650469,0.09298069,0.2050239,-0.03252002,-0.1095082,0.3127139,0.1341142
1.121161,0.1516876,-0.2439344,0.1230903,0.2138892,-0.01139256,-0.3806448,0.4422757,0.04317331
1.189731,0.1071076,-0.1407389,0.1920579,0.1697672,0.09183022,-0.4565145,0.4590591,-0.1052001
1.248186,0.02698158,0.007593439,0.2509229,0.09002202,0.2401984,-0.02772273,0.3853894,-0.2664778
1.224034,-0.03474203,0.03509685,0.2271814,0.02859994,0.2677373,0.5859292,0.07267057,-0.2656847
1.187608,0.02844362,-0.1813956,0.1911533,0.09200879,0.05126917,0.6091925,-0.5311992,-0.2721575
1.175236,0.06212486,-0.4591298,0.1791553,0.1258362,-0.2264574,0.1792878,-0.7951749,-0.3126614
1.133098,-0.07489885,-0.5743615,0.1373582,-0.01111737,-0.341693,-0.09804813,-0.4236415,-0.2694438
1.066357,-0.2754997,-0.5643382,0.0709203,-0.2117203,-0.3316716,-0.07400819,0.03921017,-0.2103201
1.001432,-0.4085708,-0.4726507,0.006255122,-0.3448548,-0.2399681,0.0153383,0.3713224,-0.1568344
0.9730073,-0.3901324,-0.3118595,-0.02195085,-0.3265236,-0.07913042,0.1202149,0.4838527,-0.2098912
1.016167,-0.2512163,-0.2316157,0.02138764,-0.1877392,0.001196188,0.3128531,0.1393471,-0.2753021
1.097754,-0.06764733,-0.2717046,0.103115,-0.004312201,-0.03877311,0.2267929,-0.287249,-0.1466216
1.18672,0.06419308,-0.3401426,0.1921816,0.127382,-0.1070558,-0.06723478,-0.3121357,0.05624097
1.209017,0.06761037,-0.4390582,0.2145359,0.1306477,-0.2057792,-0.1785282,0.0319033,0.243262
1.107206,0.01920629,-0.4792049,0.1127316,0.08208186,-0.2456922,-0.3912874,0.4899439,0.3761165
0.9944099,-0.02725266,-0.3782852,-0.0001120345,0.03544701,-0.1444906,-0.5803232,0.6402323,0.3846615
0.9061662,-0.1005567,-0.2811197,-0.08845607,-0.03804846,-0.04699004,-0.5252585,0.5212975,0.3884801
0.7908132,-0.163465,-0.2048596,-0.203956,-0.1011618,0.02965862,-0.5308014,0.4626285,0.4317148
0.7277064,-0.1678208,-0.1049878,-0.2672453,-0.1057317,0.129968,-0.4596774,0.3338344,0.4216391
0.7442017,-0.1313458,-0.08702996,-0.2509535,-0.06947374,0.1484038,-0.4050148,0.2538694,0.397356
0.7400895,-0.09703197,-0.1057709,-0.2552753,-0.03537498,0.1301706,-0.5044564,0.2621055,0.3768004
0.7039633,-0.07368885,-0.09360653,-0.2916025,-0.01224163,0.1428618,-0.4989349,0.09164117,0.3277481
0.7053083,-0.06142163,-0.1081356,-0.2904361,-0.0001773263,0.1288688,-0.495909,-0.0552518,0.3082244
0.7258373,-0.0730186,-0.0981734,-0.2700498,-0.01196978,0.1393671,-0.4398243,-0.1272503,0.3138026
0.7550702,-0.07484003,-0.05679855,-0.2409117,-0.01397883,0.1812693,-0.3220262,-0.2058892,0.2879424
0.8262649,-0.05455279,-0.05982261,-0.169754,0.006129031,0.1787549,-0.3237476,-0.1995395,0.2077295
0.9021573,-0.04241236,-0.05735485,-0.09383474,0.01809834,0.1817055,-0.3533468,-0.2257004,0.07407104
0.9718655,-0.04216567,-0.04657022,-0.02403379,0.01818154,0.1929373,-0.3941453,-0.3228262,-0.0413667
1.056719,-0.06625444,-0.06118812,0.06097616,-0.006063891,0.1787228,-0.3671954,-0.4481153,-0.07341238
1.165762,-0.09858288,-0.05404976,0.1702333,-0.03854235,0.1862133,-0.2990242,-0.428597,-0.02658061
1.266019,-0.09967713,-0.04324707,0.2707514,-0.03977903,0.1973099,-0.226776,-0.06362795,0.004988601
1.277208,-0.04952993,-0.02431169,0.2822336,0.01023465,0.2164746,-0.1158481,0.2989451,-0.04634834
1.253299,0.05105548,0.01161743,0.2586333,0.1106953,0.2525615,-0.1481558,0.1958688,-0.07042317
1.271987,0.1127026,-0.004778469,0.2776286,0.1722229,0.2362449,-0.1029692,-0.3005216,0.03917308
1.31041,0.04701934,-0.1022235,0.3163439,0.106419,0.1387943,0.2389501,-0.6199072,0.2921682
1.361482,-0.1411969,-0.2975264,0.3676767,-0.08192402,-0.05660144,0.5537822,-0.3387953,0.4736329
1.349033,-0.3488396,-0.4577354,0.3554423,-0.2896986,-0.2169855,0.5152867,0.2530888,0.2361307
1.185327,-0.3996535,-0.423456,0.1918904,-0.3406401,-0.1829514,0.102561,0.7128412,-0.1198376
0.9629656,-0.3198975,-0.3769325,-0.030388,-0.2609929,-0.1367288,-0.3391661,0.8136922,-0.1070462
0.8207053,-0.2202046,-0.4208668,-0.1726342,-0.1613766,-0.1810059,-0.577409,0.2925593,-0.0163633
0.7681018,-0.0329094,-0.4101321,-0.2252839,0.02588231,-0.1706435,-0.5921226,-0.4746935,0.0137081
0.8293905,0.04634061,-0.4047888,-0.1640879,0.1051372,-0.16569,-0.3060279,-0.6217105,0.1893248
1.028985,-0.1648228,-0.4440677,0.03537918,-0.1059841,-0.2053649,0.1012994,-0.2543711,0.2328926
1.191609,-0.3643818,-0.433402,0.1978459,-0.3054646,-0.1950905,0.2584855,0.1962887,-0.008977668
1.195507,-0.4283704,-0.4020719,0.201556,-0.3693316,-0.1641361,0.1911172,0.6364457,-0.357457
1.069077,-0.3733943,-0.3171643,0.074901,-0.3141784,-0.07958016,0.2326112,0.6158248,-0.660562
0.8716211,-0.2120144,-0.2064122,-0.1228192,-0.1525543,0.03084945,0.3153972,0.2519517,-0.7317543
0.746403,-0.1102089,-0.1932563,-0.2483366,-0.05043142,0.04371249,0.3466269,0.01201787,-0.6136198
0.6983909,-0.002919129,-0.2144328,-0.2966708,0.05724853,0.02227037,0.4362395,-0.260066,-0.4691052
0.6896992,0.03710352,-0.2229942,-0.3056914,0.09772793,0.01346769,0.4520279,-0.429585,-0.3537559
0.7689886,-0.04433183,-0.2393149,-0.2267217,0.01680702,-0.003071897,0.4934154,-0.3706084,-0.2774555
0.8368884,-0.03251406,-0.2582759,-0.159119,0.02918856,-0.0222308,0.5827621,-0.2809209,-0.22767
0.8342547,-0.03236432,-0.2622642,-0.1620175,0.02994458,-0.02639626,0.5636609,-0.1118424,-0.209576
0.8195036,-0.03270554,-0.2418384,-0.1769939,0.03024594,-0.006126936,0.5836522,-0.04360835,-0.1607513
0.8223557,0.05804221,-0.2423095,-0.1743209,0.121666,-0.006734147,0.5318879,-0.1432078,-0.06172218
0.8378284,0.1268746,-0.2234219,-0.1589755,0.1911922,0.01203702,0.3937799,-0.1603241,0.06910897
0.8754718,0.1597499,-0.1909719,-0.1214024,0.2247714,0.04438882,0.3711878,-0.1896448,0.1991664
0.9610691,0.1187219,-0.1973779,-0.03581561,0.184445,0.03790038,0.3926979,-0.2655045,0.2152256
0.9966164,0.1081499,-0.1932873,-0.000219309,0.17456,0.04192158,0.4086477,-0.2674062,0.1688527
1.00208,0.1421669,-0.2088008,0.005349833,0.209239,0.02634882,0.3308386,-0.1819242,0.1359842
1.081524,0.1227362,-0.2421887,0.08495071,0.1904354,-0.007090124,0.1550771,0.02899325,0.1022597
1.115056,0.1581968,-0.2588713,0.118686,0.2264787,-0.02381667,-0.08911897,0.286854,0.09323541
1.099857,0.1977455,-0.258721,0.1037254,0.2665562,-0.02370293,-0.4300215,0.4810291,0.04098442
1.143235,0.1988461,-0.174396,0.1473702,0.2681216,0.06059305,-0.5537975,0.5445861,-0.09872989
1.209052,0.1295248,-0.03660241,0.2134712,0.1991915,0.1983628,-0.1969954,0.4540465,-0.2191147
1.251062,-0.02303632,0.02419661,0.2557709,0.04694108,0.2591363,0.3833232,0.1074867,-0.2620094
1.24199,-0.04198781,-0.08952262,0.2469828,0.02821815,0.14538,0.5593361,-0.5860025,-0.3081745
1.199095,0.005879345,-0.2940888,0.204353,0.07623382,-0.05924274,0.1033973,-1.072277,-0.3682672
1.135299,-0.02117024,-0.4565879,0.1407909,0.04925548,-0.2218182,-0.367957,-0.9036366,-0.3490414
1.060986,-0.0990267,-0.5794785,0.06667583,-0.02860402,-0.3447965,-0.3558783,-0.3391506,-0.2611478
1.063301,-0.2805029,-0.5528109,0.06914758,-0.2101517,-0.3182135,-0.06498547,0.4323215,-0.1991201
1.092798,-0.4422965,-0.4116157,0.09875983,-0.3720733,-0.1770845,0.2181798,0.8171972,-0.251977
1.065377,-0.4238307,-0.3317818,0.07140982,-0.3537739,-0.09728696,0.370194,0.3572935,-0.3254638
1.072323,-0.25774,-0.2814664,0.07838152,-0.187868,-0.0469726,0.1972652,-0.1178203,-0.2498618
1.118756,-0.02811808,-0.3108049,0.1247939,0.04156505,-0.07627488,-0.1548087,-0.1819091,-0.07929428
1.160926,0.1432272,-0.380067,0.1668959,0.2127219,-0.1454623,-0.4343285,0.03249506,0.1766942
1.185862,0.1618049,-0.4008158,0.1917118,0.2311071,-0.1660955,-0.7167779,0.6364797,0.4368659
1.09757,0.07456719,-0.4222483,0.1032434,0.1436636,-0.1873669,-0.7824048,0.948804,0.4762343
0.9485637,-0.03717069,-0.3159796,-0.04599792,0.03169956,-0.08088693,-0.6590887,0.724583,0.4414431
0.8356017,-0.1477505,-0.1539796,-0.1592491,-0.07912917,0.08137588,-0.6266826,0.5317452,0.4731356
0.7388187,-0.1836747,-0.09868362,-0.2563662,-0.115322,0.1369821,-0.5048568,0.2518872,0.4762654
0.6996145,-0.1440118,-0.08157933,-0.295935,-0.07594115,0.154435,-0.4488149,-0.008528103,0.4695285
0.7086115,-0.1071394,-0.1114324,-0.2873162,-0.03935804,0.1249583,-0.5436892,0.0129921,0.4383705
0.7264766,-0.0529433,-0.1217642,-0.2698262,0.0145457,0.1150205,-0.5383761,-0.001310804,0.4096936
0.7579279,-0.02634256,-0.09458285,-0.2387321,0.04085278,0.1426045,-0.5276195,-0.08047125,0.4338861
0.7716217,-0.06596223,-0.0815238,-0.2253644,0.0009382177,0.1560665,-0.4903084,-0.04579755,0.4525732
0.7784718,-0.08680797,-0.03809549,-0.2187988,-0.02020353,0.1998889,-0.4025246,-0.02081192,0.439419
0.8050611,-0.08757807,-0.03086133,-0.1924432,-0.02126962,0.2074989,-0.38522,-0.07734069,0.3226718
0.8563606,-0.08266815,-0.03982406,-0.1413192,-0.01665395,0.1988837,-0.4278234,-0.1022901,0.1252703
0.9138665,-0.06752413,-0.02498426,-0.08392618,-0.001800883,0.2140335,-0.4681437,-0.2163493,0.01729935
0.9625616,-0.09929259,-0.03117636,-0.03527955,-0.03385573,0.2081049,-0.3856214,-0.5118875,0.03650084
1.053831,-0.1536764,-0.03162036,0.05600365,-0.0885195,0.2078698,-0.1909837,-0.6876273,0.09449767
1.179721,-0.172338,-0.04075267,0.181965,-0.1074514,0.1988845,0.02715039,-0.4036236,0.1229597
1.273945,-0.1569975,-0.04401277,0.2763069,-0.09236678,0.1957031,0.1191509,0.1871742,0.08901847
1.320211,-0.08268181,-0.02217724,0.322722,-0.01828828,0.2175434,0.02924812,0.3466936,0.01401938
1.315412,0.0151254,-0.02149768,0.3180871,0.07930193,0.2181485,0.04801675,-0.105991,0.03447159
1.322275,0.01805836,-0.09851478,0.3251096,0.08203613,0.140973,0.2582187,-0.514083,0.1972617
1.405256,-0.09114825,-0.2558253,0.4082287,-0.02735461,-0.01658155,0.5379584,-0.3900894,0.3183648
1.435259,-0.2040463,-0.3558134,0.4383314,-0.1404233,-0.1168955,0.670324,0.1932543,0.1780185
1.302496,-0.2314566,-0.3484236,0.3056105,-0.1679876,-0.1099041,0.3216542,0.7338788,-0.1266215
1.073106,-0.1888433,-0.3102329,0.0761929,-0.1255056,-0.07217314,-0.2004543,0.7883706,-0.2305605
0.8268344,-0.09816087,-0.2894013,-0.1701808,-0.03492583,-0.05185209,-0.4483374,0.2360009,-0.1332645
0.6934317,0.0287916,-0.3292692,-0.3037524,0.09195409,-0.09227286,-0.5046531,-0.4659031,0.02025239
0.7360797,0.05730041,-0.409802,-0.2613245,0.1204175,-0.1733916,-0.3690834,-0.8083978,0.2418349
0.8931328,-0.09063362,-0.4909418,-0.1045257,-0.0275404,-0.2551394,-0.1397517,-0.7512656,0.3256046
1.118265,-0.2629295,-0.5243486,0.1203292,-0.1998411,-0.2891623,-0.03496949,-0.1483198,0.1854466
1.219849,-0.3434832,-0.4345685,0.2216166,-0.2803767,-0.1999911,0.06418456,0.5572691,-0.06472451
1.113203,-0.3301412,-0.2926756,0.1146479,-0.266984,-0.05868723,0.1821304,0.6424878,-0.378338
0.9819967,-0.2331177,-0.2188405,-0.0169094,-0.1698667,0.01458559,0.2021105,0.3581132,-0.5526807
0.8247744,-0.1101908,-0.1932607,-0.1745112,-0.04679602,0.03963134,0.1795033,0.1322133,-0.489794
0.6736113,-0.01489593,-0.1934135,-0.3260741,0.04869448,0.03897126,0.1685611,-0.1097612,-0.4093708
0.6897921,-0.007475837,-0.2080495,-0.3102989,0.05635835,0.02385236,0.1614712,-0.4425611,-0.3482794
0.742344,-0.05130611,-0.1954058,-0.2581418,0.01281402,0.03603546,0.2104512,-0.6169114,-0.2503197
0.7810861,-0.04445127,-0.1941828,-0.2197688,0.01999134,0.03681813,0.3477926,-0.6369764,-0.2584622
