accx,accy,accz,body_accx,body_accy,body_accz,body_gyrox,body_gyroy,body_gyroz
1.080456,-0.09935027,0.1233657,0.105897,-0.0131468,-0.187202,-0.3177788,0.06605369,-0.5827759
1.023459,-0.1315713,0.04401104,0.04869782,-0.04537295,-0.2654527,-0.5017653,0.2527015,-0.5382078
1.03871,-0.2470499,0.1421137,0.06371154,-0.1608918,-0.1662495,-0.2342912,0.3792303,-0.5030752
1.126034,-0.3178526,0.3114231,0.1507598,-0.2317614,0.004163915,0.1508312,0.418941,-0.3283596
1.216859,-0.3235842,0.4110893,0.2412705,-0.2375751,0.1049382,0.4219698,0.4834685,0.005436557
1.165197,-0.281043,0.4251914,0.1892503,-0.1951186,0.1201475,0.5414375,0.4563001,0.1853695
1.054695,-0.1677569,0.36212,0.07833825,-0.08190889,0.05817474,0.3874478,0.4127758,0.1815988
0.9529793,-0.04052735,0.2614864,-0.02383899,0.04525884,-0.04137514,0.1630953,0.431035,0.1727374
0.8398795,0.004412997,0.2063056,-0.1374491,0.09015235,-0.09548951,-0.1173109,0.4180599,0.1793098
0.7800776,-0.02062188,0.19801,-0.1978009,0.06508218,-0.1027347,-0.4697222,0.4033551,0.1636846
0.7299259,-0.05604539,0.22739,-0.2485296,0.02963069,-0.07231741,-0.489305,0.3990423,0.1277287
0.6969245,-0.1012877,0.2840373,-0.2821203,-0.01563509,-0.01464365,-0.3933114,0.3226934,0.1338445
0.7290128,-0.1478653,0.3321003,-0.2506178,-0.06223211,0.0344349,-0.3695278,0.1915633,0.1732828
0.7467212,-0.1672493,0.351063,-0.233477,-0.08163002,0.05440014,-0.1731944,0.07630452,0.1991308
0.7613222,-0.1874717,0.329498,-0.2194124,-0.1018575,0.03382094,-0.03990513,0.03657565,0.1887536
0.7721039,-0.1880027,0.3411123,-0.2091252,-0.1023808,0.04640066,0.06296614,0.04752187,0.1345925
0.7517324,-0.1287916,0.394046,-0.2299395,-0.04314546,0.1002756,0.265476,-0.01021458,0.09266334
0.756558,-0.06618077,0.4279837,-0.2254963,0.01950824,0.1351256,0.3364287,-0.1063812,0.05940356
0.7796787,-0.01143345,0.4460121,-0.2026895,0.07431626,0.1540312,0.3455484,-0.1909928,0.03850906
0.8572249,0.04050242,0.4367701,-0.1253821,0.1263268,0.1456243,0.2566504,-0.2260483,0.03220259
1.005189,0.05315484,0.4488129,0.02242098,0.1390618,0.158453,-0.02077182,-0.09252749,0.00628418
1.079112,0.02982621,0.4619213,0.09625864,0.1158165,0.1722917,-0.2249339,0.0280732,0.008494231
1.05087,0.007328788,0.4524746,0.06799953,0.09339643,0.1635132,-0.2609205,-0.002756781,0.0105399
1.03662,0.01763634,0.5112506,0.05379178,0.10377,0.2228892,-0.2638126,0.03066976,-0.03049159
1.040097,0.02869072,0.5696757,0.05736276,0.1148745,0.2818388,-0.2872238,0.1228705,-0.116954
1.023428,0.01947698,0.5998188,0.04083254,0.1056904,0.3124223,-0.2832084,0.1779082,-0.237192
1.063184,-0.04212783,0.6132556,0.08076637,0.04409086,0.3262051,-0.229491,0.3328903,-0.2458317
1.134795,-0.1839191,0.5107955,0.1525861,-0.09772068,0.2239869,-0.08026996,0.4318891,-0.1047178
1.137563,-0.3273977,0.3643624,0.155586,-0.2412412,0.07768536,0.1809759,0.1043656,0.09627396
1.137948,-0.4714612,0.3015453,0.1562165,-0.385358,0.01488916,0.4227009,-0.2059789,0.2763782
1.102901,-0.5506705,0.2934374,0.1214178,-0.464615,0.006696178,0.7136799,0.05421932,0.2987051
0.9323052,-0.438643,0.2368932,-0.0489323,-0.3526099,-0.05003179,0.9907451,0.2647342,0.138983
0.7768923,-0.2885038,0.1762025,-0.2041046,-0.2024497,-0.1109959,0.8738767,0.04660226,-0.08335041
0.7771854,-0.2172947,0.1919254,-0.2035706,-0.131165,-0.09562499,0.5204623,-0.1927043,-0.1866154
0.8633278,-0.1503035,0.1755901,-0.1171789,-0.06403851,-0.1123791,0.2460344,-0.4478927,-0.07080935
0.9455922,-0.09087455,0.1439838,-0.03465003,-0.004414188,-0.1444595,0.1529983,-0.5474212,0.0977995
1.009318,-0.1087911,0.1694139,0.02935695,-0.02207795,-0.119547,0.3545655,-0.3782419,0.2120204
0.9951905,-0.1954407,0.2057679,0.01552755,-0.1084205,-0.08374321,0.5810807,-0.4145621,0.28362
0.8909337,-0.2312149,0.2569024,-0.08841766,-0.1438347,-0.03318251,0.8001432,-0.5008182,0.2276143
0.8131258,-0.2210553,0.2679463,-0.1658997,-0.1332611,-0.02272971,1.086473,-0.4781328,0.1692635
0.7875601,-0.213243,0.2338368,-0.1911209,-0.124979,-0.0574425,1.186604,-0.5986394,0.2201534
0.8211943,-0.1512494,0.22606,-0.1571176,-0.06245891,-0.06583022,1.29329,-0.6244882,0.2260256
0.8881358,-0.09407099,0.2174232,-0.0897768,-0.00469813,-0.07508027,1.373394,-0.6097872,0.2560175
0.9213343,-0.04024076,0.2071062,-0.05614557,0.04976632,-0.08600728,1.301966,-0.6390503,0.3506558
0.971684,0.03692511,0.1983029,-0.005329594,0.1276115,-0.09541188,1.261309,-0.4922299,0.360509
0.9969328,0.06722742,0.1793022,0.02041708,0.1586286,-0.1149994,1.018041,-0.3270016,0.3570791
0.9896823,0.1009881,0.1821596,0.01369234,0.1931281,-0.1127083,0.7170283,-0.1702636,0.3734716
0.9965887,0.1105473,0.2046094,0.02114816,0.2034372,-0.0907988,0.5654415,-0.06531426,0.3867436
0.9704398,0.0756734,0.2373682,-0.00443168,0.1693117,-0.0585495,0.4458443,-0.05752155,0.4440519
0.9749465,0.06151558,0.2763447,0.0006602614,0.1558895,-0.02004892,0.4964483,-0.02982604,0.4981316
0.9914195,0.02753613,0.3018921,0.01773181,0.1226232,0.005057185,0.5717343,-0.0840327,0.5235118
0.993608,0.001904068,0.3159618,0.02052914,0.09767458,0.0187194,0.6325852,-0.1117629,0.4559148
1.023469,-0.02208553,0.3369168,0.05100559,0.07433313,0.03929893,0.6962494,-0.07920531,0.2700802
1.013344,-0.04575644,0.374786,0.04149882,0.05127146,0.07682151,0.690203,-0.1085634,0.08854397
1.012999,0.01684173,0.4008258,0.04177149,0.1144373,0.1025394,0.8480535,-0.1806767,-0.03216398
1.031272,0.09169729,0.3961512,0.06065622,0.1898155,0.09756261,0.9431962,-0.3225338,-0.05265164
1.029511,0.1199768,0.3846084,0.05949715,0.2185669,0.08573145,0.8197495,-0.3832453,-0.003943286
1.104751,0.1110697,0.3542015,0.1353268,0.2100732,0.05504546,0.6235394,-0.3366065,-0.02691343
1.243871,0.03084545,0.2913381,0.2750151,0.1301968,-0.008091065,0.2061576,-0.2142964,-0.2001512
1.308342,-0.05439429,0.2081742,0.340024,0.04523471,-0.09152269,-0.2495139,0.005639114,-0.5055413
1.197291,-0.05527161,0.09291016,0.2294675,0.04456421,-0.2070457,-0.6174447,0.08849886,-0.7295919
1.040054,-0.06624623,0.01184964,0.07266899,0.03372737,-0.2883487,-0.9637743,0.1199737,-0.7320564
0.9972296,-0.1617156,0.07832391,0.03022116,-0.06167006,-0.2220895,-0.9796429,0.2029039,-0.67306
1.019828,-0.1918155,0.194764,0.05313505,-0.09175835,-0.1058263,-0.682894,0.1772775,-0.5728844
1.121486,-0.1724086,0.2556963,0.1550474,-0.07239273,-0.04502679,-0.3874757,0.2334418,-0.3172613
1.230777,-0.215248,0.3528679,0.2645299,-0.115318,0.05205752,-0.1980953,0.3521684,-0.02185147
1.162815,-0.1843669,0.3584752,0.196691,-0.08455901,0.05762001,-0.2939507,0.3033531,0.0904542
0.9770497,-0.06125585,0.2218791,0.0109741,0.03840065,-0.07898265,-0.5574931,0.2932943,0.03700311
0.820858,0.02836136,0.2001626,-0.1452429,0.1278406,-0.1006695,-0.7614939,0.3696208,0.05412378
0.7870063,0.009087191,0.2079391,-0.1791856,0.1083622,-0.09282608,-1.037755,0.3897441,0.106064
0.828811,-0.0952251,0.2000708,-0.1375256,0.003816464,-0.1005883,-1.15718,0.4493891,0.04646972
0.7920475,-0.1363261,0.2706796,-0.174475,-0.03754718,-0.02983279,-1.085838,0.5003301,0.01318714
0.773651,-0.1427213,0.2734958,-0.1930867,-0.04423122,-0.02682919,-1.088215,0.4263085,0.0332471
0.8189426,-0.1694823,0.2907252,-0.1480278,-0.07130248,-0.009373519,-0.9209178,0.3234882,0.05315791
0.7917689,-0.1881816,0.3409545,-0.1754411,-0.09032799,0.04111823,-0.689582,0.2843936,0.1011531
0.7873021,-0.2106358,0.3363103,-0.1801444,-0.1131182,0.03676859,-0.5295097,0.214227,0.09715381
0.7907051,-0.1614582,0.3557247,-0.1769655,-0.06428001,0.0565047,-0.336789,-0.008587349,0.08907315
0.7336564,-0.09965037,0.3541025,-0.2342166,-0.002809634,0.05522613,-0.2607746,-0.228853,0.126878
0.7604,-0.07316598,0.3628782,-0.2076444,0.02334182,0.06436198,-0.1828554,-0.2642816,0.115549
0.8475499,-0.004123719,0.3713809,-0.1206259,0.09205569,0.07323601,-0.1728791,-0.1538615,0.08836771
0.9455866,0.04255538,0.3631701,-0.02267544,0.1384084,0.06540248,-0.2676237,-0.00530037,0.0239304
0.9929369,0.04051619,0.4006819,0.02463487,0.1360401,0.1032922,-0.3064426,0.03259301,-0.1157252
0.9863274,0.02041967,0.3948305,0.018029,0.1156061,0.09781408,-0.46628,-0.09202078,-0.2053917
1.095433,0.02733508,0.4016634,0.1271773,0.1221708,0.1050097,-0.5923841,-0.189601,-0.2262229
1.154518,0.03116993,0.429768,0.1863366,0.1256372,0.133461,-0.5987527,-0.04884036,-0.248895
1.073068,-0.01159635,0.4521083,0.1049832,0.08248109,0.1561258,-0.5997088,0.1843096,-0.2830972
1.053998,-0.009372331,0.5290792,0.08602299,0.08429105,0.2333921,-0.5076691,0.3068484,-0.2981426
1.078228,-0.07454214,0.5178825,0.1103695,0.0186817,0.2224529,-0.3808149,0.3842424,-0.2378255
1.129492,-0.2487911,0.4276719,0.1617507,-0.1560307,0.1324536,-0.1451759,0.3353119,-0.08526379
1.194592,-0.3746429,0.3613338,0.2269608,-0.282363,0.06627422,0.1180907,0.2394149,0.1255468
1.193863,-0.4492668,0.3181646,0.2263243,-0.3574711,0.02320935,0.3477647,0.318093,0.2393992
1.15621,-0.4774138,0.3130674,0.1887374,-0.3860886,0.01816299,0.7161898,0.3898999,0.1031534
1.033773,-0.4393292,0.2699513,0.0663314,-0.348442,-0.0249531,0.8400489,0.3751711,-0.1016916
0.8438362,-0.2973518,0.2066189,-0.1236122,-0.2068535,-0.0883321,0.5063841,0.1460083,-0.1692832
0.8294243,-0.1310398,0.1640368,-0.1380659,-0.04087021,-0.131001,0.09506632,-0.3259785,-0.1420955
0.9827421,-0.07079033,0.1187078,0.01518275,0.0191142,-0.1764481,-0.06449653,-0.4371496,0.01261753
1.041275,-0.09314003,0.1245537,0.07362419,-0.003439076,-0.1707416,0.05545828,-0.1880258,0.2311798
1.012196,-0.1761488,0.1800402,0.0444317,-0.08659333,-0.1154054,0.154319,-0.1496369,0.2664578
0.9385714,-0.2343232,0.2613721,-0.02932877,-0.1448563,-0.03422681,0.3020954,-0.3345648,0.1429972
0.8076638,-0.2537539,0.2988217,-0.1603917,-0.1643172,0.003071302,0.6479672,-0.5239098,0.06417703
0.7769473,-0.2293219,0.2404518,-0.191277,-0.1398534,-0.05544642,0.8643042,-0.5793703,0.08083207
0.820581,-0.145919,0.1939077,-0.147816,-0.05635448,-0.1021326,0.9560697,-0.5931874,0.1251207
0.8493948,-0.1211238,0.1811571,-0.1191697,-0.03139865,-0.1150157,1.046846,-0.6513004,0.1824063
0.9057793,-0.05918382,0.1712944,-0.06294079,0.03076378,-0.1249965,1.029394,-0.5801533,0.2633746
0.9583196,0.02344374,0.1778841,-0.01053982,0.1136701,-0.1185049,0.9911455,-0.4508189,0.2985089
0.9844852,0.04367558,0.1755236,0.01550389,0.1342288,-0.1209386,0.9068057,-0.3317621,0.2850169
0.9908772,0.102616,0.1808286,0.02179072,0.1935334,-0.1156773,0.6511216,-0.1802697,0.2650055
0.9941166,0.1089092,0.197286,0.02493985,0.2002162,-0.09923012,0.3182711,-0.09449463,0.2396297
0.9888467,0.08705527,0.2200718,0.01959267,0.1787646,-0.07641807,0.06368025,-0.01093274,0.2453714
0.9733367,0.07524813,0.2625412,0.004016551,0.1673609,-0.03388421,0.02535321,0.03195788,0.306329
0.9769672,0.02625089,0.2733815,0.00759093,0.1187582,-0.02294138,0.1619725,-0.04722787,0.4057795
0.9815901,0.01720815,0.2657881,0.0121666,0.1100933,-0.03039547,0.3261003,-0.07649932,0.4599827
1.007579,-0.03049537,0.2971212,0.03811569,0.06274527,0.001112137,0.5057093,-0.04299649,0.4064251
1.033456,-0.07920165,0.3222027,0.06395943,0.01436845,0.02640064,0.627435,-0.01358606,0.2788447
1.020796,-0.03834719,0.3170501,0.05126901,0.05552482,0.02148415,0.6525027,-0.004883174,0.0783731
1.017195,0.007251612,0.3320139,0.04763783,0.1013967,0.03670935,0.6718389,-0.09867112,-0.08331831
1.01908,0.08477108,0.3569081,0.04949015,0.1791576,0.06188602,0.6333977,-0.2843648,-0.06865921
1.02975,0.1659978,0.3476963,0.06012306,0.2605881,0.05297284,0.4809621,-0.4521617,-0.04718241
1.107172,0.1515748,0.3154158,0.1375001,0.2463228,0.02100275,0.2085531,-0.4666162,-0.1400414
1.252739,0.07365036,0.2712989,0.2830093,0.1685007,-0.02279549,-0.1712037,-0.2906994,-0.2861986
1.323691,0.01283457,0.2192202,0.3538801,0.1077254,-0.0745485,-0.5640767,-0.06475666,-0.4890533
1.232808,0.005824461,0.1437002,0.2628818,0.1006905,-0.1497344,-1.011591,0.1115165,-0.5877638
1.13359,-0.01181092,0.03981907,0.1634996,0.08296442,-0.2532686,-1.360443,0.3311795,-0.531374
1.092833,-0.139691,0.04760693,0.1225245,-0.04507127,-0.2451129,-1.276902,0.5004876,-0.5299475
1.078355,-0.3029162,0.2193657,0.1077699,-0.208512,-0.0729568,-0.9249558,0.4192257,-0.4879645
1.144286,-0.3222874,0.3658285,0.1733637,-0.2281477,0.0739369,-0.562042,0.3781922,-0.3012447
1.197524,-0.2415484,0.3767198,0.2262028,-0.1477083,0.08529006,-0.3549487,0.455436,-0.1123737
1.108431,-0.1751516,0.3013482,0.1366443,-0.08163368,0.01040499,-0.46754,0.3921875,0.01276824
0.9712592,-0.09074606,0.2207756,-0.001060862,0.002435626,-0.0696612,-0.6235165,0.3935734,0.05043527
0.8911531,-0.02964905,0.1680322,-0.08176562,0.06318626,-0.12188,-0.7579096,0.467654,0.08847758
0.850978,-0.06115721,0.1570141,-0.1225967,0.03132235,-0.1323534,-0.9607076,0.4748634,0.1333393
0.8166541,-0.1026946,0.207252,-0.1576231,-0.01058028,-0.08154784,-0.9681903,0.5260756,0.06238344
0.7766806,-0.107555,0.2440724,-0.198333,-0.01581445,-0.04413482,-0.9287906,0.5274903,-0.006059589
0.7618745,-0.1306416,0.2733402,-0.2138959,-0.03928108,-0.01424945,-0.9269847,0.5011498,-0.02561983
0.7782745,-0.1417647,0.3124163,-0.1982592,-0.0507876,0.02546708,-0.8075776,0.4426275,-0.06374522
0.7829892,-0.1307372,0.2985888,-0.1943012,-0.04014353,0.01229953,-0.7515814,0.2748325,-0.06897336
0.786914,-0.1368904,0.3174592,-0.1911148,-0.04667667,0.03184529,-0.6583341,0.1636572,-0.06838461
0.7914113,-0.1081692,0.3646975,-0.1873269,-0.01832903,0.07976978,-0.4661188,0.08562871,-0.04733034
0.7751817,-0.05161185,0.390816,-0.2042272,0.03786284,0.1065799,-0.3450037,-0.0247536,0.01221304
0.7708348,0.001718527,0.4245031,-0.209197,0.09083567,0.1409569,-0.2885538,-0.1527316,0.04442297
0.7954982,0.04888319,0.4089281,-0.1850999,0.1376478,0.1260622,-0.3473182,-0.2267608,0.06171527
0.8628425,0.05022934,0.4033269,-0.1182582,0.1386416,0.121124,-0.4468186,-0.1206665,0.05116224
0.9644037,0.03446767,0.4204802,-0.01713182,0.1225218,0.1389156,-0.5449811,-0.0483365,0.01112197
1.035553,0.005285298,0.4009088,0.05365048,0.09297057,0.1199516,-0.6235263,-0.1328499,-0.03436801
1.081286,-0.02969823,0.4076909,0.09907855,0.05760368,0.1273038,-0.5840539,-0.1622381,-0.09836037
1.113431,-0.00440897,0.4251155,0.1309754,0.08249297,0.145256,-0.5892451,-0.05502372,-0.1965916
1.109383,0.008060689,0.4555217,0.1267248,0.09454443,0.1761416,-0.6399044,0.1183396,-0.3329032
1.14757,-0.09164238,0.4868887,0.1647475,-0.005596355,0.2079338,-0.6118796,0.2557039,-0.3602882
1.241429,-0.2522551,0.4369376,0.2584676,-0.1666648,0.1583468,-0.4701418,0.2719777,-0.1923995
1.261275,-0.3843339,0.3602322,0.2781899,-0.2992103,0.08193913,-0.1421213,0.1938345,0.02560144
1.204111,-0.4679562,0.3209463,0.2209022,-0.3832966,0.04288251,0.1973121,0.2012331,0.1257215
1.109915,-0.4878743,0.3056935,0.1265723,-0.4036579,0.02779123,0.4365651,0.3853282,0.05210151
0.9351258,-0.4235804,0.2600555,-0.04836926,-0.3397675,-0.01775044,0.5862818,0.525138,-0.06792594
0.8050504,-0.3075564,0.1848538,-0.1786152,-0.2240907,-0.09291638,0.5255481,0.3327637,-0.2040044
0.8592173,-0.1605864,0.1644754,-0.1246309,-0.07740071,-0.1133124,0.3265849,-0.06488832,-0.3088772
0.9724679,-0.06265744,0.1502753,-0.01156738,0.02031914,-0.1275749,0.1119111,-0.2817246,-0.1576349
1.027028,-0.09712946,0.1205928,0.04280556,-0.01429296,-0.1573548,-0.02081569,-0.3108573,0.04947845
1.009576,-0.1561893,0.1734639,0.0251675,-0.07342763,-0.1046064,0.007683226,-0.279318,0.0738638
0.9124165,-0.1849978,0.2419049,-0.07217872,-0.102248,-0.03630489,0.07222143,-0.2576852,0.06313676
0.8197889,-0.217135,0.250501,-0.1649903,-0.1343343,-0.02785975,0.2141885,-0.3397237,0.02659053
0.7882772,-0.1888883,0.2425916,-0.1966775,-0.1059731,-0.03592819,0.4493385,-0.4120997,0.004134888
0.8026771,-0.1472568,0.2197391,-0.1824362,-0.0641623,-0.05894487,0.6048711,-0.5043976,0.07334039
0.8487747,-0.1428943,0.1913752,-0.1364718,-0.05955662,-0.08747468,0.7593082,-0.6026325,0.1458676
0.8800513,-0.1088162,0.1685554,-0.1052963,-0.02517351,-0.1104578,0.8920696,-0.5468674,0.189682
0.9174021,-0.07427798,0.1553919,-0.06801028,0.009728262,-0.1237767,0.8945333,-0.4731645,0.1832657
0.963709,-0.04188249,0.1547888,-0.02172996,0.04254102,-0.1245217,0.8521973,-0.3750654,0.1580482
0.9606978,-0.01390378,0.1574285,-0.02472967,0.07098434,-0.1220044,0.7445435,-0.2385452,0.1414666
0.9368349,0.003204766,0.1899314,-0.04854405,0.08859731,-0.08959959,0.5533598,-0.2074618,0.1318791
0.9301079,0.07887373,0.209492,-0.0551865,0.1648018,-0.07010877,0.3368173,-0.1998644,0.1922846
0.9502673,0.1012793,0.2039349,-0.03490698,0.1877637,-0.075705,0.1936769,-0.1944514,0.3068134
0.9848266,0.05286508,0.2238317,-0.0001928568,0.1399153,-0.05581484,0.2233059,-0.2134051,0.4534174
1.027464,0.03944572,0.2301895,0.04263223,0.1270607,-0.0494303,0.4110834,-0.2224285,0.5223987
1.078172,-0.02871176,0.2446686,0.093556,0.05945886,-0.03489082,0.7287274,-0.2245848,0.4280209
1.097213,-0.0698666,0.2815357,0.1128353,0.01884491,0.002069737,0.9931298,-0.141109,0.2649638
1.087874,-0.001120972,0.2921876,0.1037498,0.0881134,0.01284617,1.042657,-0.03123607,0.03009982
1.060462,0.07430287,0.2985536,0.07659913,0.1640384,0.01936521,0.9831507,-0.07392552,-0.1392165
1.039468,0.1837964,0.3040433,0.05586964,0.2740049,0.02503317,0.8309366,-0.2049088,-0.1254184
1.078251,0.2266457,0.3065258,0.09491376,0.3172887,0.02771556,0.4712932,-0.2324537,-0.1392557
1.184182,0.09629844,0.3025866,0.2010985,0.1873251,0.02399453,0.03527864,-0.07262322,-0.2444202
1.270001,-0.03559125,0.2708771,0.287155,0.05575919,-0.007481607,-0.1824724,0.1238624,-0.4221844
1.192534,-0.07092969,0.2026606,0.2098996,0.02068118,-0.07545112,-0.4006347,0.1250737,-0.6064314
1.070239,-0.09429256,0.1111001,0.08777854,-0.002483399,-0.1667504,-0.8468669,0.1768364,-0.6320467
1.064065,-0.1980832,0.08616628,0.08173631,-0.1061339,-0.1914044,-0.9683818,0.4124386,-0.6174701
1.064454,-0.3113905,0.1681512,0.08221207,-0.2193521,-0.109115,-0.615329,0.4437268,-0.5985965
1.125799,-0.3226195,0.3148396,0.143596,-0.2305317,0.03790647,-0.1911881,0.4045525,-0.3790708
1.245355,-0.3054154,0.4402412,0.2631421,-0.2133044,0.1636683,0.163252,0.4426519,-0.04672338
1.181576,-0.267478,0.423035,0.1992965,-0.175357,0.1468424,0.1639585,0.3436825,0.1299992
1.042561,-0.1352008,0.318953,0.06015241,-0.04307277,0.04315167,-0.1259826,0.336813,0.1346188
0.9520133,-0.01131775,0.2377771,-0.03058806,0.08081956,-0.03762826,-0.4031387,0.4494144,0.1800987
0.8399517,0.002637664,0.1784343,-0.142902,0.09478615,-0.09657223,-0.7879677,0.4836563,0.2275322
0.7916058,-0.04278046,0.1907751,-0.1915504,0.04937747,-0.08382814,-1.002592,0.4747273,0.1664607
0.7371583,-0.1009692,0.2403148,-0.2463382,-0.008806708,-0.03387835,-0.9378481,0.4104331,0.1424526
0.6677173,-0.1738426,0.2540664,-0.3161421,-0.08168091,-0.0197083,-0.9421214,0.3407029,0.1329737
0.7272458,-0.2191514,0.2924362,-0.2569825,-0.1269933,0.01908799,-0.8273554,0.2112403,0.1231141
0.7762329,-0.228592,0.3221236,-0.2083549,-0.1364351,0.04920808,-0.5754589,0.05233651,0.1597631
0.7801586,-0.239505,0.329372,-0.2047666,-0.1473405,0.05689206,-0.3840536,0.03769569,0.1291506
0.7974273,-0.2063338,0.371466,-0.1878031,-0.1141464,0.09942053,-0.1869236,0.0269778,0.1097359
0.7730761,-0.1340922,0.3990315,-0.2124186,-0.04186165,0.1274139,-0.01726211,-0.05460272,0.1145992
0.7725883,-0.06163626,0.4315108,-0.2131213,0.03065983,0.1603082,0.1727099,-0.1331885,0.06510369
0.8087673,0.03348394,0.4586271,-0.1771004,0.1258664,0.1878188,0.2757079,-0.2119348,0.04707241
0.8733459,0.09304933,0.4169089,-0.1126172,0.1855332,0.1464662,0.1771393,-0.2462253,0.02163066
0.974337,0.09514533,0.3813832,-0.01165588,0.1877369,0.1112703,0.02204521,-0.2313329,-0.02942528
1.058335,0.06615148,0.387934,0.07237592,0.1588471,0.1181098,-0.2469397,-0.2069236,-0.05368947
1.118565,0.005337144,0.4011127,0.1326984,0.09812482,0.1315321,-0.485589,-0.146936,-0.04675946
1.115974,-0.0159877,0.4355764,0.1302485,0.07687383,0.1661902,-0.4774906,0.01376221,-0.04973469
1.073845,0.005887413,0.5136088,0.08829846,0.0988007,0.2443627,-0.4244385,0.218106,-0.1698314
1.074723,0.0001782833,0.5536327,0.08938604,0.09311805,0.2844655,-0.4136842,0.3168236,-0.3057197
1.114313,-0.07882101,0.4974918,0.1292068,0.01411743,0.2283337,-0.3674752,0.3883013,-0.2985533
1.156101,-0.2220669,0.4375942,0.1712393,-0.1291574,0.1683678,-0.2625019,0.4694933,-0.1781684
1.13897,-0.3441067,0.378736,0.1543581,-0.2512486,0.1093594,-0.03237662,0.2371104,0.01932078
1.111269,-0.4096765,0.3179871,0.1269023,-0.316881,0.04837782,0.3100613,-0.04373331,0.2165689
1.104844,-0.4133375,0.3056884,0.1207106,-0.3206009,0.035766,0.6613725,0.231879,0.2369923
0.9786137,-0.4047274,0.2549943,-0.005304417,-0.3120302,-0.01531699,0.8738608,0.4801281,0.05132521
0.8379991,-0.385957,0.1891127,-0.1457223,-0.2932649,-0.08165702,0.764583,0.2376041,-0.142176
0.8951892,-0.1963634,0.1892245,-0.08835082,-0.10363,-0.08206466,0.4325744,0.002759951,-0.2017557
0.9927996,0.01268247,0.1552511,0.009430621,0.1055091,-0.1166087,0.1485205,-0.2439315,-0.08048541
0.9968844,-0.03389431,0.1181125,0.01367888,0.05907479,-0.1543583,0.06705425,-0.40916,0.1107313
0.9854966,-0.1420718,0.1729937,0.002447107,-0.04891698,-0.1001176,0.2310725,-0.2682865,0.1725061
0.9211483,-0.1790798,0.2435111,-0.06175232,-0.08570014,-0.0302604,0.4206032,-0.2749934,0.1697061
0.8392907,-0.2579926,0.2992197,-0.1434663,-0.164349,0.02477483,0.6550637,-0.3595414,0.09856232
0.8295355,-0.2482354,0.2874714,-0.1530781,-0.1542864,0.01234362,0.9915891,-0.3598057,-0.005808167
0.8086252,-0.1528181,0.2161816,-0.1738383,-0.05851871,-0.05963635,1.096308,-0.514044,0.07240163
0.8264,-0.121065,0.220113,-0.1558994,-0.02636933,-0.05639876,1.164082,-0.5611722,0.1651697
0.9132505,-0.05045576,0.2104873,-0.06886444,0.0446802,-0.06671723,1.257602,-0.4702891,0.1867323
0.938813,0.001766542,0.187595,-0.04309332,0.09738166,-0.09029596,1.126693,-0.4430235,0.2689813
0.9704077,0.01486089,0.2240674,-0.01126496,0.1109866,-0.05449854,1.041927,-0.3366936,0.292864
1.010509,0.09379665,0.2034162,0.02909347,0.1904553,-0.07580862,0.8689813,-0.1540645,0.2371437
0.9713005,0.1036224,0.2118357,-0.009835589,0.2008253,-0.06802763,0.5437589,0.01633042,0.1866185
0.9381942,0.1184999,0.2634901,-0.04264376,0.2162465,-0.01698779,0.3561168,0.05016465,0.1712393
0.8989325,0.1640564,0.2619119,-0.08158907,0.2623337,-0.0191545,0.1753897,-0.03504439,0.2435288
0.8626589,0.1149908,0.2648787,-0.117527,0.2137733,-0.01674927,0.07701618,-0.08279087,0.4025594
0.9138686,0.09278669,0.2474056,-0.06596006,0.1920375,-0.03475618,0.1025266,-0.148222,0.5771203
0.9832632,0.04079598,0.2583122,0.00381487,0.1404692,-0.02435502,0.1725297,-0.1464491,0.6159918
1.050336,-0.05066689,0.3001786,0.0712901,0.04937691,0.01703469,0.3783947,-0.08222465,0.4803572
1.0925,-0.07341465,0.3130949,0.1138727,0.02694549,0.02950259,0.5802314,-0.1033249,0.2999019
1.065442,-0.07779449,0.3538686,0.0872454,0.02282831,0.06985413,0.707384,-0.1413474,0.128517
1.055312,-0.003270123,0.3617908,0.07755005,0.09756294,0.07737711,0.7584392,-0.2261318,0.01337742
1.048604,0.1091266,0.3528074,0.07127443,0.2101169,0.06801332,0.7424801,-0.3255894,0.01036937
1.043553,0.1416544,0.3585219,0.06664904,0.2427446,0.07336218,0.689966,-0.3428135,0.02743446
1.133361,0.09935287,0.3198283,0.1568707,0.200479,0.03431438,0.449835,-0.2684499,-0.03563122
1.22274,0.02559591,0.2887643,0.2466455,0.1266876,0.002904987,0.0357787,-0.1002463,-0.2128882
1.201057,-0.003754582,0.2414169,0.2253296,0.09722907,-0.04477957,-0.4023573,-0.02207326,-0.4355003
1.120537,-0.01365758,0.1378613,0.1451396,0.0871439,-0.1486621,-0.7579145,0.0001150544,-0.4991401
1.054327,-0.07036808,0.05308032,0.07921527,0.03017836,-0.2337545,-0.9843843,0.1519423,-0.4572898
1.040016,-0.2008769,0.1021563,0.06513974,-0.1006546,-0.1849658,-1.005233,0.2818441,-0.4953463
1.101816,-0.3387697,0.2713303,0.1271251,-0.2389324,-0.0160467,-0.6622616,0.3026235,-0.4692519
1.217745,-0.3961437,0.4077883,0.2431855,-0.2967386,0.1201917,-0.1683099,0.3200612,-0.2833045
1.258487,-0.3531041,0.4528068,0.2840006,-0.2541609,0.1650221,0.1184997,0.3485327,-0.02018612
1.128658,-0.1886602,0.3795065,0.1541767,-0.09019257,0.09155745,0.124745,0.3442012,0.1798697
0.9749779,-0.07344104,0.3044379,0.000430203,0.02454814,0.01634094,-0.05633592,0.3660033,0.1809178
0.9512687,-0.05584366,0.2810759,-0.02341717,0.04166829,-0.007156153,-0.316653,0.4203513,0.2207669
0.9019146,0.0006834116,0.1829547,-0.07297548,0.09771929,-0.1054005,-0.6221322,0.4362308,0.3292512
0.7984528,-0.02598296,0.1868692,-0.1766992,0.0705759,-0.1015949,-0.7805163,0.4799299,0.2536435
0.7859051,-0.1157924,0.2748991,-0.1895554,-0.01971353,-0.01365627,-0.7496465,0.4793292,0.1939956
0.744237,-0.1231029,0.2728309,-0.2315651,-0.02750687,-0.01579613,-0.7338167,0.3670894,0.1874297
0.7336253,-0.1270671,0.3252297,-0.2425376,-0.03195472,0.03655041,-0.6725756,0.2502517,0.1345009
0.8032769,-0.1630307,0.3514311,-0.173252,-0.0683994,0.06271691,-0.569247,0.1567789,0.1468972
0.7808217,-0.1764934,0.3248481,-0.1960662,-0.0823371,0.0361132,-0.4674248,0.1216868,0.08491454
0.7933073,-0.1554345,0.3687198,-0.1839222,-0.0617426,0.07997472,-0.2831378,0.07190258,-0.01242822
0.7970348,-0.1168069,0.3927992,-0.1805096,-0.02356495,0.1040504,-0.09914262,0.02498045,-0.02154532
0.7444633,-0.05133991,0.4207991,-0.2333606,0.04146872,0.132048,0.03301183,0.03429453,-0.04820187
0.7883898,0.01776852,0.4396054,-0.1896695,0.1101597,0.1508472,0.06733217,-0.02574774,-0.04900054
0.8263626,0.06526514,0.4162011,-0.1518804,0.1572509,0.1274244,-0.03304807,-0.04408214,-0.05059458
0.9129213,0.1030089,0.4213928,-0.06544818,0.1945948,0.1325801,-0.2139434,-0.04221036,-0.08324197
1.0336,0.08014984,0.4157711,0.05516253,0.1713337,0.1268992,-0.4938265,-0.1141916,-0.08811801
1.082867,0.01326049,0.4261027,0.1044157,0.1040323,0.1371437,-0.7533049,-0.09721214,-0.1061294
1.136221,-0.03970423,0.471634,0.1578039,0.05064076,0.182555,-0.8170701,0.03289616,-0.1630631
1.109511,-0.0680837,0.5185913,0.1311655,0.02181755,0.2293539,-0.7409627,0.2534079,-0.302547
1.098349,-0.0792754,0.562842,0.1201021,0.01016551,0.2734001,-0.6639818,0.3977374,-0.4199297
1.164614,-0.1405992,0.5343456,0.1864839,-0.05163339,0.2446447,-0.5559952,0.3905097,-0.3834435
1.176377,-0.2314638,0.4405365,0.198372,-0.1429838,0.1505141,-0.3085545,0.3676057,-0.2414703
1.187039,-0.32912,0.3451035,0.2091575,-0.2411292,0.05469298,-0.04416068,0.2206946,-0.0005886852
1.152579,-0.4450304,0.3124631,0.1748081,-0.3575206,0.02159794,0.2026566,0.1129404,0.169978
1.031685,-0.4706373,0.3155642,0.05400322,-0.3835846,0.02418128,0.510759,0.2807137,0.1220005
0.8645125,-0.3934048,0.2343067,-0.113104,-0.3067678,-0.05765182,0.6244175,0.3980128,0.01848017
0.7806825,-0.2464212,0.168101,-0.1968909,-0.1601438,-0.1244839,0.4899747,0.1895154,-0.09304334
0.897225,-0.07128884,0.1670544,-0.08031953,0.0146936,-0.1261982,0.3027197,-0.1234141,-0.1586707
0.970902,-0.03076728,0.1531465,-0.006620789,0.05498521,-0.140804,0.09852794,-0.2174769,-0.02195462
0.996726,-0.1069368,0.1831933,0.01922111,-0.02135341,-0.1114747,0.08881427,-0.1815551,0.1441434
1.084986,-0.1503845,0.2165575,0.1074951,-0.06491379,-0.07883782,0.2351753,-0.2221572,0.1428838
0.9810316,-0.1567493,0.2462883,0.003548339,-0.07133676,-0.04983654,0.3246293,-0.3323219,0.07505572
0.8006013,-0.1780967,0.2975801,-0.1768811,-0.09268819,0.0007287655,0.5541951,-0.4648364,0.02841151
0.8017285,-0.1687,0.2556689,-0.1757558,-0.08324131,-0.04190228,0.7583344,-0.5309209,0.03042291
0.829505,-0.1093254,0.20159,-0.1479757,-0.02376221,-0.09669132,0.7258666,-0.5455644,0.07705752
0.8464027,-0.0837738,0.2228078,-0.1310613,0.001946484,-0.07616934,0.7709284,-0.5547401,0.1418322
0.9230804,-0.04159795,0.2159053,-0.05434769,0.04432852,-0.08374833,0.8536758,-0.5370629,0.2437897
0.9593666,0.0078791,0.1979683,-0.01800344,0.09405536,-0.1023378,0.83057,-0.496578,0.2954738
0.9654447,0.008667775,0.2143943,-0.01184447,0.09513026,-0.08653559,0.7905466,-0.379239,0.2640756
0.9894559,0.07387039,0.2207766,0.01226947,0.1606471,-0.08074383,0.6736271,-0.238528,0.2412056
0.9625526,0.1279381,0.2291918,-0.01451107,0.2150473,-0.07288255,0.4910113,-0.1434012,0.2065733
0.9268087,0.126228,0.2458449,-0.05011343,0.2136763,-0.0567439,0.2696165,-0.0642477,0.1985815
0.9205435,0.1370647,0.2428693,-0.05621857,0.2248466,-0.06019253,0.07794349,-0.05603947,0.2889065
0.9132177,0.08628571,0.2483148,-0.06336497,0.1743843,-0.05517725,0.04544342,-0.1069413,0.4303493
0.9433989,0.03157227,0.2588626,-0.03298399,0.119961,-0.04501599,0.108159,-0.1554851,0.5755191
0.98217,-0.003399152,0.2676687,0.006007192,0.08524653,-0.03655226,0.233635,-0.1918452,0.6207878
1.017176,-0.0680223,0.300188,0.04125192,0.02084375,-0.00433135,0.4068154,-0.1519965,0.4942775
1.070104,-0.1246597,0.330561,0.09443478,-0.03561046,0.02578563,0.5933985,-0.09082392,0.2714844
1.069269,-0.1362471,0.3435093,0.09386563,-0.04704955,0.03851749,0.7620938,-0.1399039,0.0440774
1.047165,-0.04665628,0.335503,0.07203153,0.04265788,0.03033072,0.7861288,-0.2361386,-0.1032405
1.071484,0.06388574,0.332584,0.09661968,0.1532862,0.02726342,0.6907053,-0.3443753,-0.1351569
1.102282,0.122593,0.3418959,0.1276808,0.2120467,0.03645551,0.5199459,-0.4184949,-0.1417068
1.182857,0.1077795,0.2953683,0.2085062,0.1972468,-0.01016626,0.2452063,-0.3103152,-0.2496955
1.292453,0.0512951,0.1847019,0.318332,0.1407294,-0.120903,-0.07843578,-0.1545426,-0.4474862
1.262317,0.08207523,0.07043071,0.2883913,0.1714245,-0.2352181,-0.538335,0.02814508,-0.5625242
1.167114,0.03220862,0.04286763,0.1933374,0.1214167,-0.2627921,-1.03454,0.4107166,-0.5402553
1.117222,-0.130739,0.05644985,0.1435399,-0.04173014,-0.2491779,-1.092084,0.6749926,-0.5163223
1.060755,-0.2184176,0.1119736,0.08710611,-0.129663,-0.19357,-0.6953361,0.588967,-0.4849638
1.116272,-0.2744772,0.3724147,0.1425939,-0.1860235,0.06701342,-0.2664034,0.4859213,-0.3316352
1.193763,-0.2490617,0.5396192,0.2199908,-0.1609441,0.2344162,-0.07510281,0.465337,-0.1384576
1.081456,-0.1418912,0.3627106,0.107521,-0.05413308,0.05775234,-0.239441,0.3217164,-0.05250599
0.9734171,-0.01636582,0.2104027,-0.0007503452,0.07101671,-0.09427396,-0.5343808,0.2157012,-0.03873094
0.9262733,0.05382065,0.2045061,-0.04819437,0.1408135,-0.09985557,-0.7986848,0.3220809,0.03658625
0.8563919,-0.03364268,0.1933628,-0.1184369,0.05294452,-0.1106498,-1.083477,0.4121218,0.1343527
0.8289501,-0.09228233,0.2089708,-0.146291,-0.006118764,-0.0946568,-1.15024,0.4274955,0.1236881
0.7923051,-0.1311523,0.2554786,-0.1833881,-0.04542935,-0.04772661,-1.095246,0.4648685,0.07298881
0.7580545,-0.2081849,0.2824813,-0.2181178,-0.1229157,-0.02026463,-1.079358,0.4402208,0.04372003
0.762934,-0.1959285,0.2970624,-0.2137313,-0.1111199,-0.00518925,-0.9501949,0.3587205,0.01343412
0.7703699,-0.21159,0.3049072,-0.2067888,-0.1272416,0.003181687,-0.8456809,0.2958248,0.01021084
0.7900414,-0.2145565,0.3029629,-0.1875991,-0.1306602,0.001791848,-0.7070784,0.2017806,-0.003386037
0.784868,-0.1553647,0.3406297,-0.193232,-0.07190575,0.04003748,-0.4984418,0.04327863,-0.005426806
0.7669132,-0.1212035,0.3912543,-0.211614,-0.03816193,0.09126052,-0.3957783,-0.1010304,0.03775736
0.7508099,-0.0608372,0.4030965,-0.2281033,0.02180937,0.1037146,-0.2914846,-0.2454449,0.05989288
0.7497722,-0.03629554,0.4200054,-0.2294762,0.04597846,0.1212412,-0.2070371,-0.3540188,0.06909414
0.8404552,-0.01886238,0.4306529,-0.1390693,0.06305934,0.1325043,-0.1814815,-0.224555,0.0429919
0.9499082,0.01012802,0.4274944,-0.02982809,0.09171441,0.1299514,-0.2234501,-0.04959286,-0.04316443
0.9866776,-0.01928338,0.4257505,0.006794447,0.06198064,0.1287955,-0.3417188,-0.09426677,-0.1290032
1.016282,-0.008428072,0.4136742,0.03631385,0.07252261,0.1172827,-0.4172058,-0.1137577,-0.1736507
1.062558,0.001040388,0.4133116,0.08256062,0.08168325,0.1174528,-0.4901906,-0.02652599,-0.1930062
1.0482,-0.01009119,0.4458206,0.0682233,0.07024598,0.1504583,-0.515756,0.03584461,-0.2843898
1.033045,0.006611366,0.5052868,0.05313234,0.08664169,0.2103787,-0.5157167,0.1557647,-0.3754495
1.118452,-0.04636987,0.5160592,0.1386375,0.03334958,0.2215556,-0.5392001,0.2791157,-0.3367663
1.210725,-0.1523161,0.4514374,0.2310357,-0.07291266,0.157281,-0.397832,0.2938029,-0.2523784
1.254996,-0.2851276,0.3747436,0.2754476,-0.2060426,0.0808708,-0.1908219,0.1992749,-0.105666
1.238237,-0.4268696,0.3266192,0.258831,-0.348097,0.03296412,-0.01073252,0.1218889,0.05888398
1.135058,-0.473567,0.3318183,0.1557819,-0.3950866,0.03831577,0.3029149,0.3157115,0.04471969
0.9680113,-0.4168619,0.309108,-0.0111559,-0.3386361,0.0156951,0.6408038,0.4865515,-0.1050976
0.7522048,-0.3238711,0.2286258,-0.2268763,-0.2458465,-0.06475673,0.6430365,0.2071492,-0.2795301
0.7060153,-0.2442393,0.1929143,-0.2729957,-0.1663508,-0.1004917,0.2749661,-0.1976217,-0.3328522
0.8908214,-0.127914,0.1637155,-0.08812423,-0.05009046,-0.1297599,-0.04593309,-0.38151,-0.114069
1.030116,-0.01209219,0.1076712,0.05123925,0.06573805,-0.1859099,-0.1007231,-0.3588616,0.1514282
1.066328,-0.08382446,0.1167783,0.08752519,-0.005920396,-0.1769339,0.03351508,-0.1989343,0.2121148
1.013506,-0.2292249,0.1964557,0.03477855,-0.1511848,-0.09740245,0.1975818,-0.1097852,0.1585719
0.896266,-0.2346532,0.2685392,-0.08238606,-0.156416,-0.02547143,0.3871567,-0.2296359,0.06029168
0.8245139,-0.2218486,0.2811584,-0.1540622,-0.1433516,-0.0130069,0.7213336,-0.3978082,-0.05626647
0.7926442,-0.2131789,0.2539915,-0.1858498,-0.1343567,-0.04032841,0.9028753,-0.4590848,-0.03529364
0.8351515,-0.1106393,0.2359274,-0.1432471,-0.03142564,-0.058545,0.9256042,-0.5115773,0.08185773
0.8959909,-0.0407776,0.2193963,-0.08229227,0.03889171,-0.07522368,1.018208,-0.5685552,0.162676
0.911059,0.009455629,0.1936525,-0.06708444,0.08963906,-0.1011068,0.9450282,-0.5099797,0.2704239
0.959206,0.08683949,0.1934526,-0.01877176,0.1675865,-0.1014334,0.7987175,-0.4078981,0.3139561
0.9748835,0.0956658,0.2049365,-0.002902568,0.1770143,-0.09005918,0.6282314,-0.2968902,0.2475619
0.9663865,0.1043476,0.2073143,-0.01118347,0.1863227,-0.08777007,0.3184353,-0.1863389,0.2350122
0.9765899,0.1088385,0.2292676,-0.0007414071,0.1914524,-0.06588112,0.1464547,-0.1558378,0.2251903
0.9493644,0.07967277,0.2448273,-0.0277077,0.1629255,-0.05035928,0.08119893,-0.1322886,0.2422034
0.9462966,0.05943411,0.2407304,-0.03049714,0.143315,-0.05446615,0.06737391,-0.1318982,0.3591744
0.9580282,0.01153796,0.2468534,-0.01846878,0.09602765,-0.04832445,0.1861536,-0.1568893,0.4442626
0.9818732,-0.009389127,0.2599537,0.005690312,0.07568349,-0.03517643,0.30668,-0.1000602,0.4532048
1.042306,-0.0386502,0.2859242,0.06645215,0.04697524,-0.009129321,0.4693102,-0.05618372,0.3437613
1.048637,-0.09150238,0.303893,0.07312376,-0.005356502,0.008943715,0.6168414,-0.0578608,0.154967
1.033947,-0.05280311,0.3020459,0.05878081,0.03383022,0.007226326,0.652788,-0.08636711,0.009388214
1.041604,0.01283838,0.3166803,0.06678706,0.09992575,0.0220135,0.6908989,-0.1942464,-0.07156844
1.046348,0.0768105,0.329096,0.0718767,0.1643161,0.03460192,0.6949529,-0.3229115,-0.06031162
1.096611,0.1182187,0.3095621,0.1224789,0.2061014,0.01525759,0.5784822,-0.3778668,-0.07349872
1.205903,0.06728404,0.282387,0.2320955,0.155496,-0.01171383,0.3315696,-0.243145,-0.2056943
1.275519,0.03846892,0.2691511,0.3020151,0.1269558,-0.0247337,-0.03302279,-0.05058741,-0.372779
1.223056,0.05625438,0.2386089,0.2498198,0.1449575,-0.05504808,-0.4531395,-0.01661218,-0.4545637
1.152016,0.004125259,0.1570841,0.1790016,0.09298267,-0.1363322,-0.7597354,0.07869659,-0.388942
1.12026,-0.1518043,0.1068136,0.1474136,-0.06285552,-0.1863457,-0.8767126,0.3524912,-0.3650988
1.069969,-0.3354916,0.2119241,0.0972301,-0.2465099,-0.08095658,-0.8888646,0.5274455,-0.4075606
1.071976,-0.3615924,0.3796157,0.09928296,-0.2726252,0.08703828,-0.6219558,0.4892899,-0.3454697
1.093854,-0.2414595,0.4079584,0.1211437,-0.1525389,0.1157067,-0.1734411,0.4188518,-0.2138098
1.04751,-0.147589,0.3383523,0.07471824,-0.05873465,0.04644257,-0.06004448,0.3911466,0.005934275
1.006903,-0.04521175,0.2920231,0.03396596,0.04356387,0.0004656496,-0.2276479,0.3644805,0.1838056
0.9661023,0.002635899,0.2614183,-0.007042007,0.09132214,-0.02977959,-0.4011182,0.4085696,0.1848587
0.9036829,-0.07782438,0.2355701,-0.06972546,0.01076055,-0.05526201,-0.6250745,0.4362021,0.2459855
0.8523466,-0.1034312,0.205608,-0.121376,-0.01496048,-0.08485116,-0.8380447,0.4262282,0.3080623
0.8198209,-0.1062064,0.2155761,-0.1542568,-0.01786204,-0.07450127,-0.8580829,0.4771012,0.2064099
0.7887898,-0.1536465,0.2937023,-0.185673,-0.06543836,0.004017471,-0.7266139,0.4404841,0.1279675
0.7100573,-0.1637221,0.3433787,-0.2648084,-0.07565679,0.0540966,-0.5911282,0.376814,0.09897217
0.7050005,-0.1671265,0.3383124,-0.2702719,-0.07920632,0.04944069,-0.4560926,0.3191623,0.072607
0.7707226,-0.1438589,0.3335013,-0.2049461,-0.0560819,0.04504348,-0.3873511,0.1595421,0.07792152
0.7601752,-0.1256994,0.3487689,-0.2158668,-0.03806,0.06072449,-0.3545068,0.06543404,0.05320191
0.7927245,-0.1301108,0.3629895,-0.1836572,-0.04260076,0.07535415,-0.2357054,0.002242699,0.02932494
0.7960018,-0.07939038,0.3965013,-0.1806776,0.008000012,0.1092662,-0.1442267,-0.08117585,0.03136707
0.7214505,-0.01909404,0.4763721,-0.2554764,0.06818663,0.1895229,-0.0874866,-0.1364603,0.03018461
0.7551865,0.02570252,0.4876527,-0.22193,0.112881,0.2011672,-0.07039854,-0.18721,0.02920511
0.80303,0.03239626,0.4360033,-0.1742099,0.1194755,0.149851,-0.2005693,-0.08704837,-0.03402767
0.8878871,0.03150521,0.4344331,-0.08940496,0.1184826,0.1485756,-0.3918962,0.01199113,-0.1233525
1.016228,0.0367593,0.4365981,0.03895604,0.1236264,0.150991,-0.5339583,-0.09592112,-0.1461009
1.066141,-0.03730422,0.4421645,0.08895929,0.04943939,0.1567582,-0.5593476,-0.1411294,-0.1677377
1.136369,-0.07011151,0.4646823,0.1593367,0.01649247,0.1794222,-0.5101687,0.06455333,-0.2928435
1.116832,-0.03448914,0.493357,0.1399998,0.05195821,0.2081831,-0.4889525,0.3468986,-0.4890274
1.049287,-0.03929947,0.5461439,0.07269356,0.04697398,0.2609903,-0.4864006,0.4880333,-0.5503113
1.13626,-0.07801715,0.5351035,0.1599344,0.00806478,0.2498971,-0.4327914,0.4440715,-0.3962822
1.191009,-0.196346,0.4505571,0.2149714,-0.1104721,0.1652179,-0.2508118,0.2013959,-0.189096
1.187765,-0.3472999,0.3760728,0.212023,-0.2616454,0.09051666,0.04005116,-0.008982593,-0.02319697
1.186554,-0.4325534,0.3403211,0.2111046,-0.3471189,0.05446382,0.3785667,0.2001467,0.03637995
1.074856,-0.4336924,0.2979929,0.09968376,-0.348463,0.01175316,0.5693032,0.423521,-0.09686882
0.9009885,-0.3453799,0.1939287,-0.07392722,-0.2603245,-0.09276911,0.451082,0.1331044,-0.2853168
0.8101063,-0.2042699,0.14788,-0.1645741,-0.1193443,-0.1393426,0.2032634,-0.2630854,-0.3344043
0.9011699,-0.0747619,0.1678883,-0.07329098,0.01008475,-0.1199144,-0.04042888,-0.4905366,-0.2580032
1.020757,-0.06419864,0.1458078,0.04650471,0.02062005,-0.1426181,-0.1026027,-0.6025678,-0.1468302
1.009626,-0.1457903,0.1759923,0.03557434,-0.06095162,-0.1130885,0.07952703,-0.4762713,-0.05782455
0.9773542,-0.2007951,0.239646,0.003492684,-0.1158905,-0.05011102,0.2202986,-0.4195902,-0.01568241
0.9138987,-0.2142711,0.249125,-0.05978308,-0.1292541,-0.04132209,0.4244084,-0.5041874,-0.03378273
0.8403606,-0.1891865,0.2339268,-0.1331498,-0.1040085,-0.05721821,0.6937332,-0.4613859,-0.05322897
0.8485407,-0.1622514,0.1955164,-0.1248022,-0.07686198,-0.09632909,0.7551061,-0.4894375,0.01808515
0.8598745,-0.1192862,0.1799518,-0.1132986,-0.03363459,-0.1125908,0.792837,-0.5369731,0.1055761
0.8907563,-0.05117685,0.1788402,-0.08223963,0.03478578,-0.1143892,0.8093265,-0.5166653,0.1614583
0.9521883,-0.01608086,0.1664744,-0.0206192,0.07023735,-0.1274246,0.7568855,-0.521977,0.2177539
0.9936787,0.02604707,0.1753804,0.02107212,0.1127586,-0.1191641,0.7487757,-0.4038547,0.2335606
1.011559,0.06858311,0.1742728,0.03916491,0.1557172,-0.120887,0.6035701,-0.2570038,0.2105538
0.9817989,0.08384875,0.1819333,0.009625569,0.1714246,-0.1138057,0.3927575,-0.147691,0.151712
0.9555205,0.09440726,0.2057216,-0.01642535,0.1824331,-0.09055575,0.2122953,-0.04191646,0.1274752
0.9360681,0.08163062,0.2227772,-0.0356446,0.170104,-0.07399401,0.01785438,-0.0009006076,0.2101202
0.9218808,0.06656874,0.2419913,-0.04959298,0.1554772,-0.05522663,-0.0111959,0.01530859,0.3449176
0.9579264,0.04272893,0.2353726,-0.01330182,0.1320514,-0.06224393,0.1328287,-0.03333832,0.5128723
0.9958803,0.01316931,0.2414591,0.02490431,0.1028778,-0.05650694,0.3455787,-0.07496493,0.6075339
1.036593,0.002823708,0.2709971,0.06587487,0.09288503,-0.02726932,0.4753518,-0.05991731,0.5550745
1.057012,-0.04364787,0.2817501,0.08655298,0.04672963,-0.01676805,0.4798205,-0.03066252,0.423591
1.044407,-0.07135746,0.3034737,0.074204,0.01929784,0.004750736,0.5645611,0.02085584,0.2090349
1.064018,0.01250328,0.3246662,0.09406541,0.1033975,0.02578274,0.6691712,-0.05094142,-0.005133612
1.078108,0.1308237,0.3210237,0.1083928,0.2219161,0.02202066,0.680333,-0.1808479,-0.08244903
1.091216,0.1792895,0.3059385,0.1217219,0.2705334,0.006853207,0.6655886,-0.2502987,-0.05609624
1.134962,0.1464572,0.2882583,0.1656659,0.2377973,-0.0108751,0.5775613,-0.2859438,-0.06712376
1.201705,0.06501438,0.2661348,0.2325781,0.1563868,-0.03301476,0.3112323,-0.1741923,-0.1977696
1.271192,-0.0131096,0.2076321,0.3021973,0.07822595,-0.09150262,-0.08716286,-0.01037599,-0.3486853
1.222722,-0.008222504,0.1219723,0.2538097,0.08300552,-0.1771151,-0.4577641,0.07938057,-0.3762433
1.118671,-0.009231966,0.08267432,0.1497833,0.08181863,-0.2163291,-0.7289397,0.2390219,-0.3314636
1.068429,-0.1990713,0.1543602,0.09950174,-0.1082655,-0.1445163,-0.8011963,0.4537196,-0.3561951
0.9731164,-0.4207514,0.2926918,0.004082253,-0.33025,-0.006010074,-0.5916306,0.529479,-0.4092371
0.9536288,-0.434988,0.3573898,-0.01557594,-0.3448354,0.05891018,-0.2283171,0.4785548,-0.4008846
1.038105,-0.318721,0.325505,0.06866955,-0.2289421,0.02729097,0.08444303,0.451884,-0.2969537
1.009183,-0.1509035,0.3051791,0.03946156,-0.06150671,0.007268391,0.124096,0.3961761,-0.1119549
0.9920911,0.03241705,0.3105546,0.02202924,0.121432,0.01298023,-0.118045,0.2930887,-0.02800984
0.9944132,0.06319031,0.2637001,0.02396082,0.1518241,-0.0335085,-0.4224847,0.2946796,-0.004068698
0.8997136,0.02489533,0.1992333,-0.07117559,0.113144,-0.09758226,-0.7209082,0.3403966,0.1162117
0.8764597,0.04451536,0.2003915,-0.09490685,0.1323694,-0.09600377,-0.9637492,0.3619223,0.1474191
0.8622507,-0.06537676,0.2335387,-0.1096256,0.02206922,-0.0624079,-1.048721,0.4631482,0.08152828
0.810492,-0.1607331,0.260482,-0.1619172,-0.07370985,-0.03498676,-1.035955,0.5383683,0.06568413
0.8103235,-0.1275456,0.2853463,-0.1626319,-0.04095713,-0.009616323,-0.9729663,0.4790591,0.04273023
0.7880685,-0.1929321,0.3122086,-0.1854355,-0.1067856,0.01777807,-0.8310991,0.3988985,0.04229511
0.7842037,-0.2014397,0.3499896,-0.1898408,-0.1157366,0.05611344,-0.6313902,0.2379581,0.07398579
0.789288,-0.1507098,0.3623787,-0.1852784,-0.06544513,0.06907433,-0.4164143,-0.01803269,0.07767568
0.7775738,-0.1530812,0.3500942,-0.1974861,-0.06824449,0.05737332,-0.2684727,-0.1650297,0.05680253
0.78444,-0.07971609,0.3600676,-0.1910759,0.004706688,0.0679361,-0.2070082,-0.2302349,0.006833312
0.7666024,-0.03473605,0.380656,-0.2093233,0.04928839,0.08911426,-0.1744615,-0.254846,-0.01754538
0.7800317,0.008934115,0.391119,-0.1962497,0.09257454,0.1001619,-0.186993,-0.1770392,-0.01222158
0.8300371,0.03363855,0.3769773,-0.1465387,0.1169058,0.0865937,-0.2869686,-0.080286,-0.02882119
0.9138786,-0.02303247,0.3547028,-0.06292561,0.05986783,0.06487613,-0.4484622,-0.03693168,-0.04945226
1.022411,-0.009369051,0.368284,0.04544556,0.07316666,0.07899336,-0.521682,-0.1193096,-0.07753262
1.07485,-0.02016956,0.3843354,0.09778612,0.06200101,0.09555599,-0.4714777,-0.2163409,-0.1376081
1.130529,-0.03350782,0.3888644,0.1534214,0.04829477,0.1005674,-0.4738147,-0.1068292,-0.273627
1.14207,-0.01143031,0.4344449,0.1649655,0.06999962,0.1465969,-0.509362,0.02899394,-0.4219276
1.108818,-0.05425058,0.5009063,0.1317502,0.02680051,0.2134685,-0.4918256,0.1357699,-0.4043474
1.160594,-0.08988441,0.5207404,0.1835869,-0.009218978,0.2336664,-0.4779583,0.3840251,-0.2750871
1.178608,-0.1695213,0.4677589,0.201674,-0.089247,0.1809938,-0.3968463,0.4599788,-0.1562646
1.138251,-0.2742595,0.4004444,0.1613942,-0.1943774,0.1139267,-0.1983264,0.1720492,-0.02622677
1.118884,-0.3478516,0.3769075,0.1420982,-0.2683543,0.09057123,0.02305043,-0.005511826,0.02939661
1.059698,-0.4113684,0.3357075,0.08296821,-0.3322363,0.04948585,0.2180021,0.2169772,-0.0236098
0.964861,-0.3742111,0.2588384,-0.01183089,-0.2954102,-0.0273343,0.3497292,0.3827134,-0.07036751
0.8723196,-0.2765674,0.1959403,-0.1043533,-0.1980501,-0.09024485,0.3823739,0.1077674,-0.08887564
0.8844507,-0.1616566,0.1358656,-0.09221837,-0.08336593,-0.150386,0.2796297,-0.2115544,-0.06162609
0.9921014,-0.09961959,0.1044681,0.01542578,-0.02149443,-0.181894,0.07572771,-0.2450546,0.0320267
1.016077,-0.1767257,0.1375859,0.03938668,-0.09870496,-0.148919,-0.01210233,-0.1385587,0.1112138
0.9901405,-0.2213093,0.2075781,0.01342881,-0.1433324,-0.07909144,0.1088694,-0.04037953,0.1012372
0.9427003,-0.1981181,0.2761832,-0.03404127,-0.120123,-0.01066506,0.2685926,-0.1055805,0.0371779
0.8753129,-0.1979694,0.2923286,-0.1014649,-0.1198921,0.005291582,0.4013016,-0.2615186,-0.009694044
0.8870447,-0.1611591,0.2550714,-0.08977212,-0.08293446,-0.03216216,0.5803056,-0.366739,-0.03679824
0.9000628,-0.1107937,0.2330729,-0.07679119,-0.03235684,-0.05436305,0.7261797,-0.4592731,0.0112441
0.8895577,-0.09545069,0.2324767,-0.08732706,-0.01673871,-0.05516456,0.7661401,-0.4809194,0.1251589
0.9034948,-0.07962054,0.2165904,-0.07341058,-0.0005745334,-0.07125539,0.7777236,-0.4935722,0.1932298
0.9145295,-0.04898636,0.2038106,-0.06238292,0.03044777,-0.08423518,0.7372149,-0.4680411,0.2617773
0.9427143,-0.01419837,0.19686,-0.03418917,0.0656721,-0.09137708,0.6524547,-0.3546909,0.298586
0.952376,-0.006884291,0.1968179,-0.02450131,0.07346372,-0.09159739,0.6007489,-0.3218222,0.2416414
0.943478,0.00367934,0.2283044,-0.03335539,0.08453834,-0.06027207,0.5276025,-0.2611882,0.1950593
0.9525331,0.06778189,0.2554159,-0.02423855,0.1491771,-0.03330165,0.415989,-0.1692683,0.1536216
0.9454811,0.1067714,0.2591156,-0.03121101,0.1887185,-0.02972158,0.2618144,-0.1499699,0.1402326
0.9229205,0.09905915,0.2531266,-0.05367415,0.1815628,-0.03580796,0.09506724,-0.1326693,0.2249114
0.8997383,0.1171146,0.2391071,-0.07674012,0.2001683,-0.0499023,-0.005656833,-0.1568701,0.3649522
0.9037676,0.1171322,0.233382,-0.07257454,0.2007186,-0.05567877,-0.04921269,-0.1710528,0.5195955
0.9430398,0.05889019,0.232656,-0.03314414,0.1429817,-0.05643173,0.02301913,-0.1809445,0.5775453
1.00301,-0.02955857,0.2372024,0.02700649,0.05500283,-0.05188672,0.1842551,-0.1562525,0.490404
1.06586,-0.1169514,0.2463198,0.09005703,-0.03195891,-0.04274418,0.3541461,-0.03459597,0.3361969
1.079258,-0.1330315,0.2647427,0.1036705,-0.04764617,-0.02426932,0.53725,0.0198043,0.1120615
1.076025,-0.1053058,0.2984437,0.1006616,-0.01956287,0.009509865,0.6417629,0.02453396,-0.08742417
1.081139,-0.0622264,0.3177877,0.1060034,0.02384181,0.02895673,0.7081461,-0.05417101,-0.09618256
1.065135,0.05409853,0.3322397,0.09022328,0.1404605,0.04353317,0.7444717,-0.2038221,-0.03315679
1.103987,0.1103281,0.3308053,0.1292891,0.1969494,0.04224109,0.5960544,-0.2026154,-0.06657444
1.203909,0.05302827,0.3050986,0.229411,0.1398688,0.01669116,0.3281039,-0.1457071,-0.1540224
1.265368,0.04637485,0.2908659,0.291045,0.1333884,0.002626607,0.00479649,-0.0995615,-0.2863957
1.260044,0.05496362,0.2308028,0.28586,0.1420995,-0.05725848,-0.3992467,0.01466483,-0.3877795
1.197375,0.02256754,0.1197273,0.2232817,0.1097713,-0.1681452,-0.7560759,0.1980922,-0.3680704
1.115737,-0.03586956,0.06811864,0.1416783,0.05134554,-0.2195501,-0.9274422,0.407689,-0.3694923
1.035055,-0.1789698,0.1213684,0.06096826,-0.09179941,-0.166074,-0.9159412,0.481547,-0.4001853
0.9836057,-0.3116899,0.240586,0.009428118,-0.2246145,-0.04660104,-0.693155,0.4501587,-0.3819911
1.005069,-0.3273512,0.3598296,0.03073938,-0.2404098,0.0729292,-0.2984619,0.4372777,-0.3185789
1.013211,-0.2619144,0.4018833,0.03867183,-0.1751321,0.1152975,-0.1131844,0.3593804,-0.1623865
0.9824363,-0.1548994,0.3232293,0.007634101,-0.06828924,0.03697976,-0.2281594,0.2473172,-0.04603267
0.9816796,-0.08178277,0.2465434,0.006563502,0.004650104,-0.03935395,-0.3243918,0.226644,-0.03982077
0.9839338,-0.07645469,0.2485612,0.008457052,0.009798739,-0.0369706,-0.4588114,0.2787916,-0.001413891
0.977315,-0.09633912,0.2354687,0.001435134,-0.01026636,-0.04968457,-0.6827343,0.3730952,0.040087
0.9498545,-0.1181468,0.2481856,-0.02646708,-0.0322552,-0.0365761,-0.7617134,0.4740791,0.03271284
0.8790583,-0.1348581,0.2921087,-0.09773834,-0.04914651,0.00775149,-0.7514804,0.5273437,0.03035223
0.8107109,-0.1559703,0.2929016,-0.166587,-0.07043507,0.008960759,-0.7453839,0.5036129,0.04997748
0.7711822,-0.1728641,0.3061827,-0.2066333,-0.08749828,0.02266763,-0.6556411,0.3902035,0.0878964
0.7637824,-0.1771847,0.3275655,-0.2145551,-0.09197738,0.04448293,-0.541931,0.2835358,0.1361512
0.7849934,-0.1772805,0.3383571,-0.1938584,-0.09221667,0.05571032,-0.4265795,0.1818335,0.16696
0.8021053,-0.1621954,0.3433932,-0.1772418,-0.07725608,0.06118162,-0.2875609,0.01002159,0.1595789
0.7934493,-0.1348301,0.341325,-0.1863644,-0.04999321,0.05954389,-0.2001143,-0.154612,0.1385437
0.7808497,-0.1000048,0.3697885,-0.1993931,-0.01524627,0.08842916,-0.122527,-0.253646,0.1170629
0.7824396,-0.07928193,0.3808329,-0.1981864,0.005422325,0.09988209,-0.02303212,-0.2391204,0.1016434
0.7955385,-0.0743755,0.3748504,-0.1854171,0.01029751,0.0942901,0.07230456,-0.1976024,0.08786075
0.8458132,-0.0512094,0.3933477,-0.1354118,0.03345335,0.1131551,0.1244337,-0.2046445,0.03946231
0.9006678,-0.04950151,0.3960182,-0.08076191,0.03516938,0.1161657,0.08930782,-0.1877386,-0.010345
0.9233804,-0.05976,0.3944315,-0.05818776,0.02493452,0.1148867,0.02632731,-0.2474363,-0.04253291
0.9974825,-0.03018948,0.3985745,0.01584117,0.05454122,0.1193008,-0.09827292,-0.2848384,-0.1000721
1.088679,-0.000520928,0.4009496,0.1070253,0.08425518,0.121906,-0.2484951,-0.1491775,-0.1983624
1.069102,0.04788707,0.4230735,0.08749178,0.1327133,0.1442151,-0.3645665,-0.03270239,-0.3117062
1.010045,0.1217717,0.4610571,0.02852283,0.2066465,0.1823347,-0.5891183,-0.004995874,-0.3604557
1.008783,0.1345931,0.4888094,0.02738949,0.2195063,0.2101685,-0.7986126,0.1096271,-0.3379025
1.0729,0.07285588,0.4852203,0.0916687,0.1577877,0.2066001,-0.7951366,0.3494824,-0.2649154
1.184841,-0.04595913,0.4653805,0.2037996,0.03896425,0.1867144,-0.6311563,0.3696726,-0.0824974
1.230648,-0.2155332,0.4099522,0.2498141,-0.1306478,0.1311686,-0.4000056,0.1451816,0.1183641
1.241559,-0.3885009,0.3183752,0.260937,-0.3036781,0.03940027,-0.1594209,0.1114617,0.1658981
1.273887,-0.5045694,0.2874856,0.2934675,-0.4198211,0.008246913,0.1998156,0.3521813,0.05996186
1.091924,-0.5181398,0.3070801,0.1116839,-0.4334589,0.02750915,0.5742804,0.5751905,-0.1256479
0.7752487,-0.4338494,0.2843587,-0.2048414,-0.3492086,0.004391962,0.6068318,0.3580521,-0.3099243
0.7149683,-0.2886152,0.2324162,-0.2649978,-0.2039699,-0.04800442,0.3725716,-0.08973994,-0.3435199
0.8576004,-0.1379601,0.1692485,-0.1222571,-0.05325503,-0.1116774,0.1344551,-0.2347523,-0.1381474
0.9817841,-0.08401546,0.09498511,0.002029441,0.0008077001,-0.1864881,-0.03805094,-0.2108189,0.1545012
1.055117,-0.1356299,0.09255459,0.07546266,-0.05063231,-0.189496,-0.04530699,-0.06389457,0.2922152
1.02745,-0.183527,0.1877533,0.04789316,-0.09830116,-0.09489236,0.08151019,0.03718367,0.206953
0.930857,-0.2277416,0.2842218,-0.04860763,-0.1422346,0.0009728866,0.2265964,-0.2150843,0.03521077
0.8874464,-0.2643589,0.307946,-0.09193138,-0.1785161,0.02409085,0.4523663,-0.4525655,-0.09624849
0.8910907,-0.2086163,0.2609462,-0.08820225,-0.1223805,-0.02351605,0.6647419,-0.5028835,-0.1534633
0.9106603,-0.135871,0.2274037,-0.06854565,-0.04918299,-0.05766434,0.7583363,-0.552806,-0.08391734
0.9306258,-0.09530261,0.2315292,-0.04848737,-0.008104328,-0.05414005,0.8427607,-0.6066763,0.02867596
0.9240534,-0.05691354,0.212559,-0.05495882,0.0308492,-0.07370288,0.8694706,-0.5569811,0.1186229
0.9327281,-0.05738612,0.2104357,-0.04617315,0.03098948,-0.07640564,0.8239467,-0.4485488,0.2245314
0.9497948,-0.02536758,0.225439,-0.02898397,0.0636625,-0.06196458,0.7585614,-0.4035724,0.2320546
0.9679893,0.04625048,0.2176321,-0.01065473,0.135969,-0.07031256,0.6261213,-0.2884314,0.2129183
0.9909393,0.08484251,0.2356343,0.01244197,0.1752738,-0.05282682,0.4882975,-0.206938,0.2366502
0.9740201,0.1060954,0.2521002,-0.004319704,0.1972524,-0.0368503,0.3514489,-0.2096606,0.2148811
0.960947,0.08763283,0.2456291,-0.0172256,0.1795163,-0.04378164,0.2080943,-0.1278001,0.2423655
0.9429084,0.08248949,0.2563731,-0.03508801,0.1750886,-0.03346772,0.1502536,-0.1084971,0.2763926
0.9155682,0.09486127,0.2594115,-0.06224262,0.1881547,-0.03082812,0.1494307,-0.1014412,0.302454
0.9499128,0.05163943,0.2453785,-0.02770204,0.1455964,-0.04522798,0.1291146,-0.05163944,0.3372372
0.9940274,0.009243056,0.2393846,0.01661942,0.1038248,-0.05155626,0.1302284,-0.02353106,0.2901172
1.021835,-0.04416364,0.2555966,0.04464375,0.05099899,-0.03564529,0.2373316,0.03285819,0.2432588
1.036558,-0.09404676,0.2804947,0.05959055,0.001650468,-0.01101431,0.4131553,0.007270318,0.1288303
1.026461,-0.08381983,0.2867286,0.04972158,0.01236583,-0.005014063,0.5412155,-0.04290887,-0.02317237
1.033865,-0.04692192,0.2920482,0.05735327,0.0497071,0.0001040174,0.5856978,-0.04790953,-0.04147242
1.04267,0.02108194,0.3083344,0.06638148,0.1181094,0.01621908,0.6645365,-0.05697587,-0.02593572
1.044658,0.05869072,0.3165498,0.06858689,0.1560694,0.02429158,0.7765601,-0.03677667,-0.02435428
1.068498,0.04561843,0.3096918,0.09263302,0.1432971,0.01731644,0.7248745,-0.05931482,-0.05242518
1.123663,0.03944107,0.300148,0.1479887,0.137364,0.007678676,0.5370598,-0.09676811,-0.1405658
1.187866,0.02602411,0.2960568,0.2123618,0.1241316,0.003514595,0.1831618,-0.08078139,-0.2569305
1.188567,0.03814429,0.2643003,0.2132043,0.1363738,-0.02829512,-0.2958872,-0.04880586,-0.314078
1.155407,0.04405078,0.1837756,0.1801484,0.1423369,-0.1088536,-0.5048926,0.04273223,-0.2570564
1.150744,-0.04010878,0.09826274,0.1755437,0.05816667,-0.1943782,-0.6100631,0.230621,-0.2624691
1.113656,-0.1903641,0.07897901,0.1384641,-0.09216588,-0.2136457,-0.7495563,0.4391431,-0.3373967
1.051793,-0.3271838,0.1580964,0.07655267,-0.229123,-0.1344768,-0.5144275,0.5260315,-0.3468274
1.029163,-0.3552327,0.2933008,0.05381904,-0.2573574,0.0008195753,-0.1322012,0.4684536,-0.2651555
1.022979,-0.2920295,0.3951045,0.04747385,-0.1943724,0.102756,0.0776242,0.3893652,-0.05583813
1.013632,-0.1955764,0.3786507,0.03791319,-0.09815648,0.08647064,0.1562395,0.3032544,0.1277426
0.9888046,-0.07739205,0.3004763,0.01281888,0.01978096,0.008493588,0.01088372,0.1846418,0.1878165
0.9637094,-0.04113507,0.2686254,-0.0125912,0.05578515,-0.02313613,-0.1640969,0.1850428,0.212695
0.9701391,-0.1001962,0.2488351,-0.006520734,-0.003534365,-0.04268362,-0.2824582,0.3073687,0.2251679
0.9555224,-0.1214671,0.2569427,-0.02153642,-0.02506917,-0.03431251,-0.4035816,0.3862469,0.2356926
0.8898377,-0.1108574,0.2986476,-0.0876546,-0.01472738,0.00767614,-0.3657754,0.4634973,0.1942181
0.8104494,-0.1175337,0.3027431,-0.167504,-0.02167365,0.01207389,-0.3489727,0.468383,0.1368315
0.7608223,-0.108972,0.323658,-0.21761,-0.01338225,0.03330722,-0.4108557,0.344734,0.1357483
0.7624678,-0.1112149,0.3399003,-0.2164492,-0.01589402,0.04988064,-0.3930482,0.2424521,0.1379218
0.7805937,-0.1275382,0.3320445,-0.1988014,-0.03248329,0.04236492,-0.3801248,0.1159499,0.1492182
0.7900535,-0.1248194,0.369974,-0.1898015,-0.03002578,0.08063938,-0.2824133,0.002819367,0.1555658
0.7922192,-0.114535,0.3978975,-0.1880675,-0.01999617,0.108908,-0.1077723,-0.08751187,0.150233
0.7903609,-0.07850917,0.4054777,-0.1903202,0.01578265,0.1168279,-0.02850496,-0.2135087,0.1375452
0.799856,-0.03697798,0.3984404,-0.1811743,0.05707463,0.1101186,-0.01498647,-0.21,0.08635304
0.8294734,-0.02084325,0.3738396,-0.1518537,0.0729763,0.0858285,-0.03799427,-0.1297988,0.04074995
0.8800235,-0.0013834,0.3702823,-0.1015427,0.0922062,0.08255993,-0.09853522,-0.07322002,-0.01436921
0.9427524,0.01036278,0.3609937,-0.03899245,0.1037217,0.07353443,-0.2222618,-0.07911316,-0.06050084
1.028439,-0.01540185,0.3702746,0.04657584,0.07772164,0.0830498,-0.3692635,-0.1452049,-0.0675604
1.120084,-0.05067013,0.3893193,0.1381575,0.04220972,0.1022976,-0.4417384,-0.1057439,-0.1315404
1.127025,-0.02331146,0.4021888,0.1450829,0.0693144,0.1153357,-0.4653391,-0.01140816,-0.2619849
1.074122,0.0291644,0.4473755,0.09220182,0.1215239,0.1606528,-0.5335673,0.1368342,-0.4258337
1.07214,0.03587871,0.4840595,0.09027051,0.1279564,0.1974241,-0.7208332,0.2969998,-0.5566272
1.086748,0.04168111,0.50672,0.1049508,0.1334571,0.2201227,-0.8546087,0.3497831,-0.554826
1.080711,0.004547912,0.4837576,0.099001,0.09599837,0.1971422,-0.7785429,0.3735799,-0.4430582
1.079873,-0.1200145,0.3972035,0.09825756,-0.02891607,0.1105078,-0.6500489,0.1837393,-0.2562444
1.068226,-0.267276,0.3331483,0.08670845,-0.176554,0.04630729,-0.4862803,-0.0324383,-0.07217005
1.069344,-0.4111391,0.3139105,0.08792034,-0.3208101,0.02685965,-0.2419007,0.1461694,-0.02623749
1.060502,-0.5020908,0.3169371,0.07916497,-0.4121561,0.02961503,0.05270714,0.4056936,-0.0907529
0.9777225,-0.4580248,0.2825519,-0.003538302,-0.3684672,-0.005099113,0.3900031,0.4665621,-0.1696045
0.8723631,-0.2797485,0.2136732,-0.1088335,-0.1905325,-0.07435939,0.4710498,0.2581905,-0.2742528
0.8443081,-0.1023256,0.1675002,-0.1368327,-0.01340376,-0.1209598,0.2134093,-0.1373048,-0.3315052
0.9358273,-0.04221889,0.1333624,-0.04526077,0.04645959,-0.1555614,-0.01538764,-0.2663045,-0.2047854
1.04094,-0.07686037,0.1486274,0.05990592,0.01162307,-0.1407859,-0.150536,-0.1598397,-0.01018682
1.049512,-0.1246895,0.2055755,0.06853195,-0.03635657,-0.08434286,-0.2001364,-0.1500187,0.08866722
0.9828785,-0.1552934,0.2679507,0.001951952,-0.06706868,-0.02248017,-0.1094018,-0.1675075,0.09153177
0.9107619,-0.2054767,0.3010029,-0.07011447,-0.1173179,0.01005689,0.01575444,-0.2055533,0.01688668
0.9003328,-0.1968378,0.2527281,-0.08049474,-0.1087011,-0.03873307,0.2122761,-0.3298649,-0.04856374
0.8873814,-0.1581091,0.2314787,-0.09339521,-0.06994863,-0.06049502,0.3857004,-0.4044124,-0.04681341
0.863815,-0.1768296,0.2491283,-0.1169042,-0.08859787,-0.04335216,0.4495425,-0.4470109,-0.003682284
0.8989667,-0.1020002,0.2323553,-0.08168439,-0.01364969,-0.06062247,0.547796,-0.5172632,0.08243146
0.9046453,-0.006142301,0.2339889,-0.07592284,0.08237275,-0.05947315,0.5686637,-0.5090693,0.166477
0.916916,0.004424375,0.2287224,-0.06355147,0.09314451,-0.06520759,0.4903172,-0.4511542,0.214892
0.9610874,0.02808844,0.2205378,-0.01925981,0.1170467,-0.07384042,0.3993913,-0.3832983,0.2119316
0.9562802,0.05721135,0.2326771,-0.02392675,0.1464321,-0.06212634,0.2130086,-0.2778343,0.1560599
0.9783015,0.1033433,0.2302904,-0.001745747,0.1928415,-0.06491235,0.04406295,-0.2136999,0.1197765
0.9754303,0.1088561,0.239364,-0.00443898,0.1986363,-0.0562095,-0.05717549,-0.18469,0.1329928
0.9348208,0.08771895,0.248513,-0.04485358,0.1777749,-0.04740084,-0.148255,-0.1589601,0.191602
0.9639427,0.1046774,0.2507822,-0.01552047,0.1949927,-0.0454401,-0.1474949,-0.1565528,0.2692205
0.9767458,0.06141248,0.2522535,-0.002490401,0.1519619,-0.04424435,-0.07233341,-0.107704,0.3133541
0.9848423,0.01680946,0.2506126,0.005847618,0.1075603,-0.04612719,0.0348942,-0.02768169,0.2943596
1.012813,-0.01852054,0.2736887,0.03407262,0.07239403,-0.02325904,0.1717429,-0.001954438,0.1994786
0.9918893,-0.08148686,0.2916082,0.01341324,0.009551616,-0.005513754,0.3057574,-0.03265824,0.04924705
0.992798,-0.0785914,0.2882975,0.01459409,0.0125313,-0.008965987,0.4126838,-0.09526204,-0.1175609
1.028626,-0.0400499,0.2795071,0.05069934,0.05111879,-0.0178666,0.4849757,-0.148837,-0.2193392
1.072827,0.02105947,0.2672165,0.09518013,0.1122365,-0.03023739,0.575552,-0.1667243,-0.229921
1.128738,0.07779489,0.2579926,0.1513677,0.1689411,-0.03951214,0.6210232,-0.1224924,-0.1983339
1.166023,0.07402281,0.2522687,0.1889201,0.1650951,-0.04525787,0.4909265,0.002839526,-0.1773676
1.207703,0.07205261,0.2614327,0.2308501,0.1630028,-0.03608656,0.2348534,0.1200072,-0.2655671
1.224906,0.07902649,0.2544301,0.248274,0.1698019,-0.0430527,-0.111234,0.1224793,-0.3815898
1.194438,0.07156952,0.1986705,0.2179883,0.1621132,-0.09874655,-0.5302123,0.1372602,-0.3915101
1.164467,0.008985085,0.1316829,0.1881508,0.09923659,-0.1656374,-0.8114005,0.279742,-0.3781848
1.088222,-0.1624103,0.1345811,0.1119847,-0.07251174,-0.1626074,-0.7922601,0.321292,-0.3843571
0.9972821,-0.3283233,0.2585392,0.02106489,-0.2388333,-0.03847814,-0.6041819,0.2761153,-0.3692156
1.017777,-0.3246559,0.4074502,0.04152155,-0.2356177,0.1106442,-0.3368206,0.3285746,-0.2826627
1.052,-0.19833,0.4420424,0.07564924,-0.1097723,0.1454833,0.003725182,0.313298,-0.1241179
1.010577,-0.09007639,0.3539373,0.03407531,-0.002016393,0.05765211,0.07611116,0.274104,-0.01701263
0.9978754,-0.007357412,0.2675967,0.02117088,0.0801937,-0.02839456,-0.1721039,0.2926592,-0.01224243
0.9792559,0.03113876,0.2453502,0.002297892,0.1181704,-0.05033066,-0.385978,0.2731085,-0.01133587
0.9274804,0.01427,0.2259748,-0.04977725,0.1007692,-0.06937962,-0.6717927,0.3340874,0.03949164
0.9154746,-0.008375468,0.2410218,-0.06212364,0.07757549,-0.05398927,-0.9557704,0.4417789,0.07635663
0.8667461,-0.07199218,0.2773158,-0.1112269,0.01339314,-0.01733441,-0.9832723,0.5126103,0.1035866
0.8050141,-0.1242376,0.2685375,-0.1733593,-0.03943466,-0.02573463,-0.9730226,0.5470319,0.155412
0.7916715,-0.1360583,0.2932548,-0.1871182,-0.05185143,-0.0006231048,-0.9114398,0.4657892,0.191183
0.7609325,-0.1800887,0.3300229,-0.2182777,-0.09648656,0.03655354,-0.7637571,0.33177,0.2200258
0.7637485,-0.205576,0.3287448,-0.2158747,-0.1225811,0.03569531,-0.6212352,0.1627055,0.2391967
0.7998301,-0.2070475,0.3513678,-0.1801873,-0.124655,0.05874577,-0.4101807,-0.01388159,0.2283496
0.8100554,-0.1866234,0.3730058,-0.1703275,-0.1048212,0.08081461,-0.2551787,-0.1025535,0.1944373
0.8098461,-0.12758,0.3754706,-0.1708653,-0.04634983,0.08370869,-0.1606228,-0.1682233,0.1434594
0.7871032,-0.09143591,0.3823359,-0.1938925,-0.0107553,0.09099637,-0.1057457,-0.2131068,0.1253105
0.7829771,-0.05569989,0.3844738,-0.1982518,0.02445509,0.0935447,-0.1340639,-0.2058591,0.1294702
0.8273402,-0.02030323,0.3933245,-0.1540641,0.05934939,0.1027889,-0.1104588,-0.1896755,0.09567919
0.8970024,-0.01233109,0.4002145,-0.08451464,0.06684015,0.1100505,-0.1152792,-0.1800112,0.02632395
0.9649824,-0.01284755,0.3960733,-0.01658292,0.06586005,0.106254,-0.2105056,-0.2011068,-0.04990028
1.038211,-0.03445781,0.3950716,0.05665966,0.04380063,0.1055658,-0.3325786,-0.2207618,-0.1044062
1.148276,-0.05004613,0.3907295,0.1667953,0.0277751,0.1015017,-0.4286317,-0.159776,-0.1642832
1.164926,-0.04487356,0.4056207,0.1835638,0.0325207,0.1166321,-0.414033,-0.02441075,-0.2857819
1.108146,-0.0358582,0.4750794,0.1269358,0.04111804,0.186287,-0.4576604,0.1152777,-0.4068114
1.150313,-0.02847494,0.5454499,0.1692802,0.04809082,0.2568052,-0.5650495,0.2245396,-0.4238322
1.161814,-0.04041916,0.5275311,0.1809723,0.03574206,0.2389779,-0.5224977,0.2858359,-0.3607758
1.117928,-0.07455483,0.4536703,0.1372806,0.001206585,0.1651442,-0.4086082,0.2158919,-0.2411531
1.115335,-0.1343226,0.4028568,0.1348766,-0.05895617,0.1142879,-0.2779884,0.02027239,-0.06427105
1.081311,-0.2227065,0.3587873,0.101029,-0.1477276,0.07010344,-0.1320218,-0.04434669,0.02863241
1.075212,-0.3533767,0.3306707,0.09508929,-0.2787717,0.04180048,0.02272129,0.1791673,-0.02852931
1.041549,-0.4512124,0.3225065,0.06156288,-0.3769564,0.03338104,0.2795259,0.3542373,-0.1130138
0.8786867,-0.4017992,0.2695858,-0.1011875,-0.3278525,-0.01985992,0.4085408,0.100993,-0.2136775
0.7956191,-0.2898561,0.2024579,-0.184164,-0.2161643,-0.08736738,0.2838119,-0.2726958,-0.3018647
0.8734801,-0.1726191,0.1508883,-0.106226,-0.09911724,-0.1393678,0.1654058,-0.3244979,-0.2023052
0.9885185,-0.07925254,0.1053561,0.008882216,-0.005871654,-0.1853715,0.009936942,-0.239448,-0.0184054
1.045768,-0.1214172,0.1132435,0.06619718,-0.04808938,-0.1779839,-0.1001245,-0.1334901,0.06649505
1.019622,-0.1663816,0.1721367,0.04011167,-0.09304122,-0.1196068,-0.003828312,-0.004069907,0.08941499
0.959766,-0.1619863,0.2444496,-0.0196902,-0.08856945,-0.0478164,0.02845137,-0.1328387,0.009000464
0.903507,-0.2202552,0.2788564,-0.07590226,-0.1466979,-0.01393213,0.1389778,-0.3458012,-0.08317979
0.8958325,-0.2217509,0.2565985,-0.08353418,-0.1479881,-0.03670889,0.4617536,-0.3806752,-0.05472802
0.9205465,-0.1757568,0.2401989,-0.05877806,-0.1017219,-0.05362098,0.653537,-0.4318742,-0.008474297
0.9244769,-0.1446883,0.2212742,-0.0548027,-0.07031384,-0.07304848,0.7336495,-0.470514,0.07553913
0.9237663,-0.06848863,0.1871088,-0.05546248,0.006291002,-0.107703,0.7662915,-0.4250647,0.1881972
0.9328167,-0.02791753,0.1867576,-0.04635333,0.04732879,-0.1085247,0.7398818,-0.4050808,0.2486532
0.9519803,-0.01756397,0.1978137,-0.02712116,0.05820377,-0.09791532,0.7399007,-0.3559269,0.2732305
0.9673829,-0.002180764,0.203661,-0.01163934,0.0741552,-0.09248609,0.6926388,-0.2786733,0.2458456
0.9790401,0.005798764,0.2280691,0.00010791,0.08274138,-0.06846352,0.6369379,-0.2429496,0.2328416
0.9772644,0.04457762,0.2438706,-0.001567654,0.1221567,-0.05301234,0.5745079,-0.1896849,0.2461459
0.9530162,0.07341252,0.2405668,-0.02570635,0.1516485,-0.0566294,0.4443912,-0.1381918,0.2645851
0.9418362,0.09155071,0.2399943,-0.03676755,0.1704538,-0.05747711,0.341039,-0.1387869,0.3484139
0.9469126,0.07591858,0.2371044,-0.03156279,0.1554884,-0.06060315,0.2980782,-0.1367172,0.4278357
0.9829033,0.02234867,0.2334575,0.00456623,0.1025752,-0.06444627,0.3365578,-0.1144238,0.4507727
1.033638,-0.00805199,0.244572,0.05544828,0.07281343,-0.05348727,0.4486649,-0.07533882,0.4112427
1.047168,-0.06770192,0.2654447,0.06913357,0.01377973,-0.0327291,0.5913263,-0.03961401,0.305446
1.050957,-0.09128847,0.2744195,0.07308013,-0.009215578,-0.02382821,0.7080706,-0.04350504,0.18351
1.052246,-0.03257081,0.2717701,0.07452535,0.05006763,-0.02651203,0.7439318,-0.0639137,0.04421232
1.044118,0.00855993,0.2726027,0.06654773,0.09173707,-0.02567582,0.8075212,-0.11027,-0.05445373
1.057596,0.06908737,0.2763907,0.08016777,0.1527732,-0.02184763,0.867357,-0.186226,-0.06349566
1.104582,0.1365708,0.2869681,0.1272831,0.2207295,-0.01119498,0.7730615,-0.2007009,-0.07630065
1.181142,0.1109719,0.297179,0.2039536,0.1955601,-0.000875845,0.5653296,-0.1334028,-0.1698201
1.226983,0.06337124,0.2935773,0.2498799,0.1483373,-0.004338542,0.2565796,-0.09600526,-0.29899
1.196605,0.08891221,0.2861093,0.2195527,0.1741981,-0.0116391,-0.1101129,-0.1024795,-0.3500581
1.155669,0.08860432,0.2534482,0.1786229,0.1741468,-0.04410637,-0.4384006,-0.02722132,-0.3359813
1.127731,0.01984645,0.1606142,0.1506394,0.1055777,-0.1367205,-0.7519719,0.2018407,-0.3329313
1.087061,-0.07802287,0.07679442,0.1098685,0.007827123,-0.2202919,-0.9342192,0.4624517,-0.3385797
1.059124,-0.2679062,0.1103602,0.0817718,-0.1820048,-0.1864436,-0.8378062,0.5160967,-0.3690624
1.043999,-0.4028983,0.2460394,0.06642893,-0.3170034,-0.05044188,-0.5342474,0.4363616,-0.3761773
1.074332,-0.369088,0.3919603,0.09648515,-0.2832418,0.09584312,-0.1334505,0.427132,-0.2365689
1.120181,-0.2877602,0.4341255,0.1420002,-0.2019877,0.1384094,0.09347116,0.3764589,-0.003844719
1.047712,-0.1426724,0.3413831,0.06913937,-0.05698459,0.04609686,-0.02805149,0.3012752,0.1032779
0.9603163,-0.03610854,0.2713353,-0.01870613,0.04949092,-0.02349972,-0.1705056,0.3160104,0.09536131
0.9642987,-0.05505939,0.2588924,-0.015227,0.03044995,-0.03547391,-0.3037143,0.3749142,0.1643077
0.9505649,-0.0741268,0.2268233,-0.02951215,0.01128974,-0.06705798,-0.5639618,0.5188009,0.2367853
0.9152413,-0.1074342,0.2401549,-0.06542878,-0.02211364,-0.05322524,-0.5641888,0.6069304,0.2225903
0.8740309,-0.1342844,0.2726422,-0.1072666,-0.04906225,-0.02022034,-0.453555,0.5499258,0.2225275
0.8123826,-0.1283416,0.2832666,-0.1695679,-0.04321821,-0.009062731,-0.5110975,0.4898701,0.2376781
0.7709197,-0.1446078,0.3213203,-0.2116987,-0.0595809,0.02953796,-0.3675347,0.3284202,0.241522
0.7470682,-0.1470805,0.346843,-0.2362202,-0.06214506,0.05561827,-0.207787,0.152799,0.2340002
0.7550758,-0.1423683,0.3557352,-0.2288718,-0.05751641,0.06507441,-0.1935416,0.1086798,0.1914287
0.7795275,-0.136512,0.3557279,-0.2050556,-0.05173297,0.06563247,-0.07261992,0.01723567,0.1339393
0.7674435,-0.1117493,0.3544232,-0.2177399,-0.02703046,0.06488964,0.01965224,-0.08393586,0.08134779
0.7568686,-0.08007542,0.3905243,-0.2288701,0.004597169,0.1015441,0.1077842,-0.1417462,0.06296697
0.7744171,-0.04324313,0.4178243,-0.211822,0.04139666,0.1293836,0.1704069,-0.1888629,0.07054542
0.8216779,-0.0394385,0.4287323,-0.1649984,0.04518007,0.140811,0.1084718,-0.1305558,0.05160147
0.9014461,-0.04899963,0.4393151,-0.08559821,0.03560657,0.1518863,0.08584326,-0.09093986,0.009948221
0.9507425,-0.03110752,0.4398746,-0.03659832,0.0534924,0.1529046,0.02243536,-0.2076935,-0.03576483
1.012538,-0.01825849,0.4392265,0.02497144,0.06633836,0.1526748,-0.1217576,-0.2960116,-0.06389789
1.110574,-0.009335736,0.432318,0.1228469,0.07525798,0.1461382,-0.239319,-0.1971783,-0.1111045
1.091927,0.03015953,0.4493628,0.1040982,0.1147463,0.1635029,-0.3127132,-0.07268153,-0.2386482
1.028369,0.09346614,0.4859318,0.04048808,0.178037,0.2003346,-0.4152511,-0.02633706,-0.3453375
1.044795,0.1038338,0.512993,0.05690417,0.1883734,0.2275952,-0.6138613,0.1113897,-0.3392388
1.073657,0.01790499,0.5183649,0.08579209,0.1023905,0.2330963,-0.6691325,0.3296885,-0.2572346
1.128616,-0.1207628,0.4799027,0.140806,-0.03635892,0.1946866,-0.468822,0.3614523,-0.1048445
1.163103,-0.2939009,0.4139543,0.1753691,-0.2096051,0.1287086,-0.1841131,0.08419514,0.07569704
1.189025,-0.4458659,0.3346177,0.2013798,-0.361696,0.04925843,0.1416976,-0.1238244,0.1637927
1.228852,-0.4858333,0.3056901,0.2412952,-0.4017915,0.02013481,0.5034532,0.1486361,0.1236163
1.049572,-0.4439046,0.3139168,0.06209383,-0.3599742,0.02808726,0.7654499,0.4209134,0.0232752
0.7783905,-0.3692311,0.2547914,-0.2090241,-0.2853774,-0.03138527,0.7422995,0.2329681,-0.1030811
0.7556966,-0.2280521,0.2096477,-0.2316656,-0.1442268,-0.07694242,0.5037523,-0.03312112,-0.1921128
0.9061214,-0.07888608,0.1988538,-0.08119064,0.004966488,-0.08820745,0.2332326,-0.3124599,-0.1170454
1.045842,-0.06363133,0.15589,0.05858549,0.02030437,-0.1316904,0.03735962,-0.5320951,0.001942977
1.079147,-0.1316159,0.1599824,0.09195118,-0.04754473,-0.1281548,0.05840981,-0.2935692,0.02638732
1.008463,-0.1732108,0.2223292,0.0213314,-0.08895489,-0.06639205,0.1893103,-0.1261766,0.05986514
0.9070986,-0.2216304,0.2782729,-0.07996911,-0.1371412,-0.01105139,0.3244293,-0.2985193,0.0460736
0.8216801,-0.2493509,0.2845177,-0.1653219,-0.1645784,-0.005423223,0.5749265,-0.3139102,0.0153566
0.8175681,-0.230308,0.256742,-0.1693611,-0.145199,-0.03382562,0.8810988,-0.4009786,0.1195762
0.8616703,-0.1996614,0.2428251,-0.1251718,-0.11416,-0.04837547,1.121373,-0.5937649,0.1967985
0.8854987,-0.1338728,0.2103646,-0.101236,-0.04792194,-0.08147106,1.177613,-0.5672523,0.2186103
0.9310354,-0.0734192,0.1961984,-0.05556756,0.01303699,-0.09626922,1.165534,-0.528317,0.3143829
0.9824258,-0.04109892,0.2204771,-0.004019291,0.04591402,-0.07261344,1.262636,-0.4865722,0.3965504
0.9878195,0.007062018,0.2157688,0.001557898,0.09467646,-0.07793051,1.203621,-0.3789335,0.3700751
0.9866436,0.0490648,0.2234894,0.00058911,0.1373169,-0.07079975,1.032972,-0.3388145,0.3055237
0.9840967,0.0836473,0.2362459,-0.001729307,0.172563,-0.05861015,0.8836994,-0.3023394,0.2848531
0.9634878,0.110092,0.2238781,-0.02209038,0.1996855,-0.07151873,0.5978228,-0.2084744,0.2621315
0.9433951,0.1098413,0.2401005,-0.04191733,0.2001147,-0.05580795,0.4340914,-0.1436424,0.3213704
0.9157647,0.1170656,0.2510321,-0.06926432,0.2080087,-0.04535633,0.3608974,-0.1360191,0.4800468
0.9226437,0.1140166,0.2434555,-0.06208359,0.2056076,-0.05337966,0.2427193,-0.1105448,0.5688014
0.9673007,0.06183879,0.2479447,-0.01710585,0.1540455,-0.04930243,0.3380044,-0.1166897,0.6095458
0.9896649,0.01536335,0.2483943,0.005597773,0.108145,-0.04922891,0.3982621,-0.1435124,0.5472565
1.029168,-0.002731992,0.2558973,0.04545721,0.09057849,-0.04206504,0.3311315,-0.09907339,0.3625386
1.083231,-0.04641515,0.2698766,0.0998895,0.04737466,-0.02838756,0.3626405,-0.07824742,0.1503983
1.094082,-0.08022237,0.2946317,0.1111176,0.01399613,-0.003896951,0.3767724,-0.07975485,-0.07559836
1.078088,-0.03949337,0.3358677,0.09550098,0.05510356,0.03711034,0.4626601,-0.08294361,-0.1053676
1.061591,0.00827306,0.3559956,0.07937665,0.1031984,0.05704267,0.6630179,-0.1460168,0.008813992
1.060407,0.009830629,0.3603128,0.07855464,0.1050334,0.06119334,0.7388813,-0.1783116,0.03529483
1.113999,-0.002675158,0.3706576,0.132493,0.09275193,0.07139599,0.656454,-0.121469,0.03419934
1.216845,-0.02670247,0.3593053,0.2356641,0.06889412,0.05992114,0.4760839,-0.06511425,-0.06718239
1.243791,-0.03580191,0.2812288,0.2629056,0.0599087,-0.01826208,0.1263607,-0.06301351,-0.231813
1.179254,-0.02163877,0.1325219,0.1986235,0.07413055,-0.167061,-0.3523255,0.05639283,-0.2706595
1.128584,-0.04235447,0.0183159,0.1481598,0.0534187,-0.28134,-0.6653604,0.3382718,-0.3009236
1.072775,-0.1176745,0.04453175,0.09250077,-0.02195105,-0.255169,-0.7362041,0.4729175,-0.4138976
1.042712,-0.2243307,0.1519259,0.06252926,-0.1287069,-0.147781,-0.5998108,0.4164054,-0.449648
1.085716,-0.2746094,0.2984542,0.1055664,-0.1791274,-0.001213389,-0.2654826,0.4178251,-0.296961
1.09629,-0.2488466,0.4283472,0.1161136,-0.153538,0.1287648,-0.05047793,0.4416172,-0.08225671
1.019654,-0.192776,0.3419107,0.039392,-0.09766182,0.0424538,-0.04378789,0.3426764,0.04194915
0.9323558,-0.079432,0.2065642,-0.04805141,0.01547474,-0.09273259,-0.138755,0.2698268,0.06034364
0.9230821,-0.03097031,0.2474495,-0.05752422,0.06371965,-0.05165529,-0.3308219,0.3368229,0.0607947
0.933626,-0.08936389,0.23652,-0.04722707,0.005100303,-0.06236065,-0.4993315,0.4281844,0.1243657
0.8859331,-0.1143876,0.2064488,-0.09520728,-0.02015825,-0.09217513,-0.6412998,0.5185784,0.1459766
0.8444061,-0.1510664,0.2607031,-0.1370544,-0.05707927,-0.03763121,-0.653639,0.5494899,0.105402
0.811205,-0.1653814,0.2660967,-0.1705993,-0.07164095,-0.03191492,-0.5369345,0.4283412,0.1065249
0.7716685,-0.1290277,0.3051747,-0.2104926,-0.03553436,0.007517326,-0.4924432,0.2401642,0.09817595
0.7753406,-0.1543611,0.3325994,-0.2071789,-0.06111183,0.03532503,-0.4139733,0.1041618,0.07525713
0.7855302,-0.1532018,0.30439,-0.1973377,-0.06019037,0.007523715,-0.3451555,0.08351236,0.0653079
0.7795559,-0.1236628,0.3398913,-0.2036397,-0.03088013,0.04345395,-0.2639805,0.03938784,0.05053778
0.78459,-0.1180327,0.3712059,-0.1989027,-0.02546723,0.07521392,-0.08223844,-0.1036682,0.0522843
0.7795205,-0.06726972,0.4009021,-0.2042298,0.02509109,0.1053666,-0.0468866,-0.1546625,0.05121534
0.7727827,-0.01971481,0.4261104,-0.2111776,0.07245327,0.1310358,-0.0489489,-0.1555322,0.0501066
0.7998925,0.03002287,0.4163022,-0.1842221,0.1220073,0.1216855,-0.02604549,-0.163426,0.03987791
0.8553426,0.05629803,0.4295224,-0.1288648,0.1481029,0.135353,-0.1561302,-0.07404122,-0.0187884
0.9295486,0.008715318,0.4267081,-0.05468647,0.1003385,0.1329683,-0.3181335,-0.0303862,-0.09696883
1.001153,0.002746568,0.4296221,0.01695524,0.09418036,0.1362876,-0.4642887,-0.1141398,-0.1513068
1.048505,0.01780639,0.4356522,0.06440697,0.1090388,0.1426922,-0.5679996,-0.1637373,-0.1935489
1.08429,0.01419683,0.42288,0.1003449,0.1052121,0.1302579,-0.5988596,-0.04252165,-0.2949926
1.086365,0.03137183,0.4625122,0.1026202,0.1221503,0.1701858,-0.6338736,0.1932168,-0.4011598
1.080887,0.02144666,0.5102816,0.09738028,0.1119649,0.2182028,-0.656458,0.3698219,-0.3929651
1.160901,-0.01902801,0.5187343,0.1776615,0.07120334,0.2268481,-0.6226995,0.4313619,-0.2831049
1.239152,-0.1179606,0.4669422,0.2561966,-0.02804419,0.1751861,-0.4790189,0.2901155,-0.06807632
1.221012,-0.2854647,0.3816614,0.2383463,-0.1958887,0.08996749,-0.2225326,0.1402742,0.1717438
1.187185,-0.4296257,0.3647916,0.2048018,-0.3404068,0.07308947,0.1495042,0.3308714,0.228166
1.093062,-0.499244,0.3635181,0.1109421,-0.4103832,0.07173783,0.4981163,0.5008377,0.05439308
0.9005977,-0.4653669,0.3117261,-0.08128394,-0.3768463,0.01979952,0.5642484,0.3501289,-0.1735234
0.7933831,-0.3470084,0.2377086,-0.1882855,-0.2587912,-0.054429,0.4308577,0.02102595,-0.2428953
0.8531742,-0.1870986,0.1542425,-0.1282997,-0.09913424,-0.1381645,0.21837,-0.4251141,-0.1690517
0.9765942,-0.06914677,0.08727527,-0.004695777,0.0186215,-0.2054495,-0.005301156,-0.5361032,-0.03692409
1.063858,-0.1026656,0.07133071,0.08274438,-0.01503685,-0.2217475,-0.04515701,-0.1971184,0.1339151
1.047157,-0.1858338,0.1337998,0.06621136,-0.09829047,-0.1596537,0.0692697,-0.07124316,0.1539825
0.9411518,-0.2255081,0.2316702,-0.0396362,-0.137997,-0.06216864,0.1961089,-0.2198787,-0.008805026
0.8542473,-0.2521571,0.2742997,-0.1263941,-0.164623,-0.01992706,0.3701827,-0.3383753,-0.1260221
0.8377564,-0.2239679,0.2516552,-0.1427449,-0.1363521,-0.04295786,0.6403904,-0.4648693,-0.1456241
0.8719712,-0.1800879,0.222493,-0.1083905,-0.09232915,-0.07250164,0.8205399,-0.5313743,-0.0702995
0.9149837,-0.1316289,0.2167717,-0.065233,-0.04366478,-0.07859637,0.8383868,-0.5246654,0.09370438
0.9200395,-0.07178373,0.2133294,-0.0600229,0.01644625,-0.08239962,0.8645946,-0.5208502,0.2151754
0.9221308,-0.06992657,0.2083277,-0.0577656,0.01862582,-0.08774567,0.8551539,-0.4635082,0.2506637
0.9349607,-0.03652724,0.2004213,-0.04475639,0.05239833,-0.09597554,0.8008494,-0.3710517,0.2555729
0.9427484,0.003826713,0.1960057,-0.03677485,0.09316945,-0.1006898,0.7341225,-0.2797595,0.2372359
0.9707718,0.009312197,0.2046157,-0.008542782,0.09910816,-0.09234955,0.557462,-0.1955598,0.1725362
0.9775066,0.08020193,0.1969728,-0.001584722,0.1704782,-0.1002297,0.3594375,-0.1287888,0.1481281
0.9572544,0.09673296,0.198125,-0.02160047,0.1875062,-0.09927888,0.2074815,-0.1051957,0.2357514
0.9477063,0.07204586,0.2170937,-0.0308996,0.1633217,-0.08047284,0.1216782,-0.1474152,0.3653897
0.9515502,0.08575935,0.2196628,-0.0267946,0.1775325,-0.07802535,0.1433997,-0.1686997,0.5106143
0.9874789,0.03689916,0.2257483,0.009406779,0.1291547,-0.07201899,0.1939371,-0.1304591,0.555489
1.032431,-0.00963008,0.2446398,0.05464201,0.08308518,-0.05316311,0.3068395,-0.0700978,0.4457167
1.055231,-0.04373574,0.2910834,0.07773162,0.04941142,-0.006711765,0.4949666,-0.02178157,0.3006087
1.051703,-0.06388621,0.326816,0.07449699,0.02966226,0.0290701,0.5755241,-0.03847812,0.06496554
1.047699,0.007905985,0.3060858,0.07078321,0.1018236,0.008427606,0.4863336,-0.08760807,-0.1452397
1.060616,0.09211331,0.3047877,0.08398464,0.1863651,0.007251703,0.3768175,-0.1310253,-0.1553911
1.075318,0.1343844,0.3226511,0.09896046,0.2289298,0.02526836,0.321499,-0.1655155,-0.1010631
1.136311,0.07815214,0.3190814,0.1602108,0.1729429,0.02187948,0.2419216,-0.1365333,-0.07316806
1.214145,-0.02862575,0.3186014,0.2382792,0.06635564,0.02160428,0.1421271,-0.09438149,-0.1560296
1.220234,-0.04078879,0.2911754,0.2445719,0.05432539,-0.005596174,-0.01524532,-0.1091338,-0.3028031
1.186002,-0.01352634,0.2117065,0.2105017,0.08166268,-0.08482092,-0.3287619,-0.05620178,-0.3561251
1.165873,-0.01049649,0.1247792,0.1904848,0.08470981,-0.1714847,-0.6283214,0.1224506,-0.3942997
1.140423,-0.09385183,0.1115578,0.1650878,0.001314749,-0.1844191,-0.7679173,0.3059111,-0.4491051
1.056255,-0.2768396,0.1843976,0.08091223,-0.1817665,-0.1112632,-0.7733454,0.3876486,-0.4768725
0.9814454,-0.3995632,0.2866669,0.006029883,-0.3046283,-0.008644806,-0.5384598,0.3795,-0.4326093
1.008353,-0.393976,0.379903,0.03280384,-0.2992091,0.08497301,-0.1819959,0.3957695,-0.2576095
1.027054,-0.2904704,0.3810434,0.05131173,-0.1958843,0.08652298,-0.07621126,0.3800063,-0.03193372
0.9857835,-0.1497176,0.3137306,0.009792796,-0.05531213,0.01964108,-0.1750359,0.3007012,0.1108393
0.9769846,-0.04744249,0.285848,0.0006933031,0.0467897,-0.007794614,-0.2622053,0.3064234,0.08125822
0.9685961,-0.0246803,0.2536098,-0.008043929,0.06938686,-0.03957268,-0.4512997,0.3257107,0.0375996
0.937132,-0.06880529,0.2352714,-0.03990019,0.02510286,-0.0574389,-0.7267569,0.3549702,0.08349862
0.9311254,-0.09473014,0.2684508,-0.04633675,-0.0009770879,-0.02377529,-0.82642,0.4590487,0.04247384
0.8904935,-0.1063738,0.2866955,-0.08743026,-0.0127726,-0.005034743,-0.7679083,0.4921051,0.0142954
0.8147242,-0.12094,0.3146079,-0.1636855,-0.02748699,0.0233838,-0.7339852,0.429935,0.06182034
0.7944514,-0.1128316,0.3274273,-0.184459,-0.01952216,0.0367169,-0.7244842,0.3211979,0.0721739
0.8138962,-0.1287133,0.3021936,-0.1655188,-0.03554132,0.0120015,-0.7019021,0.2518325,0.115811
0.8280461,-0.1485829,0.3082364,-0.1518671,-0.05554079,0.01856402,-0.6640535,0.202956,0.1176196
0.834501,-0.1453618,0.3262899,-0.1458946,-0.05244012,0.03713623,-0.5481536,0.0881164,0.07498577
0.8258733,-0.1379327,0.3577989,-0.1549811,-0.04511955,0.0691599,-0.3444285,0.03414855,0.06710918
0.7934507,-0.106754,0.3877665,-0.1878312,-0.0140357,0.09963431,-0.1852303,-0.04600583,0.02167012
0.7676834,-0.06052775,0.3769581,-0.2139868,0.03210971,0.08931982,-0.1371166,-0.1707913,0.01413676
0.7753399,-0.02112032,0.3773277,-0.2066713,0.07144917,0.09016541,-0.1213023,-0.156152,0.01716888
0.8086428,-0.009135607,0.3832234,-0.173654,0.08337553,0.09651436,-0.1163748,-0.1074651,-0.02769096
0.8616823,-0.01686509,0.3802063,-0.1208384,0.0755931,0.09392347,-0.1503936,-0.09700348,-0.03476615
0.9042769,-0.02900786,0.3894456,-0.07840223,0.06339858,0.1035577,-0.2300083,-0.1706009,-0.05213311
0.97666,-0.05691552,0.3947537,-0.00611162,0.03543696,0.1092256,-0.3078805,-0.2685021,-0.06833697
1.087189,-0.06417592,0.4046012,0.1043882,0.02811813,0.1193938,-0.2825009,-0.195584,-0.07047869
1.101795,-0.02520857,0.43607,0.1190214,0.06702098,0.1511401,-0.2522545,-0.1069827,-0.1269777
1.076548,0.05074362,0.4860557,0.09384921,0.1429002,0.2013552,-0.3525871,-0.07425205,-0.1912965
1.11018,0.114062,0.5194139,0.1275949,0.2061325,0.2348885,-0.5275718,0.08282065,-0.2402783
1.113601,0.08299742,0.4973907,0.1311581,0.1749614,0.2129788,-0.7655137,0.341024,-0.251623
1.123683,-0.01372975,0.4598609,0.1414025,0.07810045,0.1754938,-0.8919352,0.4819749,-0.1609123
1.163773,-0.1192362,0.4408074,0.1816661,-0.02757089,0.1564114,-0.698939,0.3559286,0.01225784
1.146554,-0.2433024,0.3934343,0.164622,-0.1518315,0.1089326,-0.4028515,0.2052556,0.1712649
1.137141,-0.3755092,0.3311664,0.1553771,-0.2842546,0.04648147,-0.1510742,0.280758,0.1889858
1.120773,-0.4623119,0.3188125,0.13916,-0.3712825,0.03386864,0.1108418,0.4898539,0.02738755
0.957471,-0.433463,0.3108826,-0.02401142,-0.3426503,0.02560802,0.320625,0.6260555,-0.1907833
0.727866,-0.3195807,0.2514664,-0.2535084,-0.2289594,-0.03420585,0.4075903,0.306455,-0.3229487
0.6958553,-0.2028153,0.1764056,-0.2854256,-0.1123471,-0.1097248,0.3184316,-0.2417338,-0.3571037
0.9303128,-0.09553759,0.119462,-0.05087718,-0.005177562,-0.1671774,0.1242709,-0.3198296,-0.3038243
1.10582,-0.05109214,0.08880583,0.1247251,0.03920499,-0.1983818,-0.0993238,-0.2548415,-0.1696028
1.055034,-0.09469508,0.103903,0.0740388,-0.004418518,-0.1838585,-0.2197702,-0.2672928,-0.07947507
1.029763,-0.1700891,0.1681258,0.04886662,-0.07979399,-0.1202227,-0.05284051,-0.1098194,-0.0874056
1.020852,-0.2275925,0.2413056,0.0400506,-0.1372402,-0.04763282,0.1274769,-0.2097682,-0.1454165
0.89589,-0.2386505,0.2777194,-0.08482258,-0.1482003,-0.01180577,0.2825486,-0.4230653,-0.1986989
0.8669157,-0.2400519,0.2562987,-0.1137123,-0.1494592,-0.03380634,0.5760687,-0.4237767,-0.1580153
0.9266095,-0.2090336,0.2264333,-0.05393412,-0.1182502,-0.06424202,0.6703292,-0.503284,-0.06256567
0.8935665,-0.1225983,0.2169208,-0.08688895,-0.03157344,-0.07431198,0.6589067,-0.5320501,0.05669568
0.8888,-0.06982624,0.1794884,-0.09155984,0.02149014,-0.1122849,0.7108885,-0.5138303,0.2291659
0.9131544,-0.0615052,0.1681605,-0.06709909,0.03014901,-0.1241311,0.669427,-0.5299313,0.3452699
0.9171527,-0.06202281,0.195194,-0.06298067,0.03001031,-0.09758819,0.7103465,-0.4591481,0.3531045
0.9915673,-0.04274223,0.1897339,0.01156958,0.04970523,-0.1035063,0.7313076,-0.4254564,0.2980508
1.033457,0.004884263,0.191763,0.05361009,0.09777544,-0.1018984,0.6030108,-0.323007,0.2242501
1.026854,0.03971318,0.1965095,0.04717049,0.1330702,-0.09753235,0.4584933,-0.1755118,0.1710469
1.024627,0.06905833,0.2005492,0.04511497,0.1628945,-0.09382938,0.2383655,-0.1254489,0.1680158
0.9809693,0.08361125,0.2282015,0.001634656,0.1779302,-0.06646745,0.06832357,-0.08869764,0.246776
0.9688585,0.04693486,0.2384375,-0.01029537,0.1417303,-0.05647394,0.04829695,-0.09985342,0.3407996
0.9784656,-0.001498212,0.2517527,-0.0005049118,0.0937586,-0.04335297,0.1553223,-0.09410916,0.40842
0.985697,-0.01929139,0.2621711,0.006911984,0.0764054,-0.03308078,0.3724459,-0.06109716,0.4359809
1.021178,-0.05516635,0.2591941,0.04257902,0.04094488,-0.0361571,0.5521019,-0.02695695,0.3953687
1.033665,-0.09867317,0.2717704,0.05525259,-0.002175177,-0.02363458,0.7324898,0.03562006,0.3395059
1.03336,-0.07182035,0.2719076,0.05512934,0.02503628,-0.02350724,0.8598174,0.01225072,0.2049962
1.034001,-0.01677137,0.2734264,0.05594544,0.08041559,-0.02195621,0.828652,-0.04864025,0.01428864
1.037819,0.07167803,0.2824526,0.05992951,0.1691651,-0.01285779,0.767827,-0.1047643,-0.05007293
1.04645,0.1747531,0.2749411,0.06871512,0.2725046,-0.0202592,0.642316,-0.153699,-0.02612347
1.070178,0.1649635,0.271659,0.09258118,0.2629349,-0.02339542,0.4390229,-0.1531836,-0.0401997
1.147267,0.106327,0.2733026,0.1697896,0.2044636,-0.02157216,0.2271754,-0.1298932,-0.1190041
1.19297,0.05511382,0.2696532,0.2155866,0.1533526,-0.02500992,0.0007550016,-0.05151448,-0.1858909
1.172455,0.00187243,0.2621147,0.1951336,0.1001456,-0.03230634,-0.2404893,-0.02387807,-0.1891514
1.160375,-0.02251622,0.2416036,0.1830742,0.07572143,-0.05254615,-0.4941339,0.001577268,-0.1869219
1.131872,-0.1321011,0.1745793,0.1545448,-0.03396776,-0.1192704,-0.5790352,0.2133881,-0.2111562
1.043711,-0.3136563,0.116875,0.06630443,-0.2156908,-0.1766441,-0.5373587,0.4238016,-0.2972685
0.9468867,-0.3887601,0.208029,-0.03065191,-0.2910149,-0.08512538,-0.5321179,0.465193,-0.4117176
0.9174202,-0.3532847,0.3307952,-0.06030152,-0.2557959,0.03804171,-0.3210954,0.3834671,-0.4207834
0.94639,-0.2643833,0.3243645,-0.03155961,-0.1671708,0.03204619,-0.02039966,0.3139076,-0.2763125
0.9690642,-0.1339099,0.3432019,-0.009152176,-0.03698096,0.05134826,0.01278403,0.2954206,-0.08347834
0.9562813,-0.06516954,0.3754758,-0.02223598,0.03147524,0.08411052,-0.0876438,0.2098516,0.01233084
0.9530079,-0.08381356,0.2966823,-0.02584008,0.0125483,0.005823152,-0.2027266,0.1587731,0.01304167
0.9804202,-0.04593792,0.2496669,0.001215862,0.05014209,-0.04067285,-0.4258992,0.2131952,0.01903755
0.9827542,-0.03070501,0.2371317,0.003171154,0.06509303,-0.05267732,-0.7181927,0.3138491,0.05833719
0.9647045,-0.1094276,0.2375094,-0.0152767,-0.01391302,-0.05175766,-0.8605541,0.4496461,0.06188864
0.9163408,-0.1392261,0.293726,-0.06405479,-0.04399676,0.005012032,-0.8119021,0.4792216,0.049109
0.8378852,-0.1740364,0.2907677,-0.1429364,-0.07909173,0.00261675,-0.7391839,0.3681835,0.08777411
0.8105848,-0.1981825,0.3107529,-0.1706671,-0.1035183,0.02317288,-0.6250914,0.2304037,0.113678
0.8170803,-0.1639796,0.3596083,-0.1645973,-0.0695868,0.07260393,-0.4801251,0.1159954,0.131415
0.8251769,-0.1693585,0.3371161,-0.1569124,-0.07522358,0.0506878,-0.3901739,0.04241283,0.1464113
0.832808,-0.1383713,0.3627856,-0.1496706,-0.04447735,0.07692943,-0.3104121,-0.03403946,0.1249632
0.8168927,-0.09150029,0.3751959,-0.1659454,0.002171874,0.08990292,-0.2348266,-0.130913,0.1120908
0.7952298,-0.0726687,0.3571604,-0.1879309,0.02080118,0.07241674,-0.1784725,-0.1874901,0.07380934
0.7801987,-0.02528734,0.3804239,-0.2032401,0.06799833,0.09621109,-0.1258866,-0.1944893,0.04157724
0.7856406,-0.01260196,0.3658311,-0.1980245,0.08051451,0.08212604,-0.08758717,-0.1975991,0.03515718
0.8191567,-0.009800823,0.3649757,-0.1646761,0.08315729,0.08175124,-0.08927251,-0.198159,-0.01215427
0.881835,-0.01896684,0.3714328,-0.1021016,0.07383931,0.08865809,-0.1188389,-0.2077445,-0.02695636
0.9791436,-0.06480722,0.3590799,-0.004830834,0.02784957,0.07672064,-0.1618615,-0.217343,-0.02015488
1.078466,-0.0853938,0.3758238,0.09451766,0.007113915,0.09384282,-0.2149498,-0.14268,-0.05819592
1.12534,-0.09536725,0.3857996,0.1414752,-0.003009066,0.1041567,-0.2226518,-0.02060608,-0.1377647
1.0966,-0.07225882,0.4197018,0.112865,0.01994941,0.1383538,-0.2402058,0.03118146,-0.2778087
1.080475,-0.02973846,0.4598233,0.09690885,0.06231908,0.1787227,-0.3567656,0.03492171,-0.3714159
1.116796,0.01490889,0.4911217,0.1334268,0.1068132,0.2102158,-0.5010573,0.1942332,-0.3383232
1.152719,0.07252797,0.5431264,0.1695654,0.1642727,0.2623554,-0.569411,0.5321491,-0.229476
1.196638,0.006741172,0.5202852,0.2137103,0.09831444,0.2395817,-0.5183218,0.6301841,-0.01539856
1.182204,-0.1639357,0.4491742,0.1995013,-0.07254962,0.1684632,-0.3766079,0.344176,0.2402387
1.131957,-0.3169958,0.4090344,0.1494674,-0.2258111,0.1282359,-0.1309963,0.1560829,0.3010071
1.134352,-0.4691349,0.3613917,0.152055,-0.3781566,0.08042399,0.2230452,0.3103246,0.1666911
1.005912,-0.5190328,0.3341629,0.02378114,-0.4282501,0.05294535,0.5452555,0.3839554,0.01366352
0.7820974,-0.4263167,0.3047551,-0.1998964,-0.3356998,0.02320991,0.6851859,0.09200728,-0.1262879
0.7574392,-0.3328608,0.2092636,-0.2244403,-0.2423628,-0.07268201,0.5843386,-0.2450709,-0.141374
0.8732081,-0.2071792,0.1255284,-0.1085699,-0.1167417,-0.1568823,0.3716488,-0.3611836,0.02459087
0.9702658,-0.07540701,0.09390672,-0.01141504,0.01503352,-0.1890224,0.1515214,-0.2825283,0.1991096
1.024883,-0.1056358,0.1117614,0.04329872,-0.01512983,-0.1717258,0.007276258,-0.1350961,0.2961066
0.9918149,-0.1828582,0.190666,0.01032568,-0.0922277,-0.09340594,0.1198419,-0.1013416,0.2210454
0.9170101,-0.1971848,0.2715427,-0.06438542,-0.1063726,-0.01313076,0.2658345,-0.2562132,0.02795187
0.8834901,-0.2240388,0.3121027,-0.09781229,-0.1329876,0.0268169,0.3666467,-0.504335,-0.0729881
0.8791917,-0.2009364,0.2800367,-0.1020145,-0.1095879,-0.005869369,0.6209535,-0.5599212,-0.09603246
0.8925359,-0.1431635,0.2380613,-0.08856663,-0.05145858,-0.04847092,0.7259497,-0.4873223,-0.01933232
0.9020535,-0.1210988,0.2507264,-0.07893392,-0.02897954,-0.03643441,0.7022715,-0.5573902,0.09966916
0.8946222,-0.05812412,0.2280476,-0.08623551,0.03446416,-0.05974028,0.7406501,-0.546179,0.152333
0.9098825,-0.009596913,0.2177745,-0.07082785,0.08350947,-0.07063479,0.6626273,-0.4897814,0.216817
0.9302785,-0.01310843,0.2423583,-0.05026471,0.08055755,-0.04666232,0.5736439,-0.5005939,0.2307269
0.951695,0.01412024,0.2324107,-0.02866026,0.1083787,-0.05720717,0.4676415,-0.3867377,0.2232896
0.9764172,0.04684796,0.2408479,-0.003729138,0.1417225,-0.04934986,0.3222693,-0.3087228,0.236729
0.964338,0.07579116,0.2357033,-0.01557953,0.1712958,-0.05505379,0.2016292,-0.2649048,0.2223246
0.9544848,0.09013811,0.2238092,-0.02518542,0.1862759,-0.067484,0.006778323,-0.207375,0.2997892
0.9493627,0.07316269,0.2399396,-0.03004274,0.1699259,-0.05186348,-0.04917645,-0.2441739,0.4099871
0.9465114,0.05345965,0.2337795,-0.0326124,0.1508305,-0.05850486,0.02164135,-0.2320868,0.4892417
0.9808298,0.003118953,0.2349079,0.002003986,0.1010711,-0.05782684,0.03227032,-0.2185627,0.5460404
1.022233,-0.04817099,0.2345907,0.04372021,0.0503302,-0.05856163,0.1029133,-0.218037,0.519339
1.077904,-0.06755817,0.2363113,0.09971529,0.03145653,-0.05722399,0.1841202,-0.1437636,0.453963
1.106094,-0.08362568,0.2660485,0.1282353,0.01586584,-0.02783387,0.2519121,-0.06312049,0.3100803
1.087639,-0.07811762,0.2909562,0.1101105,0.021814,-0.003236991,0.3428973,0.01054614,0.1438282
1.094911,-0.03166633,0.3168734,0.1177048,0.06866875,0.02240477,0.3767054,-0.01608302,0.05900286
1.093409,0.04228712,0.325802,0.116511,0.1429878,0.03109108,0.3971836,-0.08233749,-0.01545433
1.082497,0.07720514,0.3124516,0.1058882,0.17823,0.01752855,0.4189769,-0.08074153,-0.05914222
1.100403,0.04753336,0.293771,0.1240586,0.1488353,-0.001336482,0.2874129,-0.1089448,-0.08057814
1.146246,-0.01096826,0.2525604,0.1701357,0.09055867,-0.04270573,-0.04484914,-0.107076,-0.1883071
1.205374,-0.07785045,0.1815113,0.2294617,0.02384651,-0.1138877,-0.4032345,-0.07362141,-0.3917004
1.190138,-0.08943783,0.1104374,0.2143789,0.0123745,-0.1850658,-0.7306976,-0.03391378,-0.5326704
1.136979,-0.1259782,0.05727218,0.1613221,-0.02410263,-0.2383008,-1.005564,0.1825364,-0.5391081
1.100942,-0.308977,-0.01947121,0.1253281,-0.2070854,-0.315071,-1.02347,0.4684854,-0.5390502
1.043112,-0.4381607,0.001162627,0.06748033,-0.3362901,-0.2944101,-0.6834743,0.545049,-0.5135985
1.050509,-0.4151182,0.2046287,0.07479677,-0.3132904,-0.0908533,-0.1270511,0.4971491,-0.3908661
1.080644,-0.4240659,0.3784411,0.10479,-0.322285,0.08311768,0.2611834,0.4995037,-0.2146518
1.029203,-0.3807676,0.3964857,0.05314634,-0.2790208,0.1013848,0.2451531,0.3890117,-0.09863736
0.9761981,-0.1544204,0.2805725,-0.0001212713,-0.05268208,-0.0142503,0.003224064,0.1949742,-0.1146451
0.9198829,0.01448796,0.1770313,-0.05675492,0.1162497,-0.1174638,-0.3158131,0.2379334,-0.1018197
0.9137356,-0.006227955,0.201745,-0.06327046,0.09558643,-0.09237513,-0.6254485,0.3454229,-0.0137099
0.9684528,-0.06498208,0.2220211,-0.008964236,0.03690801,-0.07167644,-0.8002289,0.3807499,0.0495891
0.9409175,-0.1052031,0.2311798,-0.03694712,-0.003219465,-0.0620478,-0.845797,0.5555067,0.09340021
0.9220508,-0.1610322,0.252793,-0.05629239,-0.05893956,-0.0399186,-0.8270099,0.6417126,0.08193645
0.8990141,-0.222103,0.2490203,-0.07983269,-0.1198856,-0.04313137,-0.7921514,0.5266269,0.07454467
0.8031889,-0.2568979,0.2704355,-0.1761794,-0.1545371,-0.02111474,-0.732062,0.4597162,0.1071627
0.787036,-0.2645741,0.2784382,-0.1928624,-0.1620461,-0.01247244,-0.6009362,0.4027438,0.1036441
0.79374,-0.2675755,0.3113257,-0.1866861,-0.1648508,0.02108938,-0.4035572,0.2514862,0.1182563
0.7795938,-0.2371554,0.3734513,-0.2013467,-0.134199,0.08391899,-0.1861267,-0.002609105,0.120486
0.7877646,-0.1602091,0.3710722,-0.1936663,-0.05698193,0.08226691,-0.04975851,-0.2406156,0.07113032
0.7765696,-0.08764773,0.3615644,-0.2053182,0.0158903,0.07350174,-0.04097856,-0.3090259,0.02268862
0.7909622,-0.05201572,0.3528161,-0.1913397,0.05187087,0.06550453,-0.06783197,-0.2914104,-0.02980248
0.8105651,-0.03849264,0.3377071,-0.1721002,0.06577512,0.05114885,-0.0723943,-0.2457834,-0.03472848
0.8616038,-0.02996592,0.3537548,-0.1213676,0.07470938,0.06794672,-0.08419329,-0.1775911,-0.02550885
0.9520403,-0.04260343,0.3668294,-0.03117619,0.06249926,0.08176331,-0.1235996,-0.1676101,-0.06620433
0.9868333,-0.06988205,0.3612278,0.00343298,0.03566198,0.07689023,-0.1898522,-0.1709339,-0.1301922
1.038474,-0.08092165,0.359305,0.05494837,0.0250729,0.07567754,-0.2602148,-0.08390422,-0.2412155
1.074982,-0.0453646,0.389831,0.09138351,0.06108576,0.1068905,-0.2766681,0.004747018,-0.3417728
1.023309,0.03297806,0.4386176,0.03968401,0.1398851,0.1563356,-0.2892945,-0.01091832,-0.3781759
1.015159,0.05936663,0.4742234,0.0315479,0.1667248,0.1925649,-0.4193281,0.06306859,-0.3897867
1.109228,0.005364426,0.4741751,0.1256637,0.1131603,0.1930972,-0.5234163,0.3402584,-0.3635647
1.249295,-0.08257305,0.4381685,0.2658053,0.02564029,0.1576205,-0.4306256,0.4790978,-0.2359923
1.324547,-0.2216596,0.3935353,0.3411447,-0.1130517,0.1134598,-0.2631059,0.2574217,-0.001110408
1.282848,-0.3807926,0.3456094,0.2995333,-0.2718096,0.06594505,-0.06354615,0.1195362,0.133942
1.208513,-0.4839351,0.3399417,0.2252672,-0.3745865,0.06062554,0.2443713,0.458549,0.06225354
1.034502,-0.5023483,0.3317611,0.05129705,-0.3926282,0.05273024,0.5261415,0.717495,-0.07462533
0.7445241,-0.4303177,0.2502936,-0.238672,-0.3202029,-0.02851339,0.5797076,0.3577252,-0.2620063
0.6892111,-0.2882592,0.1843277,-0.2940027,-0.1777119,-0.09431339,0.4138614,-0.1630802,-0.3700954
0.9068642,-0.1411049,0.124638,-0.07638104,-0.03007886,-0.1538882,0.1792453,-0.4207533,-0.1883326
1.055973,-0.1037137,0.07198117,0.07269182,0.007838763,-0.2064716,-0.003984754,-0.4203195,0.07539185
1.091661,-0.1979321,0.108648,0.1083419,-0.08580851,-0.1697613,-0.03893981,-0.1255516,0.2221497
1.008623,-0.2870352,0.1858866,0.02525893,-0.1742976,-0.09249817,0.1175894,0.114617,0.2469483
0.8610643,-0.3018209,0.2763275,-0.1223507,-0.1884251,-0.002043946,0.3720107,-0.05083986,0.08934186
0.8522102,-0.2848316,0.3084446,-0.1312608,-0.1707296,0.03007875,0.6539449,-0.3263231,-0.07762348
0.887308,-0.2390387,0.2418484,-0.09621775,-0.1241791,-0.03651886,0.9314619,-0.4892401,-0.0825716
0.9082584,-0.1634242,0.2104042,-0.07531522,-0.04775433,-0.06797023,1.043433,-0.5666187,0.003177584
0.9457449,-0.1085764,0.2067646,-0.03786542,0.007954955,-0.07162009,1.004007,-0.5356944,0.1468941
0.9322084,-0.07954087,0.1840717,-0.0514252,0.0378983,-0.09432255,0.9557995,-0.4919836,0.267374
0.9363934,-0.03248416,0.1791739,-0.04724847,0.08590224,-0.09922495,0.8244406,-0.4231774,0.3125386
0.9527108,-0.0160765,0.1797357,-0.03092301,0.103288,-0.09865832,0.696406,-0.3128067,0.3256561
0.9535762,-0.04665352,0.2016558,-0.03003226,0.07371052,-0.07671961,0.6649697,-0.290631,0.2971381
0.9791286,-0.02406514,0.2222527,-0.004437273,0.0973111,-0.05608712,0.593825,-0.2639408,0.2535716
0.9811419,0.006167475,0.225636,-0.002364419,0.12856,-0.05264885,0.5181915,-0.1959881,0.2455299
0.971036,0.01193097,0.2490139,-0.01239489,0.1353352,-0.02919554,0.4181046,-0.1402407,0.2808155
0.967198,0.05675963,0.2590044,-0.01614249,0.1811615,-0.01910885,0.2761718,-0.04207578,0.3257102
0.9598932,0.05374416,0.2605178,-0.02334254,0.1791198,-0.01747868,0.2388527,0.01316446,0.3725601
0.9635337,0.02102644,0.2725131,-0.01958336,0.1473423,-0.005346972,0.2577399,0.04658543,0.4021021
0.9686761,0.0190762,0.2712724,-0.01430861,0.1462902,-0.006432889,0.2783619,0.07610558,0.3755713
0.9781948,-0.01116907,0.2673651,-0.004644359,0.1168939,-0.01016836,0.3034699,0.02408483,0.3284694
0.9956836,-0.04224757,0.2682258,0.01300217,0.08660982,-0.009120078,0.3201494,0.01447504,0.2215444
1.021391,-0.1001038,0.2981554,0.03887738,0.02949032,0.02101154,0.4300067,0.02111196,0.05628513
1.030255,-0.1447821,0.353221,0.04791846,-0.01450984,0.0762913,0.6533619,-0.03153581,-0.06793249
1.012094,-0.06261279,0.3796675,0.02993838,0.06828023,0.1029601,0.8220447,-0.09439709,-0.1237561
1.010625,0.04187891,0.3771051,0.02865332,0.1733354,0.1006227,0.7957493,-0.1870927,-0.08429593
1.047222,0.0678397,0.36006,0.06543369,0.1997991,0.08379967,0.6733571,-0.2677862,-0.06461919
1.128789,0.02774931,0.3388825,0.1471795,0.1601455,0.06283605,0.512883,-0.3088199,-0.1915045
1.203629,-0.01054044,0.323249,0.2221902,0.1222209,0.04740454,0.2009923,-0.3070771,-0.3492506
1.199179,-0.002466114,0.2634355,0.217891,0.1305856,-0.01222116,-0.2056267,-0.266825,-0.4130148
1.167586,-0.02226502,0.1379974,0.1864211,0.1110002,-0.1374852,-0.4901887,-0.1587942,-0.360383
1.157359,-0.08572661,0.03087317,0.1762805,0.0476744,-0.2444447,-0.5123042,0.1062914,-0.305024
1.118033,-0.1838119,0.01652339,0.136997,-0.05035111,-0.2586295,-0.5011695,0.3813848,-0.3341886
1.064008,-0.2997454,0.12144,0.08296697,-0.166295,-0.1535365,-0.5663895,0.4622302,-0.3819805
1.05062,-0.3241502,0.3047288,0.06952159,-0.1907701,0.02994808,-0.3570162,0.4180702,-0.4117952
1.039423,-0.2679127,0.3934976,0.05821727,-0.1346503,0.1189334,-0.08954998,0.4165428,-0.2973674
1.000426,-0.1884549,0.3338218,0.01906221,-0.055346,0.05949052,-0.1456215,0.3887495,-0.07339512
0.9573228,-0.07781709,0.2811292,-0.02424738,0.05510998,0.007041664,-0.2672794,0.259967,-0.004685989
0.9317044,-0.0394966,0.2609836,-0.0501158,0.09322325,-0.01285271,-0.3692773,0.2156481,0.0153745
0.9543623,-0.09858055,0.2227988,-0.02774641,0.03390632,-0.05078006,-0.549179,0.2650145,0.09582014
0.9809389,-0.1376818,0.2283091,-0.001491543,-0.00545388,-0.04500577,-0.7294957,0.3617077,0.1053514
0.9316587,-0.1654588,0.2649691,-0.05112217,-0.03351434,-0.008074391,-0.7766603,0.4980461,0.08763909
0.8558018,-0.1909939,0.286739,-0.1273533,-0.0593537,0.01397427,-0.6615541,0.5097575,0.07653488
0.8093879,-0.1800133,0.3099942,-0.1741577,-0.04869371,0.03751423,-0.5899264,0.4208352,0.09867793
0.772574,-0.1845507,0.308395,-0.2113687,-0.05356354,0.03620325,-0.5481396,0.3004738,0.1499431
0.7678343,-0.1906034,0.3114132,-0.2165008,-0.05995575,0.03951062,-0.4459323,0.1822837,0.1383475
0.7861797,-0.1649684,0.3426302,-0.1985316,-0.03466321,0.07101441,-0.3582841,0.103442,0.1193495
0.790442,-0.1302911,0.3512554,-0.194619,-0.0003281235,0.07992074,-0.2325951,-0.02703635,0.09162759
0.7985795,-0.07029928,0.3583617,-0.1867953,0.05932346,0.08729836,-0.1592013,-0.1639045,0.04856643
0.7977018,-0.01569507,0.3598386,-0.1879429,0.1135885,0.08903231,-0.1833485,-0.2278425,0.04990598
0.7990244,0.005718815,0.3626021,-0.1868389,0.134661,0.09203458,-0.1690413,-0.2267455,0.03576602
0.833658,0.02040835,0.3985342,-0.1523663,0.1490017,0.1281829,-0.1519221,-0.1782786,0.00733224
0.8721405,0.01590526,0.410624,-0.1139825,0.1441369,0.1404618,-0.1411113,-0.1112418,-0.02907319
0.9290299,-0.004173076,0.4003924,-0.05712691,0.1236783,0.1303867,-0.1710714,-0.07068754,-0.09217124
1.02616,-0.02523058,0.3892348,0.04003315,0.1022178,0.1193483,-0.304417,-0.1373052,-0.1277487
1.08197,-0.0267049,0.3799419,0.09593413,0.1003145,0.1101332,-0.4583702,-0.1740615,-0.1621468
1.056801,0.01537907,0.4038306,0.07090821,0.1419408,0.1340549,-0.5728137,-0.04462033,-0.2507076
1.056995,0.05245146,0.4389061,0.0712887,0.1785238,0.1691152,-0.6530852,0.1137285,-0.3577836
1.101611,0.03196129,0.4559461,0.1161289,0.1575083,0.1860877,-0.7227264,0.2351957,-0.3818613
1.161839,-0.06560909,0.4418722,0.1766096,0.05937281,0.1718889,-0.6685618,0.3785809,-0.2919232
1.268101,-0.2103296,0.4144757,0.2831409,-0.0859529,0.1443058,-0.4404771,0.476965,-0.1332616
1.261943,-0.2909141,0.3997247,0.2772559,-0.1671775,0.1293034,-0.1662959,0.4028623,0.06453114
1.122528,-0.3161156,0.3933549,0.1381041,-0.1930441,0.1226154,0.1058757,0.3468483,0.1430192
1.030879,-0.4212505,0.3920709,0.04669883,-0.2988558,0.1209457,0.2788647,0.4627918,-0.006310593
0.9503116,-0.4974402,0.3664099,-0.03364952,-0.3757184,0.09483116,0.4216476,0.4618919,-0.1845198
0.8670558,-0.405914,0.3138826,-0.11671,-0.2848436,0.04178351,0.5587815,0.1798982,-0.2261164
0.8113522,-0.311143,0.2282802,-0.1722372,-0.1906861,-0.04440294,0.46289,-0.2316616,-0.1797862
0.8934319,-0.2116743,0.1090718,-0.08999246,-0.09178205,-0.1642523,0.2856117,-0.4198353,-0.07173076
1.114494,-0.08484012,0.04506238,0.1312281,0.03454155,-0.2289485,0.09132806,-0.2674642,0.08587017
1.108049,-0.1341545,0.07973248,0.1249353,-0.01522952,-0.1949967,-0.09357385,-0.1348962,0.1483794
0.9772147,-0.2136503,0.1701329,-0.005757229,-0.09512987,-0.1053319,-0.02295428,-0.07689088,0.03712288
0.9342937,-0.2079461,0.2453784,-0.04855015,-0.08977839,-0.03082851,0.05311705,-0.1067386,-0.09318228
0.8454261,-0.251465,0.2737523,-0.1373013,-0.1335963,-0.003196721,0.1673601,-0.3364868,-0.1338826
0.8623035,-0.2300936,0.2605891,-0.1203142,-0.1124677,-0.01709879,0.5112287,-0.4654669,-0.1118919
0.9154647,-0.1624128,0.2302975,-0.06704391,-0.04497131,-0.04812307,0.7165163,-0.5029153,-0.02131306
0.8998575,-0.1270897,0.2287352,-0.08253805,-0.009773857,-0.05040891,0.8027703,-0.5541427,0.08902425
0.9392997,-0.05215244,0.2059203,-0.04297532,0.06509378,-0.07393417,0.8407646,-0.4922407,0.159324
0.9230051,-0.02315309,0.190035,-0.05913956,0.0940744,-0.09051258,0.7283139,-0.4558559,0.2123026
0.9350107,-0.01324584,0.2250616,-0.04699214,0.1040065,-0.05615723,0.6562264,-0.4051747,0.2394367
0.9877214,0.02522797,0.2201047,0.005872941,0.1425402,-0.0617595,0.5839632,-0.304515,0.2281589
0.9695374,0.04608772,0.2221464,-0.01214405,0.1634858,-0.06033431,0.4558813,-0.2538538,0.1976179
0.9783296,0.09853449,0.2327529,-0.003173312,0.2160343,-0.05031262,0.3138667,-0.1656232,0.182024
0.9602376,0.1138167,0.2185469,-0.02107608,0.2314229,-0.06506957,0.105238,-0.09625054,0.2030845
0.9391802,0.08637665,0.2375701,-0.04193414,0.2040823,-0.04656153,-0.05438506,-0.05288245,0.257966
0.9560944,0.0707926,0.2344464,-0.02481024,0.1885799,-0.0501629,-0.1193913,-0.02148008,0.3389295
0.9595955,0.01400196,0.2329223,-0.02108894,0.1318442,-0.05212595,-0.09875261,-0.0402705,0.392165
0.9952607,-0.02312814,0.252498,0.01480679,0.09473607,-0.03294974,0.01668475,-0.0214286,0.3895493
1.018789,-0.04298462,0.2532528,0.03857417,0.07486478,-0.03255444,0.135048,-0.004203997,0.3261542
1.036795,-0.08580524,0.27282,0.05682566,0.03199095,-0.01330697,0.2288377,0.02123296,0.1847595
1.053142,-0.07994914,0.281592,0.0734217,0.03775546,-0.00481589,0.292384,0.04865474,0.002682551
1.039888,-0.03046561,0.2968141,0.06041497,0.08710966,0.01016262,0.3770499,-0.01384999,-0.1418611
1.051957,0.0224547,0.3207921,0.07272584,0.1398625,0.03393214,0.4853598,-0.09097448,-0.1537329
1.067737,0.04332395,0.3057086,0.0887384,0.1605236,0.01867212,0.5107798,-0.1570723,-0.08119197
1.119722,0.02757763,0.3019206,0.1409429,0.1445248,0.01473671,0.4883716,-0.1993815,-0.075851
1.199279,0.01313275,0.2993577,0.2206994,0.1297793,0.01205283,0.3818804,-0.18792,-0.1534796
1.205049,-0.001022858,0.2763984,0.2266416,0.1152721,-0.01100317,0.07807277,-0.1786209,-0.2683468
1.182743,-0.001530019,0.2450953,0.20447,0.1143608,-0.04237995,-0.3207142,-0.147515,-0.3340518
1.17271,-0.005535026,0.1600599,0.194526,0.1098978,-0.1274659,-0.5722978,0.02383783,-0.3099568
1.142972,-0.08611075,0.04508897,0.1648246,0.02881037,-0.2424607,-0.6356187,0.327652,-0.3262372
1.090502,-0.2377564,0.03656511,0.112333,-0.1233982,-0.2509747,-0.6710007,0.506806,-0.4138318
1.023762,-0.3666256,0.1884463,0.04551032,-0.2528734,-0.09904123,-0.5281513,0.4840766,-0.463473
0.9935273,-0.3890316,0.358805,0.01513247,-0.2759149,0.07141664,-0.1685907,0.4637969,-0.4071995
1.046475,-0.3227649,0.4300494,0.06787879,-0.2102969,0.1428048,0.05292324,0.4535539,-0.2431259
1.080674,-0.2446156,0.4063335,0.1018213,-0.1327948,0.1192693,0.08135544,0.372475,-0.09853349
1.010576,-0.1211014,0.3076676,0.0314123,-0.009916343,0.02081174,-0.04852569,0.2805899,-0.08205242
0.9568517,0.02654549,0.2160222,-0.02267591,0.1371106,-0.07060338,-0.3037328,0.2557466,-0.1122364
0.9657376,0.0006681256,0.2252621,-0.01420246,0.1106272,-0.06111286,-0.5463621,0.3217414,-0.09306196
0.9487596,-0.1012644,0.2880683,-0.03163605,0.008098501,0.001964709,-0.7901752,0.4309841,-0.0691343
0.899061,-0.08804351,0.297586,-0.08182752,0.0207306,0.01177366,-0.894289,0.5267359,-0.07296501
0.842384,-0.1404638,0.2862722,-0.1390273,-0.03227099,0.0007688682,-0.8305426,0.5565869,-0.02777349
0.7905428,-0.2203315,0.2919552,-0.1914119,-0.1127107,0.006776306,-0.7841407,0.4715213,0.04192038
0.7655002,-0.1939378,0.27946,-0.2170074,-0.08687544,-0.005381296,-0.6935076,0.3354572,0.07794333
0.7768343,-0.2149094,0.2924695,-0.2062232,-0.1083867,0.007977026,-0.5657409,0.2188463,0.1135655
0.788581,-0.2305319,0.3283345,-0.1950114,-0.1245246,0.04419989,-0.4094025,0.08950151,0.1438572
0.7833526,-0.2248241,0.358323,-0.2007489,-0.1193025,0.07455221,-0.1253625,-0.0430177,0.1876762
0.7877942,-0.232727,0.3726048,-0.1967808,-0.1276559,0.08919945,0.1015692,-0.1613135,0.2215671
0.7901394,-0.1362709,0.357763,-0.1948648,-0.03161076,0.07471958,0.1196217,-0.2638684,0.2153111
0.8006639,-0.05550034,0.3753761,-0.1847168,0.04879032,0.0926863,0.085772,-0.2863132,0.2227152
0.8266143,-0.04397236,0.3784399,-0.1590835,0.05998828,0.09609042,0.07607552,-0.2489636,0.2033039
0.8611334,-0.01278793,0.3503559,-0.124817,0.09087775,0.06832898,-0.02339986,-0.2313212,0.1601985
0.9515755,0.02822827,0.3540309,-0.03455996,0.1316282,0.07230485,-0.2216746,-0.2216007,0.114638
1.037713,0.02732961,0.3423423,0.05145952,0.1304861,0.06089259,-0.4000889,-0.1749376,0.0227305
1.053926,-0.04435294,0.3533272,0.06761695,0.05857546,0.07212682,-0.4571882,-0.05930275,-0.06834346
1.074286,-0.05652623,0.3881096,0.08797674,0.04618407,0.1071289,-0.4158416,0.08509143,-0.1867707
1.047235,-0.009107742,0.4280626,0.06097255,0.09339086,0.1472689,-0.4323589,0.1316994,-0.3354868
0.9650349,0.04671966,0.5171709,-0.0211388,0.1490091,0.2365264,-0.5323356,0.09724422,-0.3987176
1.003903,0.1026529,0.5365334,0.01785423,0.2047296,0.2559929,-0.6782743,0.1626957,-0.3942446
1.086112,0.03754864,0.4793835,0.1002194,0.1394018,0.1988928,-0.7901939,0.2899117,-0.302822
1.129771,-0.07059307,0.4351728,0.1440621,0.03101917,0.1546704,-0.6761438,0.2960171,-0.06228807
1.211667,-0.1866467,0.3733866,0.2261589,-0.08529496,0.09280636,-0.4705864,0.2175658,0.1590633
1.185616,-0.3290772,0.3526229,0.2003155,-0.2280016,0.07189718,-0.2591923,0.1993828,0.1755727
1.078591,-0.4081537,0.3769189,0.09349329,-0.3073604,0.09598049,0.106882,0.3505811,-0.003169859
0.9961266,-0.4396903,0.3546396,0.01122106,-0.3391709,0.07342249,0.3384696,0.4772761,-0.2305352
0.8320029,-0.3678689,0.3094984,-0.1527244,-0.2675993,0.02793817,0.2856154,0.188011,-0.33183
0.7595096,-0.2511685,0.2374072,-0.2250488,-0.1511109,-0.04455723,0.1766175,-0.2973711,-0.2827419
0.8865999,-0.174717,0.1284312,-0.09779116,-0.07482497,-0.1539921,-0.0207897,-0.451302,-0.108728
1.031495,-0.1172157,0.06451424,0.04727692,-0.01743957,-0.2184123,-0.241216,-0.2820566,0.1451221
1.093497,-0.1763869,0.06681349,0.1094576,-0.07667703,-0.2166472,-0.2517181,-0.07362237,0.2345531
1.029174,-0.2564764,0.1370786,0.04531554,-0.1567832,-0.1469332,-0.08081142,0.01308835,0.1165597
0.9431281,-0.283079,0.2459204,-0.04055095,-0.1833507,-0.03864774,0.140438,-0.08373342,-0.002133071
0.9176681,-0.2981,0.2801537,-0.06583331,-0.1982802,-0.004969267,0.3688742,-0.2937158,-0.1413796
0.9147274,-0.240297,0.245612,-0.06859651,-0.1403245,-0.04006083,0.5649877,-0.423974,-0.2028697
0.9479855,-0.1794596,0.2228378,-0.03515851,-0.07926966,-0.06337725,0.6475763,-0.4663151,-0.06237663
0.9627536,-0.1133009,0.2034637,-0.02020621,-0.01282867,-0.0832824,0.6334835,-0.5141055,0.03933769
0.9375744,-0.05887661,0.1741275,-0.04519585,0.0419399,-0.113134,0.6123663,-0.4694012,0.1078441
0.9267522,-0.09348199,0.1754675,-0.05582226,0.007735146,-0.1122885,0.5780321,-0.3770329,0.2026702
0.9424432,-0.09930591,0.1948179,-0.03992786,0.002362139,-0.09340646,0.5363522,-0.3477746,0.1755233
0.9745755,-0.09392935,0.1896392,-0.007583457,0.008234477,-0.09902256,0.5525433,-0.3078999,0.1519498
0.9918417,-0.09766,0.2050069,0.009903489,0.005039583,-0.08405745,0.5828986,-0.2751959,0.1548574
0.9953709,-0.04818821,0.229569,0.01366109,0.0550821,-0.05986,0.5698779,-0.2610049,0.1328409
0.9851772,-0.01274466,0.2343698,0.003701746,0.09112544,-0.0553838,0.5450887,-0.2059535,0.1599945
0.9667871,0.01519632,0.2596135,-0.01444936,0.1196879,-0.03042376,0.468496,-0.1267766,0.1737598
0.9655496,0.02442158,0.2676186,-0.0154441,0.1295478,-0.02266129,0.3294213,-0.06764733,0.2295176
0.9583339,0.002257388,0.2610256,-0.0224134,0.1080225,-0.02945689,0.2313686,-0.04463382,0.3279117
0.9564708,0.002166881,0.2668116,-0.02402655,0.1085671,-0.02383417,0.2170078,-0.04334799,0.3805685
0.9781002,-0.01805906,0.2618464,-0.002143393,0.08896547,-0.02892446,0.2615164,-0.07329904,0.4276793
0.999392,-0.05794154,0.2704099,0.01940539,0.04969063,-0.02044907,0.3415682,-0.08643827,0.4229418
1.016713,-0.08425031,0.2886477,0.03698552,0.02396888,-0.002263543,0.4818177,-0.05745937,0.3394051
1.02597,-0.08898574,0.3190561,0.04650071,0.01979761,0.02812629,0.6211164,-0.04453169,0.1770228
1.029906,-0.0444772,0.3470363,0.05069183,0.06484597,0.05611848,0.6566359,-0.03948286,0.007721986
1.025579,0.02014863,0.3341434,0.04661469,0.129985,0.04326415,0.6599891,-0.05368825,-0.05155588
1.026634,0.0474662,0.3269217,0.04791094,0.1577846,0.03610297,0.6140044,-0.07297751,-0.05287177
1.079948,0.005681681,0.329974,0.1014536,0.1164453,0.03923409,0.4794162,-0.06783658,-0.04241215
1.15038,-0.06296029,0.3218361,0.1720995,0.04820672,0.03118964,0.3934179,-0.07636743,-0.08525653
1.169119,-0.09190932,0.2966735,0.1910297,0.01961679,0.006132278,0.3710891,-0.09360709,-0.1731777
1.166409,-0.07458939,0.2084053,0.188482,0.0372515,-0.08202053,0.2918417,-0.08250728,-0.2097326
1.175829,-0.0534508,0.09913603,0.1980261,0.0586611,-0.1911628,0.09114351,0.06475894,-0.2366291
1.131839,-0.08260236,0.06285997,0.1541145,0.02973705,-0.2272948,-0.09731693,0.2945837,-0.2569936
1.044357,-0.1350742,0.101128,0.06666099,-0.02255009,-0.1888573,-0.1701593,0.3861362,-0.2723126
0.9788579,-0.2389602,0.208011,0.001138447,-0.1262912,-0.08177198,-0.165952,0.4232939,-0.2832171
0.889836,-0.3792993,0.349159,-0.08795773,-0.2665184,0.05961456,0.07432172,0.4602354,-0.2348023
0.8641284,-0.3295719,0.3659632,-0.1137841,-0.2167008,0.07669137,0.4040989,0.3683862,-0.139291
0.9528344,-0.14589,0.2874663,-0.02523363,-0.03293883,-0.001504143,0.3725869,0.2825699,-0.03496512
0.9765054,-0.04841308,0.2811667,-0.001748696,0.06461485,-0.007478222,0.1315179,0.2706784,-0.003958715
0.9771197,-0.02094533,0.2685822,-0.001346894,0.0921562,-0.01971606,-0.0370039,0.2427743,0.006304748
1.014707,-0.06057697,0.2543177,0.0360037,0.05259187,-0.03361434,-0.2050973,0.2717421,0.08354649
1.011706,-0.09658563,0.3007231,0.03274381,0.01664119,0.01317531,-0.3353428,0.330562,0.1199603
1.010108,-0.09858822,0.2998092,0.03086535,0.01468572,0.01266178,-0.3752155,0.3321005,0.1077627
0.9539425,-0.133179,0.3069583,-0.02560188,-0.01986897,0.02022477,-0.3611634,0.2953614,0.1164708
0.8562424,-0.1210074,0.3306647,-0.1236211,-0.007671469,0.04435542,-0.3293407,0.2354115,0.1384132
0.8165267,-0.1180443,0.3084741,-0.1636679,-0.00469163,0.02259601,-0.3531093,0.2142895,0.1438248
0.7960279,-0.1308031,0.3149096,-0.1845009,-0.01744175,0.02946641,-0.36342,0.1915963,0.116862
0.8121253,-0.09703216,0.3281274,-0.1687312,0.01633076,0.04311964,-0.3472967,0.1035987,0.09562939
0.8423961,-0.1137733,0.3521478,-0.1387724,-0.0004153297,0.06757294,-0.3590278,0.02797988,0.08413418
0.8593928,-0.1025427,0.384475,-0.1220642,0.01080405,0.1003265,-0.3161831,-0.03328607,0.06834009
0.8698963,-0.06676176,0.3789217,-0.1118199,0.04656735,0.09518809,-0.2962788,-0.06738952,0.05207185
0.8502829,-0.06600901,0.3901898,-0.1316583,0.04729512,0.1068544,-0.3170339,-0.0399405,0.03032933
0.8618203,-0.03039406,0.4023767,-0.1203072,0.08287594,0.1194178,-0.2905886,-0.008378379,-0.01172939
0.8798447,-0.01645514,0.4042361,-0.1024266,0.0967689,0.1216266,-0.3048316,0.03556913,-0.0884034
0.8892247,0.003561669,0.4011629,-0.09314468,0.1167244,0.1188706,-0.3977184,0.0607138,-0.1548923
0.9192862,0.0131845,0.373793,-0.06313382,0.1262663,0.09178121,-0.5612482,-0.04762966,-0.1800569
0.937247,-0.03746178,0.3654445,-0.04517532,0.07551536,0.08367299,-0.6773343,-0.1582208,-0.1735544
0.9971905,-0.06707692,0.372108,0.01481318,0.04576886,0.09053405,-0.6678584,-0.07080706,-0.1880066
1.037352,-0.08399878,0.3909051,0.05506385,0.02868789,0.1094838,-0.6569919,0.01198653,-0.2866079
0.9962421,-0.0533509,0.4299078,0.01408336,0.05914907,0.1485919,-0.658544,-0.06658222,-0.4118207
0.9929558,-0.00254346,0.4539613,0.01096135,0.109742,0.1726999,-0.716379,-0.1155365,-0.4869888
1.039293,-0.001795496,0.4433194,0.05749366,0.1102461,0.1620572,-0.8185229,-0.1377708,-0.4785051
1.102623,-0.01006035,0.4011441,0.1210448,0.1017056,0.1198216,-0.8360747,-0.1738733,-0.3869722
1.148093,-0.05911405,0.3603255,0.1667543,0.05234229,0.0788805,-0.8200384,-0.163307,-0.2533765
1.126871,-0.1243549,0.340732,0.1457815,-0.01324236,0.059102,-0.7715576,-0.1735496,-0.1301662
1.101969,-0.1731022,0.3465572,0.1211299,-0.06236534,0.06468095,-0.6569691,-0.09243994,-0.1056988
1.073923,-0.2280468,0.3425308,0.09332811,-0.1177122,0.06034867,-0.5615151,0.104323,-0.1597131
0.967351,-0.2547647,0.3081536,-0.0130121,-0.1448513,0.0256083,-0.4988874,0.148273,-0.2265438
0.8522386,-0.2553788,0.2877662,-0.1279058,-0.1458968,0.004803475,-0.4055762,-0.03381087,-0.3008633
0.8425461,-0.2326655,0.2341231,-0.1373895,-0.1236159,-0.04930685,-0.2766893,-0.3097209,-0.3136399
0.9130204,-0.187195,0.1382569,-0.06671039,-0.07857079,-0.1456837,-0.2325935,-0.5012185,-0.262193
0.9870265,-0.1354454,0.07595558,0.007500947,-0.02723401,-0.2085292,-0.3786983,-0.5510328,-0.177432
1.049305,-0.09365326,0.02759808,0.06998595,0.01416096,-0.2574519,-0.6371378,-0.4610579,-0.0593381
1.09246,-0.07868959,-0.002325728,0.113347,0.02874353,-0.2879469,-0.8416264,-0.2017004,-0.01500248
1.074431,-0.09248088,0.03031501,0.09551745,0.01458639,-0.2558679,-0.9299128,0.0353408,-0.07270133
1.026943,-0.1360713,0.1071779,0.04821846,-0.02935544,-0.179543,-0.93663,0.08418395,-0.1442606
1.018175,-0.1525886,0.1664984,0.03962561,-0.04620952,-0.1207259,-0.9065019,-0.05674302,-0.2201495
1.010926,-0.1480003,0.1795819,0.03253489,-0.04194182,-0.1081043,-0.8195126,-0.2896568,-0.2514223
0.9993353,-0.1575838,0.179897,0.02108618,-0.05182767,-0.108205,-0.6146616,-0.4337351,-0.1766319
0.9946606,-0.1217257,0.1614571,0.01653509,-0.01625214,-0.127011,-0.4488487,-0.4759376,-0.09515225
0.9564809,-0.07592213,0.1253052,-0.0215386,0.02928949,-0.1634756,-0.446242,-0.4600541,-0.04660242
0.939643,-0.06183692,0.1153657,-0.03828684,0.04313237,-0.17367,-0.4563575,-0.4359324,0.0002596556
0.9565595,-0.03841836,0.1183077,-0.02129515,0.06632574,-0.1709201,-0.4783474,-0.3945202,0.01415507
0.9603753,-0.008221714,0.098077,-0.0174161,0.09631076,-0.1912754,-0.5699728,-0.3175951,0.03088918
0.9775371,-0.002823269,0.07517238,-0.0002015355,0.1015067,-0.2142319,-0.6799039,-0.3005284,0.0458786
1.010616,-0.02001177,0.07274358,0.03292062,0.08411983,-0.2166348,-0.7860525,-0.246644,0.06108909
1.041626,-0.00928363,0.061386,0.06396379,0.09464922,-0.2278833,-0.821512,-0.1715885,0.1192445
1.039149,-0.002889459,0.05769342,0.0615095,0.1008401,-0.2313785,-0.8175296,-0.1389065,0.1502385
1.021047,-0.01586024,0.08160175,0.04341493,0.08765734,-0.2071799,-0.8386697,-0.01109334,0.15154
1.035095,-0.004816901,0.08954795,0.05745605,0.09847646,-0.1988467,-0.8454533,0.1210033,0.1329559
1.115104,0.02249552,0.4339017,0.1538461,0.1214321,0.104111,-0.6761955,-0.05672296,-0.1680369
1.137503,0.03004423,0.4914557,0.1754261,0.1287999,0.1642544,-0.7442104,0.0238358,-0.2572425
1.087072,-0.005120652,0.5349011,0.124227,0.09343098,0.210233,-0.6706822,0.1059583,-0.2818799
1.060912,-0.03223284,0.5750656,0.09734123,0.06608847,0.2528625,-0.5980022,0.2159595,-0.2714885
1.143327,-0.09955068,0.5610397,0.1790645,-0.001487351,0.2412198,-0.4649572,0.3044648,-0.2191225
1.215289,-0.2218146,0.4760524,0.2503606,-0.1240352,0.1585213,-0.1982096,0.1867431,-0.06228491
1.179611,-0.3239458,0.3829022,0.2140329,-0.2264703,0.06755644,0.03808932,0.1133234,0.1309085
1.139693,-0.4207953,0.3230575,0.1734699,-0.3236325,0.009789121,0.2072431,0.3177409,0.1703463
1.084019,-0.4612497,0.3199705,0.1171465,-0.3643929,0.008671177,0.4550283,0.4862566,0.04188012
0.9185404,-0.409577,0.2918724,-0.04898916,-0.3130026,-0.01756453,0.5910927,0.3753024,-0.09763825
0.8317034,-0.2923868,0.1951765,-0.1364907,-0.1960554,-0.1125012,0.4287819,0.03809236,-0.1274798
0.9299215,-0.1383072,0.1089215,-0.0389391,-0.04216941,-0.1970936,0.1895026,-0.4093286,-0.08811117
1.031135,-0.06783801,0.06056272,0.06161174,0.02815917,-0.2438764,0.03239716,-0.6083782,-0.04622379
1.073071,-0.132652,0.08519498,0.1028887,-0.0367442,-0.2177421,0.04696447,-0.3184205,0.0002658572
1.025716,-0.2049399,0.1714495,0.05487838,-0.1090727,-0.1300471,0.182177,-0.1235902,0.00318054
0.8822382,-0.2426598,0.2487482,-0.08925352,-0.1467841,-0.05136042,0.3367935,-0.2977627,-0.04610611
0.8005417,-0.282113,0.2916984,-0.1715997,-0.1861769,-0.007069711,0.6700344,-0.3534055,-0.0780502
0.7888076,-0.2468808,0.2658685,-0.1839716,-0.1508282,-0.03160473,1.041783,-0.3975557,-0.06167451
0.8070602,-0.1687279,0.2417891,-0.1663358,-0.0724994,-0.05443345,1.240787,-0.5415003,0.01721226
0.8774732,-0.09985539,0.2353425,-0.09650983,-0.003390543,-0.0596719,1.338531,-0.5251508,0.1275217
0.9274892,0.01036132,0.1851802,-0.04704502,0.1071195,-0.1086656,1.236925,-0.4850092,0.1874424
0.9549823,0.05713625,0.1827193,-0.0200643,0.1542374,-0.1099935,0.9971687,-0.4327863,0.2168233
0.9723227,0.07170376,0.1842122,-0.003197171,0.1691868,-0.1073983,0.7822266,-0.3310896,0.241439
0.9709111,0.133711,0.161836,-0.00504352,0.2316025,-0.128698,0.5828461,-0.2810696,0.2047981
0.9613869,0.1115266,0.2053436,-0.01496521,0.2098399,-0.08413513,0.4632914,-0.2064153,0.1724744
0.9224188,0.08910357,0.225253,-0.05429439,0.1878392,-0.06318755,0.318645,-0.1500337,0.1935718
0.9031726,0.1060702,0.2320761,-0.07386513,0.2052168,-0.05534109,0.1313377,-0.1324517,0.2335656
0.9027004,0.06132023,0.2685607,-0.07462392,0.1608564,-0.01784657,0.05567512,-0.1189628,0.3685422
0.9175401,0.03618711,0.2760817,-0.06003125,0.1360825,-0.009329187,0.06614167,-0.1673366,0.5737119
0.9840255,0.005222851,0.2726034,0.006247437,0.1054407,-0.01182535,0.2247286,-0.2317582,0.7178435
1.041457,-0.04998414,0.2589381,0.06351097,0.05051517,-0.0245237,0.4622863,-0.2648567,0.7389526
1.072648,-0.06729816,0.2725238,0.09456954,0.03343967,-0.009986928,0.6205728,-0.2236327,0.5894332
1.070155,-0.08057678,0.3086779,0.09197367,0.02035666,0.02710141,0.7583148,-0.1422939,0.3184868
1.061931,-0.04339735,0.3218743,0.08366938,0.05768965,0.04121351,0.8519076,-0.1439192,0.03908768
1.081246,0.08286688,0.3369834,0.1029213,0.1840651,0.05721691,0.8544277,-0.1953205,-0.1283557
1.068846,0.2472173,0.3224933,0.09046855,0.34848,0.04359654,0.7358053,-0.2534483,-0.09613781
1.086379,0.3151233,0.2983239,0.107954,0.4163939,0.02026927,0.4447268,-0.2657467,-0.003766425
1.175681,0.1863762,0.2824539,0.197208,0.287584,0.005211924,0.01067168,-0.1576927,-0.02567185
