accx,accy,accz,body_accx,body_accy,body_accz,body_gyrox,body_gyroy,body_gyroz
1.68628,-0.3677589,0.05314341,0.6831606,-0.158133,0.01267867,0.5041657,-0.1563505,0.3219516
1.501319,-0.3475594,-0.1760394,0.4984116,-0.1378217,-0.2151744,0.2634835,0.5036962,0.3736285
1.241031,-0.4287402,-0.1994473,0.238258,-0.2188569,-0.2372712,0.3167428,0.78668,0.2622377
0.9815022,-0.4696807,-0.0179402,-0.02122695,-0.2596113,-0.05446494,0.4666286,0.5150281,0.1578825
0.6764271,-0.3931293,0.0959095,-0.3263476,-0.1828255,0.06067599,0.6465896,0.1396279,0.2411647
0.5681425,-0.2072902,-0.04409996,-0.4347524,0.003302033,-0.07805122,0.3216694,-0.3174463,0.3020403
0.7893654,-0.1022217,-0.2259644,-0.2137026,0.1087129,-0.2586429,-0.3322026,-0.355652,0.1910681
0.8888904,-0.1845063,-0.165451,-0.1143839,0.02681852,-0.1968616,-0.3979768,0.0540763,-0.03751987
0.7856474,-0.4289543,0.04113129,-0.2178527,-0.2171973,0.01098977,-0.08279125,0.1060729,-0.2894296
0.7249293,-0.706848,0.2234374,-0.2788046,-0.4946146,0.1945667,0.5362994,-0.3290737,-0.3490095
0.702212,-0.7188673,0.1965223,-0.3017501,-0.5061013,0.1689167,1.395115,-0.8880088,-0.3158959
0.690889,-0.5581324,-0.004156573,-0.3132808,-0.34476,-0.03051276,1.788765,-1.061218,-0.4053036
0.6936866,-0.4664382,-0.08971921,-0.3106556,-0.2523713,-0.1148471,1.881139,-0.8846231,-0.2812197
0.7445537,-0.3486172,-0.1161438,-0.2599122,-0.1337602,-0.1400637,1.95487,-0.8709637,-0.03347738
0.8956309,-0.1713555,-0.1065056,-0.1088991,0.0443872,-0.1292339,1.75661,-0.7749461,-0.03652734
1.067431,0.02147835,-0.05785775,0.06290099,0.2381951,-0.07940609,1.383202,-0.5697547,-0.07167094
1.091552,0.1927456,-0.08663801,0.08708312,0.4105083,-0.107015,0.9847958,-0.6027185,-0.08871795
0.9666326,0.2035773,-0.02996337,-0.03772033,0.4224341,-0.04917545,0.5713539,-0.5842898,-0.02689294
0.8492284,0.1321556,0.02492606,-0.1549584,0.3521284,0.006873288,0.3470794,-0.529017,0.1822382
0.8234381,0.06967054,-0.01044128,-0.1805322,0.2907569,-0.02734146,0.3690986,-0.5583043,0.3282655
0.8884435,-0.1011156,0.008832362,-0.1152567,0.1210633,-0.006923832,0.5123099,-0.5034942,0.4309247
0.9669072,-0.2377208,-0.01858578,-0.03646697,-0.01448229,-0.03320828,0.7795444,-0.5052902,0.4267283
1.051034,-0.2484871,-0.04649455,0.04804048,-0.02422599,-0.05999468,0.9036175,-0.461024,0.3782286
1.20484,-0.2511553,-0.04698215,0.202276,-0.02590864,-0.05937123,0.6600299,-0.2529626,0.3816574
1.327479,-0.2180376,-0.08071974,0.3253832,0.008158556,-0.0920082,0.2243336,-0.07352581,0.2286277
1.395141,-0.21277,-0.07531533,0.3935329,0.01434004,-0.08551198,-0.33828,0.001417663,-0.1011757
1.472585,-0.3172577,-0.08333307,0.4714639,-0.08926899,-0.09244467,-0.606677,-0.09492698,-0.5851171
1.395323,-0.5017802,-0.112332,0.394666,-0.2729448,-0.120363,-0.1127683,-0.3157988,-0.9240122
1.148834,-0.5951008,-0.2128668,0.1485973,-0.3654413,-0.2198181,0.3734872,-0.4719276,-0.9537162
0.9749419,-0.4237332,-0.3693226,-0.02492882,-0.1932587,-0.3751884,0.1842085,-0.272909,-1.045292
0.9206236,-0.2508182,-0.3577224,-0.07893697,-0.01952654,-0.3624858,0.0711385,0.2459691,-1.057474
0.9567411,-0.2713189,-0.1628363,-0.04256086,-0.03920377,-0.1664679,0.2733782,0.4297497,-0.7369291
1.072349,-0.2702142,0.02620921,0.07325949,-0.03726932,0.02374639,0.362514,0.006711611,-0.2238624
1.211411,-0.1311686,0.006718236,0.2124888,0.1026106,0.005460088,0.5330812,-0.3498677,0.1919187
1.273576,0.07875502,-0.1469725,0.2747711,0.3133674,-0.1469945,0.3460589,0.01684422,0.187889
1.081479,0.2111786,-0.2219807,0.08273546,0.4466101,-0.2207366,-0.5087135,0.4181215,0.1222681
0.8622724,0.1550636,-0.2394078,-0.1364696,0.391281,-0.2368649,-1.293681,0.3286313,0.3031121
0.8924135,-0.003327916,-0.2133615,-0.1063828,0.2336229,-0.2094816,-1.779605,0.6691446,0.3480864
0.9038336,-0.1954859,-0.1365328,-0.09506361,0.04213223,-0.1312735,-1.883883,1.193114,0.2753699
0.858775,-0.398321,-0.02306414,-0.1402605,-0.1601055,-0.01638145,-1.677953,1.248972,0.1975168
0.8696642,-0.4587048,0.09407542,-0.1295377,-0.2199562,0.1022218,-1.348686,1.365133,-0.03763738
0.7823987,-0.3824529,0.1370036,-0.216988,-0.1432243,0.1466454,-0.745665,1.164072,-0.2118388
0.6705487,-0.2603335,0.1615655,-0.3290297,-0.02066721,0.1727221,-0.3625112,0.5282705,-0.2055231
0.6491298,-0.07260939,0.1606451,-0.3506324,0.1674576,0.1733225,-0.3749595,0.2229892,-0.1014658
0.6612108,0.00537051,0.1163079,-0.3387108,0.2457993,0.1304988,-0.4287598,0.1478197,0.09463569
0.7011157,-0.05628092,0.1125226,-0.2989246,0.1844637,0.1282085,-0.4792305,0.1452953,0.2115441
0.7933679,-0.06215077,0.1062861,-0.2067373,0.1788554,0.1234388,-0.3812101,0.08975988,0.2224424
0.9414512,-0.08590425,0.09725677,-0.05865631,0.1553029,0.1158395,-0.3213369,-0.1195804,0.2100164
1.099555,-0.1931346,0.08964158,0.0995099,0.04820892,0.1096103,-0.4147307,-0.1543915,0.1906694
1.237564,-0.3493309,0.0646999,0.2376391,-0.1079159,0.0860041,-0.3693363,-0.128652,0.2685577
1.377164,-0.5173238,0.09504723,0.3774046,-0.2758954,0.1176312,0.02048293,-0.2176331,0.3836252
1.576622,-0.5489685,0.1703194,0.5770542,-0.307572,0.1941222,0.6356137,-0.4319194,0.4926474
1.784856,-0.5185108,0.2018474,0.7854778,-0.277174,0.226801,0.8167375,-0.55482,0.5935939
1.749709,-0.5157751,0.006773328,0.7504838,-0.2745088,0.03280226,0.6140249,0.200363,0.4886762
1.522762,-0.4416545,-0.2387202,0.5236189,-0.2004545,-0.2116936,0.652418,1.355393,0.3180246
1.236528,-0.4493417,-0.1274417,0.2373702,-0.2081918,-0.09948963,0.718371,1.368693,0.3456386
0.7536695,-0.4864604,0.0190782,-0.2456105,-0.2453341,0.04789182,0.6165578,0.4020243,0.3720602
0.541024,-0.3186032,-0.04740395,-0.4584785,-0.07746529,-0.017788,0.3984943,-0.289204,0.2706583
0.8237392,-0.1964281,-0.1035811,-0.176065,0.04476149,-0.0732194,-0.1384665,-0.2677042,0.01535398
0.930861,-0.2366478,-0.180711,-0.06930284,0.004632477,-0.1496556,-0.5781516,-0.003810817,-0.4790556
0.8991156,-0.320379,-0.09102731,-0.1014524,-0.07897197,-0.05932364,-0.3480285,-0.08347576,-0.7661903
0.8658717,-0.4503233,0.145381,-0.1351352,-0.2087539,0.1776925,0.3223191,-0.3405853,-0.6174655
0.6499143,-0.5324135,0.1235408,-0.3515555,-0.2906417,0.1564185,1.133891,-0.6456603,-0.4697615
0.5760061,-0.5273365,0.01526238,-0.4259346,-0.2853138,0.04865983,1.604381,-1.093413,-0.2619606
0.5659321,-0.4336969,-0.08369708,-0.4364668,-0.1913653,-0.0498292,1.509881,-1.240986,0.08164663
0.5869781,-0.2935046,-0.2012172,-0.4158444,-0.05079962,-0.1669258,1.654464,-1.106365,0.2385186
0.8576226,-0.1713367,-0.1390873,-0.1455702,0.07180641,-0.1044126,1.842253,-0.9340687,0.2985735
1.091722,-0.01153985,-0.1036682,0.0882222,0.2320996,-0.06864239,1.420045,-0.6878373,0.2370503
1.186016,0.1379391,-0.1241178,0.1822727,0.3821195,-0.08876679,0.9428581,-0.5510024,0.01144336
1.072524,0.1846885,-0.05549204,0.06859042,0.4294347,-0.01983687,0.4740361,-0.4217758,-0.05025082
0.8641982,0.122192,-0.04260268,-0.1398797,0.3675057,-0.0066611,0.02120235,-0.2850588,0.05655338
0.8828109,0.01005051,-0.02046705,-0.1213672,0.2559124,0.01574467,0.02137849,-0.2720438,0.2433297
0.9397663,-0.1504046,0.05063427,-0.06446595,0.09597056,0.08709971,0.2795719,-0.3319294,0.3932329
0.9887605,-0.2946782,0.08908504,-0.01547825,-0.0478325,0.1257855,0.6937675,-0.501274,0.3660615
1.059214,-0.2554518,0.04096067,0.05501459,-0.008178943,0.07787343,0.9356956,-0.5599601,0.4275183
1.139787,-0.1778339,-0.1099377,0.1356688,0.06982471,-0.07283829,0.534527,-0.3197531,0.5209536
1.327359,-0.09648972,-0.1631489,0.3233535,0.1515133,-0.1258872,-0.2439295,0.07062544,0.2253759
1.403373,0.002911002,-0.1139571,0.3994997,0.2512134,-0.07655251,-0.9802826,0.2507374,-0.3908486
1.397707,-0.2189161,-0.1107551,0.3939637,0.02963449,-0.07322091,-1.140316,0.1346275,-0.8822151
1.28281,-0.6447365,-0.1387752,0.2791763,-0.3959896,-0.1011198,-0.5316378,-0.01734151,-0.9729448
0.972266,-0.822452,-0.1814888,-0.03129286,-0.5735483,-0.1437156,0.1125143,-0.1751232,-0.9134024
0.8679894,-0.6486685,-0.2124801,-0.1355335,-0.3996239,-0.1745861,0.2272201,-0.1036717,-1.02372
0.8679355,-0.394941,-0.2119789,-0.1355854,-0.1457483,-0.1739538,0.152458,0.06025396,-1.026301
0.9642993,-0.315756,-0.1069433,-0.03924541,-0.06639436,-0.0687697,0.3492113,-0.07173494,-0.6214887
1.404701,-0.2036475,0.01635231,0.4011107,0.04590847,0.05469548,0.5176912,-0.01626832,-0.1070253
1.584986,0.002727484,-0.08432215,0.5813196,0.2525005,-0.04578857,0.1038959,0.3955733,0.08559371
1.320238,0.1540087,-0.2185454,0.3164463,0.4040112,-0.1798012,-0.6806608,0.823006,-0.02506895
1.032091,0.2144057,-0.1905435,0.02810959,0.4646326,-0.1515655,-1.285374,0.9759237,-0.02625172
0.760262,0.04187353,-0.1499541,-0.243978,0.2922993,-0.110714,-1.631954,0.8305852,0.07825142
0.5749971,-0.1913354,-0.08960123,-0.4295593,0.05924722,-0.05006699,-1.663589,0.903237,0.02434296
0.5424953,-0.3277601,0.003327241,-0.4624146,-0.07706918,0.04318835,-1.317614,0.988043,0.08102298
0.5844372,-0.403219,0.04508008,-0.420838,-0.1524658,0.08529783,-0.9224196,0.7933217,0.2004694
0.6432291,-0.2978955,0.0594858,-0.3623993,-0.04711846,0.100084,-0.7613342,0.7019292,0.1367126
0.750597,-0.2188071,0.07455934,-0.2553523,0.03196219,0.1155544,-0.8037092,0.5770226,0.1105173
0.88832,-0.2364124,0.1295265,-0.1179043,0.01432116,0.1709269,-0.7654132,0.4034061,0.08450768
0.906858,-0.2124162,0.1932423,-0.0995876,0.03825479,0.2350467,-0.5543226,0.2318633,0.1118686
0.8857116,-0.231326,0.188139,-0.1208982,0.01925652,0.2303354,-0.2791413,-0.06381808,0.2669847
0.8657147,-0.190536,0.1651889,-0.1410001,0.05993252,0.2077533,0.03129532,-0.1637677,0.2957667
0.8424072,-0.1010157,0.1420032,-0.1643505,0.1493129,0.1849013,0.06939598,-0.2024694,0.2276031
0.9889826,-0.08455692,0.1107799,-0.01775363,0.1656026,0.153969,-0.2154111,-0.3050938,0.1632505
1.200874,-0.175334,0.09298762,0.1942219,0.0746231,0.1364183,-0.379194,-0.2768338,0.1966744
1.277411,-0.3223266,0.07805358,0.2708975,-0.0726074,0.121672,-0.1529376,-0.3848929,0.2754102
1.326934,-0.3099851,0.08457225,0.3205978,-0.06053697,0.1283209,0.356039,-0.7552722,0.3198911
1.61524,-0.3013315,0.03987536,0.6091,-0.0521818,0.08369454,0.8035718,-1.030292,0.5124489
1.878521,-0.399721,-0.1525304,0.8725677,-0.1508909,-0.1087006,0.9622664,-0.4449703,0.6379638
1.615641,-0.4369515,-0.3747184,0.6098325,-0.1884539,-0.3309317,0.6880501,0.7164144,0.5602128
1.250079,-0.5050672,-0.3744898,0.24434,-0.2569049,-0.3307859,0.4617496,1.031147,0.4591439
0.9853667,-0.4865528,-0.1383565,-0.0203933,-0.2387163,-0.09475779,0.8800792,0.6705035,0.3261918
0.571755,-0.3123792,-0.0155127,-0.4341165,-0.06484736,0.02797059,1.085625,0.3795057,0.2439394
0.6952401,-0.1678291,-0.1410895,-0.310817,0.07942529,-0.09772682,0.4254424,0.05932373,0.05283534
1.118299,-0.1007997,-0.2225555,0.1120017,0.1462037,-0.1793148,-0.3229338,0.00758068,-0.2933495
0.9103939,-0.2377969,-0.06532932,-0.09618546,0.008976728,-0.02220622,-0.4384922,0.1335872,-0.4099298
0.7910218,-0.4465015,0.1386228,-0.2158755,-0.1999396,0.1816361,-0.00409257,-0.05201225,-0.4231841
0.8627882,-0.4883019,0.157678,-0.1444527,-0.2419302,0.2005857,0.5953852,-0.3816731,-0.4634512
0.6102012,-0.452196,0.05191666,-0.3973962,-0.205984,0.09471529,1.234167,-0.7040973,-0.3934413
0.5697233,-0.3571144,-0.07181105,-0.4382268,-0.1110228,-0.02913131,1.462489,-0.9727777,-0.3638549
0.5781657,-0.2731767,-0.1181638,-0.4301127,-0.02716088,-0.07561368,1.275601,-1.06517,-0.2132012
0.576599,-0.2303257,-0.1003538,-0.4319621,0.01565992,-0.05794122,1.347061,-1.05389,0.1291314
0.8044022,-0.1220696,-0.1488571,-0.2043777,0.1239282,-0.1065855,1.297821,-0.8693994,0.28558
0.934053,-0.04022558,-0.1413839,-0.07487015,0.2058199,-0.09925184,1.040402,-0.5772344,0.2985603
1.111326,0.004527157,-0.07497308,0.1023371,0.2506449,-0.03297412,0.923723,-0.5263714,0.2594301
1.133507,0.0697493,-0.05836314,0.1245259,0.3159504,-0.01648772,0.5951107,-0.5702151,0.157928
1.006015,0.09529661,-0.02187491,-0.00289635,0.3415765,0.01988768,0.3389117,-0.485193,0.19499
1.056452,0.03763052,-0.02071831,0.04766613,0.2839686,0.0209417,0.3216412,-0.3575781,0.3453564
0.9947876,-0.09325859,-0.03163214,-0.01382362,0.1531033,0.009934338,0.3668223,-0.2166883,0.4595216
1.036477,-0.2066224,-0.01935363,0.02808528,0.03972044,0.02212708,0.5858169,-0.1999629,0.4084278
1.152224,-0.2498627,-0.04520385,0.1440893,-0.003584126,-0.003802192,0.6671658,-0.1973983,0.250675
1.169513,-0.2402473,-0.04579161,0.1616679,0.005923492,-0.004462956,0.5416805,-0.05563107,0.155375
1.264003,-0.1710134,-0.05594622,0.2564674,0.07500868,-0.01468464,0.1476346,-0.04158611,-0.1151245
1.257896,-0.0854452,-0.08369272,0.2506778,0.1603882,-0.04249188,-0.4866639,-0.08691804,-0.5930513
1.274105,-0.1704989,-0.08494022,0.2671968,0.07510404,-0.04379264,-0.6575147,-0.02878741,-0.914947
1.199183,-0.423164,-0.142171,0.1925655,-0.1778334,-0.1010672,-0.3776944,-0.04718098,-1.011495
0.9404883,-0.5677482,-0.2212782,-0.06586813,-0.3227251,-0.180205,-0.2012708,-0.137385,-1.056634
0.8537796,-0.5595034,-0.2211894,-0.1523467,-0.3148083,-0.1801276,-0.08619063,-0.2960042,-1.107716
0.899048,-0.4861711,-0.1562955,-0.106874,-0.2418069,-0.115219,0.2739748,-0.4809101,-0.9675955
1.148083,-0.39781,-0.1102821,0.1423453,-0.1537649,-0.0691593,0.7600799,-0.3747469,-0.7205657
1.445126,-0.2714939,-0.1167219,0.4395507,-0.02774606,-0.07551837,0.8585353,0.03095503,-0.6332101
1.388026,-0.03842973,-0.1258971,0.3825803,0.2050455,-0.08457715,0.3934948,0.4529613,-0.4445165
1.134709,0.1380871,-0.1289248,0.1293431,0.3813087,-0.08745154,-0.3046646,0.664149,-0.04046234
0.8859265,0.2180287,-0.1529771,-0.1194164,0.4610006,-0.1113121,-1.039041,0.6420142,0.2510424
0.7204321,0.2398617,-0.179973,-0.2849426,0.4825676,-0.1380759,-1.953124,0.6660864,0.3384066
0.7176523,0.1298427,-0.1631869,-0.2877958,0.372245,-0.1210148,-2.699867,0.7627481,0.3995164
0.8082294,-0.05771853,-0.08471331,-0.1973172,0.1843256,-0.04222106,-2.713303,0.7790013,0.4701827
0.8545987,-0.2791878,0.05306569,-0.1510573,-0.03756535,0.09592242,-2.173535,0.6765359,0.4313217
0.8392704,-0.3819944,0.1784994,-0.166495,-0.1408556,0.2217591,-1.467723,0.3310119,0.368182
0.8077219,-0.318778,0.1789148,-0.1981442,-0.07817616,0.2226046,-0.9433999,0.003603096,0.3211698
0.7530388,-0.2351439,0.1345943,-0.2529097,0.00487732,0.178728,-0.8758559,-0.05245042,0.278403
0.7289597,-0.1413115,0.1373894,-0.2770424,0.09809207,0.1819682,-0.9722844,-0.08372353,0.3392444
0.7487619,-0.1329055,0.1283723,-0.2572539,0.1058454,0.1733863,-0.9026911,-0.141497,0.3776221
0.7735575,-0.1755375,0.1199504,-0.2324215,0.06252586,0.1653805,-0.793624,-0.2167929,0.3679102
0.796294,-0.1468638,0.0859459,-0.2095887,0.09047698,0.1317644,-0.6932293,-0.3370563,0.3586897
0.9160605,-0.1826281,-0.01619379,-0.08966038,0.05395556,0.02997942,-0.6020825,-0.2966808,0.3105085
1.167709,-0.3334053,-0.06878855,0.1622171,-0.0976112,-0.02229695,-0.6035258,-0.03623115,0.3395925
1.278103,-0.4732598,-0.03137484,0.2728988,-0.2382815,0.0153995,-0.2885663,0.1236991,0.3676557
1.284275,-0.4730994,-0.01529943,0.279403,-0.2389512,0.03172356,0.4944247,-0.1554904,0.360502
1.58006,-0.3966809,-0.07700827,0.5755454,-0.1633629,-0.0297695,1.077688,-0.4333835,0.4716325
1.932926,-0.3494103,-0.175687,0.928767,-0.1169103,-0.1282628,1.071222,-0.03011091,0.5706386
1.731353,-0.2932648,-0.2392285,0.7275113,-0.06156177,-0.1916435,0.7457702,0.7453147,0.5378245
1.172015,-0.3942045,-0.1928552,0.1684169,-0.1632713,-0.1451254,0.53256,1.273929,0.4870778
0.7773226,-0.546395,-0.1060945,-0.2261227,-0.3161971,-0.0582272,0.4866759,1.205118,0.4613194
0.6248115,-0.3873418,-0.1271023,-0.3785664,-0.1578345,-0.0790992,0.4278807,0.4466817,0.3371104
0.7624277,-0.2187773,-0.1951492,-0.2409503,0.01009279,-0.1470076,0.1860174,-0.2164771,0.04380846
0.8762987,-0.2580939,-0.2136966,-0.1271277,-0.02980449,-0.1654086,-0.2509635,-0.1454529,-0.3566772
0.8197568,-0.3232029,-0.1107374,-0.1837517,-0.09543832,-0.062289,-0.3760553,0.1096133,-0.5883036
0.8579948,-0.4456095,0.1003085,-0.1456186,-0.2183126,0.1489341,-0.02289083,0.022302,-0.4627771
0.7551906,-0.4840605,0.1550491,-0.2485395,-0.2571691,0.2038651,0.6374061,-0.3742492,-0.3408862
0.6757796,-0.4153271,0.06102018,-0.3280671,-0.1887716,0.1100312,1.426523,-0.867655,-0.303977
0.7143046,-0.379518,-0.04315438,-0.2896442,-0.1532215,0.006048396,1.564362,-1.024019,-0.2156331
0.63888,-0.273072,-0.1892449,-0.3651413,-0.04695431,-0.1398567,1.297513,-0.8381349,-0.1885211
0.7566368,-0.2121491,-0.1934317,-0.247413,0.01386991,-0.1438616,1.476902,-0.8261827,0.0237926
0.8901268,-0.2043618,-0.1062498,-0.113896,0.02163451,-0.05649578,1.515528,-0.786071,0.2080339
1.016594,-0.06898828,-0.1263463,0.01265815,0.1570545,-0.0764016,1.341823,-0.5133468,0.05544276
1.151976,0.02248624,-0.1029984,0.148187,0.2486343,-0.05285362,1.235162,-0.4942192,-0.03112074
1.007833,0.01693041,-0.06348553,0.004240677,0.2432285,-0.01312936,0.7231295,-0.5286415,-0.06334242
1.022995,0.0616459,-0.06815363,0.01964429,0.2881226,-0.0175744,0.3703864,-0.4153635,-0.0147132
1.037334,0.06442429,-0.02823474,0.03426366,0.291092,0.02257859,0.3995244,-0.3721757,0.2170807
0.9330859,-0.0329917,-0.01566508,-0.06967019,0.1938638,0.0353917,0.3119391,-0.3078357,0.3237775
1.043188,-0.1074131,0.004888138,0.04077731,0.1196148,0.05619502,0.4591319,-0.3483874,0.3280503
1.024642,-0.1566461,0.04236314,0.02260534,0.07053103,0.09392306,0.6695812,-0.3834389,0.2936774
1.046707,-0.2043712,0.01365552,0.04506801,0.02292823,0.06546696,0.653979,-0.2653723,0.2648262
1.185687,-0.2024118,-0.006541908,0.1844652,0.0249818,0.04551523,0.4755019,-0.1276145,0.2762746
1.216754,-0.1393053,-0.03479262,0.2159583,0.08815415,0.01750125,-0.1646804,0.02958524,0.1153727
1.314424,-0.03353335,-0.07242551,0.3140528,0.193962,-0.01990537,-0.9461161,-0.02650678,-0.2381518
1.334166,-0.07861305,-0.08698503,0.3342036,0.1488837,-0.03424897,-1.172296,-0.1207249,-0.5653486
1.276837,-0.3970077,-0.1702931,0.2772505,-0.1695477,-0.1173496,-0.7018367,0.009130128,-0.6247028
1.160472,-0.7220558,-0.2652828,0.1612157,-0.4946653,-0.2121359,-0.1627582,0.1663882,-0.6740905
0.9286718,-0.7186685,-0.2806712,-0.0703083,-0.4913628,-0.2273171,-0.004021271,0.3428141,-0.994824
0.7733317,-0.451919,-0.2268332,-0.2254244,-0.2246905,-0.1732586,0.08333522,0.2654788,-1.122673
0.7556625,-0.3109648,-0.1290549,-0.2429126,-0.08378844,-0.07523839,0.2345796,-0.0694794,-0.8362546
1.044249,-0.3011058,-0.05033182,0.0458235,-0.0739487,0.003751943,0.5443758,-0.1205793,-0.3520795
1.472716,-0.1942617,-0.05386166,0.4744131,0.03291099,0.0005146945,0.6454412,0.1698423,0.02496816
1.544755,0.02018666,-0.1663968,0.5465377,0.247407,-0.1117041,0.06597209,0.6238816,0.04921402
1.266314,0.2338528,-0.2584464,0.2681245,0.4611424,-0.2034126,-0.7085838,0.9102187,0.09627711
0.9608748,0.1914446,-0.2183439,-0.0373577,0.4188068,-0.1629399,-1.407969,0.9148305,0.2655456
0.8049414,-0.03418091,-0.115621,-0.193407,0.1932368,-0.0598128,-1.839725,0.9771772,0.2400855
0.7185892,-0.2463385,-0.001848435,-0.2799378,-0.01889602,0.05439983,-1.782727,1.052465,0.2415395
0.7150313,-0.44125,0.07133358,-0.2837208,-0.2138159,0.1280543,-1.522763,1.164565,0.2724224
0.7400134,-0.4473736,0.1083801,-0.2589922,-0.2199739,0.1655977,-1.080311,1.250858,0.114404
0.66163,-0.3413092,0.1728214,-0.3376405,-0.1139589,0.2305498,-0.6003265,0.9384363,-0.03346707
0.664619,-0.2001671,0.1974262,-0.3349107,0.027128,0.2556668,-0.4206373,0.4839776,-0.06756882
0.710496,-0.03297198,0.1599067,-0.2892702,0.1942643,0.2186472,-0.4699461,0.1493005,0.006886579
0.7125088,-0.02878321,0.1433997,-0.2874562,0.1983863,0.2026156,-0.5516191,-0.02960506,0.1326048
0.79247,-0.04643579,0.1320219,-0.2076436,0.1806508,0.1916781,-0.6174441,-0.04844774,0.1823768
0.8916898,-0.0531335,0.1034507,-0.1085133,0.1738457,0.1635034,-0.6825542,-0.1284286,0.1795712
1.049347,-0.1165292,0.07499544,0.04911707,0.1103114,0.1353937,-0.69423,-0.1603274,0.1685218
1.184824,-0.1722786,0.04271365,0.1846268,0.05438787,0.1034017,-0.694954,-0.1169589,0.2464774
1.212456,-0.3365766,0.1041422,0.2123418,-0.1101204,0.1650608,-0.5479625,-0.1478555,0.3439978
1.354136,-0.5034845,0.2809581,0.3541403,-0.2772694,0.3420434,0.01302136,-0.2106727,0.3785292
1.43679,-0.4910056,0.3485351,0.4369305,-0.2650506,0.4097143,0.7715907,-0.3814007,0.5875438
1.392454,-0.4285546,0.08234438,0.3927282,-0.2028641,0.1435331,1.009606,-0.3386764,0.8329131
1.486726,-0.4659793,-0.3560341,0.4871087,-0.2405443,-0.294925,0.5204082,0.5022191,0.7975948
1.427969,-0.4793843,-0.4773012,0.4284151,-0.2541838,-0.4163513,0.2875054,1.486327,0.6510909
1.036047,-0.4332016,-0.289495,0.03649223,-0.2082033,-0.2287633,0.5458061,1.282716,0.5501994
0.5916318,-0.4723122,-0.07347705,-0.4079907,-0.2474734,-0.01300336,0.5571371,0.3871759,0.3486876
0.427137,-0.4286717,0.1272913,-0.5726084,-0.2039406,0.1874771,0.3774426,-0.06963212,-0.05729223
0.7338917,-0.2756574,-0.008097877,-0.2660065,-0.05097532,0.05177089,0.06043674,-0.2394282,-0.5620242
1.007312,-0.1647214,-0.2633283,0.007251825,0.05997232,-0.2038061,-0.3975364,-0.09008783,-0.884346
0.9716758,-0.1728961,-0.07050812,-0.02854403,0.05186651,-0.01135695,-0.4672138,-0.00607807,-0.8319578
0.922469,-0.3711451,0.1305128,-0.07790655,-0.1462619,0.1892738,0.1633179,-0.4241124,-0.5609735
0.8180191,-0.5023467,0.1462419,-0.1825045,-0.2772918,0.2045925,1.042397,-0.6144335,-0.2727439
0.7677947,-0.4957302,0.1617922,-0.2328628,-0.2704473,0.2197059,1.292293,-0.6307869,-0.2162805
0.7792459,-0.3764444,-0.005924005,-0.2215219,-0.1508691,0.0515197,1.057586,-0.5910403,-0.3404644
0.7094388,-0.1015635,-0.06789517,-0.2914054,0.124372,-0.01095747,0.9503525,-0.4428863,-0.16208
0.7369529,0.03398016,-0.006898805,-0.2639229,0.2603385,0.04949841,0.7831021,-0.5212382,0.08295693
0.7738939,0.01738181,-0.05797311,-0.2269581,0.2442117,-0.00214795,0.5681741,-0.4802557,0.1659058
0.8407001,-0.01463875,-0.01825921,-0.1600644,0.2126948,0.03696509,0.4724906,-0.4844399,0.2640299
0.9396808,-0.03176296,-0.007225518,-0.06092796,0.1960908,0.04737157,0.3594878,-0.5779262,0.2641803
0.8997253,-0.02024534,-0.01623901,-0.1006582,0.2081317,0.03770627,0.3324692,-0.5204967,0.4048086
0.9311732,-0.05276999,0.009787656,-0.0689169,0.1761214,0.06305782,0.3510231,-0.5813051,0.5625158
1.015647,-0.05627791,-0.06175897,0.01591656,0.1731084,-0.009185891,0.2912162,-0.4486944,0.5006032
1.072817,-0.1100871,-0.06290992,0.07350809,0.1197658,-0.01105361,0.3697188,-0.2781674,0.4745694
1.131315,-0.1851664,-0.06063619,0.1324809,0.04511855,-0.009512881,0.4998917,-0.2576296,0.354371
1.120653,-0.1659697,-0.0653997,0.1223372,0.06470921,-0.01502189,0.4604711,-0.1496443,0.2580093
1.202875,-0.1651267,-0.01606643,0.2051106,0.06590655,0.03355666,0.1752591,-0.2077062,0.1242361
1.330552,-0.1046302,-0.05010115,0.3333581,0.126716,-0.001239563,-0.5255388,-0.261353,-0.3085895
1.371166,-0.09975979,-0.08238232,0.3745444,0.1318551,-0.03428673,-1.136849,-0.2461393,-0.5627253
1.329065,-0.3168771,-0.1661995,0.3329997,-0.0850401,-0.1188708,-1.04539,-0.2410663,-0.5572637
1.198376,-0.5788838,-0.3085704,0.2028332,-0.3468681,-0.2620025,-0.7248425,-0.0388949,-0.6371816
1.094354,-0.6611757,-0.3474605,0.09928828,-0.4290117,-0.3016363,-0.5495261,0.1700298,-0.8520485
0.9154751,-0.5302375,-0.2543205,-0.07916621,-0.2979363,-0.209209,-0.2198127,0.1519671,-0.988301
0.8278725,-0.4696323,-0.06244406,-0.1663937,-0.2371866,-0.01800292,0.219186,-0.1069168,-0.7550864
1.147561,-0.4153803,0.01127047,0.1536261,-0.1827698,0.05508841,0.5550072,-0.2620359,-0.2760612
1.432277,-0.1874473,-0.08578047,0.4386292,0.04535655,-0.04253941,0.6335966,0.06493557,0.05323436
1.382169,0.02914503,-0.1921349,0.3887538,0.2621704,-0.1494253,0.1571324,0.6274949,0.0631455
1.197052,0.1692688,-0.217063,0.2038005,0.402534,-0.1748369,-0.5808493,0.9022678,0.04835081
0.9245647,0.1258646,-0.1573454,-0.06860147,0.3593703,-0.1155497,-1.118015,0.8515037,0.1705155
0.663812,-0.01695291,-0.1079022,-0.3293453,0.2167756,-0.06647936,-1.542885,0.8552146,0.1825951
0.6185443,-0.1100137,-0.04939398,-0.3746657,0.123906,-0.008284936,-1.733946,0.9322683,0.1301293
0.6908513,-0.281283,0.03199934,-0.3024527,-0.04721066,0.07285189,-1.565783,0.937377,0.1293273
0.6607847,-0.3794286,0.1148509,-0.3326337,-0.1452416,0.155499,-1.288633,0.8160659,0.08130096
0.6893361,-0.3496272,0.1638705,-0.3041989,-0.1153575,0.2043573,-0.9890385,0.535887,0.007541804
0.7878206,-0.295935,0.139577,-0.2058168,-0.06160669,0.1799343,-0.7081009,0.2322957,-0.01002466
0.7518039,-0.2096687,0.1528964,-0.2419092,0.02469996,0.1931445,-0.6205613,-0.04343871,0.0260485
0.753501,-0.1857396,0.143046,-0.2402504,0.04865347,0.1831942,-0.589464,-0.2542545,0.1167357
0.8057404,-0.1633533,0.1073859,-0.1880027,0.07104785,0.1474337,-0.4260329,-0.3789134,0.2472885
0.8460236,-0.1420182,0.1292261,-0.1476573,0.09237285,0.1691645,-0.3370099,-0.4019104,0.2670478
0.9665156,-0.1709397,0.0741939,-0.02704499,0.0634204,0.114007,-0.3631747,-0.2496883,0.1285274
1.078001,-0.1774458,0.002265091,0.08461861,0.05686037,0.0419317,-0.4906273,-0.08464566,0.03804493
1.182866,-0.2557987,-0.05286342,0.1897124,-0.02157048,-0.01336663,-0.6295246,-0.03787341,0.1226231
1.227718,-0.3892028,-0.09149269,0.2348351,-0.1550746,-0.0521878,-0.2853253,-0.1268791,0.2645018
1.25311,-0.4635495,-0.01503719,0.2605236,-0.2295371,0.02405669,0.4779518,-0.3887151,0.4361013
1.547196,-0.4668111,-0.01511776,0.554915,-0.2329195,0.02374844,1.119604,-0.5402086,0.6693956
1.820119,-0.4432224,-0.1859313,0.8281284,-0.2094449,-0.1473073,1.219714,-0.0186381,0.7022473
1.534676,-0.4619876,-0.3091409,0.5429302,-0.228306,-0.2707678,0.7649503,1.06378,0.5467634
0.9993072,-0.4546313,-0.1681921,0.007731373,-0.221017,-0.1300686,0.4839784,1.51582,0.5107121
0.7562862,-0.4016167,0.009176024,-0.2352029,-0.168032,0.04706025,0.5884012,0.7688965,0.4712504
0.705676,-0.3100717,-0.1141368,-0.2858015,-0.07647198,-0.07647783,0.4897444,-0.0791629,0.2668
0.8271698,-0.1700953,-0.1892828,-0.1643545,0.06356652,-0.1518329,-0.002500973,-0.09032455,-0.1952174
1.010934,-0.1460003,-0.09817607,0.01931909,0.08776791,-0.0609154,-0.5878127,0.1852943,-0.8180235
0.8798963,-0.2821384,-0.05247872,-0.1118448,-0.04822521,-0.01538349,-0.7250236,0.2079876,-0.9948007
0.7791526,-0.451027,0.1074805,-0.2127426,-0.2169333,0.1444343,-0.162983,0.1587175,-0.7358409
0.7900789,-0.5115988,0.1730807,-0.2019885,-0.2772855,0.2099122,0.7505265,-0.1228767,-0.5335049
0.6252273,-0.385023,0.01987149,-0.3670175,-0.1504439,0.05659179,1.489164,-0.5965615,-0.3650476
0.6030326,-0.1771636,-0.06417172,-0.3893792,0.05773305,-0.02755807,1.513648,-0.8208617,-0.2342715
0.6800575,-0.00851049,-0.1199925,-0.3124932,0.2267526,-0.08348236,1.027533,-0.7937883,-0.05357102
0.7053228,0.01760339,-0.1355981,-0.2873222,0.2532713,-0.09918572,0.7757976,-0.6811934,0.302755
0.8249677,-0.07825533,-0.07097132,-0.1677152,0.1578411,-0.03464733,0.6686671,-0.6460334,0.5045848
0.9717088,-0.09508049,-0.02791483,-0.0209485,0.141455,0.00833287,0.6293236,-0.7159487,0.5865634
1.096059,-0.04692217,0.006142543,0.1034912,0.1900523,0.04232624,0.6795569,-0.7581956,0.6714506
1.086074,-0.04204378,-0.01085187,0.09365285,0.1953597,0.02527848,0.381509,-0.6474393,0.4865002
1.021841,-0.06396455,-0.03075353,0.02961599,0.173848,0.005332085,0.06100679,-0.4112643,0.3111446
1.04965,-0.1006088,-0.01499143,0.0576627,0.1375839,0.02105658,-0.01675461,-0.299577,0.4057322
1.050911,-0.146484,-0.02343603,0.05919741,0.09205314,0.01258032,0.02619292,-0.2668406,0.4061088
1.111546,-0.2927909,0.008179903,0.1201342,-0.05394854,0.04416924,0.249321,-0.2582126,0.2858989
1.197385,-0.4355783,0.0285859,0.2062959,-0.1964683,0.06455094,0.3305999,-0.2733088,0.224313
1.17919,-0.2967485,-0.0310211,0.1884343,-0.05740183,0.004920013,0.1911162,-0.1584067,0.1483098
1.201758,-0.08992372,-0.08637316,0.2113343,0.1496345,-0.05045686,-0.3307708,-0.06502267,-0.08690802
1.265945,-0.1146266,-0.1103545,0.2758401,0.125118,-0.07446284,-0.9238411,-0.006681402,-0.4945371
1.272885,-0.3260833,-0.1646373,0.2830741,-0.08618055,-0.1287668,-0.7484976,0.1328523,-0.6839128
1.194861,-0.605208,-0.2547132,0.2053074,-0.3651731,-0.218855,-0.4607804,0.3003052,-0.6073915
1.027549,-0.6651396,-0.2602468,0.0382047,-0.4249863,-0.2243838,-0.3938822,0.3887683,-0.7704807
0.8743066,-0.4997099,-0.1861224,-0.1148785,-0.2594339,-0.1502286,-0.0006736457,0.1192449,-0.9583564
0.8632276,-0.4297314,-0.1118394,-0.1258439,-0.1893121,-0.07588146,0.3214497,-0.3010921,-0.7149685
1.046881,-0.3725414,-0.05013719,0.05788373,-0.1319477,-0.01407848,0.4964817,-0.3180892,-0.3401827
1.378683,-0.2360682,-0.0838309,0.3897238,0.004735956,-0.04763477,0.641883,0.0557142,-0.1046755
1.55032,-0.08580599,-0.1456131,0.5613532,0.1552442,-0.1092435,0.2190343,0.4944097,-0.07402432
1.216791,0.08610651,-0.1654693,0.2277545,0.3274307,-0.1288893,-0.5601716,0.6781905,-0.2029909
0.76678,0.1237799,-0.2050979,-0.2224004,0.3653915,-0.1682679,-1.141948,0.6056084,-0.1931994
0.7307251,0.02601509,-0.1704962,-0.2586698,0.2679097,-0.1333728,-1.593333,0.8152103,-0.1104595
0.7678575,-0.1222231,-0.08840709,-0.2218074,0.1199345,-0.05094384,-1.740828,1.325278,-0.03645387
0.6807901,-0.2974425,-0.02598834,-0.3091827,-0.05505075,0.0118615,-1.505578,1.425765,0.07836241
0.6932161,-0.3588173,0.1110562,-0.297085,-0.116221,0.1493356,-1.156106,0.997994,-0.003698226
0.6792062,-0.3359368,0.2177423,-0.3114262,-0.0931608,0.2564853,-0.7916792,0.4706964,-0.1442381
0.6830034,-0.2641903,0.1959181,-0.3079462,-0.02125363,0.2351459,-0.6887446,0.1192434,-0.1415906
0.7737101,-0.1497563,0.1597024,-0.2175278,0.09332541,0.1994211,-0.7594194,-0.03292974,-0.05295686
0.7905756,-0.09346494,0.1547972,-0.200909,0.149745,0.1950002,-0.6977615,-0.1697329,0.1588558
0.8408569,-0.09540122,0.1325947,-0.1508246,0.1479156,0.1732641,-0.6776957,-0.2400098,0.2480624
0.9203295,-0.1193689,0.09019608,-0.07149334,0.1240276,0.1313048,-0.6788502,-0.1911274,0.1688316
0.9813647,-0.1235258,0.04591921,-0.01054178,0.1199178,0.08743317,-0.6760694,-0.1722285,0.1365391
1.120511,-0.2098435,-0.02635069,0.1285764,0.0336109,0.01553035,-0.7753527,-0.09389051,0.1105228
1.215273,-0.3924578,-0.04373606,0.2233587,-0.1490288,-0.001527146,-0.701255,0.0753169,0.2053885
1.273209,-0.4727783,0.1161721,0.2813498,-0.2294056,0.1586697,-0.202912,0.07003905,0.3966411
1.485503,-0.4602664,0.2314125,0.4937197,-0.2169698,0.2741569,0.53152,-0.4225407,0.5391214
1.725082,-0.4267999,-0.02492388,0.7333713,-0.1835868,0.01801922,0.9071966,-0.8702288,0.73922
1.638342,-0.4274923,-0.3300511,0.6466703,-0.1843589,-0.2869593,0.7584984,-0.1130356,0.791393
1.270986,-0.4817801,-0.1970247,0.2792913,-0.2387126,-0.1538265,0.571966,1.200395,0.5600532
0.9238395,-0.5166869,0.05727886,-0.06795859,-0.2736613,0.1005516,0.4566138,1.470989,0.3968517
0.7454686,-0.49728,0.1375864,-0.2465133,-0.254261,0.1809058,0.5534294,0.851704,0.3680352
0.8553473,-0.3707509,0.0992065,-0.1368874,-0.1276933,0.1425411,0.7360085,0.1464585,0.2424622
0.9338907,-0.1843839,-0.1429607,-0.05865189,0.05876298,-0.09964634,0.236391,-0.1933389,-0.07715028
0.849403,-0.08259372,-0.2777162,-0.1434915,0.1606911,-0.2344553,-0.4624799,-0.05672759,-0.4692463
0.9155623,-0.2002173,-0.1253094,-0.07771871,0.04324652,-0.0821268,-0.5345534,0.03018539,-0.5836823
0.8823349,-0.4518445,0.06709628,-0.1113582,-0.2081671,0.1101841,-0.1116005,-0.05951887,-0.4174091
0.8008151,-0.5638204,0.2054389,-0.1933068,-0.3198938,0.2484161,0.6413479,-0.2155622,-0.3155009
0.7991714,-0.5129086,0.1210611,-0.195386,-0.2686885,0.1639059,1.189419,-0.5808005,-0.3177273
0.6132864,-0.3927803,-0.03274669,-0.3817008,-0.1482131,0.009937206,1.222904,-0.8234122,-0.3013433
0.5709405,-0.2843167,-0.04303921,-0.424455,-0.03934298,-0.0005473296,1.121818,-0.8037354,-0.1661075
0.7043134,-0.1634759,-0.07364604,-0.2914504,0.08196309,-0.03137548,1.076753,-0.8327498,0.08289607
0.8287768,-0.0079501,-0.06994681,-0.1673,0.238006,-0.02792342,0.9813467,-0.8116179,0.2291796
1.013164,0.02544997,-0.05401322,0.01683851,0.271962,-0.01225903,0.6730891,-0.6387162,0.1893402
1.040214,0.04941147,-0.07104975,0.04370327,0.2965018,-0.02958332,0.3065572,-0.5106046,0.1177228
0.9992769,0.09831063,-0.04051193,0.002641157,0.3459835,0.0006513214,0.02013795,-0.4146518,0.1191536
0.9773703,0.02225131,-0.0379543,-0.01933518,0.2704932,0.002892928,-0.04956643,-0.3287704,0.2140034
0.9050313,-0.06903321,0.0009688906,-0.09169204,0.1797485,0.04148889,0.2061365,-0.3175248,0.3690203
0.9365907,-0.144189,0.05129163,-0.06009962,0.1050925,0.09147345,0.4085889,-0.3146966,0.3923129
1.044117,-0.2069377,0.008877531,0.04750941,0.04279747,0.04870905,0.4930005,-0.2859476,0.3019852
1.208273,-0.2362471,-0.03191166,0.2117932,0.01389359,0.007556242,0.5031828,-0.1287278,0.2599962
1.35742,-0.2484084,-0.05265344,0.3611034,0.002090323,-0.01356211,0.1870802,0.02534581,0.09191443
1.333798,-0.2263024,-0.05672685,0.3376625,0.02450847,-0.01802315,-0.4304462,-0.1382588,-0.2347891
1.293756,-0.2727978,-0.08063259,0.2978004,-0.02171846,-0.04232487,-0.8428025,-0.3044754,-0.5085687
1.268327,-0.4628107,-0.1936889,0.2725352,-0.2115029,-0.1557816,-0.5489816,-0.1544914,-0.6246475
1.077455,-0.6471597,-0.2897662,0.08179669,-0.3956544,-0.2522567,-0.2242478,0.08337558,-0.7196895
0.8825267,-0.5446653,-0.2780683,-0.1130353,-0.2929778,-0.2409433,-0.3256455,0.2118056,-1.024638
0.8565514,-0.3218494,-0.2095394,-0.1389482,-0.0699793,-0.1727741,-0.1825665,0.03072936,-1.185729
1.010575,-0.3244355,-0.1270075,0.01510995,-0.07237295,-0.09056741,0.04373678,-0.379981,-0.9133011
1.443116,-0.3368246,-0.06662454,0.4476601,-0.08455571,-0.03047012,0.1302483,-0.3993346,-0.4794297
1.735121,-0.2622264,-0.0970682,0.7396381,-0.009735238,-0.06115806,0.2436478,0.1345572,-0.07121157
1.404554,-0.08755806,-0.1715878,0.4089833,0.1651705,-0.1358797,0.02827404,0.7262019,-0.0144359
0.951584,0.2097721,-0.2052938,-0.04415332,0.4627463,-0.1697428,-0.4218191,0.9379039,-0.1544517
0.8600037,0.2018846,-0.2077308,-0.1359851,0.4550962,-0.1722876,-0.9951027,0.8459321,0.0201372
0.7877573,-0.008054984,-0.1409236,-0.2085584,0.2453653,-0.1055337,-1.596109,0.8975735,0.1453353
0.5977529,-0.1148207,-0.03717802,-0.3989494,0.1387637,-0.00178449,-1.71527,0.9817728,0.1592537
0.6336642,-0.2708383,0.009439173,-0.3634639,-0.01714179,0.0448921,-1.581819,0.9584525,0.2956219
0.7404118,-0.3399177,0.05225549,-0.2571596,-0.0861611,0.08781866,-1.409606,0.9997113,0.2031495
0.6894827,-0.3740086,0.1394529,-0.3085303,-0.1202384,0.1751695,-1.035004,0.836609,0.03260436
0.7060004,-0.426029,0.2005894,-0.2924364,-0.1722831,0.236492,-0.6783807,0.4699792,-0.02846253
0.7269328,-0.2538167,0.1583221,-0.271895,-0.0001240322,0.1944308,-0.4872591,0.04889311,-0.06082626
0.7124215,-0.1219355,0.097722,-0.2867512,0.1316805,0.1340445,-0.4609157,-0.2289619,0.1132853
0.7734438,-0.1176161,0.08724882,-0.2260156,0.1358996,0.1237829,-0.4183474,-0.1282019,0.2581247
0.8105192,-0.0977297,0.072729,-0.1891596,0.1556576,0.1094652,-0.3363817,-0.07687424,0.229228
0.932151,-0.135571,0.08693509,-0.06767374,0.1176552,0.1238578,-0.3904485,-0.04475516,0.1954092
1.138569,-0.1481631,0.08215388,0.1386724,0.1048651,0.1192421,-0.4237975,0.05239289,0.1664142
1.23789,-0.2641427,0.06154419,0.2379891,-0.01135147,0.09877183,-0.3347247,-0.01514253,0.2323737
1.263778,-0.4441629,0.08779579,0.2639264,-0.1916453,0.1251326,0.09348118,-0.07386958,0.3531278
1.32279,-0.4471103,0.0586605,0.3230247,-0.1948951,0.09607226,0.8128644,-0.5183105,0.5774448
1.589019,-0.4318569,-0.02182748,0.589357,-0.1799613,0.01562237,1.072101,-0.9197049,0.8645255
1.852761,-0.4405354,-0.1907333,0.8531933,-0.1889648,-0.1532816,0.8796634,0.02514136,0.81994
1.584006,-0.4691532,-0.3105183,0.5844912,-0.2179018,-0.2730948,0.8545241,1.499702,0.5755536
1.046907,-0.5152993,-0.07599906,0.04737295,-0.2643501,-0.03862278,0.8677524,1.733182,0.4687194
0.7869209,-0.4689896,0.1861613,-0.212715,-0.2183142,0.2234781,0.7794462,0.7553054,0.4193202
0.7002268,-0.3447179,0.1148254,-0.2995857,-0.09427775,0.152069,0.6171062,-0.2127795,0.2816972
0.7116566,-0.1335263,-0.1303267,-0.2883898,0.1167221,-0.09317539,-0.1016647,-0.4079096,-0.06190825
0.91919,-0.05427051,-0.29549,-0.08112982,0.1958265,-0.2584494,-1.02252,0.08189276,-0.4749526
1.08808,-0.2280168,-0.1652312,0.08746002,0.02196114,-0.1283114,-1.040849,0.3995336,-0.6140796
0.966705,-0.4317537,0.08288123,-0.03423861,-0.1818682,0.1196786,-0.1743467,0.1272757,-0.5178905
0.7383082,-0.6300463,0.1070804,-0.2629773,-0.3802241,0.1437551,0.8409366,-0.1501357,-0.4595342
0.6466953,-0.6954959,0.03307519,-0.3549411,-0.4456961,0.0696224,1.390125,-0.5108642,-0.4675947
0.541564,-0.4828204,-0.02036898,-0.4604156,-0.2329866,0.01604178,1.403883,-1.017371,-0.346238
0.5173549,-0.2066835,-0.09466826,-0.4849392,0.04325208,-0.05840412,1.378524,-1.015779,-0.05607332
0.7542763,-0.03239065,-0.08816402,-0.2482825,0.2177144,-0.05205485,1.288923,-0.801171,0.1526116
0.9489218,0.09339291,-0.07558609,-0.05383744,0.3437239,-0.03963689,0.8937917,-0.7144919,0.205881
1.057492,0.1861576,-0.08697498,0.05460103,0.4367524,-0.05118749,0.4406326,-0.4583328,0.22875
1.043801,0.1677577,-0.01907666,0.04084408,0.4186313,0.01654996,0.074721,-0.3219958,0.2440829
0.8897046,0.04411865,0.01451961,-0.1132582,0.2952638,0.04998716,-0.1740625,-0.3537975,0.2563841
0.8745217,-0.108349,0.01493691,-0.1283892,0.1430424,0.05024621,-0.1643742,-0.2481477,0.3368826
0.8815987,-0.2195851,0.03744387,-0.1212019,0.03201729,0.07259362,0.0324639,-0.294611,0.4993553
0.9766822,-0.2350523,0.03344941,-0.02594831,0.01672209,0.06843569,0.2210194,-0.3671672,0.5348505
1.184396,-0.228373,0.006018912,0.1819925,0.02353502,0.04083522,0.324459,-0.1551509,0.4173625
1.244163,-0.2471995,-0.03528815,0.2420364,0.004805095,-0.0006499692,0.3245686,0.008312792,0.3132256
1.291955,-0.2251355,-0.009261043,0.2901391,0.02693007,0.02519056,0.1416371,5.480097e-05,0.08923116
1.333532,-0.1947553,0.02378364,0.3320445,0.05733713,0.05804024,-0.3800621,-0.158752,-0.3319121
1.362499,-0.2223207,-0.04567198,0.3613398,0.02976497,-0.01161922,-0.8943586,-0.3631813,-0.6447267
1.303165,-0.3195832,-0.1686077,0.3023155,-0.06753702,-0.1347666,-0.8145064,-0.3380245,-0.6024498
1.112594,-0.4492123,-0.3330567,0.1120207,-0.197234,-0.2994295,-0.6482188,-0.1343567,-0.5963062
1.03996,-0.4808289,-0.3789032,0.03961917,-0.2289384,-0.3454808,-0.7887129,0.1504411,-0.8902989
0.8800722,-0.4257163,-0.2159795,-0.1200796,-0.1739219,-0.1827382,-0.5482058,0.2561266,-0.9904969
0.7650067,-0.4250631,-0.04866142,-0.2349957,-0.1733621,-0.01556662,-0.08394962,-0.04160662,-0.723189
1.027788,-0.4064107,0.009361145,0.02790449,-0.1547911,0.04234777,0.2181522,-0.2731907,-0.2579849
1.373865,-0.2579751,-0.06429098,0.3740742,-0.006418055,-0.03137583,0.4240554,-0.05381837,0.1179854
1.559451,-0.06449948,-0.1713519,0.5597192,0.1870156,-0.1384732,0.09045722,0.3690491,0.09785682
1.324091,0.05938911,-0.1941859,0.3243654,0.3108771,-0.161307,-0.5863834,0.7120715,0.04850083
0.909729,0.0790095,-0.2060395,-0.0900585,0.3304724,-0.1731194,-1.211725,0.8219782,0.1216533
0.8066171,0.0106413,-0.1601411,-0.1933012,0.2620658,-0.1271336,-1.605622,0.7103715,0.1009905
0.7149137,-0.1499117,-0.03920322,-0.2851942,0.101448,-0.006058783,-1.491154,0.7644339,0.09683282
0.6431319,-0.3373447,0.02631457,-0.3572075,-0.08608274,0.05964473,-1.36108,0.9872856,0.06222419
0.7311333,-0.4085674,0.08832528,-0.2694603,-0.1574343,0.1218849,-1.114644,1.000303,-0.06223854
0.6881351,-0.3741958,0.1704063,-0.312717,-0.1232154,0.2042306,-0.6335764,0.7853761,-0.2007377
0.6718816,-0.3098584,0.2116255,-0.3292168,-0.05904599,0.245738,-0.4264473,0.3415888,-0.2684771
0.7163119,-0.2073803,0.213961,-0.2850046,0.04325475,0.2483717,-0.2281367,-0.09281537,-0.1853144
0.6879016,-0.09413002,0.1787312,-0.3135905,0.1563196,0.2134364,-0.202128,-0.3246527,-0.0401236
0.7666928,-0.07065122,0.1511654,-0.2349195,0.1796012,0.186149,-0.3339308,-0.4983393,0.1362579
0.8573885,-0.1100294,0.11418,-0.1442793,0.1400079,0.149416,-0.2649651,-0.4495165,0.2366412
0.9374022,-0.1018093,0.05322213,-0.0642509,0.1479886,0.08867741,-0.3767684,-0.2685815,0.1940276
1.121046,-0.1486908,0.00972634,0.1194776,0.1008385,0.04536336,-0.5908902,-0.1188168,0.2171291
1.264904,-0.3082498,-0.02780259,0.2634822,-0.05902081,0.007977288,-0.6915047,-0.0614182,0.2640339
1.305433,-0.4581862,0.0009187734,0.3042072,-0.2092865,0.03680322,-0.2490789,-0.2602269,0.2893245
1.354057,-0.5255858,0.0453595,0.3530583,-0.2770351,0.08131104,0.7192854,-0.5943117,0.4703828
1.630848,-0.4874412,-0.05106213,0.6300848,-0.2392453,-0.01508069,1.188803,-0.8737966,0.7017806
1.894128,-0.4430097,-0.2297137,0.8935813,-0.1951606,-0.1937372,1.221968,-0.2570051,0.7837289
1.551497,-0.4338514,-0.3077819,0.5511139,-0.1863292,-0.2718374,0.9532917,1.165657,0.5964252
0.903727,-0.4339863,-0.1361745,-0.0965733,-0.1867616,-0.1002771,0.525759,1.611413,0.2896757
0.5827674,-0.4531959,0.05633704,-0.4175382,-0.2062308,0.09218118,0.7467761,0.8868407,0.2547376
0.4971004,-0.3724213,-0.05783537,-0.5032818,-0.1256702,-0.02204799,0.8649566,0.01282417,0.2154439
0.5540589,-0.2744977,-0.1536843,-0.4464448,-0.02791019,-0.1179567,0.3512422,-0.3507233,-0.1356591
0.85279,-0.2819415,-0.08131313,-0.1478543,-0.0354656,-0.04564554,0.0220954,-0.06468875,-0.4474217
1.08318,-0.2650184,-0.1224192,0.08239161,-0.01860348,-0.08680776,-0.06289817,0.1046971,-0.6194024
0.9428423,-0.2996724,-0.04415397,-0.05808763,-0.05326987,-0.00859166,0.101534,-0.03561225,-0.6083733
0.7322881,-0.4408185,0.1692422,-0.2687791,-0.1943803,0.204763,0.7190417,-0.2605661,-0.3871214
0.7767509,-0.4807252,0.1526805,-0.224442,-0.2342005,0.1881623,1.449126,-0.6172457,-0.2682979
0.7563496,-0.368889,0.0139503,-0.2449462,-0.1222215,0.0493878,1.624392,-0.7758199,-0.36317
0.6194726,-0.2327607,-0.09711666,-0.3818914,0.01410969,-0.06173375,1.220573,-0.7733018,-0.462084
0.6931749,-0.1430835,-0.1253693,-0.3082095,0.1040476,-0.09005084,1.067835,-0.875965,-0.2632264
0.7377757,-0.08147508,-0.1088441,-0.263568,0.1659673,-0.0735959,0.9734983,-0.7549804,0.06482051
0.7740299,-0.06107793,-0.1512772,-0.2272014,0.1867151,-0.1161002,0.7794345,-0.4265185,0.2233446
0.9416763,-0.08261295,-0.08948928,-0.05936477,0.1655578,-0.05437946,0.9235155,-0.4112764,0.3046129
1.005757,-0.05656604,-0.009066661,0.004985353,0.1919974,0.0259834,0.8053138,-0.5094398,0.2777925
1.064288,0.007770572,-0.03490554,0.06385954,0.2567296,9.314027e-05,0.567042,-0.4506299,0.2701803
1.053171,0.02732207,-0.02272235,0.05315376,0.2766668,0.01223262,0.4872044,-0.3825481,0.3352204
0.9978755,-0.01721471,-0.0183396,-0.001672552,0.2324925,0.0165784,0.3032166,-0.2482908,0.3317817
1.041346,-0.1132531,-0.01533505,0.0423185,0.1367817,0.01955162,0.5018592,-0.2477778,0.3835755
1.022614,-0.2012884,-0.005540911,0.02415216,0.04903136,0.0293188,0.6380032,-0.3154693,0.3886417
1.135898,-0.2193332,-0.04221273,0.1380401,0.0312259,-0.007376865,0.3931576,-0.2176692,0.2980061
1.329556,-0.1109152,-0.058121,0.3323304,0.1398371,-0.02330642,0.01360207,-0.1515728,0.0922578
1.383536,-0.010604,-0.08576264,0.3869543,0.2402929,-0.0509662,-0.8680256,-0.01313792,-0.2975254
1.382648,-0.224485,-0.1191428,0.3867034,0.02650322,-0.08435946,-1.376621,0.04646926,-0.506345
1.237738,-0.5641721,-0.1790346,0.2424037,-0.313146,-0.144256,-0.7716,-0.1713175,-0.4976702
1.044884,-0.637368,-0.2967573,0.05011684,-0.3863476,-0.2619693,-0.1519826,-0.2571515,-0.6146582
0.9470034,-0.5499695,-0.316092,-0.04724466,-0.2989795,-0.2812711,-0.1893719,-0.05554017,-0.929822
0.9180672,-0.4795203,-0.2092179,-0.07570904,-0.228567,-0.1743299,-0.1371371,0.1305051,-1.098652
1.008952,-0.4064242,-0.048836,0.01560425,-0.1554996,-0.01383883,0.3616745,0.01009226,-0.6914345
1.227357,-0.2797718,0.03769063,0.2343959,-0.0288587,0.07284071,0.6458835,-0.06195964,-0.02126825
1.396958,-0.0910248,-0.08614564,0.4043381,0.1598965,-0.05080221,0.4801505,0.2780818,0.2298027
1.293234,0.07423714,-0.2166635,0.300896,0.3251816,-0.1810889,-0.01331128,0.6621789,0.004556117
1.07494,0.1077267,-0.1705344,0.08281358,0.3586963,-0.1346893,-0.676891,0.8300492,-0.1662947
0.866417,-0.02481845,-0.0966857,-0.1255727,0.2261626,-0.06052755,-1.149359,0.7576174,-0.138125
0.6418856,-0.1861503,-0.03311031,-0.3500367,0.0648154,0.003404433,-1.214165,0.7040615,-0.2117656
0.5899764,-0.2676415,0.05529518,-0.4019315,-0.01672369,0.0922073,-0.9934743,0.8513172,-0.1842564
0.6114365,-0.2780979,0.06675422,-0.3804883,-0.02726015,0.1040983,-0.8680389,0.84,-0.003264637
0.6144158,-0.2177623,0.08974611,-0.377535,0.03296579,0.1275484,-0.7459885,0.6933581,0.008338777
0.6933082,-0.1636231,0.1784968,-0.2986579,0.08696779,0.216774,-0.6268225,0.4613067,0.003849978
0.719491,-0.1443199,0.1745811,-0.272463,0.1061057,0.2133385,-0.6723815,0.08369805,0.06459643
0.7359105,-0.1532819,0.1494168,-0.2559911,0.09694834,0.1886478,-0.6082002,-0.1362313,0.1567358
0.8161246,-0.1936353,0.1693365,-0.1756738,0.05636724,0.2090231,-0.5200695,-0.2555075,0.3247426
0.8504516,-0.2031243,0.1534335,-0.1411859,0.0466173,0.1935474,-0.385043,-0.3040507,0.3421515
0.8768246,-0.1979852,0.1230766,-0.1145904,0.05146236,0.1635802,-0.2643969,-0.2007696,0.2154111
0.9928555,-0.1782202,0.05238977,0.001725621,0.07090074,0.0932386,-0.4137697,-0.08233157,0.1275691
1.145604,-0.16339,-0.02610495,0.1548186,0.08537179,0.01504036,-0.5236182,0.07350625,0.1256194
1.17091,-0.2237857,-0.01483509,0.1805193,0.02458418,0.02655743,-0.4886272,0.08895527,0.2108953
1.161053,-0.3305048,0.02561272,0.1710962,-0.08255811,0.06720421,-0.07939098,-0.1513888,0.3211504
1.342244,-0.4446603,0.07047558,0.3527451,-0.1971628,0.1122182,0.6580988,-0.5060951,0.5556499
1.640989,-0.4653886,0.08670974,0.651953,-0.2183567,0.1285541,0.8372447,-0.5951699,0.7388794
1.776956,-0.3650051,-0.1138515,0.7883622,-0.1184431,-0.07195604,0.4357267,0.2179289,0.5471807
1.437097,-0.3113466,-0.3405633,0.4488905,-0.06524928,-0.2986637,0.1135599,1.249048,0.3663853
0.9085208,-0.3846213,-0.2016164,-0.07937707,-0.1389765,-0.1597488,0.03882084,1.187727,0.472606
0.769854,-0.4613998,-0.02169712,-0.2178204,-0.2161889,0.02011407,0.1441564,0.5933985,0.4707431
0.8134643,-0.4121525,-0.0991635,-0.1740621,-0.1673488,-0.05742605,0.1998868,0.4205723,0.2313408
0.8822843,-0.3223345,-0.1379286,-0.1051556,-0.07790314,-0.09627842,-0.1059824,0.4114631,-0.1211288
1.022522,-0.2819165,-0.1426846,0.03511776,-0.03781794,-0.1011305,-0.4821568,0.4294059,-0.5610084
0.894851,-0.3241494,-0.09594517,-0.09256169,-0.08034202,-0.05449053,-0.358018,0.3966447,-0.7255289
0.718613,-0.4697084,0.1062088,-0.2688454,-0.2261486,0.1475638,0.305689,0.1261306,-0.5216568
0.7577028,-0.5228877,0.1494745,-0.2298277,-0.2795265,0.1907276,1.186131,-0.1646744,-0.4051393
0.6935205,-0.4193338,0.04292256,-0.2940942,-0.1761137,0.08406523,1.667447,-0.4911134,-0.3671744
0.5923829,-0.2554552,-0.03583411,-0.3953124,-0.01231214,0.005184163,1.603911,-0.7146998,-0.2712799
0.5990019,-0.08875992,-0.09752151,-0.3887532,0.1543701,-0.0566428,1.510223,-0.7267788,-0.1224837
0.6769442,-0.05373413,-0.05959954,-0.310832,0.1894396,-0.01887353,1.360883,-0.8105341,0.1854119
0.9069145,-0.04826854,-0.03629092,-0.08083059,0.1949933,0.004272043,1.156566,-0.800492,0.4140566
1.120888,0.01069396,-0.05558766,0.1332319,0.254075,-0.01519614,1.040278,-0.6574277,0.4116971
1.142469,0.009480172,-0.0186331,0.1549555,0.2529972,0.02157985,0.7932122,-0.4472859,0.3154728
1.016811,0.03473345,-0.0009687338,0.02948323,0.2783889,0.0390591,0.5041928,-0.2152277,0.220298
0.8700295,0.04891579,0.02732107,-0.117076,0.2926978,0.06715674,0.2378003,-0.2293609,0.2456332
0.8439011,-0.02164132,0.04026934,-0.1429471,0.2222416,0.07990412,0.1518215,-0.3017331,0.2804456
0.8835165,-0.0555843,-0.01308169,-0.1030373,0.1883625,0.02634139,0.361438,-0.4219341,0.27886
1.011315,-0.08617629,-0.05566221,0.02509472,0.1577892,-0.01646266,0.3882414,-0.5579366,0.3911074
1.279959,-0.1397464,-0.08692688,0.2941078,0.1041868,-0.04796162,0.1686067,-0.2246698,0.4703297
1.418174,-0.1854082,-0.0996134,0.432715,0.05843912,-0.0608903,-0.2325087,0.2714344,0.3340482
1.355493,-0.2692836,-0.08600536,0.3704314,-0.02557585,-0.04752852,-0.8832218,0.3172707,-0.09100822
1.302606,-0.3994596,-0.09252746,0.3179248,-0.1559411,-0.05429727,-1.237604,0.03861465,-0.677168
1.183142,-0.5295244,-0.1664954,0.1988078,-0.2862357,-0.1285084,-0.8325942,-0.3458755,-0.8911555
0.9577697,-0.5160063,-0.2812176,-0.02626174,-0.2729738,-0.2434643,-0.2548885,-0.6578894,-0.7632798
0.9148013,-0.3869877,-0.2961151,-0.06897475,-0.1442225,-0.2585771,-0.3158185,-0.3428612,-0.9072559
1.02022,-0.3122749,-0.1759814,0.03665498,-0.06977626,-0.1386294,-0.4186461,0.3344643,-1.050691
1.09263,-0.2097484,-0.04090479,0.1092357,0.03249093,-0.003702012,-0.1439133,0.4594686,-0.6855564
1.283266,-0.05591106,-0.01565158,0.2999992,0.1860767,0.02144091,-0.143837,0.2300951,-0.1442154
1.422386,0.0900718,-0.1242944,0.4391946,0.3318101,-0.08727475,-0.40604,0.1598181,0.1807606
1.282091,0.1912722,-0.2088202,0.2989109,0.4327506,-0.1718359,-0.975804,0.4121854,0.1469024
1.07016,0.08936235,-0.1709172,0.08691419,0.3305536,-0.1339278,-1.646349,0.7748418,0.05487316
0.8788649,-0.04832939,-0.1481834,-0.1045273,0.1925323,-0.1111443,-1.852112,0.7363225,0.1863105
0.8499703,-0.07138245,-0.1684929,-0.1336433,0.169097,-0.1313559,-1.901007,0.6773681,0.1608211
0.9324906,-0.2164751,-0.1207958,-0.05140923,0.02356525,-0.08351056,-1.791526,0.8692448,0.07774924
0.8316006,-0.3927529,-0.05944672,-0.1526394,-0.1532073,-0.0219619,-1.488835,1.039844,0.03471767
0.8098743,-0.3867433,0.0006543046,-0.174749,-0.1477403,0.03838843,-1.200491,1.174693,-0.2262601
0.8468105,-0.307439,0.110616,-0.1382276,-0.06901538,0.1486441,-0.8835237,0.9720635,-0.2942101
0.6908754,-0.2288525,0.1613524,-0.2945965,0.008964414,0.1997103,-0.7570567,0.5439594,-0.1777245
0.6405768,-0.100834,0.1497047,-0.3453338,0.1363537,0.1884166,-0.7327203,0.1790447,-0.07046627
0.6379851,-0.02328047,0.1515115,-0.3483518,0.213255,0.1905891,-0.7168282,-0.1945019,0.2099215
0.6183123,-0.08151712,0.1241291,-0.3684207,0.154339,0.1635727,-0.7360363,-0.2657165,0.3376478
0.7480489,-0.09331426,0.1074763,-0.2390333,0.1418301,0.147276,-0.6528223,-0.1865927,0.2757736
0.8702634,-0.08157073,0.1092455,-0.1171089,0.1528258,0.1493829,-0.5678553,-0.3261652,0.2099179
1.016998,-0.1245845,0.02038092,0.02939996,0.1090253,0.060831,-0.4602457,-0.4118452,0.1282594
1.16629,-0.1563245,-0.134462,0.1785291,0.07645823,-0.09372781,-0.3846302,-0.360501,0.2655713
1.267329,-0.3518449,-0.1525849,0.2794589,-0.1199282,-0.1115935,-0.1143865,-0.408572,0.4748175
1.458809,-0.5741978,0.1282127,0.4708677,-0.3431785,0.1694382,0.6456448,-0.688184,0.5375271
1.659347,-0.556479,0.3468754,0.6713497,-0.3263734,0.3883101,1.2063,-0.8546121,0.6228512
1.74821,-0.4268624,0.01103935,0.7601424,-0.1976677,0.05264873,1.144727,-0.1648003,0.5644275
1.544686,-0.2629656,-0.3932488,0.5565,-0.03466437,-0.3515043,0.532685,1.248766,0.3242971
1.154227,-0.1960493,-0.261559,0.1658482,0.03138345,-0.2197118,-0.3052863,2.007928,0.2995034
0.8302305,-0.3137872,0.01680108,-0.1584272,-0.08719543,0.05873103,-0.3914611,1.427753,0.3752759
0.4874905,-0.3898536,0.119153,-0.5015266,-0.1640726,0.1611512,0.01945347,0.4181505,0.3906174
0.4212641,-0.288435,0.05734605,-0.5681702,-0.06342957,0.09939549,-0.05568256,-0.2677443,0.4575882
0.7570657,-0.2203381,-0.1296648,-0.2328152,0.003931643,-0.08758497,-0.3671394,-0.3493365,0.2524256
1.006363,-0.3444593,-0.1004419,0.01602861,-0.1208834,-0.05835186,-0.5876264,0.1254132,-0.2170031
1.007994,-0.4484939,0.04426517,0.01720793,-0.225567,0.0863481,-0.4660081,0.2113752,-0.56008
0.8506386,-0.4811797,0.07926188,-0.1405945,-0.25885,0.121321,0.1208227,-0.1213459,-0.6688075
0.6713555,-0.5719058,0.1301634,-0.3203139,-0.3501114,0.1721787,0.713675,-0.3730622,-0.4919677
0.5796064,-0.6009114,0.05083919,-0.4124771,-0.3795774,0.09278504,1.275247,-0.8552865,-0.2839535
0.5690891,-0.4522352,-0.01749975,-0.4233691,-0.2312739,0.02434728,1.629826,-1.156959,-0.199756
0.7526461,-0.180532,0.0002092,-0.2401292,0.04015289,0.04192672,1.56835,-1.148606,-0.1310272
1.047511,0.08172299,-0.1179224,0.05448785,0.3022257,-0.07636394,1.202626,-1.09311,-0.1707775
1.150002,0.2045061,-0.153769,0.1568012,0.4249066,-0.1123952,0.4680261,-0.7189705,-0.1898629
1.006543,0.118219,-0.1060941,0.01322773,0.3385754,-0.06492449,0.002035851,-0.4378545,-0.1046264
0.8667508,-0.04499704,-0.05059356,-0.126623,0.1753512,-0.00964175,0.03315349,-0.371038,-0.006700331
0.8769796,-0.1315661,0.03606214,-0.1163988,0.08879418,0.07678588,0.1795667,-0.4551849,0.2047319
0.9184179,-0.2054514,0.02278446,-0.07490992,0.01493217,0.06326992,0.5508386,-0.7262247,0.45183
0.9990055,-0.208942,-0.02143634,0.005783768,0.01147199,0.01879924,0.7784654,-0.7256936,0.601197
1.112351,-0.1727044,-0.1013152,0.1192874,0.04774528,-0.06134126,0.7640467,-0.5540815,0.6344287
1.134825,-0.2277141,-0.1340462,0.1419662,-0.007225242,-0.09434301,0.7275157,-0.1834668,0.5170119
1.134856,-0.2596075,-0.05673552,0.1422367,-0.03907688,-0.0173079,0.5913385,0.1600612,0.3754375
1.14819,-0.2918251,-0.03401718,0.1558346,-0.07124949,0.005133787,0.3723924,0.02304568,0.2551649
1.176345,-0.3071749,-0.04199861,0.1842697,-0.08654857,-0.003123732,-0.3031314,-0.02595056,-0.09308363
1.24707,-0.2900694,-0.07106295,0.2552773,-0.06938345,-0.03246259,-0.8976063,-0.01980566,-0.7255131
1.258646,-0.4123078,-0.1124808,0.2671277,-0.1915495,-0.07415162,-0.567037,-0.2736942,-1.132867
1.136584,-0.5366535,-0.1986024,0.1453187,-0.3158036,-0.1605374,-0.1782278,-0.3573262,-1.035652
0.9498557,-0.559495,-0.3241102,-0.04118611,-0.3385233,-0.2862956,-0.1785913,-0.1151388,-0.9951128
0.893483,-0.534086,-0.287415,-0.09736628,-0.312949,-0.2498267,0.0508238,0.03836676,-1.11067
1.022821,-0.4665033,-0.1232734,0.03213677,-0.245145,-0.08587619,0.5638278,-0.2835208,-0.8214834
1.233967,-0.3979535,-0.005759158,0.2434206,-0.1763083,0.03148799,1.058138,-0.4869389,-0.3702491
1.402323,-0.2063954,-0.07816739,0.411883,0.0156069,-0.04102877,1.000081,0.009547861,-0.2142583
1.290349,0.05161887,-0.2187994,0.2999708,0.2740452,-0.1817286,0.3404141,0.4560245,-0.1840301
1.009176,0.1757355,-0.1953635,0.01880142,0.3986396,-0.1583175,-0.2653895,0.3353948,-0.06782604
0.8701066,0.1797924,-0.1863972,-0.120325,0.4032073,-0.1493281,-0.9363291,0.3885197,0.1522263
0.7917918,0.06461216,-0.1821784,-0.1987524,0.288548,-0.1450339,-1.520929,0.7901821,0.2604354
0.7528697,-0.1523721,-0.06155214,-0.2378303,0.07207593,-0.02427707,-1.525023,0.9040607,0.2163625
0.7559818,-0.384605,0.03072249,-0.2349031,-0.1596626,0.0681828,-1.350056,0.9636804,0.1524958
0.697705,-0.5036957,0.1477027,-0.2933788,-0.2782754,0.1853973,-0.9056888,0.9921153,-0.02295551
0.6911693,-0.4589243,0.2371828,-0.3001124,-0.2330329,0.27515,-0.327621,0.5628496,-0.1808132
0.6994063,-0.2975695,0.1905677,-0.2920568,-0.07120343,0.2288315,-0.1548252,0.06836039,-0.1958447
0.6777158,-0.08763221,0.1652819,-0.3138975,0.1392175,0.2038515,-0.1106828,-0.2604719,-0.05812795
0.7319065,-0.05560105,0.1504561,-0.2598124,0.1717382,0.1893276,-0.1240199,-0.3736666,0.1948599
0.7865589,-0.1535118,0.09050024,-0.2052095,0.07431524,0.1296596,-0.1880139,-0.2650168,0.2325098
0.8218423,-0.1376234,0.07917132,-0.1699114,0.09068216,0.1185963,-0.2579646,-0.1674036,0.1638149
0.9042373,-0.1280388,0.08665477,-0.08743267,0.1007304,0.1263171,-0.3364835,-0.03658266,0.1868436
1.090627,-0.1666963,0.02413985,0.09911011,0.06251682,0.06400684,-0.3973903,-0.05028488,0.1465996
1.249929,-0.1876052,-0.03750666,0.2586285,0.04202851,0.002529573,-0.494675,-0.137665,0.1876945
1.203694,-0.2911497,0.008805845,0.2126603,-0.06112067,0.04897559,-0.1627869,-0.1828082,0.3610736
1.265183,-0.4432142,0.1209983,0.2744495,-0.2128129,0.1612657,0.5300341,-0.5745866,0.6463976
1.577881,-0.5574671,0.1530243,0.5874645,-0.3267088,0.1933502,1.032176,-0.7374999,0.9155983
1.776628,-0.6007144,-0.06225977,0.7865206,-0.369601,-0.0219185,1.103336,0.2017797,0.7065454
1.627126,-0.5013028,-0.3153977,0.6372843,-0.2698205,-0.2750839,0.5427666,1.52006,0.3736407
1.179982,-0.3520131,-0.194947,0.1903347,-0.1201349,-0.1546948,0.07415463,1.695225,0.4206877
0.7081483,-0.3318124,0.04378056,-0.2813911,-0.09950371,0.08394768,0.3455401,0.731515,0.4007989
0.5083485,-0.3286388,0.06349955,-0.4811628,-0.095862,0.1035624,0.5301083,-0.124233,0.2628531
0.6810707,-0.2234834,-0.02796147,-0.3084712,0.009799401,0.01197703,0.106074,-0.3836308,0.1585555
0.9166205,-0.1930711,-0.1782013,-0.0729886,0.04075363,-0.1384074,-0.2931509,-0.08031499,-0.1842041
0.9437589,-0.2629787,-0.1572126,-0.04594049,-0.02858038,-0.1175792,-0.3707233,0.1867852,-0.4565183
0.9012137,-0.3483662,0.02036885,-0.08859214,-0.113366,0.05983203,-0.09646118,-0.03297384,-0.4538443
0.7717929,-0.4717878,0.04271909,-0.2181297,-0.2361574,0.08200495,0.6116617,-0.1661921,-0.4104796
0.6731139,-0.5405645,0.03674717,-0.3169265,-0.3042701,0.07584714,1.1942,-0.4515752,-0.2958623
0.6547069,-0.5025289,-0.03354591,-0.3354387,-0.2655283,0.005357247,1.502098,-0.950984,-0.2028104
0.5696225,-0.4142304,-0.1433212,-0.4205996,-0.1764726,-0.1046259,1.733621,-0.9688235,-0.06981317
0.7096359,-0.3112664,-0.1097099,-0.2806175,-0.0726953,-0.0712301,1.762882,-0.8822659,0.1337745
0.9424991,-0.1668134,-0.1331021,-0.04772744,0.07262695,-0.09484052,1.717477,-0.8441116,0.1321219
1.044539,0.02458469,-0.1403963,0.05440159,0.2649432,-0.1023502,1.46033,-0.6219952,0.06421855
1.098397,0.1244131,-0.09571153,0.1084078,0.3657243,-0.05787316,0.9914112,-0.4478018,0.0538193
0.980382,0.1079787,-0.09105914,-0.009407536,0.3502569,-0.05341665,0.6343386,-0.3812357,0.04088156
0.9352989,0.05642447,-0.04001522,-0.05424607,0.2996629,-0.002554279,0.46778,-0.4241642,0.1256626
0.9745295,-0.005272783,-0.04554356,-0.01472918,0.2389004,-0.008248872,0.4809866,-0.4014057,0.3079351
1.018102,-0.06146996,-0.04285017,0.02916912,0.183598,-0.0057065,0.4344172,-0.310956,0.4240148
1.191519,-0.1313839,-0.01700979,0.2029454,0.1145285,0.01999756,0.4057479,-0.2519345,0.3234105
1.192603,-0.2212629,-0.03961721,0.2044139,0.02543733,-0.002732384,0.4369869,-0.05227297,0.2194278
1.139374,-0.2869714,-0.02124768,0.1515825,-0.03954152,0.01552736,0.293978,0.04548585,0.2634962
1.203337,-0.2279175,-0.03207024,0.2159455,0.02018548,0.004606717,0.003683818,0.01095711,0.1418607
1.278522,-0.181372,-0.0569339,0.291519,0.06734949,-0.02034415,-0.5542153,0.1030971,-0.273068
1.38163,-0.3855469,-0.0987886,0.3949929,-0.1362597,-0.06227511,-0.8770931,0.1328216,-0.7546902
1.236701,-0.5937171,-0.1992131,0.2503896,-0.3439113,-0.1627629,-0.5242157,0.007673058,-0.9683581
0.9661037,-0.5672116,-0.2646936,-0.01993281,-0.3169215,-0.2282885,-0.2972425,-0.09681848,-0.9568265
0.8879131,-0.4873457,-0.2751619,-0.09790375,-0.236589,-0.2387755,-0.3176068,-0.06322177,-1.05629
0.9214036,-0.4669012,-0.2233436,-0.06424425,-0.2156816,-0.1869399,0.0657715,-0.05778881,-0.9745436
1.18664,-0.3928643,-0.132498,0.2011162,-0.1411746,-0.09603346,0.6007452,-0.1843408,-0.466478
1.587068,-0.2258094,-0.03588604,0.6016196,0.02636419,0.0006865553,0.694216,-0.1211938,0.1142752
1.597113,-0.09852378,-0.05266751,0.6116761,0.1541475,-0.01594013,0.3561035,0.343253,0.3853012
1.132756,0.006299114,-0.1799653,0.1472454,0.2594755,-0.1430384,-0.2050529,0.8831291,0.1555353
0.7266885,0.148729,-0.1973797,-0.2589919,0.402405,-0.1602083,-0.9213938,0.907187,-0.01027522
0.7263839,0.1198096,-0.1677519,-0.2595543,0.3739627,-0.1302881,-1.488274,0.7394594,0.09664128
0.8221483,-0.1171866,-0.08965579,-0.1641188,0.1374037,-0.05184903,-1.516114,1.040132,-0.02437308
0.7455444,-0.3532075,0.06952971,-0.2411053,-0.09822992,0.1077292,-1.197379,1.215493,-0.05614484
0.7301573,-0.4998411,0.1083195,-0.2569123,-0.2445252,0.1469555,-0.8535504,0.9865091,-0.06251013
0.7683943,-0.4246167,0.1160954,-0.2191169,-0.1690022,0.1552019,-0.4157323,0.7457227,-0.2821383
0.6650668,-0.2182774,0.185825,-0.3228918,0.03760674,0.2254241,-0.1431629,0.3338648,-0.2378144
0.6412747,-0.1490627,0.2172584,-0.3471211,0.1070668,0.2573593,-0.1883306,-0.06459283,-0.1102556
0.6981259,-0.09246341,0.1918377,-0.2906803,0.1638854,0.2324359,-0.2067643,-0.2456026,0.02655157
0.7122929,-0.04088584,0.163762,-0.2768815,0.2156508,0.2048393,-0.2931912,-0.3726016,0.2501416
0.8110479,-0.06731978,0.1740774,-0.17844,0.1893656,0.2156045,-0.4301978,-0.3715131,0.2497457
0.9279706,-0.06518394,0.1336285,-0.06176824,0.1916034,0.175566,-0.4431438,-0.2720773,0.1297183
1.07445,-0.1050705,0.04181702,0.08452485,0.1517654,0.08411797,-0.5844511,-0.106068,-0.01862921
1.177822,-0.1695475,-0.04795687,0.1877702,0.087279,-0.005343525,-0.767622,0.00969549,-0.05985902
1.103841,-0.29422,-0.04920398,0.1137132,-0.03746235,-0.006329011,-0.6939094,-0.08026176,0.0805579
1.137684,-0.4466751,0.1248942,0.1475198,-0.190042,0.1679816,-0.2337893,-0.361375,0.3115807
1.436536,-0.4812012,0.1959917,0.4463622,-0.2247386,0.2392407,0.4172723,-0.6422206,0.7223114
1.83427,-0.5305795,-0.03864835,0.8440955,-0.2743196,0.004706765,0.6184826,-0.1859426,0.8605686
1.901259,-0.5027096,-0.299251,0.9110584,-0.2466691,-0.2558456,0.3128685,1.008985,0.4893887
1.354812,-0.3914797,-0.2309022,0.3645241,-0.1356613,-0.187494,0.1434736,1.697388,0.2288399
0.6928397,-0.3705913,0.02738351,-0.2976205,-0.1149866,0.07075857,0.2095361,1.240847,0.2727395
0.4798696,-0.3000818,0.102492,-0.5108457,-0.04467601,0.1458037,0.1249575,0.3578854,0.2490066
0.6179466,-0.2063218,-0.006916928,-0.3730839,0.048903,0.03630037,-0.1409777,-0.09632294,0.1100452
0.7366844,-0.1679283,-0.1797925,-0.2546955,0.08713286,-0.1367013,-0.5372977,-0.1989502,-0.02063367
0.8678505,-0.1727228,-0.2148564,-0.1238933,0.08218835,-0.1719182,-0.8368539,-0.06500145,-0.3063447
1.045959,-0.2967531,-0.1197827,0.05384849,-0.04198234,-0.07701581,-0.6617924,0.07824152,-0.4899622
0.9820546,-0.4438046,-0.03862726,-0.01042194,-0.1891649,0.003957517,-0.1643717,-0.1665036,-0.3424092
0.8731787,-0.5041708,0.1318742,-0.1196608,-0.2496477,0.1742687,0.4902856,-0.3204608,-0.3561282
0.8431475,-0.4978072,0.0841849,-0.1500481,-0.2433765,0.1263783,0.9292429,-0.4109058,-0.4245132
0.6694621,-0.3918712,-0.1049827,-0.324075,-0.1374987,-0.06300521,0.8972042,-0.5966055,-0.2948707
0.5862185,-0.2292713,-0.06197237,-0.407633,0.0250838,-0.02022635,0.9304283,-0.6392414,-0.1629202
0.6315533,-0.1821058,-0.1102193,-0.3625691,0.07227293,-0.06871713,0.9696866,-0.869836,0.120419
0.7475308,-0.2087668,-0.1429984,-0.2468028,0.04567236,-0.1017483,0.9138539,-0.9096434,0.3341389
1.021352,-0.1529874,-0.08859142,0.02687733,0.1015431,-0.04759634,0.9209844,-0.6692937,0.2851793
1.139757,-0.07014947,-0.1390457,0.1452126,0.1844961,-0.0983039,0.6720257,-0.5074472,0.2539979
1.087656,-0.001754673,-0.06808453,0.09310489,0.2530204,-0.02758996,0.3749444,-0.1822565,0.1957964
1.050373,0.03108245,-0.01402682,0.05586927,0.285989,0.02622935,0.1689348,-0.06966191,0.2117311
0.9899967,-0.03531438,-0.003754283,-0.004412657,0.219712,0.03627278,0.1056157,-0.140474,0.3573159
1.002028,-0.1003257,0.03795189,0.007753816,0.1547971,0.07775753,0.3610928,-0.1547433,0.4584257
1.058111,-0.1253871,-0.04170681,0.0640082,0.1298001,-0.002117212,0.4125258,-0.2283518,0.5326014
1.115343,-0.1614114,-0.0595507,0.1214427,0.09380277,-0.02017312,0.127702,0.008428427,0.4705945
1.184046,-0.1655897,-0.008106534,0.1903734,0.08961097,0.03106306,-0.2852073,0.2361126,0.2700759
1.168021,-0.163017,0.01650629,0.174589,0.09212746,0.05547165,-0.6755286,0.02432655,-0.01328992
1.160795,-0.2216343,-0.004283236,0.1676061,0.03341028,0.03448016,-0.7545793,-0.3247189,-0.3023352
1.225847,-0.3900227,-0.1462436,0.2328949,-0.1351205,-0.1076807,-0.5154622,-0.5317683,-0.450867
1.226834,-0.5421671,-0.2943725,0.2341014,-0.2874428,-0.2560056,-0.09157408,-0.4654238,-0.6676295
1.131324,-0.44638,-0.3768715,0.1387826,-0.1918571,-0.3386868,0.006551714,-0.3305775,-0.909556
1.036489,-0.3081677,-0.3443398,0.0441034,-0.05385687,-0.3063098,-0.1898374,-0.2248751,-0.9508174
1.064545,-0.3463415,-0.2221708,0.07227688,-0.0922449,-0.1842543,-0.1506664,0.005169887,-0.7589374
1.225149,-0.3366723,-0.1021725,0.2329577,-0.08278661,-0.06431899,-0.08716492,0.1590313,-0.3002516
1.326711,-0.2212213,-0.0554905,0.3345496,0.0324605,-0.01764581,-0.05305268,0.1533196,-0.005287784
1.234147,-0.06919511,-0.1622065,0.2419591,0.1842904,-0.124317,-0.1367246,0.3147382,-0.06544656
1.060037,0.08394495,-0.2141528,0.06775709,0.3372358,-0.1761644,-0.4778928,0.5465829,-0.06913168
0.9598191,0.05269488,-0.1832492,-0.03262046,0.3057809,-0.1451054,-0.8721931,0.6006285,0.06112071
0.9314147,-0.08810003,-0.1814264,-0.06124914,0.1647575,-0.1430671,-1.34215,0.7640416,0.1673769
0.9030165,-0.1849421,-0.1103667,-0.08992904,0.06765402,-0.07172953,-1.484471,1.094251,0.1796576
0.8147584,-0.3052813,-0.03571797,-0.1785169,-0.05298254,0.003259055,-1.129017,1.226393,0.1628045
0.6715361,-0.3987146,0.05932212,-0.322105,-0.1467462,0.09869728,-0.7819265,1.031233,0.1470908
0.6504172,-0.3706045,0.1063422,-0.3436096,-0.1189919,0.146166,-0.5896194,0.7367838,0.05919832
0.744286,-0.2156621,0.05631818,-0.2501283,0.03557728,0.09663075,-0.5300456,0.4656241,-0.0347671
0.7550157,-0.09058651,0.1122853,-0.2397716,0.1602661,0.1531163,-0.5410042,0.2177531,-0.05037561
0.7524146,-0.103209,0.1238377,-0.2427179,0.1472413,0.1652063,-0.5714106,0.1530371,0.02152645
0.7763475,-0.1345794,0.09722821,-0.2190912,0.1154484,0.1391431,-0.5920517,0.0820259,0.08375426
0.7890071,-0.1754917,0.1627391,-0.2066889,0.0740895,0.2051986,-0.5434664,-0.1015699,0.07917243
0.8301116,-0.2019766,0.1336497,-0.1657847,0.04713188,0.1766419,-0.4746855,-0.2270519,0.03613886
0.8917057,-0.1910939,0.0774989,-0.1043284,0.05751534,0.1210022,-0.3890905,-0.326879,-0.0157437
1.069166,-0.2060718,0.0164,0.07305823,0.04201248,0.06038549,-0.3841338,-0.2160724,0.03193918
1.232506,-0.2335335,-0.06593686,0.2363857,0.01400077,-0.02150177,-0.3844402,-0.03958597,0.1098582
1.19752,-0.3132201,0.0269434,0.2014357,-0.06625835,0.07179463,-0.1583968,-0.1372043,0.1724235
1.214243,-0.4000323,0.2603911,0.2182305,-0.1536607,0.3056229,0.3504106,-0.5136941,0.3081471
1.351103,-0.4046749,0.4298908,0.3551825,-0.158903,0.475459,0.946577,-0.8919502,0.4224976
1.547489,-0.3531484,0.2476989,0.5516636,-0.1079764,0.2935441,0.9801703,-0.4412851,0.5021146
1.761926,-0.2824022,-0.1280448,0.7661737,-0.03782206,-0.08199477,0.5291245,0.4811443,0.5046958
1.528584,-0.2399601,-0.1843562,0.5328535,0.004041062,-0.1381751,0.2979161,0.7371781,0.3359473
0.978946,-0.308798,-0.1229842,-0.01683919,-0.06536053,-0.07673797,0.2182371,0.6035303,0.2352272
0.7996288,-0.452462,-0.1255151,-0.1962951,-0.2095698,-0.0792598,0.2387935,0.4400753,0.3557089
0.8054772,-0.4297266,-0.06184491,-0.1906614,-0.1873544,-0.01562864,0.2199993,0.2946023,0.4189355
0.8097248,-0.2899565,-0.1553223,-0.1866895,-0.04807119,-0.1091864,-0.1819688,0.3307675,0.1570956
0.9166111,-0.2379967,-0.2542955,-0.08012552,0.003439619,-0.2082739,-0.527961,0.3502437,-0.2381354
0.8897083,-0.2870579,-0.1325719,-0.1073861,-0.04603162,-0.08668898,-0.4223953,0.3335271,-0.435652
0.8447618,-0.4732317,0.008039218,-0.1527162,-0.2325759,0.05376742,0.2073988,0.2011302,-0.4670034
0.7885588,-0.5839988,0.1015221,-0.2093191,-0.3436679,0.1470821,1.131805,-0.2238412,-0.4484416
0.6493659,-0.4963901,0.07436756,-0.3489158,-0.2563279,0.1197431,1.626948,-0.7195746,-0.4029956
0.6722559,-0.3560754,-0.04647875,-0.3264181,-0.1162153,-0.001307514,1.590643,-0.8731606,-0.2868274
0.6895723,-0.1778515,-0.1238947,-0.3094661,0.06187797,-0.07894851,1.447554,-0.6510801,0.02827001
0.7045289,-0.09085497,-0.1574551,-0.2948304,0.1488122,-0.112751,1.329154,-0.599922,0.3737114
0.8738285,-0.1011209,-0.09359527,-0.125796,0.1385433,-0.04914446,1.213927,-0.7040286,0.4914021
1.039767,-0.06080755,-0.03596206,0.03993982,0.1789016,0.008229459,1.076983,-0.6316817,0.3992269
1.118315,-0.003514705,-0.0573813,0.1183465,0.236275,-0.01345236,0.769146,-0.5255335,0.1762247
1.021446,0.0235254,-0.02897313,0.0213903,0.2634179,0.01469123,0.3802595,-0.4069504,0.02000802
0.9115386,0.02110393,0.0001930457,-0.08855556,0.2611071,0.04359133,0.2719323,-0.4133533,0.1000375
0.9290469,0.01167288,-0.01395216,-0.07103937,0.2517804,0.02917817,0.2150578,-0.4787125,0.2612192
0.9676856,-0.05379348,-0.02317974,-0.03234685,0.1863993,0.01967998,0.12375,-0.3514217,0.300287
1.051677,-0.1839111,-0.02796789,0.05174314,0.05633862,0.0146182,0.3390617,-0.2782322,0.2721381
1.083388,-0.2894719,-0.006819048,0.08359298,-0.04919764,0.03549027,0.5889008,-0.2485169,0.2851204
1.075465,-0.3116519,0.01610269,0.07584429,-0.07138431,0.0581316,0.6316664,-0.1900255,0.302195
1.149766,-0.2186691,-0.005243136,0.1503459,0.02156494,0.03650062,0.3416539,-0.1870338,0.285601
1.238162,-0.1467196,-0.07034299,0.2389607,0.09345658,-0.02888988,-0.4163211,-0.1013583,0.0428822
1.30742,-0.2286619,-0.1575641,0.3084447,0.01143234,-0.1164057,-1.095861,-0.1018345,-0.5556123
1.281279,-0.4138865,-0.2226322,0.2825206,-0.1738974,-0.1817677,-1.090133,-0.2516149,-1.075217
1.155038,-0.5750736,-0.2572884,0.1564741,-0.3352063,-0.2167089,-0.608955,-0.2565963,-1.119626
1.00661,-0.5649461,-0.271802,0.008208831,-0.3252037,-0.2314886,-0.3162293,-0.1449017,-0.9804777
0.9296517,-0.4504842,-0.2215272,-0.06862043,-0.210854,-0.1814505,-0.2175577,-0.09456849,-0.9496637
1.097375,-0.3911503,-0.1076278,0.09919849,-0.1516067,-0.06775011,-0.01832907,-0.08445406,-0.6829798
1.335835,-0.316029,-0.04392761,0.337721,-0.0765383,-0.004207095,0.1217666,-0.008051746,-0.188519
1.359508,-0.1567012,-0.09303358,0.3614152,0.08277301,-0.05342808,0.06928165,0.2131029,-0.03291333
1.172307,0.003089559,-0.159317,0.1741812,0.2425805,-0.1197848,-0.3097649,0.4788328,-0.1447185
0.9113629,0.06344325,-0.1567485,-0.08685727,0.302974,-0.1172465,-0.894191,0.498149,-0.1349227
0.8251742,-0.02586414,-0.1425766,-0.1732007,0.2137151,-0.1030593,-1.286599,0.4220428,-0.0214273
0.8651306,-0.1752014,-0.1285161,-0.1334495,0.06442236,-0.08893563,-1.434748,0.6543315,0.0519188
0.828642,-0.3179682,-0.05297638,-0.170182,-0.07831055,-0.01328401,-1.405051,0.9819243,0.1038057
0.80241,-0.4087831,0.04107985,-0.1966847,-0.1691016,0.08093119,-1.167567,1.099784,0.1159427
0.7709866,-0.3533507,0.1144147,-0.2283935,-0.1136495,0.1544664,-0.6973056,0.9092785,-0.03937572
0.7372483,-0.2754011,0.1488628,-0.2624193,-0.03567804,0.1891471,-0.2801645,0.4852021,-0.205654
0.763863,-0.1881456,0.1335818,-0.2360806,0.05160494,0.1741197,-0.1762019,0.1784746,-0.2371559
0.7480039,-0.05893099,0.1269965,-0.2521917,0.1808515,0.1677976,-0.1877406,0.002879381,-0.1642592
0.7366136,-0.06714635,0.121815,-0.2637983,0.1726667,0.1628785,-0.2274402,-0.09258327,0.0007053216
0.7621871,-0.08945014,0.1109767,-0.2383942,0.150384,0.1522928,-0.2998722,-0.08810543,0.1543982
0.7980864,-0.06851883,0.1143537,-0.2026078,0.171319,0.1559043,-0.3501109,-0.05517663,0.2183975
0.942125,-0.1251441,0.1041498,-0.0586187,0.1146732,0.1459096,-0.4418621,0.009949006,0.1217122
1.090241,-0.1531504,0.08088592,0.08951273,0.08661696,0.1228232,-0.5513426,-0.1578839,0.0465003
1.05983,-0.1832382,0.05891558,0.05917818,0.05644661,0.1009936,-0.5218114,-0.3965659,0.1289044
1.060316,-0.3053506,0.0989868,0.05979218,-0.06578145,0.141165,-0.3040927,-0.3993871,0.1297208
1.353723,-0.4636348,0.2072771,0.3533722,-0.2242105,0.2495104,0.08863222,-0.4519909,0.1098439
1.604602,-0.4739676,0.2037269,0.6044512,-0.2347081,0.2459636,0.4615036,-0.3492217,0.1272527
1.504392,-0.3174753,-0.070697,0.5044448,-0.07838888,-0.02851519,0.2470452,0.1776341,0.1143644
1.374018,-0.2725563,-0.3923711,0.3742499,-0.03364249,-0.3503016,-0.3085535,0.9292713,0.1627729
1.270255,-0.320638,-0.3319941,0.2706206,-0.08189152,-0.2900824,-0.3881424,1.36446,0.203741
0.9433784,-0.3692348,-0.06804273,-0.05617924,-0.1306469,-0.02631764,-0.09425865,0.8238484,0.2258672
0.6563535,-0.4038243,-0.01135362,-0.3431862,-0.165381,0.03016673,0.1596446,0.103321,0.2236523
0.6824504,-0.2926838,-0.07379564,-0.3171172,-0.05436491,-0.03249422,-0.06043034,-0.00208438,0.08672328
0.8541608,-0.1877574,-0.1845862,-0.1454632,0.05046069,-0.1435152,-0.5338772,-0.03236302,-0.1566268
1.02747,-0.22992,-0.2329906,0.02777476,0.008220592,-0.1921554,-0.4864281,0.1709812,-0.3588174
1.085531,-0.3203059,-0.1120003,0.08575368,-0.08222118,-0.07139838,-0.1545189,0.4735763,-0.4033937
0.9898695,-0.3737823,-0.05718603,-0.01000025,-0.1357314,-0.01680808,0.3926481,0.1149402,-0.3624741
0.8707751,-0.3357699,-0.07291583,-0.1291971,-0.09772726,-0.03274947,1.120457,-0.5105966,-0.2861558
0.7342732,-0.2183441,-0.07679123,-0.2658068,0.01971879,-0.03682276,1.406855,-0.8899076,-0.1872521
0.7201959,-0.06008432,-0.1171665,-0.279987,0.1780264,-0.07738074,1.183796,-0.748107,-0.07274901
0.8546771,0.008650287,-0.1436602,-0.1455916,0.2468296,-0.1040394,0.6895521,-0.3323004,0.1004274
0.8843896,-0.04655117,-0.1086009,-0.1159381,0.1917062,-0.06912401,0.529338,-0.3350948,0.1871447
0.9140369,-0.0651988,-0.02098384,-0.08631733,0.1731344,0.01837273,0.6189163,-0.3969415,0.159107
0.9584777,-0.05122547,-0.02078515,-0.04186765,0.1871714,0.01847494,0.481502,-0.413785,0.1884671
0.9290674,-0.05900513,-0.04431954,-0.07123277,0.1794346,-0.005133826,0.4756214,-0.5515727,0.2774894
0.9626149,-0.05085208,-0.01395902,-0.03760347,0.1876017,0.02517246,0.3975951,-0.469425,0.3577083
0.9628806,-0.06314103,-0.0520501,-0.03721963,0.1752906,-0.01295441,0.3161332,-0.4042807,0.4246267
0.947645,-0.09488786,-0.04419904,-0.05230144,0.143479,-0.005122144,0.3979786,-0.3662494,0.4579841
0.9770698,-0.08937648,-0.02677256,-0.02268814,0.1488779,0.01230149,0.3047324,-0.3662085,0.4366076
0.977295,-0.127534,-0.05385405,-0.02224074,0.1105565,-0.01476804,0.2914829,-0.4930882,0.4404978
1.061521,-0.2363131,-0.02305913,0.06223904,0.001560413,0.01605255,0.172937,-0.3277717,0.459987
1.153918,-0.3001665,-0.02918577,0.1549161,-0.06256156,0.009964034,-0.08212074,-0.1243723,0.3997518
1.226587,-0.3531331,-0.04255803,0.2278833,-0.1158425,-0.00335903,-0.2049807,-0.04473546,0.2293523
1.373117,-0.4561452,-0.06836595,0.3747183,-0.2192056,-0.02910768,-0.2886163,-0.005510892,-0.1487479
1.39458,-0.4949388,-0.1390992,0.3964755,-0.2583749,-0.09977127,-0.1397479,-0.126055,-0.630964
1.240726,-0.418745,-0.18937,0.2428874,-0.1825673,-0.1499594,-0.02363944,-0.1180431,-0.9142261
1.065096,-0.3598536,-0.2894964,0.0674811,-0.1240601,-0.2499848,-0.102467,-0.03342032,-0.9615524
0.9648421,-0.3629141,-0.3161674,-0.03259791,-0.1274934,-0.2765279,-0.07026618,0.1838775,-0.9181575
0.9897567,-0.3866986,-0.1679096,-0.007555393,-0.1516323,-0.1281054,0.09919551,0.4650215,-0.7267096
1.028418,-0.4118505,-0.03156608,0.0311893,-0.1771129,0.008445575,0.2547977,0.2175721,-0.3205623
1.048637,-0.2839779,-0.02057334,0.05145099,-0.04953707,0.01968904,0.1036218,-0.04190432,-0.05720578
1.174051,-0.05280836,-0.1120689,0.1768657,0.1813705,-0.07151567,-0.2565052,0.1451555,-0.08276596
1.259835,0.04294821,-0.1784804,0.2626052,0.2768949,-0.1375981,-0.622155,0.2036769,-0.1067263
1.198586,0.01137384,-0.1406728,0.2012605,0.2451064,-0.09942227,-0.8314459,0.1919158,-0.1172496
1.129727,-0.1474979,-0.06818103,0.1322465,0.08602613,-0.02652174,-0.6295113,0.4561371,-0.1187833
0.9536461,-0.3441095,-0.01720652,-0.04405055,-0.1107959,0.02490111,-0.4300313,0.6687143,-0.04462347
0.7177983,-0.3360667,-0.01454273,-0.2801725,-0.1029649,0.02804924,-0.4572077,0.6341766,0.07479015
0.6582499,-0.2020689,-0.02078558,-0.3400402,0.0308236,0.02232179,-0.3709327,0.5934129,0.2529435
0.7033191,-0.1277232,0.02656581,-0.2953173,0.1049644,0.07021438,-0.2783857,0.5806985,0.2966515
0.8085773,-0.1001131,0.06987404,-0.1904141,0.1323714,0.1140835,-0.2436094,0.4650318,0.2186453
0.9266638,-0.09946096,0.1014672,-0.07267767,0.1328171,0.1462498,-0.0923833,0.2528624,0.2397
0.9394165,-0.0940184,0.1437918,-0.0602621,0.1380439,0.1891504,-0.001657021,0.08767549,0.2456535
0.8745889,-0.05481131,0.1209868,-0.1254092,0.1770199,0.1669142,-0.04465323,0.1068839,0.2098729
0.8399584,-0.07459563,0.09000497,-0.160337,0.156983,0.1364844,-0.05578418,0.2603505,0.1675432
0.9054563,-0.1467489,0.0999246,-0.09510849,0.08455,0.1469308,-0.0462361,0.3616612,0.09758392
0.9423604,-0.1955432,0.0650186,-0.05844083,0.03544557,0.1125194,-0.03106703,0.2736426,0.1185188
0.9040928,-0.223021,-0.0173189,-0.09690927,0.007626802,0.03063927,0.003459573,0.1032323,0.1715035
0.9219192,-0.235186,-0.06764271,-0.07924585,-0.004908179,-0.01926654,0.08874687,-0.1518942,0.2391666
1.131702,-0.2737529,0.05352096,0.1304121,-0.04387075,0.1022759,0.3778297,-0.6545352,0.4939568
1.601516,-0.2336623,0.1764052,0.6001331,-0.004197853,0.2254981,0.6845949,-0.9184219,0.6815913
1.888621,-0.09567153,-0.004983636,0.8871565,0.133356,0.04440207,0.5497028,-0.4084479,0.362188
1.567292,-0.07953744,-0.2064827,0.565721,0.1490336,-0.1568518,0.1220797,0.2868359,-0.04424937
1.146914,-0.2223702,-0.1776647,0.1451831,0.00572172,-0.1278318,-0.1889029,0.5002097,0.0783791
1.043719,-0.4613425,-0.09289776,0.04175732,-0.2337515,-0.04289807,-0.2634265,0.4841584,0.2662114
0.8509813,-0.5829282,-0.02842198,-0.1512803,-0.3558513,0.02171562,0.06982463,0.4137262,0.2311189
0.6585773,-0.4718964,-0.04529661,-0.3440458,-0.2453316,0.00495292,0.3204855,0.2415854,0.2882773
0.8159916,-0.3587126,-0.1410435,-0.187038,-0.1326424,-0.09070608,-0.1404079,0.2279776,0.2203759
0.9230339,-0.2778592,-0.1891653,-0.08043105,-0.05225632,-0.1387601,-0.7000762,0.4028969,0.03184968
0.8958467,-0.2853793,-0.1574731,-0.1080712,-0.06021138,-0.1070139,-0.7339965,0.5459157,-0.1550745
0.9123087,-0.4228693,-0.04482204,-0.0920717,-0.198101,0.005683587,-0.183807,0.4418585,-0.4256167
0.8494455,-0.502449,0.08318908,-0.1553997,-0.2780392,0.133736,0.6686531,-0.02532952,-0.4518377
0.8073771,-0.5273092,0.1196478,-0.1979268,-0.3032073,0.1702279,1.136078,-0.559992,-0.3719381
0.7644703,-0.4220591,0.0635837,-0.2412765,-0.1982035,0.1141828,1.20512,-0.7427987,-0.3425746
0.6959684,-0.2138782,-0.03333533,-0.310194,0.009800359,0.01726318,1.19433,-0.6392862,-0.10227
0.7256416,-0.1416189,-0.1144396,-0.2808961,0.08195241,-0.06386325,1.058267,-0.7087926,0.1361394
0.8132304,-0.1097067,-0.1130989,-0.1936299,0.1138211,-0.06256388,0.9040748,-0.8035194,0.3034288
0.9819262,-0.09296432,-0.06429904,-0.0251957,0.1305745,-0.01382084,0.8542169,-0.5955935,0.3709886
1.057825,-0.1368902,-0.05568051,0.05050484,0.08670444,-0.005271244,0.8963335,-0.5029008,0.2104564
0.9482305,-0.1222405,-0.01008155,-0.05922834,0.1014457,0.04024821,0.9205344,-0.6114042,0.1079953
0.9180677,-0.08418634,0.03613196,-0.08947241,0.1396189,0.08637148,0.8649492,-0.6444092,0.1558798
0.9518322,-0.02986772,-0.02227071,-0.05573322,0.1940753,0.02786626,0.7761759,-0.5770396,0.2226394
0.9490234,0.001649211,-0.0413866,-0.05851161,0.2257384,0.008634162,0.5994428,-0.4506458,0.2655014
0.9549746,-0.05649935,-0.0494192,-0.05247546,0.1677333,0.0004717444,0.4104151,-0.3724879,0.2806421
0.9585884,-0.1076404,-0.08197849,-0.04872332,0.1167232,-0.03222977,0.2030881,-0.2147975,0.2669617
0.9888349,-0.1315448,-0.04152738,-0.01828712,0.09293022,0.008068478,-0.1146653,-0.111216,0.2014366
1.088447,-0.08761314,-0.0324931,0.08156294,0.1369489,0.01694083,-0.3272431,-0.2662964,0.07683613
1.242469,-0.06023064,-0.04965804,0.2358649,0.1643891,-0.0003942822,-0.4353404,-0.3052593,-0.1217161
1.406594,-0.2781221,-0.1207888,0.4002989,-0.05347782,-0.07170233,-0.4876458,-0.1289938,-0.272249
1.517441,-0.5248133,-0.2443486,0.5114651,-0.3001765,-0.1954429,-0.3291947,0.01218323,-0.386728
1.439386,-0.4937965,-0.2185327,0.433716,-0.2691895,-0.1698044,-0.2108105,-0.01837434,-0.5774783
1.186304,-0.3628826,-0.1728798,0.1809053,-0.1383135,-0.1243167,-0.3286841,-0.006425775,-0.7354844
0.9591154,-0.3440135,-0.192083,-0.04606147,-0.1194793,-0.1436657,-0.5580321,0.282377,-0.8024753
0.7809428,-0.3575804,-0.123227,-0.2240613,-0.1330706,-0.07493026,-0.7086727,0.5528914,-0.6554487
0.7516851,-0.3455548,-0.01910795,-0.2531867,-0.1210529,0.02909687,-0.4505775,0.5980483,-0.3386832
0.955859,-0.2658561,0.02394007,-0.04890877,-0.04134093,0.07208107,-0.1348596,0.4207893,-0.1667278
1.175167,-0.03755039,-0.02965581,0.1704835,0.1870004,0.01844604,-0.3934815,0.2119584,-0.1448783
1.279016,0.1559177,-0.1045924,0.2743948,0.3805203,-0.05650836,-0.8408102,0.2307825,-0.07943862
1.199959,0.1478831,-0.1185327,0.1953703,0.3725393,-0.0704458,-1.151896,0.3236829,0.1142901
1.092792,0.0690156,-0.1452409,0.08819751,0.2937091,-0.09712905,-1.406376,0.4923072,0.2089666
1.10261,-0.0790019,-0.1405537,0.0979663,0.1456975,-0.0923923,-1.31268,0.7526223,0.1651357
0.9943049,-0.3316144,-0.05789371,-0.01043257,-0.1069484,-0.009655858,-1.014707,0.8742458,0.2252601
0.8639579,-0.3838611,0.01048118,-0.1409162,-0.1592666,0.0588224,-0.7292464,0.8710938,0.1869949
0.8065091,-0.2279443,0.07052118,-0.1985375,-0.003452115,0.1189893,-0.4551071,0.7924632,0.07444812
0.7089519,-0.183876,0.1061774,-0.2962913,0.04048916,0.1547896,-0.4814808,0.6679115,0.09150774
0.6863525,-0.104656,0.1061668,-0.3190966,0.119559,0.1549319,-0.5324796,0.5034784,0.1312486
0.6400064,-0.02480852,0.1315584,-0.365641,0.199231,0.1804763,-0.4749363,0.266094,0.2381386
0.595801,-0.1209216,0.1420765,-0.4100193,0.1029122,0.1911378,-0.5119102,0.07352721,0.2565451
0.7102315,-0.1312774,0.1502975,-0.2957189,0.09231629,0.1994837,-0.3608537,-0.04480266,0.1438784
0.8390474,-0.1506926,0.1632226,-0.1669757,0.072624,0.2125061,-0.1793412,-0.1492925,0.08899351
0.9653469,-0.2118621,0.1085847,-0.0406838,0.01113994,0.1579294,-0.1386068,-0.2122219,0.0512682
1.074023,-0.175376,0.02855888,0.06805101,0.04727509,0.07792234,-0.1564196,-0.2367593,0.1525502
1.115448,-0.2452972,-0.03601085,0.1095953,-0.0230313,0.01332571,-0.249067,-0.2668546,0.3450211
1.218118,-0.3427068,-0.05084695,0.212436,-0.1208565,-0.001582235,-0.1204589,-0.3047226,0.4785208
1.530308,-0.4519981,0.03872858,0.5248339,-0.2305865,0.08787865,0.386208,-0.4382468,0.5582833
1.894978,-0.5563636,0.104443,0.8897254,-0.3354018,0.1534363,0.9239802,-0.5531741,0.489476
1.827368,-0.4224553,-0.02902618,0.8223146,-0.2019394,0.01976693,0.7379157,-0.1289683,0.4323305
1.437725,-0.3164644,-0.1702836,0.4328096,-0.09637707,-0.1217335,0.1951642,0.6814738,0.4089468
1.151512,-0.3927478,-0.06990106,0.1466479,-0.1730627,-0.02163197,0.2138421,0.9334606,0.2552001
0.869243,-0.4035424,0.0355041,-0.1356675,-0.1842261,0.08345988,0.2117723,0.402212,0.1599763
0.6561211,-0.3166744,-0.002621804,-0.348926,-0.097687,0.04499085,0.048461,-0.1378052,0.1681948
0.6772978,-0.216139,-0.06695383,-0.327959,0.002564074,-0.01971323,-0.198455,-0.1401411,0.08149119
0.7845188,-0.1587248,-0.1586339,-0.2209994,0.05973864,-0.1117915,-0.8170938,0.04014778,-0.1376926
0.8654955,-0.2373684,-0.1220058,-0.1403176,-0.01910281,-0.07558198,-0.9876101,0.04866448,-0.3251881
0.8914718,-0.4291584,0.01419235,-0.1146567,-0.2110509,0.06018326,-0.4802891,-0.004511976,-0.3604661
0.9031514,-0.5700425,0.02966466,-0.1033035,-0.3520495,0.07521099,0.3350406,-0.1508895,-0.3460126
0.87484,-0.611068,0.01755379,-0.1319446,-0.3931351,0.06264343,0.995909,-0.3392652,-0.3485514
0.7909444,-0.5406203,-0.02840074,-0.2161656,-0.322679,0.01621908,1.064979,-0.4226786,-0.2850122
0.7332601,-0.4001383,-0.1034911,-0.274161,-0.1821079,-0.05935366,1.184611,-0.464449,-0.1259829
0.7603856,-0.2836441,-0.104138,-0.2473207,-0.06543712,-0.06049233,1.248797,-0.4628529,-0.004265465
0.9035538,-0.1214482,-0.1080959,-0.1044007,0.09702202,-0.06494689,0.8929426,-0.442233,0.0005831537
1.006329,0.0155183,-0.1013528,-0.001830176,0.2343306,-0.05870039,0.5738835,-0.4214901,-0.03171207
1.015656,0.0379599,-0.09139234,0.00733738,0.2571789,-0.04923188,0.2466479,-0.3548257,-0.03381121
0.9817634,0.005325977,-0.07745678,-0.02667291,0.2249987,-0.03578001,0.08922068,-0.3012591,0.08281205
0.9132075,-0.08875025,-0.0211713,-0.09530556,0.131407,0.02003269,0.2044181,-0.2620565,0.2679643
0.9299727,-0.1800154,-0.008734741,-0.07857612,0.04064477,0.03200831,0.2650108,-0.2096907,0.3211717
0.940273,-0.2235394,-0.003170443,-0.06826969,-0.002365407,0.0371229,0.3782605,-0.2143538,0.2621145
0.9443734,-0.1860714,-0.006760889,-0.06412043,0.03562326,0.03309269,0.4538745,-0.3513606,0.1883559
1.045355,-0.1273168,-0.04957123,0.03695188,0.09490196,-0.01014847,0.3128627,-0.4488013,0.1154107
1.136015,-0.1474882,-0.07217857,0.1277424,0.07525349,-0.03317762,0.09248203,-0.246644,0.09177063
1.216392,-0.118409,-0.09335482,0.208282,0.1048488,-0.05476521,-0.274035,-0.01815678,0.04581582
1.253488,-0.1366977,-0.1089212,0.245561,0.08706395,-0.07072989,-0.7920449,-0.07760971,-0.1863612
1.279807,-0.3222649,-0.1537181,0.2720704,-0.09801598,-0.1159085,-0.9697549,-0.1093281,-0.5630612
1.28537,-0.493388,-0.2036213,0.2778166,-0.268667,-0.1661719,-0.6423677,0.01391298,-0.8731735
1.112142,-0.5305454,-0.1939706,0.1047524,-0.3053592,-0.1568534,-0.3660225,0.1110075,-0.9567896
0.8958859,-0.454982,-0.1788816,-0.1113667,-0.2293252,-0.1420622,-0.3269285,0.3046753,-0.9035837
0.8079051,-0.4388404,-0.1138857,-0.1992368,-0.2126958,-0.07732373,-0.1771607,0.4214812,-0.8542973
0.9066621,-0.4219069,0.02383887,-0.1003875,-0.1952479,0.06018637,0.1847219,0.2077669,-0.6151344
1.081578,-0.2861549,0.1208982,0.07460895,-0.0589487,0.1570718,0.4211115,0.0515032,-0.2525022
1.209651,-0.1490198,0.04498951,0.2027535,0.07876834,0.08102329,0.1174881,0.2007351,-0.1543396
1.314196,0.0825872,-0.1331506,0.3073521,0.3109869,-0.09722921,-0.5410063,0.4034055,-0.2000628
1.197789,0.2228841,-0.1702953,0.1909733,0.451911,-0.1344604,-1.045376,0.5018334,-0.152927
0.9759784,0.024646,-0.1118493,-0.03084585,0.2542959,-0.07607202,-1.154898,0.6000108,-0.08422903
0.8746321,-0.1947062,-0.05553701,-0.1322378,0.03554528,-0.01978568,-0.9240596,0.6918,-0.07179623
0.7259276,-0.3072817,0.01357033,-0.2810189,-0.07645821,0.04932753,-0.7388432,0.7177151,-0.05086537
0.6561893,-0.3432383,0.04362826,-0.3508516,-0.1118719,0.07942026,-0.5687778,0.6879631,0.02000316
0.7080241,-0.2723356,0.07635762,-0.2991125,-0.04045105,0.112208,-0.2804578,0.4875887,0.006686633
0.7312332,-0.2289697,0.1021842,-0.275984,0.003411953,0.1381099,-0.2251274,0.2271741,-0.03529633
0.8112291,-0.2016747,0.1125546,-0.1960397,0.03118441,0.1485647,-0.1720716,-0.01133625,-0.01888978
0.8690095,-0.1725367,0.1290042,-0.1382718,0.06077966,0.1650996,-0.00110742,-0.2256936,0.01471615
0.8633448,-0.1995221,0.1112193,-0.1439038,0.03422941,0.1473926,0.07793856,-0.2733426,0.1197421
0.8726647,-0.2191324,0.1157232,-0.1345016,0.01503039,0.1519593,0.3231467,-0.3604215,0.1694173
0.8943732,-0.2545161,0.1119132,-0.112658,-0.01996644,0.1481904,0.5255092,-0.3951886,0.1308313
0.9614113,-0.3472698,0.07927643,-0.04543036,-0.1123564,0.1155667,0.5344031,-0.2282837,0.1387753
1.044631,-0.4657985,0.02536231,0.03803276,-0.2305398,0.06163321,0.6391978,-0.2709909,0.1542737
1.097528,-0.554203,-0.06869676,0.09122252,-0.3186082,-0.0324794,1.109697,-0.7302759,0.2251528
1.186392,-0.5004599,-0.08400345,0.1804212,-0.2645256,-0.0478722,2.014176,-1.382793,0.3760663
1.527767,-0.430422,-0.1790526,0.5221599,-0.1941317,-0.1430354,2.281284,-1.259904,0.4888938
0.8244317,0.1569949,-0.140038,-0.1845193,0.3829916,-0.199451,-1.9429,0.7960631,0.2702766
0.8139469,0.03760216,-0.08540417,-0.1951793,0.2643556,-0.1442176,-2.265794,0.941417,0.2586299
0.8232588,-0.161105,-0.002839997,-0.1860562,0.06636829,-0.06093498,-2.280639,0.9945124,0.1818227
0.8678403,-0.3474749,0.07794422,-0.1416662,-0.1193261,0.020681,-2.013728,1.091941,0.1008031
0.8110006,-0.3447902,0.1332246,-0.1986904,-0.1160087,0.07689719,-1.374842,0.7393538,-0.001733537
0.7383586,-0.2792205,0.1931305,-0.2715005,-0.04984335,0.1378304,-1.001652,0.2080778,-0.0369116
0.687318,-0.2321133,0.1845155,-0.3226813,-0.002172332,0.1303197,-1.012462,0.09851756,0.100912
0.6878071,-0.1034733,0.1320897,-0.3222914,0.1270011,0.07906033,-1.102136,0.004122169,0.2449071
0.744338,-0.05569514,0.1081336,-0.2658054,0.17528,0.05631977,-1.153461,-0.01053827,0.2842912
0.8054629,-0.1029461,0.07003214,-0.2046601,0.1284914,0.01947247,-1.12262,0.09865549,0.170877
0.9285934,-0.1506032,0.06563054,-0.08143708,0.08125258,0.01635538,-1.142354,0.1188854,0.04301589
1.117258,-0.2777436,0.08524109,0.1073934,-0.04551656,0.03727375,-1.033573,0.1255456,0.08210171
1.250359,-0.4305056,0.08244167,0.2407274,-0.197952,0.03579878,-0.7415487,0.02280422,0.09033325
1.26361,-0.4723082,0.1699327,0.2542642,-0.2394648,0.1246237,-0.3352152,-0.1742542,0.1092197
1.395282,-0.4020533,0.2202084,0.3862576,-0.168945,0.176234,0.06052909,-0.3825466,0.3516476
1.698648,-0.376316,-0.008162903,0.6899592,-0.1429567,-0.05081147,0.002807733,-0.2193366,0.5890062
1.763989,-0.3905242,-0.3325914,0.755621,-0.1569187,-0.3739268,-0.2496212,0.4723123,0.5771522
1.438093,-0.4815261,-0.3609293,0.4299985,-0.2476711,-0.400957,-0.2716513,1.127938,0.4071502
0.9248406,-0.6516131,-0.06288732,-0.08305417,-0.4174948,-0.1016002,0.03446823,1.205869,0.2956472
0.5419269,-0.5353965,0.1106795,-0.4658439,-0.300987,0.07329623,0.520674,0.4445744,0.2225347
0.5214931,-0.3015595,-0.08145335,-0.4862138,-0.06681774,-0.1174931,0.4633279,-0.3283141,0.05401347
0.7481037,-0.2508081,-0.2581625,-0.2595744,-0.01568701,-0.292846,-0.02693909,-0.2705288,-0.1648665
0.9506948,-0.2308687,-0.1571335,-0.05696953,0.004677793,-0.1904442,-0.3792375,0.1125455,-0.3366934
0.9270714,-0.2987163,-0.04563292,-0.08058326,-0.06270165,-0.07754829,-0.438526,0.2666815,-0.3512934
0.7729461,-0.3903737,0.02143516,-0.2346968,-0.1538505,-0.009060914,0.1665674,-0.09905502,-0.2390104
0.6604929,-0.4553872,0.1261553,-0.3471278,-0.2183137,0.0970992,0.9238743,-0.7286226,-0.1568529
0.5800031,-0.50523,0.01600929,-0.427571,-0.2675597,-0.01159268,1.084047,-0.9913387,-0.162734
0.6476995,-0.3903378,-0.1489058,-0.3597869,-0.1520178,-0.175045,1.074744,-0.9564401,-0.1354124
0.8198733,-0.3082496,-0.1392199,-0.1874687,-0.06922258,-0.1638883,1.250403,-0.8095848,0.04445388
0.9422613,-0.2553347,-0.1476381,-0.06487031,-0.01554352,-0.1708245,1.376011,-0.6031612,0.1253182
1.054248,-0.03275699,-0.122027,0.04739418,0.2078507,-0.1437166,1.243448,-0.4526844,0.04100778
1.061516,0.1968117,-0.08533231,0.05500271,0.438276,-0.1055076,0.9205393,-0.4278037,0.01436121
0.9656196,0.2472366,-0.06858067,-0.04049635,0.489577,-0.08722303,0.3584071,-0.4645026,-0.00204768
0.8966984,0.08878915,-0.01027846,-0.1089694,0.3319996,-0.02737007,-0.219803,-0.3755589,0.07203127
0.9290676,-0.0684993,-0.02538214,-0.07610286,0.1755535,-0.04090752,-0.190192,-0.258319,0.2485326
1.046525,-0.1732177,0.004331143,0.04189998,0.07163589,-0.009616,0.08849825,-0.1820141,0.315463
1.083418,-0.2607773,0.02954293,0.07938126,-0.01517029,0.01718189,0.2459107,-0.1485012,0.3464166
1.140623,-0.2175277,-0.02760183,0.1372118,0.02878418,-0.03837345,0.4113297,-0.1464858,0.4595602
1.251277,-0.1885342,-0.01719044,0.248517,0.05843459,-0.02637329,0.2051104,0.03894314,0.5144246
1.291195,-0.1354649,-0.03477383,0.289098,0.1121121,-0.04237142,-0.3699126,0.1849966,0.231422
1.336631,-0.07965477,-0.08232105,0.3351935,0.1684791,-0.08833885,-1.147167,0.08076903,-0.3173722
1.294659,-0.2885232,-0.1747447,0.2938601,-0.03988709,-0.1791882,-1.651311,0.001362234,-0.7579604
1.189025,-0.5259533,-0.3304045,0.1888283,-0.2768685,-0.3332756,-1.272445,0.05132355,-0.9304061
1.086125,-0.5592711,-0.3957507,0.08648286,-0.3097815,-0.3970424,-0.8748183,0.2114908,-0.8716017
0.9759236,-0.5033655,-0.3927424,-0.02321712,-0.2534995,-0.3924346,-0.8505502,0.483114,-0.8416543
1.040492,-0.4853387,-0.2967331,0.04179994,-0.2351096,-0.2947923,-0.5755238,0.5883536,-0.7932456
1.13646,-0.4748841,-0.09156753,0.1381654,-0.2242923,-0.08795064,-0.1183385,0.1630978,-0.3164395
1.163885,-0.3912447,0.06484396,0.1659326,-0.1402802,0.07018174,0.3404204,-0.1732827,0.2277525
1.220614,-0.2504009,-0.01286918,0.2229464,0.0009533138,-0.005771374,0.225105,0.3927284,0.2544019
1.22093,0.04917912,-0.2095161,0.223482,0.3009399,-0.2006261,-0.5888094,0.9461765,0.07333079
1.188635,0.2424341,-0.2148015,0.1913352,0.4946077,-0.2040897,-1.292347,0.7692632,0.09168162
1.012584,0.05155637,-0.1741373,0.01535601,0.3041302,-0.1615722,-1.757894,0.7827403,0.1234932
0.7359757,-0.1524881,-0.1283897,-0.2612559,0.1004551,-0.1139381,-1.775138,1.171863,0.0655739
0.6811168,-0.2682105,-0.003472512,-0.3161819,-0.0149385,0.01289789,-1.544096,1.37498,0.06072225
0.6847665,-0.3514221,0.02021963,-0.3126452,-0.09786272,0.03853618,-1.515001,1.425488,0.01275236
0.5642033,-0.3371133,0.09267281,-0.4333471,-0.08330377,0.1129546,-1.221533,1.165391,-0.1327809
0.517029,-0.3098278,0.1774223,-0.4806638,-0.05579928,0.1996772,-1.036546,0.6178584,-0.288133
0.5602947,-0.169068,0.1641752,-0.4375213,0.08515268,0.1883979,-1.068486,0.2406273,-0.3399187
0.6062904,-0.04964369,0.2099273,-0.3916073,0.2047425,0.2360974,-0.9278455,-0.01779816,-0.08112729
0.7232542,-0.08218619,0.1681164,-0.2746656,0.1723339,0.1961991,-0.9250965,-0.1172487,0.3043559
0.8494034,-0.08428153,0.07688514,-0.1484665,0.1703339,0.1068326,-0.8189352,0.0470769,0.4158584
0.9497455,-0.139201,0.05036385,-0.04799691,0.115465,0.08211859,-0.7458262,0.2464725,0.2463592
1.119261,-0.1923348,0.02076025,0.1217225,0.0623331,0.05425884,-0.8170237,0.3200718,0.123273
1.196133,-0.2341495,0.05225678,0.1988668,0.02047042,0.08743171,-0.6777505,0.1375933,0.2065657
1.187737,-0.3442996,0.08589841,0.1907995,-0.08977546,0.1226784,-0.4869886,-0.1747091,0.2516032
1.31811,-0.327523,0.1773465,0.3215406,-0.07313736,0.2156553,-0.04560836,-0.6303983,0.3706934
1.573079,-0.3708721,0.2610867,0.5768999,-0.1166604,0.3008402,0.4727731,-0.9461306,0.7580041
1.805853,-0.4937395,0.03594321,0.8100589,-0.2397284,0.07704837,0.6297189,-0.1612713,0.9384246
1.683588,-0.4753893,-0.1982203,0.6881395,-0.221594,-0.1558613,0.5299389,1.196359,0.7347519
1.188433,-0.5046186,-0.1033783,0.1932604,-0.2510415,-0.05985953,0.4195602,1.563972,0.549985
0.7170148,-0.519762,0.04073391,-0.2779704,-0.2663922,0.08532502,0.4990776,0.9513978,0.5220804
0.5583938,-0.4028677,0.03092435,-0.4364849,-0.1496821,0.0765039,0.3058949,0.3095359,0.3885378
0.7938848,-0.2633391,-0.1028274,-0.2009494,-0.01030618,-0.05634227,-0.2813525,0.03757277,-0.01032194
0.9957229,-0.194489,-0.2607616,0.000889894,0.05842549,-0.21345,-0.8138916,0.1826805,-0.4901099
0.9902699,-0.2635094,-0.1648766,-0.004595304,-0.01068122,-0.1168083,-0.9731678,0.3354223,-0.7871044
0.9364533,-0.3667688,0.0533176,-0.05847348,-0.113997,0.1020816,-0.4689501,0.01949448,-0.764678
0.7295977,-0.5186897,0.06375472,-0.2654146,-0.2659427,0.113157,0.3235154,-0.3137307,-0.5778358
0.69399,-0.6129792,0.0684428,-0.3011215,-0.3602178,0.1184242,1.045001,-0.4584188,-0.4614525
0.7424442,-0.4136354,0.04795723,-0.2527662,-0.1608095,0.0984555,1.358498,-0.6658016,-0.4781675
0.5707154,-0.1724084,-0.06236935,-0.424578,0.08053976,-0.01141821,1.161794,-0.7503754,-0.4918711
0.5922746,-0.05968215,-0.03845822,-0.4030692,0.193444,0.01288266,1.155371,-0.9006383,-0.2245717
0.7372308,0.05337591,-0.05372862,-0.2581137,0.306725,-0.002058266,1.041121,-1.037977,0.1888528
0.8967621,0.09829122,-0.1025465,-0.09852089,0.3518918,-0.05060324,0.6530871,-0.8006024,0.4401802
1.028237,0.04693341,-0.07712142,0.03308233,0.3007955,-0.02495741,0.534472,-0.6058292,0.508278
0.9291928,0.01943759,-0.07475016,-0.06576848,0.2735532,-0.02241272,0.4104753,-0.5123908,0.5010234
0.958454,0.0002661727,-0.01919855,-0.03625262,0.2546123,0.03326898,0.3456289,-0.3743856,0.5386929
1.053338,-0.08167097,-0.008002871,0.05894397,0.1728704,0.04455386,0.3349402,-0.3313447,0.4659412
1.058443,-0.1504969,-0.0244136,0.06441248,0.1041957,0.02819263,0.2452882,-0.2487002,0.317675
1.120422,-0.1759364,-0.006546871,0.1268005,0.07885867,0.04606999,0.3625427,-0.2271978,0.2899125
1.133076,-0.2005423,-0.05415826,0.1398971,0.0543049,-0.001568574,0.3731255,-0.274099,0.2792206
1.255943,-0.1351409,-0.05517637,0.2632315,0.1197074,-0.002649864,0.1735787,-0.2226975,0.2445247
1.419444,-0.06113531,-0.06695282,0.4272096,0.1936617,-0.01452282,-0.2859156,-0.1926515,-0.0001523449
1.418873,-0.1919151,-0.1376454,0.4271064,0.06277543,-0.08534167,-0.9451106,-0.1336192,-0.4323067
1.276469,-0.3883933,-0.1960143,0.2851395,-0.1338651,-0.1438612,-1.050413,-0.04049709,-0.7333944
0.9925265,-0.4496748,-0.2741546,0.001588242,-0.1953589,-0.2221685,-0.8407605,0.0253713,-0.9043101
0.8569994,-0.4407509,-0.250839,-0.1335982,-0.186686,-0.1990254,-0.8315714,0.09168605,-0.9626541
0.841033,-0.4489677,-0.1403478,-0.1492705,-0.1951792,-0.0887018,-0.6383673,0.04287665,-0.9010223
0.9021747,-0.4506983,-0.07621995,-0.08787248,-0.1971992,-0.02472956,-0.1402985,-0.1944391,-0.5831894
1.343359,-0.3415049,-0.09440849,0.3535353,-0.08829725,-0.04305823,0.2788027,-0.3755045,-0.09131992
1.707718,-0.1126115,-0.168405,0.7180783,0.1403097,-0.1171775,0.1613462,0.1132567,0.05458225
1.452364,0.0578513,-0.1714074,0.4628476,0.3104896,-0.1202822,-0.4209166,0.8951385,-0.07022867
0.9830966,0.06676312,-0.1434922,-0.006377514,0.3191125,-0.09244463,-1.013524,0.9084577,-0.04958043
0.7982173,0.01329216,-0.1185253,-0.1913028,0.2653328,-0.06752694,-1.470562,0.6944631,0.03198297
0.7255157,-0.05508857,-0.05490415,-0.2641293,0.1966115,-0.003924562,-1.563426,0.8354912,-0.00807028
0.6243282,-0.1702157,-0.03039077,-0.3655033,0.08110338,0.02060015,-1.354525,0.8946008,0.005513719
0.5991545,-0.211278,0.006865475,-0.3909041,0.03961659,0.05789536,-1.244272,0.9544464,0.1117656
0.5070089,-0.1987367,0.06564214,-0.4832946,0.05169006,0.1167342,-1.12031,0.8777778,0.1130145
0.4812707,-0.2284734,0.07161192,-0.5092707,0.02144434,0.1227833,-1.079202,0.4909631,0.03596858
0.6065941,-0.1487361,0.08346313,-0.3841541,0.1006334,0.1347236,-1.190122,0.1562286,-0.0557936
0.6729854,-0.0802989,0.1110949,-0.3179174,0.1684838,0.1624465,-1.144355,-0.09621671,0.03463082
0.7557181,-0.1410807,0.1120612,-0.2352723,0.107075,0.1634979,-1.083873,-0.1713838,0.2640623
0.8337848,-0.1609735,0.09823032,-0.1572167,0.08651285,0.1497383,-0.9050456,-0.09237602,0.2734732
0.9648898,-0.1966991,0.1195418,-0.02604185,0.05007563,0.1710996,-0.5362111,-0.07044991,0.1512965
1.12268,-0.2172273,0.1343744,0.131897,0.02879489,0.1859537,-0.3420658,-0.006611972,0.02183504
1.133671,-0.2147619,0.1001869,0.1431083,0.03046963,0.1517526,-0.3035031,-0.006953056,0.009066652
1.244737,-0.278002,0.07799471,0.2544527,-0.03359558,0.1295056,-0.3046934,-0.04192753,0.09651072
1.34401,-0.2700079,0.05942267,0.3540465,-0.02645634,0.1108334,-0.1227073,-0.0285766,0.1740586
1.401473,-0.2985209,0.04915315,0.4118533,-0.05584798,0.1004157,0.3218332,-0.2116364,0.6184898
1.751365,-0.4261619,-0.02291318,0.7620884,-0.1843844,0.02815196,0.6310247,-0.2372768,1.055411
1.900402,-0.4788638,-0.2254571,0.9114358,-0.2379883,-0.1746366,0.6265472,0.5096032,0.8799883
1.454695,-0.5266497,-0.3065836,0.4659701,-0.2866696,-0.2560471,0.6069676,1.442702,0.6308948
0.8638838,-0.5814721,-0.1161385,-0.1246948,-0.3423653,-0.06591292,0.7720956,1.335065,0.5986838
0.5662481,-0.4967505,0.04319885,-0.4222831,-0.2584785,0.09309599,0.7341373,0.4940688,0.4907257
0.6447864,-0.313977,-0.08593348,-0.3437794,-0.07648808,-0.03637877,0.3484083,0.03737679,0.1743184
0.8636542,-0.2176423,-0.2230854,-0.1250056,0.01912225,-0.1738847,-0.1604452,-0.00272983,-0.3989926
0.9977245,-0.234714,-0.1611904,0.008927594,0.001385465,-0.1123493,-0.5015899,0.1290231,-0.8386563
0.9451452,-0.3157288,-0.07649208,-0.04382369,-0.08023697,-0.02800868,-0.1994746,0.1140595,-0.7371493
0.7998916,-0.470241,0.06788668,-0.1892784,-0.2352991,0.116018,0.6400401,-0.1632865,-0.4702171
0.784213,-0.5448527,0.1556069,-0.2051788,-0.3103975,0.2033902,1.585931,-0.3799052,-0.3501118
0.7586158,-0.4357836,0.03159561,-0.231007,-0.2017427,0.079029,1.864678,-0.6678747,-0.3767719
0.6720194,-0.2570892,-0.03506222,-0.3178305,-0.02338291,0.01201418,1.477256,-0.8554368,-0.4579503
0.6527296,-0.112982,-0.04629695,-0.3373293,0.1204703,0.0004138184,1.567296,-0.9754408,-0.1913062
0.6454299,-0.01394516,-0.0855314,-0.3448039,0.2193264,-0.03919379,1.457474,-1.197859,0.2183198
0.7712446,0.08158806,-0.06726404,-0.2191154,0.314739,-0.02130471,0.9122842,-1.02571,0.4546687
0.9607702,0.06462357,-0.06650403,-0.02965752,0.2976968,-0.02092544,0.9111783,-0.8450759,0.6352225
1.000782,-0.05427088,-0.04684909,0.01034791,0.1787504,-0.00165134,0.8119424,-0.8277732,0.5773266
1.009824,-0.04170612,-0.008828943,0.01944323,0.1912747,0.03598922,0.673804,-0.6044181,0.4799259
1.041111,-0.009550991,-0.02155091,0.05083644,0.2233895,0.0228892,0.6349341,-0.4310962,0.4614757
1.064313,-0.05002203,-0.0135223,0.0741928,0.1828681,0.0305409,0.3994051,-0.21279,0.3053772
1.045525,-0.03271902,-0.004062927,0.05559935,0.2001012,0.03962392,0.4722639,-0.1020988,0.2661053
1.022479,-0.07801691,-0.01888224,0.03278288,0.1547056,0.02442813,0.3591094,-0.2203608,0.3738745
1.116168,-0.1231495,-0.02980785,0.1267291,0.109441,0.01312546,0.03251875,-0.1857503,0.4347512
1.264738,-0.0164405,-0.05061896,0.2755769,0.2159788,-0.008063164,-0.4404105,-0.08725409,0.2352882
1.357942,0.009122927,-0.07935956,0.3690658,0.2413262,-0.03718067,-1.426164,0.04283565,-0.2760542
1.308782,-0.2152297,-0.1130538,0.3201815,0.016707,-0.07124894,-1.763849,0.08734395,-0.6860314
1.186547,-0.4978314,-0.1719643,0.1981973,-0.2662121,-0.1305269,-1.163928,-0.1769265,-0.7871685
1.095889,-0.525734,-0.2621483,0.1077516,-0.2944732,-0.2210656,-0.5729983,-0.3600041,-0.7233672
0.9715677,-0.4530856,-0.3153557,-0.01640014,-0.2222083,-0.2746059,-0.4028406,-0.1107764,-0.7685995
0.9055962,-0.5154871,-0.2775232,-0.08224536,-0.2850019,-0.2370731,-0.3199384,0.1272722,-0.7528401
0.9883619,-0.4831279,-0.1685088,0.0006075092,-0.2530283,-0.1283147,0.2151471,-0.08961333,-0.3157269
1.247511,-0.4062849,-0.05503632,0.2598073,-0.1765508,-0.01504811,0.547563,-0.1545359,0.1512016
1.565519,-0.3365177,-0.05474601,0.5778239,-0.1071186,-0.01491219,0.2262441,0.3138502,0.2167585
1.519561,-0.1066447,-0.1525043,0.5318152,0.1224548,-0.1127745,-0.3193344,0.6838195,-0.06679955
1.181891,0.08895301,-0.201001,0.1940159,0.3177855,-0.1613248,-0.9375738,0.6513317,-0.2473365
0.9554579,0.1128352,-0.1718899,-0.0326366,0.3414215,-0.132214,-1.340731,0.5889637,-0.1212663
0.832832,-0.04138517,-0.1237339,-0.1555708,0.1869603,-0.08400183,-1.311226,0.8638485,-0.05205533
0.7396594,-0.2377338,-0.06989504,-0.2491291,-0.009635982,-0.0300494,-1.148069,1.209226,0.04838993
0.6520212,-0.2601733,-0.01957734,-0.3372136,-0.03233397,0.0204379,-1.124335,1.244351,0.1703915
0.5762267,-0.2339575,0.03765035,-0.4134943,-0.006386469,0.07788686,-1.072682,1.043661,0.07831047
0.5443352,-0.1910954,0.1371264,-0.4458887,0.03619962,0.1776286,-1.050213,0.6151877,-0.003441825
0.5377892,-0.1024389,0.1967273,-0.4529298,0.1245724,0.2375292,-1.121848,0.1357844,-0.03279452
0.6244231,-0.08865672,0.1701961,-0.3667602,0.1380607,0.2113182,-1.017401,-0.1260871,0.08751955
0.7654205,-0.1416118,0.1455806,-0.2261769,0.08479706,0.1870303,-0.9520508,-0.1821028,0.3776579
0.894899,-0.2235971,0.09993817,-0.09704988,0.002485525,0.1417112,-0.8075101,-0.09186803,0.4234713
0.9995596,-0.2749815,0.06191127,0.00732681,-0.04924309,0.1039944,-0.3805743,0.01467459,0.2052665
1.047509,-0.2784849,0.09004334,0.05505917,-0.05310553,0.1324165,-0.1407836,0.1024415,0.05924804
1.139885,-0.3059078,0.06693585,0.1472781,-0.08089787,0.1095736,-0.1699889,0.1259183,0.1290992
1.192851,-0.3483829,0.05848314,0.2001383,-0.1237474,0.101355,-0.1348642,0.06248287,0.2017389
1.188226,-0.3523004,0.1772504,0.1954471,-0.1280376,0.2203213,0.2521088,-0.1006821,0.2109221
1.401029,-0.3432747,0.2331774,0.4082097,-0.1193759,0.2764054,0.7576037,-0.5346893,0.4960617
1.728537,-0.3616952,0.0132659,0.7356834,-0.138145,0.05660104,0.9689501,-0.7037656,0.8640148
1.773792,-0.3704172,-0.3411303,0.780882,-0.1471934,-0.2977406,0.8076522,0.1499796,0.8492148
1.37818,-0.4276552,-0.3819589,0.3851576,-0.2047289,-0.3385582,0.5209027,1.346794,0.6838441
0.8456096,-0.5015933,-0.08261737,-0.1476022,-0.2789272,-0.03923431,0.5871913,1.526445,0.6275786
0.6043689,-0.4326009,0.08464465,-0.3891106,-0.2101481,0.1279922,0.6332072,0.7608793,0.5411057
0.6905079,-0.3149639,-0.06570138,-0.3033015,-0.09266888,-0.02240524,0.4184717,0.1358612,0.3768914
0.9024098,-0.2484962,-0.2296422,-0.09177109,-0.02629937,-0.1864126,0.07515733,-0.004092659,0.002952517
1.025922,-0.2501415,-0.1521742,0.03134223,-0.02798335,-0.1090213,-0.5975231,0.1313786,-0.5381314
0.9551984,-0.3659387,-0.03173003,-0.03980218,-0.1437613,0.011343,-0.636824,0.1580385,-0.6894696
0.8103058,-0.512936,0.07046921,-0.1851318,-0.2906805,0.1134619,0.3423986,-0.1537597,-0.5035081
0.7515221,-0.5694138,0.168309,-0.2443609,-0.3470149,0.2112181,1.281669,-0.472248,-0.4937219
0.6833562,-0.4542101,0.02419776,-0.3129682,-0.2315929,0.06701365,1.628785,-0.6375328,-0.505466
0.5844101,-0.2334772,-0.09001578,-0.4123362,-0.01055969,-0.04730756,1.480296,-0.7340295,-0.425213
0.6203694,-0.05771055,-0.02705116,-0.3767614,0.1655884,0.01553443,1.430294,-0.9718815,-0.3101223
0.6575326,0.02545764,-0.06612279,-0.3399276,0.2492091,-0.02367302,1.353196,-1.235696,-0.004369751
0.7164474,0.0273696,-0.07376514,-0.2812718,0.2516286,-0.0314624,1.049841,-1.011753,0.2677273
0.9448415,0.03673454,-0.04414968,-0.05305593,0.2615383,-0.002002969,0.9323562,-0.6450965,0.3494765
1.119882,0.07222697,-0.06347521,0.1218892,0.2975951,-0.02149153,0.6575033,-0.4361229,0.3794279
1.084434,0.07599693,-0.032903,0.08642449,0.3019317,0.008912228,0.3877474,-0.2912721,0.2962384
0.9514426,0.04785622,0.001059785,-0.0465163,0.274343,0.04270196,0.3007588,-0.3652505,0.2249385
0.9461363,-0.02875715,0.0446469,-0.05170945,0.1982523,0.08611082,0.1019013,-0.2977949,0.2992829
0.9656365,-0.08417832,0.05427072,-0.03203735,0.1433131,0.09554887,0.165507,-0.2121171,0.3502459
0.9633412,-0.1146301,0.003975945,-0.03410443,0.1132951,0.04505779,0.2823094,-0.3717431,0.3722655
1.176373,-0.2160467,-0.0355458,0.1792078,0.01226008,0.005327196,0.2509013,-0.3354164,0.3777531
1.337184,-0.2767277,-0.07889205,0.3403415,-0.04809178,-0.0382403,0.06468474,-0.2226764,0.1988694
1.308586,-0.2509376,-0.07357827,0.312093,-0.02202193,-0.03315812,-0.5488001,-0.1105992,-0.1690382
1.300382,-0.2883663,-0.05594665,0.3042475,-0.05921593,-0.01576559,-0.9205671,-0.06823168,-0.5137308
1.295928,-0.3733864,-0.1060386,0.3001417,-0.1440408,-0.0661013,-0.7619659,-0.2880243,-0.6979009
1.185211,-0.4098749,-0.1851102,0.1897479,-0.1803662,-0.1454176,-0.6183591,-0.340403,-0.8319289
0.9875813,-0.4511268,-0.290722,-0.007592902,-0.2214769,-0.2512685,-0.5701378,-0.1699335,-1.022567
0.9786623,-0.4668417,-0.2836354,-0.01626209,-0.2370611,-0.2444055,-0.4296214,-0.02711806,-1.058593
1.056515,-0.4204636,-0.08217237,0.06180288,-0.1905513,-0.04314022,-0.04071255,-0.05582081,-0.6470569
1.115939,-0.4238758,0.03959599,0.1214013,-0.19382,0.07846159,0.4596661,-0.1134563,-0.037837
1.457435,-0.3446585,-0.06181203,0.4630306,-0.1144392,-0.02308256,0.5340239,0.1664428,0.1565416
1.747921,-0.1330902,-0.1766628,0.7535953,0.09731739,-0.1380407,-0.04128218,0.5427198,-0.02847759
1.45755,0.01080476,-0.1604267,0.4632228,0.2414231,-0.1218818,-0.6987437,0.7935531,-0.0686354
0.9600473,0.1028364,-0.1402809,-0.03437997,0.3336778,-0.1017791,-1.108585,0.7809355,0.014832
0.8306804,0.07887598,-0.1424598,-0.1639512,0.3099375,-0.1039633,-1.330839,0.6623493,-0.01517212
0.7348233,-0.06896906,-0.04911123,-0.2601062,0.1622941,-0.01058034,-1.245602,0.8589758,0.03967402
0.5385936,-0.1746441,0.01935487,-0.4567082,0.05679146,0.05795947,-1.160307,0.8992159,0.185314
0.5668533,-0.2351449,0.03261941,-0.4288711,-0.00357077,0.07133327,-1.177477,0.7132124,0.1845444
0.5155032,-0.1952228,0.08167265,-0.4806674,0.03645577,0.1205252,-1.191605,0.5357968,0.1142752
0.5398514,-0.1415753,0.10336,-0.4567626,0.0901742,0.1423732,-1.306141,0.1590249,0.06701003
0.7359189,-0.1644216,0.1247296,-0.261112,0.06736485,0.1639166,-1.268113,-0.085148,0.1102736
0.7631642,-0.1630497,0.1140144,-0.2342394,0.06873813,0.1533795,-1.173183,-0.121519,0.2331629
0.9235451,-0.2323471,0.07706208,-0.07417621,-0.0005939847,0.1166008,-0.9691422,-0.07676641,0.2470698
1.02004,-0.2989128,0.106067,0.0220606,-0.06722909,0.1457675,-0.3829152,-0.03006268,0.1578392
0.9326239,-0.2639236,0.1023084,-0.06555548,-0.03234013,0.1421523,-0.01186329,-0.1916974,0.01463978
1.044909,-0.2802597,0.07968802,0.04658622,-0.0488027,0.1196507,-0.0542027,-0.2523413,-0.08119673
1.197023,-0.3160353,0.06638257,0.1986073,-0.08472615,0.1064343,0.018297,-0.1492401,-0.08457962
1.343747,-0.3340794,0.03178961,0.3452803,-0.102934,0.07189671,0.2159813,-0.08589941,-0.08323071
1.46523,-0.3309022,0.0342695,0.4667376,-0.09993027,0.07439595,0.37894,-0.03081193,0.1321536
1.649195,-0.2935264,-0.01425243,0.6506771,-0.06273168,0.02585623,0.5987437,0.2171973,0.4395396
1.888418,-0.3183606,-0.1210958,0.8898474,-0.08774158,-0.08104124,0.5835819,0.7463542,0.4771793
1.592811,-0.3965002,-0.1469132,0.5941251,-0.1660505,-0.106945,0.3649211,1.07148,0.4708502
1.007646,-0.4796317,-0.09689284,0.008754505,-0.2493378,-0.05703677,0.442939,1.164744,0.4831861
0.7491115,-0.4886175,-0.02131623,-0.2500852,-0.2584565,0.01840764,0.5189451,1.010736,0.3426629
0.7053704,-0.3449263,0.02154944,-0.2942198,-0.1148646,0.0611239,0.442368,0.2485624,0.2381897
0.7855548,-0.1794025,-0.07470199,-0.2144981,0.05059963,-0.0352934,0.1672446,-0.3254063,0.0502758
0.8532741,-0.1779483,-0.1873193,-0.147292,0.05203386,-0.148091,-0.3381427,-0.1697463,-0.3503158
0.8162967,-0.3167597,-0.06307009,-0.1848177,-0.08676138,-0.02403189,-0.2235012,-0.03395436,-0.4494985
0.8239354,-0.4346869,0.1236717,-0.1777495,-0.2046372,0.162514,0.3346706,-0.2920476,-0.2857465
0.7926812,-0.4980554,0.1465343,-0.2095842,-0.267915,0.1851728,0.9761192,-0.6314691,-0.3068536
0.7455291,-0.4726653,0.1093223,-0.2573136,-0.2423866,0.1477428,1.660735,-0.8822807,-0.3091816
0.738052,-0.340202,-0.01047327,-0.265352,-0.1097292,0.02770886,1.41368,-0.9292574,-0.2668043
0.6788566,-0.1923093,-0.1546115,-0.3250785,0.03841697,-0.1166897,1.018541,-0.8357612,-0.2523332
0.6944661,-0.0689136,-0.1456935,-0.3099557,0.1621225,-0.1080503,1.245669,-0.9638091,0.02462068
0.7785117,-0.07967232,-0.09311786,-0.2263387,0.1517208,-0.05576483,1.128607,-0.8896649,0.3670709
0.8842688,-0.1561157,-0.09549624,-0.120942,0.07567035,-0.05843908,1.072753,-0.556264,0.3396486
1.023064,-0.1353831,-0.1021217,0.01756536,0.09682213,-0.06536152,1.065896,-0.5341585,0.04160645
1.041405,-0.06668903,-0.08861166,0.03569057,0.1659532,-0.05214562,0.6484327,-0.3844028,-0.1245481
0.9941351,0.07749616,-0.05440981,-0.01172815,0.3105832,-0.01823167,0.5457142,-0.2615058,0.004980129
0.9709103,0.1455404,0.001171958,-0.03503997,0.3790658,0.03707031,0.533828,-0.4332525,0.2935562
0.9822872,0.05594181,0.03989445,-0.02369156,0.2898822,0.07552078,0.5142773,-0.514883,0.5683916
1.074148,-0.004579869,0.02402116,0.06819587,0.2297363,0.05938099,0.6872228,-0.6893492,0.6326706
1.1914,-0.1175153,-0.01063205,0.1855241,0.1171259,0.02446409,0.6163272,-0.6614538,0.4774558
1.27944,-0.1936225,-0.07263775,0.2736789,0.04128703,-0.0378038,0.4643192,-0.3764016,0.2813359
1.266446,-0.09637026,-0.1179911,0.2608248,0.1387488,-0.08341686,0.1116633,-0.2237431,0.00859238
1.225228,-0.08365421,-0.0961657,0.2197558,0.151614,-0.06184553,-0.3014208,-0.1894341,-0.3210074
1.184835,-0.2687399,-0.1367052,0.1795095,-0.03338448,-0.1026295,-0.2298105,-0.289203,-0.6191642
1.024888,-0.4678707,-0.2452992,0.01969473,-0.2324876,-0.2114533,-0.1757608,-0.206506,-0.9450857
0.9189172,-0.4688655,-0.2957863,-0.08616136,-0.2335042,-0.2621477,-0.2726666,-0.02932699,-1.087997
0.9641577,-0.3708543,-0.2658046,-0.04082197,-0.1355506,-0.2323406,-0.2825054,0.09867095,-1.01061
1.17634,-0.3512196,-0.1947412,0.1714448,-0.115997,-0.1614092,-0.2952796,0.2508792,-0.89857
1.588869,-0.282,-0.106962,0.5840403,-0.04687366,-0.07371211,-0.08991937,0.2270244,-0.5143254
1.769851,-0.1190633,-0.04411936,0.7650507,0.1159566,-0.01089903,0.1241931,0.4475441,-0.06233186
1.557484,0.06566015,-0.1027642,0.5526475,0.3005616,-0.06952148,-0.178758,0.846561,0.08473578
1.395684,0.1543276,-0.1706508,0.3907196,0.3890897,-0.1373348,-0.6985214,0.9934762,0.2169163
1.240368,0.0617848,-0.1182236,0.2351653,0.2963725,-0.08478244,-1.1135,0.9720563,0.3138491
0.7774837,-0.05001499,-0.08021627,-0.2280731,0.1843499,-0.04659731,-1.733091,0.7849803,0.1975458
0.4765174,-0.2029288,-0.01679325,-0.5294985,0.03115698,0.0170552,-2.079741,0.7725779,0.06668936
0.6137363,-0.370389,0.1027207,-0.3928194,-0.136639,0.1368462,-1.641466,0.7794687,0.02469546
0.6232792,-0.3286481,0.1093103,-0.3838679,-0.09528409,0.1437525,-1.212701,0.4957691,0.01373248
0.5567388,-0.2469536,0.06457895,-0.4510246,-0.01401652,0.0993677,-1.021621,0.2239402,-0.03310548
0.6866708,-0.1821745,0.05314695,-0.3217094,0.0503013,0.08830275,-0.7958193,0.01585502,-0.1029851
0.6925895,-0.08178332,0.05191403,-0.316387,0.1501996,0.08744978,-0.8349822,0.002426573,-0.1194318
0.6600871,-0.1120994,0.05585942,-0.3494474,0.1193582,0.09178141,-0.9421023,-0.07636587,0.08242438
0.7282221,-0.146052,0.04461902,-0.2818165,0.08484562,0.08092747,-0.860892,-0.3100475,0.4379075
0.7888233,-0.1465404,0.08099185,-0.2216526,0.0837609,0.1176812,-0.7002407,-0.2334232,0.5151938
0.9389071,-0.1999452,0.1113219,-0.07193032,0.02972371,0.1483806,-0.5073592,-0.112843,0.2082088
1.170598,-0.2440006,0.02458216,0.1594771,-0.01499852,0.06199248,-0.5933382,-0.03568359,-0.08480923
1.398293,-0.3227814,-0.04945992,0.386958,-0.09447642,-0.01172027,-0.716828,-0.03441245,-0.06981959
1.426384,-0.3214234,-0.02133663,0.4148881,-0.09383932,0.01670879,-0.327387,-0.2349233,0.0414286
1.470434,-0.2801142,-0.02550061,0.4588068,-0.05326683,0.01282733,0.1931291,-0.2066833,0.2791604
1.880658,-0.3608297,-0.148007,0.8689036,-0.1347275,-0.1094186,0.5630769,0.2264877,0.8120437
1.973788,-0.386052,-0.2423878,0.9618739,-0.1606953,-0.2035573,0.8159464,1.039855,0.946838
1.529292,-0.4000545,-0.1885064,0.5171486,-0.1754346,-0.1494442,0.7838304,1.592053,0.5647056
1.020469,-0.494134,-0.08079748,0.007996646,-0.2702317,-0.0415063,0.6219699,1.443416,0.3492868
0.6066711,-0.4988751,-0.01978713,-0.4062347,-0.275659,0.01973486,0.4654754,1.175189,0.2593558
0.7170103,-0.3619883,-0.04521066,-0.2964184,-0.1394148,-0.005455372,0.3610197,0.5825176,0.2251919
0.8934391,-0.1514572,-0.1232066,-0.1205797,0.07052492,-0.08321579,0.2051001,-0.222038,0.1567863
0.7133008,-0.08305035,-0.1473268,-0.3013564,0.138392,-0.1070969,-0.1049102,-0.268992,-0.1182221
0.9338624,-0.2261362,-0.07684451,-0.0814653,-0.005187375,-0.03636879,-0.05281028,-0.004443851,-0.2110977
1.122421,-0.367749,0.03380855,0.1064022,-0.1472518,0.07453847,0.3238335,-0.1201155,-0.1596208
0.908479,-0.4465284,0.1032616,-0.1082462,-0.2264389,0.1442518,0.7584537,-0.2859085,-0.2263928
0.8650492,-0.4681195,0.1189886,-0.1523928,-0.2483871,0.1602389,1.451347,-0.6324356,-0.388894
0.7682886,-0.3971279,0.07676513,-0.2498719,-0.1776936,0.1182677,1.662357,-1.174463,-0.6623809
0.609589,-0.2626475,-0.03425511,-0.4092787,-0.04344549,0.00748527,1.223665,-1.236713,-0.6757793
0.5920509,-0.1284225,-0.1027459,-0.4274949,0.09061396,-0.06078482,1.113323,-1.125371,-0.3047216
0.656796,-0.06297578,-0.08901725,-0.363379,0.1559569,-0.04685141,1.132163,-1.08594,0.09567868
0.8392433,-0.01430978,-0.08584172,-0.1814947,0.2045707,-0.04348408,0.9661134,-0.7124206,0.3569883
0.9405237,0.04234427,-0.09086203,-0.08070039,0.2612114,-0.04832273,0.8636323,-0.551046,0.4106642
0.9607059,0.0250166,-0.06845327,-0.06092405,0.2438949,-0.02573993,0.6985272,-0.6444705,0.4069114
0.9542143,0.007398178,-0.02705068,-0.06774157,0.2262976,0.01583075,0.6397164,-0.5310799,0.4272432
0.9544476,0.03097427,0.008092983,-0.06775559,0.2498917,0.0511367,0.696823,-0.5292774,0.4168895
1.034627,0.0262599,0.01203842,0.01225328,0.2451801,0.05523711,0.6354883,-0.5423012,0.4319255
1.054565,0.04310516,-0.005689347,0.03209284,0.2620011,0.03765471,0.5524931,-0.4852585,0.355739
1.113305,0.04103766,-0.03434528,0.09080117,0.2598713,0.009132647,0.3712564,-0.4504842,0.2614874
1.230152,-0.04132915,-0.05619743,0.2076738,0.1773944,-0.01259785,0.1518164,-0.2760615,0.2615755
1.317766,-0.09490574,-0.06896832,0.2953602,0.1236525,-0.02525874,-0.08670118,-0.2104787,0.126418
1.38145,-0.1020496,-0.0682046,0.3591464,0.1162844,-0.02439531,-0.5803842,-0.2578177,-0.1607673
1.349315,-0.1759499,-0.06024561,0.3271245,0.04209998,-0.01634529,-0.9858283,-0.2760622,-0.4291075
1.282563,-0.350187,-0.1158925,0.2604793,-0.1324793,-0.07190798,-0.902851,-0.3407174,-0.6577353
1.125271,-0.4644087,-0.2143823,0.1032729,-0.2470933,-0.1703173,-0.7279212,-0.2559071,-0.8776833
0.9886757,-0.4713522,-0.276444,-0.03326576,-0.2544659,-0.2322957,-0.752178,0.009300796,-1.02145
1.009603,-0.4859594,-0.2754344,-0.01231157,-0.2695229,-0.2311909,-0.5742287,0.3020948,-0.9982657
1.060991,-0.4644928,-0.2041297,0.03907583,-0.2485105,-0.159769,-0.0465299,0.4199972,-0.738336
1.293938,-0.4167415,-0.1096361,0.2719954,-0.2012035,-0.0651286,0.4787205,0.3658791,-0.21337
1.503859,-0.2767215,-0.06241487,0.4818538,-0.06160646,-0.01772763,0.4635514,0.5727111,0.2274907
1.382656,-0.006358237,-0.110765,0.3605384,0.2083602,-0.06586485,-0.1204467,0.8783687,0.2256043
1.184733,0.09686441,-0.1673871,0.1624393,0.3112081,-0.122241,-0.6677816,0.8305519,0.003230227
0.9603981,0.04216882,-0.1327898,-0.06214384,0.2561478,-0.08736373,-1.086824,0.6699045,-0.1189781
0.6997222,-0.0295326,-0.08275557,-0.3231363,0.1840784,-0.03701365,-1.110944,0.6399888,-0.1264402
0.5557293,-0.1569054,-0.02279022,-0.4674987,0.0563249,0.0233028,-0.780021,0.7107469,-0.0347075
0.4828608,-0.1803939,0.02424272,-0.5407658,0.03243817,0.07071897,-0.8209455,0.753783,0.145048
0.4574211,-0.07843446,0.001881232,-0.5666045,0.1339806,0.04876756,-0.8780719,0.4768436,0.2731286
0.579075,-0.03409966,0.01954786,-0.4453218,0.1778774,0.06686516,-0.9675005,0.05871842,0.2681399
0.7576331,-0.1026432,0.06812157,-0.2670832,0.1088706,0.1158846,-1.167835,-0.05498203,0.1827544
0.8476887,-0.2185666,0.1247972,-0.1772796,-0.007544699,0.1730134,-0.8233463,-0.0558036,0.136658
0.9178905,-0.3024955,0.2151229,-0.1072545,-0.09199301,0.2637903,-0.3620108,-0.1625422,0.172015
0.9385034,-0.3148434,0.2172995,-0.0867401,-0.1048827,0.2664041,0.01577888,-0.1549858,0.1937141
0.8833113,-0.2062802,0.1734764,-0.141952,0.003123393,0.2229912,0.2614442,-0.08795847,0.2296915
0.9157367,-0.109094,0.1432316,-0.1094678,0.09974169,0.1931179,0.07488368,-0.1230697,0.3210154
1.09337,-0.1923281,0.01010534,0.06830263,0.01592987,0.06031617,-0.08952755,-0.1233141,0.3820514
1.284395,-0.2812309,-0.107771,0.259536,-0.0735601,-0.05728604,-0.09185348,-0.08524166,0.3946725
1.357018,-0.2734029,-0.00164764,0.332426,-0.06632532,0.04906228,0.2695195,-0.03893076,0.4621135
1.611001,-0.3383664,0.123431,0.5867137,-0.1318828,0.1743184,0.9367087,0.1275697,0.6804596
2.001338,-0.4262617,-0.006477041,0.9773632,-0.2203652,0.04453893,1.140154,0.4831667,0.892411
1.7394,-0.3961738,-0.1942701,0.7157079,-0.1908482,-0.1431747,0.9565525,1.117055,0.8614763
1.067221,-0.3748003,-0.2425486,0.04374625,-0.1700188,-0.1914178,0.6467375,1.54241,0.6920046
0.7665083,-0.4055139,-0.1578638,-0.2568306,-0.2012406,-0.1067314,0.2377088,1.183115,0.6426099
0.7468262,-0.3808032,0.001158003,-0.2764504,-0.176994,0.05226689,0.173316,0.5213227,0.6373143
0.8475308,-0.3592143,-0.01370057,-0.1757411,-0.1558174,0.03736364,0.1913083,-0.05135811,0.405368
0.8877182,-0.379005,-0.06771829,-0.1355913,-0.1759624,-0.0167192,-0.1049853,-0.3309736,-0.1382037
0.8642638,-0.4105395,0.03036889,-0.1591134,-0.2077876,0.08128283,-0.1144039,-0.1692915,-0.7844127
0.8632947,-0.4823898,0.05737158,-0.1601701,-0.2798585,0.1081798,0.103105,-0.3072418,-1.042397
0.683802,-0.5177291,0.1075389,-0.3397593,-0.3153403,0.1582181,0.5770208,-0.6266726,-0.8553111
0.6548253,-0.4476818,0.1506263,-0.3688277,-0.2453481,0.2011483,1.606446,-0.7432564,-0.6556913
0.6544609,-0.2855755,0.01444528,-0.3692615,-0.08320263,0.06477605,1.777039,-1.125679,-0.4506601
0.4875147,-0.05274402,-0.121521,-0.5362368,0.1497629,-0.07141794,1.114047,-1.263597,-0.1452163
0.6613589,0.04728359,-0.1982434,-0.3623616,0.2500108,-0.1484016,0.9293608,-1.033395,0.1209393
0.8516292,-0.04054336,-0.1638989,-0.1719839,0.1624752,-0.1143441,0.7421282,-0.7965068,0.3166461
0.955293,-0.04711848,-0.09239522,-0.06812806,0.1562467,-0.0431448,0.5980646,-0.3575302,0.3434
1.097105,0.01658825,-0.06086331,0.07396077,0.220341,-0.01192837,0.6116902,-0.2989844,0.2161872
0.9878089,0.03146387,0.03243731,-0.03497976,0.2356314,0.0810486,0.2871343,-0.4809765,0.1872687
0.9861764,0.07587248,0.02591069,-0.03618442,0.2804672,0.07419008,0.02945332,-0.3516167,0.2429524
1.020235,0.06037821,-0.0096186,-0.001630934,0.2653973,0.038319,-0.03416509,-0.3711912,0.327201
0.9457346,-0.03959665,0.04037141,-0.07557535,0.1658299,0.08795569,0.04729691,-0.4264555,0.4615937
1.037599,-0.1431029,0.02381419,0.01690278,0.06270364,0.07103205,0.312404,-0.4036324,0.4712043
1.089502,-0.2955543,0.01943763,0.06947193,-0.08939958,0.06627419,0.6310124,-0.5188462,0.4255743
1.133317,-0.3549184,0.001309777,0.1139976,-0.1484458,0.04774872,0.7707573,-0.4973777,0.4138746
1.25959,-0.2398012,-0.06645296,0.2410166,-0.03303518,-0.0204282,0.298619,-0.2793509,0.2254217
1.359959,-0.1132999,-0.09061921,0.3421512,0.09373956,-0.04502351,-0.5947671,-0.1165383,-0.2102786
1.373537,-0.09956261,-0.1595355,0.3564975,0.10773,-0.1143798,-1.378306,-0.1979438,-0.7420104
1.207593,-0.3175628,-0.2798377,0.1913054,-0.1100394,-0.2351262,-1.328967,-0.2866612,-0.9792923
1.05447,-0.6101412,-0.3467868,0.03890448,-0.4024064,-0.3025132,-0.6508663,-0.06517052,-0.9008182
1.013242,-0.6471895,-0.284532,-0.001638414,-0.4392498,-0.2406765,-0.323007,0.07315013,-0.899994
1.022939,-0.5306468,-0.1446308,0.008705841,-0.3224897,-0.1011613,0.2017077,-0.08602881,-0.8070329
1.191415,-0.4484537,-0.0748631,0.1777902,-0.2400493,-0.03173995,0.5970068,-0.055813,-0.4106083
1.444935,-0.2590923,-0.1139405,0.431876,-0.05039953,-0.07112142,0.2707636,0.4653434,0.02983392
