accx,accy,accz,body_accx,body_accy,body_accz,body_gyrox,body_gyroy,body_gyroz
1.117763,-0.1420711,-0.2357291,0.1099558,0.09240761,-0.162377,-0.5119263,0.3205002,0.5655216
1.078382,-0.152949,-0.1876391,0.0703607,0.0814125,-0.1141254,-0.76008,0.2274004,0.6542524
0.9989603,-0.1404366,-0.1711867,-0.009287102,0.0938065,-0.09740622,-0.9017063,0.1867151,0.6699468
0.9532879,-0.1324562,-0.1531874,-0.05519779,0.1016629,-0.0790378,-0.953162,0.3194532,0.6385008
0.8814451,-0.1965425,-0.1213927,-0.1272879,0.03744331,-0.04677543,-0.8945357,0.3853883,0.6286525
0.7830517,-0.2560829,-0.08939428,-0.2259313,-0.02224185,-0.01421629,-0.7878792,0.367951,0.5865634
0.7274467,-0.2625546,-0.02152327,-0.2817791,-0.0288693,0.05430168,-0.6848531,0.4174665,0.5252256
0.7580891,-0.2547785,-0.01986399,-0.2513599,-0.02125787,0.05668525,-0.6088983,0.3955721,0.4714732
0.8028205,-0.2520697,-0.03587616,-0.2068196,-0.01872023,0.04146477,-0.6831462,0.38968,0.3642014
0.8106872,-0.2583776,-0.00107057,-0.199102,-0.02520377,0.07711965,-0.7529354,0.3735357,0.1897795
0.8399982,-0.2559142,-0.01262843,-0.1698902,-0.02291856,0.06645909,-0.7604445,0.323021,0.0212409
0.8560535,-0.2484711,-0.01468575,-0.1538778,-0.01565436,0.06533764,-0.7470932,0.3638711,-0.04158337
0.902272,-0.2384521,0.02033809,-0.1076419,-0.005813489,0.1013269,-0.6264925,0.393201,-0.05640856
0.9778469,-0.215091,0.02644085,-0.03198716,0.01737116,0.1084154,-0.6133844,0.4851924,-0.09268066
1.008523,-0.2188812,0.02872963,-0.001170098,0.01340637,0.111701,-0.698954,0.6758637,-0.0989872
1.127146,-0.2274243,0.03880492,0.1176513,0.004690175,0.1227748,-0.7516429,0.7917964,-0.09543778
1.222554,-0.2121469,0.05428475,0.2133065,0.01979584,0.139246,-0.8420291,0.7520407,-0.1047792
1.191199,-0.1920573,0.05919824,0.1822358,0.03971456,0.1451346,-0.90427,0.5940177,-0.1091265
1.23257,-0.1213972,0.07556179,0.2239142,0.1102032,0.1624483,-1.028246,0.5002833,-0.1004313
1.264374,-0.06730679,0.1524049,0.2560366,0.164118,0.2402074,-1.15341,0.4624445,0.003772038
1.264733,-0.1573725,0.1778467,0.256711,0.07386726,0.2665206,-1.051592,0.3579357,0.2244449
1.365627,-0.3269796,0.04811989,0.3579024,-0.09593784,0.1376095,-0.8066284,0.2090437,0.3645169
1.389009,-0.4635133,-0.14562,0.3815488,-0.2326801,-0.05537729,-0.4590897,0.09252945,0.3218724
1.244887,-0.5472429,-0.2595037,0.2376414,-0.3166195,-0.1685705,-0.05398561,0.1117903,0.281433
1.061107,-0.5818599,-0.2672164,0.05401551,-0.3514336,-0.1756479,0.1341488,0.3194785,0.2791191
0.9004593,-0.5163274,-0.2473987,-0.1065421,-0.2860694,-0.1552399,0.03405905,0.6769295,0.1462158
0.7939915,-0.321571,-0.2373844,-0.2129786,-0.09143912,-0.1446702,-0.2280198,0.7933027,-0.07524448
0.7638282,-0.1267316,-0.2502606,-0.243158,0.1033225,-0.1570168,-0.7590306,0.3807715,-0.2158882
0.8005953,-0.08840339,-0.2497529,-0.2064399,0.1416185,-0.1559973,-1.161012,-0.1306022,-0.1954475
0.8688287,-0.1956646,-0.1662151,-0.138275,0.03436325,-0.07195792,-0.8590668,-0.3868907,-0.072006
0.9385957,-0.3147811,-0.07525721,-0.06858572,-0.08471556,0.01949587,-0.501974,-0.484061,-0.02312799
0.9542859,-0.360719,-0.07341881,-0.05297575,-0.1305855,0.02182548,-0.4429608,-0.4851082,-0.1295752
0.8799363,-0.3431235,-0.1254126,-0.1274038,-0.1128893,-0.02968291,-0.3214304,-0.3905412,-0.2752236
0.8122766,-0.2797438,-0.1569845,-0.1951348,-0.04937362,-0.06077579,-0.3600598,-0.3325283,-0.2894615
0.7933165,-0.197194,-0.1772806,-0.2141515,0.03334862,-0.08059795,-0.3960564,-0.3945999,-0.218816
0.8239735,-0.136192,-0.2166586,-0.1835272,0.09455663,-0.1195042,-0.2757202,-0.4242216,-0.1878616
0.9203732,-0.1289146,-0.232325,-0.08712854,0.1020679,-0.1346973,-0.2744331,-0.3416185,-0.120803
0.977205,-0.1653779,-0.2206785,-0.0302617,0.06585922,-0.1225708,-0.1518999,-0.1832484,-0.03811647
0.9863613,-0.17495,-0.1812846,-0.02103329,0.05655599,-0.08268591,-0.0162582,-0.03405118,0.0252329
0.9878697,-0.1485895,-0.1167287,-0.01941684,0.08319431,-0.01762528,-0.08665122,-0.03070259,0.1134432
0.9772296,-0.1084802,-0.08598558,-0.02991484,0.123585,0.01363677,-0.1110841,-0.08202319,0.1469606
0.992848,-0.06185277,-0.07586399,-0.01412194,0.170491,0.02428936,-0.1420748,-0.07871176,0.1927808
0.9822814,-0.05349884,-0.06157326,-0.02448323,0.1791126,0.03912,-0.181605,-0.09476126,0.2758729
0.9639747,-0.07334501,-0.05815817,-0.04255558,0.1595148,0.04308017,-0.1567935,-0.08482259,0.2839966
0.9681577,-0.08834452,-0.07001457,-0.0381101,0.1447364,0.03177021,-0.1739256,0.00763448,0.2575446
0.9734126,-0.08773022,-0.08128452,-0.0325656,0.145538,0.02104462,-0.22286,0.1322413,0.2002686
1.045061,-0.07375112,-0.07397367,0.03939801,0.1596648,0.02889495,-0.2963626,0.3130492,0.1199162
1.122859,-0.06255747,-0.06928844,0.1175345,0.1709611,0.03411224,-0.3385131,0.3937587,0.0355944
1.153734,-0.05217217,-0.06360676,0.1487633,0.1813985,0.04031603,-0.3487009,0.1973884,-0.07589035
1.172168,-0.08354254,-0.0684852,0.1675588,0.1500243,0.03594719,-0.4083964,-0.03047247,-0.1540623
1.19843,-0.1562998,-0.1335149,0.1941805,0.07720352,-0.02858744,-0.5295975,-0.05180048,-0.1939916
1.23775,-0.2301516,-0.2435105,0.233847,0.003227225,-0.1381022,-0.6947048,0.1873017,-0.2403795
1.180106,-0.3011124,-0.3168117,0.1765262,-0.06791619,-0.2109329,-0.7340483,0.416429,-0.2832721
1.048174,-0.3256228,-0.3100098,0.04488633,-0.09266138,-0.203663,-0.7388098,0.2164403,-0.2736745
0.9500858,-0.3400668,-0.3051249,-0.05294519,-0.107384,-0.1983036,-0.9263107,0.03386917,-0.2561334
0.922843,-0.3848134,-0.3085675,-0.07996593,-0.1524441,-0.2012564,-0.953492,0.2787894,-0.2745762
1.055769,-0.3706471,-0.2264222,0.05315153,-0.1386158,-0.1185987,-0.6632954,0.4809547,-0.1742926
1.207994,-0.2839425,-0.1399405,0.2055394,-0.05226478,-0.0315774,-0.4490597,0.5202391,0.09839239
1.180723,-0.1634238,-0.1501193,0.1783973,0.06789128,-0.04118838,-0.4893321,0.5029577,0.4299973
1.087232,-0.07064881,-0.1725902,0.08499657,0.1602959,-0.06306421,-0.6622377,0.3583908,0.6151686
0.9717751,-0.09347503,-0.1477384,-0.03041396,0.137088,-0.03759128,-0.8676994,0.2710921,0.5701717
0.8012889,-0.127943,-0.1322432,-0.2008944,0.1022221,-0.02145014,-1.098759,0.2652854,0.5779931
0.7344004,-0.1162303,-0.1249694,-0.2678096,0.1135165,-0.01350746,-1.224233,0.2370326,0.6670275
0.7512642,-0.1765486,-0.1146281,-0.2509914,0.05275694,-0.002477034,-1.233031,0.2094528,0.6863606
0.7186081,-0.2476093,-0.1295978,-0.2836975,-0.01876917,-0.01673997,-1.320832,0.1904006,0.7067321
0.7404544,-0.2805752,-0.1195223,-0.2618914,-0.0522225,-0.005942937,-1.330227,0.1979766,0.632685
0.7942988,-0.3464237,-0.08925799,-0.2080644,-0.1185757,0.02505499,-1.224956,0.1648402,0.4630359
0.8182101,-0.4041062,-0.05159803,-0.1841372,-0.176773,0.06345706,-1.093484,0.1366625,0.3058104
0.8940537,-0.4221601,0.02449579,-0.108237,-0.1953423,0.1402963,-0.7785847,0.1716022,0.1001896
0.9348966,-0.3906069,0.05719924,-0.0672923,-0.1642947,0.1737409,-0.4411818,0.2379624,-0.09328319
0.9192598,-0.3264883,0.04833865,-0.08278059,-0.1006626,0.165608,-0.2134006,0.3481681,-0.2117336
0.9021199,-0.2038016,0.03805183,-0.09972495,0.02156329,0.1560258,-0.1468028,0.3040848,-0.2317302
0.8628473,-0.004777855,-0.006150034,-0.1387539,0.2201522,0.1124972,-0.3290792,0.1844318,-0.1146192
0.8734231,0.02748061,-0.03320988,-0.1278847,0.2519954,0.086073,-0.5851986,0.1995015,0.06337349
0.9559633,-0.09869348,-0.01539107,-0.04499939,0.1254155,0.1044852,-0.7873616,0.1842556,0.176361
1.114291,-0.1817724,0.02875557,0.113724,0.0419314,0.149179,-0.7227198,0.1890281,0.06497768
1.263056,-0.280654,0.06130337,0.2629275,-0.05735808,0.182223,-0.5720538,0.2659409,-0.1705902
1.266562,-0.2382418,0.06148317,0.2669027,-0.01535551,0.1828421,-0.6686559,0.417716,-0.2405443
1.310445,-0.06022575,0.0985756,0.3112681,0.1622504,0.2203105,-0.6687875,0.6259877,-0.08274214
1.412345,-0.06490855,0.1335623,0.4136476,0.1571547,0.2556026,-0.6456506,0.5416499,0.2810409
1.381053,-0.1651127,0.02767952,0.3828107,0.05652976,0.1499478,-0.6658801,0.2721608,0.6072619
1.365873,-0.301499,-0.1465326,0.3680438,-0.08028814,-0.02411807,-0.3013802,0.06079055,0.5991849
1.311311,-0.4961378,-0.1941735,0.3138345,-0.2753663,-0.0716925,0.2173079,-0.07017243,0.4536476
1.071608,-0.6085129,-0.1771816,0.07441256,-0.3881775,-0.05470702,0.5977472,0.2187754,0.3496913
0.8995682,-0.6066712,-0.1941442,-0.09742445,-0.3867521,-0.07174043,0.7432488,0.6357543,0.1280922
0.799998,-0.3995959,-0.1917869,-0.1968643,-0.1800554,-0.06951035,0.3799438,0.6019659,-0.1824514
0.7353687,-0.1385321,-0.2357589,-0.2614241,0.08067865,-0.1136576,-0.3726057,0.3119323,-0.3105317
0.8202434,-0.08985106,-0.279312,-0.1765259,0.1290797,-0.1574249,-0.883288,-0.1273391,-0.2179993
0.8920586,-0.169028,-0.1912592,-0.1047193,0.0496665,-0.06961589,-0.7144352,-0.5481481,-0.12552
0.9487877,-0.3087484,-0.1008198,-0.04802152,-0.0902524,0.02055815,-0.3663188,-0.6160486,-0.09700052
0.9703631,-0.417824,-0.1089399,-0.02649378,-0.1994897,0.01215519,-0.2235877,-0.5670395,-0.1342362
0.8376859,-0.3880301,-0.1292728,-0.1592306,-0.1698164,-0.008476141,-0.04211113,-0.4843506,-0.2921541
0.7364301,-0.2846821,-0.109254,-0.2605515,-0.06654254,0.01123034,0.02541982,-0.332519,-0.4262833
0.7225641,-0.200052,-0.1113718,-0.2744773,0.01806245,0.008788017,0.04104629,-0.3856469,-0.4121441
0.8085873,-0.1223257,-0.1475294,-0.1884963,0.09581063,-0.02770473,0.1242712,-0.4544388,-0.3244173
0.9504703,-0.03327946,-0.1666788,-0.04662817,0.1849193,-0.04719756,0.03903691,-0.3169564,-0.227356
0.9689419,-0.04409295,-0.1695576,-0.02813939,0.174199,-0.05042483,0.0168045,-0.209379,-0.1524294
0.9718882,-0.05890465,-0.1314053,-0.02514347,0.1595002,-0.01262265,0.02631153,-0.1732565,-0.05431649
0.95725,-0.02209347,-0.07892439,-0.03970061,0.1964333,0.03950895,-0.09425083,-0.2004772,0.09748784
0.8891813,-0.05933279,-0.05494174,-0.107657,0.1593148,0.06314335,-0.124028,-0.270342,0.1956994
0.9109984,-0.08109007,-0.04061835,-0.08569555,0.1376684,0.07711802,-0.1470906,-0.2002434,0.2474272
0.9492247,-0.09654318,-0.04006621,-0.04729113,0.1223086,0.0773185,-0.1273857,-0.1190469,0.2832854
0.9763199,-0.1128583,-0.04142418,-0.01998362,0.1060636,0.07560323,-0.05725149,-0.1054548,0.2210083
1.013299,-0.08482947,-0.08829982,0.01724039,0.1341348,0.02836237,-0.06698025,-0.04290391,0.1335213
1.031085,-0.09998418,-0.14844,0.03530145,0.1189903,-0.0321517,-0.06099045,0.05861349,0.1227026
1.120347,-0.1241553,-0.1042092,0.1248637,0.09479326,0.0116978,-0.0827031,0.2519104,0.1194267
1.241894,-0.135129,-0.03920177,0.2467296,0.08375476,0.07631776,-0.005838522,0.347731,0.02957093
1.306892,-0.09396324,-0.03066418,0.3120517,0.1248148,0.08446117,0.08195388,0.2611435,-0.174571
1.338329,-0.01965472,-0.04942797,0.3438039,0.1989739,0.06529446,-0.1469371,0.1967144,-0.3690945
1.346474,-0.04197452,-0.1075244,0.3522385,0.1764568,0.006784637,-0.4533717,-0.007282729,-0.3942315
1.324412,-0.07705303,-0.2175942,0.3304242,0.1411281,-0.1037083,-0.6346044,-0.2599452,-0.3267397
1.208892,-0.1234056,-0.3676021,0.215095,0.09446879,-0.2541442,-0.7916449,-0.2747659,-0.2497596
1.001691,-0.2742992,-0.4276482,0.008019378,-0.05678833,-0.3146128,-0.9638303,-0.2025086,-0.1344865
0.8815823,-0.4237799,-0.331527,-0.1120318,-0.2066846,-0.2188947,-0.9455917,-0.1640886,-0.1214537
0.939363,-0.4911377,-0.245138,-0.05425504,-0.2744988,-0.1328767,-0.7002887,-0.1148739,-0.2028861
1.07963,-0.4821888,-0.2115263,0.08595332,-0.2660315,-0.09959598,-0.4524601,0.177818,-0.1702257
1.199335,-0.4213249,-0.1706257,0.2055483,-0.2056582,-0.05898196,-0.07641301,0.6449994,-0.02741612
1.236408,-0.2844048,-0.1663795,0.2424575,-0.06922433,-0.05497605,0.1316787,0.7006357,0.2667445
1.204217,-0.09903034,-0.1611026,0.2100418,0.1156756,-0.04989276,-0.02914015,0.4382522,0.6061932
1.062887,-0.05906849,-0.1451865,0.06842103,0.1551745,-0.0341238,-0.1195258,0.3356297,0.679466
0.7966424,-0.07334557,-0.1626954,-0.198181,0.1404408,-0.05173401,-0.3314942,0.3049478,0.6630535
0.7176149,-0.01943283,-0.1499051,-0.2776231,0.1938962,-0.03899994,-0.5850089,0.3040495,0.7144838
0.7642797,-0.09895434,-0.1218443,-0.2314147,0.1139099,-0.01095153,-0.6679711,0.3563928,0.6882511
0.6204569,-0.1801626,-0.09401934,-0.3757177,0.03222399,0.01690312,-0.8457688,0.3183281,0.6650961
0.6115653,-0.1736311,-0.03718634,-0.3850946,0.03826298,0.07380427,-0.8082117,0.2360575,0.6030598
0.7226791,-0.246337,-0.009031791,-0.2744514,-0.03494986,0.1020601,-0.675926,0.1320516,0.368537
0.7063735,-0.2866915,0.003041966,-0.2911954,-0.07582283,0.1142615,-0.6627206,0.09297231,0.1009467
0.7957127,-0.3358696,0.01790394,-0.2022492,-0.1255262,0.1292695,-0.4549198,0.1992463,-0.03797414
0.8311068,-0.3601584,0.03186749,-0.1671921,-0.1503399,0.1433896,-0.3011984,0.2437197,-0.05465883
0.7956376,-0.2694658,0.05883494,-0.2029353,-0.0601643,0.1705157,-0.2362164,0.2482083,-0.08247747
0.8826054,-0.2445221,0.03663952,-0.1161731,-0.03572372,0.1484727,-0.2095319,0.247345,-0.1434816
0.9207578,-0.1820943,-0.02116141,-0.0781545,0.02621785,0.09081014,-0.3577737,0.1726815,-0.1621041
1.018523,-0.1326571,-0.05734734,0.01954868,0.07518596,0.05474322,-0.4024786,0.1457438,-0.1294482
1.145881,-0.2193892,-0.05563818,0.1469128,-0.01199972,0.05654892,-0.3299711,0.1465527,-0.07335446
1.209,-0.2333384,-0.01336246,0.210096,-0.02638807,0.09889671,-0.2510683,0.2570726,-0.07205534
1.33376,-0.1466363,0.03464981,0.3349657,0.05988922,0.1469539,-0.2555228,0.5095869,-0.1145305
1.362468,0.0001627003,0.1107263,0.3638111,0.2062761,0.2230433,-0.4556749,0.6173081,-0.08087962
1.355805,0.0394561,0.1368672,0.3572931,0.2451636,0.2491581,-0.6775371,0.4519622,0.1715132
1.386919,-0.1529651,0.01696288,0.3885418,0.05233409,0.1291807,-0.688638,0.04147986,0.558034
1.34648,-0.3852171,-0.1181689,0.3482061,-0.1803335,-0.006076429,-0.1885706,-0.2994596,0.6220486
1.30065,-0.5640715,-0.2018234,0.3024337,-0.3596057,-0.08990759,0.5540901,-0.2010827,0.3687305
1.111215,-0.6552517,-0.2435044,0.1129961,-0.4511917,-0.1318107,0.8856866,0.1145595,0.2488433
0.8365374,-0.6091628,-0.2283652,-0.1617476,-0.4054768,-0.1169299,0.8306078,0.3682411,0.1973964
0.7615876,-0.4069999,-0.2278658,-0.2368226,-0.2036372,-0.1167158,0.4985672,0.5091904,-0.003700914
0.7984251,-0.1724271,-0.2555856,-0.2001562,0.03067477,-0.1447387,-0.06319395,0.1841624,-0.1952629
0.8262532,-0.1095207,-0.2595568,-0.1725307,0.09338425,-0.149022,-0.3206992,-0.5181781,-0.158185
0.848739,-0.1709146,-0.2307215,-0.1502666,0.03185194,-0.1204989,-0.01479377,-0.8610983,-0.03406639
0.8691144,-0.2758353,-0.1593114,-0.1301213,-0.07315458,-0.04939395,0.3028235,-0.8200046,-0.07377149
0.8836275,-0.4035614,-0.07878631,-0.1158385,-0.2009161,0.03083757,0.391416,-0.7311559,-0.1754236
0.8638006,-0.4412553,-0.09086843,-0.1358886,-0.2385919,0.01847433,0.4934548,-0.6463427,-0.3276326
0.7907205,-0.3441562,-0.1334012,-0.2091775,-0.1414152,-0.02432767,0.4682749,-0.5901897,-0.479724
0.6998998,-0.2365037,-0.1049839,-0.3001838,-0.03362134,0.00383197,0.3932638,-0.5326451,-0.4341352
0.7160059,-0.1422738,-0.1312938,-0.2842287,0.0608132,-0.02272357,0.3575939,-0.5575289,-0.3500808
0.8309026,-0.02761106,-0.1894626,-0.1694367,0.1757381,-0.08112533,0.1774174,-0.4812184,-0.2205898
0.9397272,-0.02556142,-0.1877132,-0.0606625,0.1780969,-0.07959382,0.1130113,-0.2699211,-0.0571309
0.996661,-0.06602692,-0.1890232,-0.003722308,0.1379751,-0.08110347,0.1555045,-0.2179575,-0.01066856
0.968974,-0.05919415,-0.1392164,-0.03134764,0.1451746,-0.03147498,0.1115793,-0.1873662,0.1034503
0.9414889,-0.0691326,-0.07349171,-0.05871871,0.1356157,0.03409411,0.04692375,-0.1926049,0.1873816
0.9475025,-0.05254264,-0.06127237,-0.05254054,0.1525888,0.04617955,-0.09474284,-0.2172054,0.1584621
0.9577652,-0.06771884,-0.05515784,-0.04206432,0.1377904,0.05217898,-0.1363332,-0.1508474,0.1400777
1.010286,-0.08767887,-0.07334532,0.01071675,0.1181952,0.03389181,-0.04839725,-0.1427048,0.06028879
1.033053,-0.06890299,-0.1014754,0.03378771,0.1373159,0.005674575,-0.04317169,-0.07591655,0.03048392
1.046361,-0.0914844,-0.1492068,0.04743873,0.1150533,-0.04213285,-0.03908044,0.09350835,0.0417668
1.149029,-0.1133836,-0.1555261,0.1504817,0.09344155,-0.048517,0.04233021,0.3297998,-0.047485
1.253704,-0.1371593,-0.05953247,0.2555549,0.06991822,0.0474238,0.2183685,0.439133,-0.2263448
1.285128,-0.1081996,-0.01529258,0.2873875,0.09909235,0.0916219,0.2927687,0.2115153,-0.4310617
1.275647,-0.05326821,-0.08563959,0.2783106,0.1541977,0.02124089,-0.008051475,0.0203234,-0.464998
1.317578,-0.1078002,-0.2358939,0.3206261,0.09979562,-0.1290417,-0.3852036,-0.00868519,-0.3814023
1.359628,-0.1702434,-0.373236,0.3630249,0.0374352,-0.2664036,-0.4836705,-0.008408967,-0.3621318
1.199567,-0.2412056,-0.3849653,0.2032614,-0.03349148,-0.2781354,-0.4954917,-0.01614955,-0.3625696
0.9802172,-0.3590053,-0.3182807,-0.01585033,-0.1512993,-0.2114245,-0.4825004,-0.1106027,-0.3753642
0.9717577,-0.4325416,-0.2517501,-0.02413434,-0.2248795,-0.1448288,-0.277581,-0.06430024,-0.4107921
1.074554,-0.4727036,-0.2365992,0.07877763,-0.2651091,-0.1295676,-0.0686151,0.2595709,-0.3954227
1.153854,-0.4291757,-0.2310011,0.1581369,-0.2216588,-0.1238099,0.09403522,0.706668,-0.174745
1.220716,-0.2734838,-0.2057377,0.2249983,-0.06604222,-0.09833545,0.2071697,0.8900265,0.2538893
1.198926,-0.118753,-0.1916937,0.2031435,0.08862217,-0.08402723,0.02531713,0.6070977,0.5447955
1.046893,-0.04623996,-0.1502113,0.05097703,0.1610773,-0.04222769,-0.2420385,0.3903813,0.5496786
0.8559755,-0.0857166,-0.1255145,-0.1401436,0.1215457,-0.01716229,-0.423892,0.3628569,0.5500242
0.7116121,-0.1412016,-0.1186571,-0.2847711,0.06600189,-0.00988774,-0.5876438,0.260645,0.6297249
0.667768,-0.1532076,-0.1003817,-0.3289253,0.05392889,0.008849356,-0.7002308,0.2755759,0.6350661
0.6793676,-0.201346,-0.10987,-0.3176629,0.005712908,-0.0001371081,-0.8417551,0.2982473,0.6170417
0.7029077,-0.2290293,-0.0860107,-0.2944678,-0.02205914,0.02425974,-0.84627,0.1826095,0.5647236
0.7564394,-0.2560703,-0.04724887,-0.241272,-0.04919861,0.06358976,-0.762038,0.08387735,0.3731003
0.7696665,-0.3546001,-0.02274375,-0.2283575,-0.1478334,0.08868766,-0.7299204,0.00577595,0.1535755
0.7657695,-0.3797325,0.02941292,-0.2325321,-0.1730714,0.1414543,-0.4857198,0.0167674,0.008286032
0.7921125,-0.3491964,0.06051469,-0.2064219,-0.1426338,0.1731743,-0.2099815,0.07486178,-0.05276161
0.802723,-0.3184845,0.06465862,-0.1959905,-0.1120056,0.1779346,-0.03197567,0.08265789,-0.08850497
0.8430514,-0.2215521,0.03838973,-0.1557807,-0.01513702,0.15227,0.1087691,0.1049134,-0.16993
0.9124828,-0.1517308,-0.02285855,-0.08640271,0.05464216,0.09160511,0.02161022,0.1096948,-0.2155046
0.9893039,-0.149576,-0.06171885,-0.009568654,0.05677471,0.05330093,-0.148763,0.1041903,-0.1897722
1.081368,-0.1603897,-0.05892249,0.08257296,0.04595497,0.05662247,-0.2635539,0.06329259,-0.1324307
1.215949,-0.1539265,0.006992786,0.2172878,0.05242433,0.1230293,-0.1851192,0.008614697,-0.08950165
1.432062,-0.124089,0.1092012,0.433578,0.08227662,0.2256914,0.05357278,0.1500912,-0.1434248
1.494241,-0.1094935,0.1591459,0.4959584,0.09689129,0.2760446,0.0564722,0.4554451,-0.1913876
1.351231,-0.1221498,0.1231525,0.35315,0.08425389,0.2404046,0.02308409,0.6005431,-0.04466013
1.307011,-0.180664,0.05304029,0.3091099,0.02575397,0.1705812,0.0777427,0.2733983,0.2540168
1.301393,-0.2574662,0.004999318,0.3036334,-0.05104063,0.1227577,0.1076996,-0.2459408,0.4896896
1.210873,-0.3864159,-0.06152404,0.2132016,-0.1799879,0.05637762,0.4454503,-0.4151204,0.507803
1.11798,-0.647984,-0.1684477,0.1203367,-0.4415512,-0.05047628,1.00421,-0.3810622,0.4157486
1.020455,-0.7864415,-0.241955,0.02277467,-0.5799854,-0.1239823,1.411467,-0.1473686,0.3320099
0.938155,-0.5675293,-0.2533673,-0.05962694,-0.3610099,-0.135453,1.451839,0.3941778,0.07830955
0.8246301,-0.2481648,-0.3153481,-0.1733116,-0.04152371,-0.1975406,0.9799354,0.603678,-0.2748356
0.7835489,-0.1074951,-0.3893533,-0.2146004,0.09933259,-0.2716883,0.3168961,0.3654051,-0.3837387
0.9114389,-0.1040601,-0.274211,-0.08695337,0.1030142,-0.1567102,0.0423219,0.04520803,-0.2950649
0.9587528,-0.1180183,-0.1293127,-0.03990723,0.08935326,-0.01198621,0.2363088,-0.4360788,-0.1781669
0.9878476,-0.1711927,-0.08506777,-0.01109858,0.03651796,0.03208032,0.4106359,-0.7756509,-0.117049
1.028505,-0.3244241,-0.02272783,0.02925741,-0.1163389,0.09423865,0.5303764,-0.7311342,-0.2126815
0.8986916,-0.3743526,-0.04659049,-0.1008694,-0.1658591,0.07018904,0.6973019,-0.6822053,-0.3522892
0.7901505,-0.2638469,-0.110389,-0.2097319,-0.05490926,0.006195697,0.63846,-0.6821794,-0.3659222
0.7580661,-0.2344159,-0.1069391,-0.242137,-0.02499689,0.009441915,0.6653916,-0.6656818,-0.2821139
0.7802042,-0.1813984,-0.1438089,-0.2203068,0.02853762,-0.02763996,0.8178695,-0.6963348,-0.1928445
0.8662995,-0.09870592,-0.1766738,-0.1344958,0.1117783,-0.06072322,0.7550197,-0.6160598,-0.1005897
0.9205633,-0.1128827,-0.1828477,-0.08048472,0.09817401,-0.06711881,0.7084451,-0.4819746,-0.06462616
0.9958342,-0.06741499,-0.1681732,-0.005430809,0.1442298,-0.05266541,0.614697,-0.4144434,-0.04591606
0.9950471,-0.04154055,-0.109185,-0.006398591,0.1706989,0.006105497,0.4544952,-0.38405,0.09829629
0.9390775,-0.03954696,-0.08086626,-0.06251359,0.1732836,0.03421227,0.4005255,-0.4501809,0.2061329
0.936758,-0.004950965,-0.05641092,-0.06494365,0.208457,0.05846023,0.3003913,-0.4848161,0.2442053
0.9107331,-0.04683089,-0.0413428,-0.09104327,0.1671304,0.07332352,0.2225159,-0.4114591,0.2977264
0.9542104,-0.05888139,-0.07989657,-0.04760363,0.1556003,0.03456486,0.1643948,-0.3121369,0.2669661
1.013566,-0.07044937,-0.1175976,0.01175174,0.1445119,-0.003342952,0.09346121,-0.1800225,0.2175087
1.039708,-0.0982442,-0.1689892,0.03792991,0.1171501,-0.05494339,0.04793939,-0.02398341,0.14923
1.123307,-0.0920599,-0.1973972,0.1215963,0.1237161,-0.08355994,-0.02569846,0.2161672,0.06947783
1.186328,-0.14302,-0.1183228,0.1847091,0.07308301,-0.00469069,0.08884554,0.3346852,-0.01007185
1.227116,-0.1594052,-0.03835144,0.2256048,0.0569683,0.07508096,0.1950694,0.1386087,-0.2463932
1.263529,-0.1437266,-0.08249222,0.2621285,0.07286036,0.03074496,-0.05923061,0.0182705,-0.4553765
1.372375,-0.1575257,-0.1656962,0.3710757,0.05921798,-0.05265116,-0.263975,0.06503069,-0.491312
1.471366,-0.1552353,-0.2342925,0.4701406,0.06160861,-0.1214356,-0.2111966,-0.02483047,-0.4756529
1.285949,-0.1693053,-0.3505401,0.284753,0.04758318,-0.2378623,-0.2982716,-0.17245,-0.3637595
0.9955804,-0.2080775,-0.4120307,-0.00564445,0.008801231,-0.2995139,-0.5200158,-0.1876239,-0.1967665
0.8371601,-0.3009281,-0.3601137,-0.164155,-0.08411052,-0.2477281,-0.4751904,-0.06596762,-0.1282021
0.8217149,-0.4121943,-0.2605,-0.1797446,-0.1954827,-0.1482042,-0.2362618,0.2004328,-0.1544202
0.9443458,-0.4544095,-0.1175884,-0.05730084,-0.2378386,-0.005334337,0.04461789,0.5053562,-0.1353601
1.068875,-0.3872996,-0.07650471,0.06700715,-0.170891,0.03575671,0.3370278,0.5689036,-0.000974372
1.163244,-0.2087537,-0.1565019,0.1611239,0.007482143,-0.044187,0.2764967,0.4543768,0.1978759
1.213813,-0.082654,-0.1718948,0.2114078,0.1334036,-0.05948318,0.01943412,0.3671955,0.3993521
1.117126,-0.06408033,-0.1620849,0.1143971,0.151792,-0.04953465,-0.1448355,0.1935172,0.4844052
0.9587256,-0.05738002,-0.1620671,-0.04436917,0.1582942,-0.049337,-0.3824979,0.104333,0.4706539
0.8471852,-0.0802339,-0.1167224,-0.1563151,0.1352233,-0.003772368,-0.4606774,0.1807981,0.4757526
0.7655473,-0.1585325,-0.07902949,-0.2383894,0.05668373,0.03417811,-0.4223922,0.1268148,0.4706189
0.7308963,-0.2518337,-0.07059658,-0.2734945,-0.03688466,0.04290225,-0.4567214,0.167588,0.4511985
0.7594413,-0.2952796,-0.06256762,-0.2454064,-0.08062197,0.0512511,-0.3648906,0.292588,0.3986628
0.7778313,-0.307931,-0.02852317,-0.2274616,-0.09358391,0.08563851,-0.2781694,0.1805125,0.2606747
0.7884394,-0.3219657,0.01558269,-0.2172743,-0.1079418,0.130104,-0.1587405,0.1132564,0.1108468
0.8293581,-0.3110512,0.02295926,-0.1767413,-0.09735625,0.1378494,0.01339274,0.1260437,0.05230543
0.8392872,-0.2909533,0.0177886,-0.1671539,-0.07758663,0.1330483,0.09102832,0.08053268,0.06869613
0.8474016,-0.2513452,0.02828406,-0.1593308,-0.03830104,0.1439062,0.2534251,0.07328548,0.05277268
0.8997609,-0.2102821,0.03181692,-0.1072067,0.00244874,0.1477865,0.3255104,0.05455734,-0.003194828
0.9637421,-0.2028927,0.01684403,-0.04340172,0.009535249,0.1331389,0.1760224,0.105029,-0.07493944
1.037138,-0.212886,0.005040623,0.02987708,-0.0007503911,0.1216323,0.02088111,0.1570259,-0.1122729
1.098931,-0.2497244,0.0142027,0.09160828,-0.0378705,0.131057,-0.05780941,0.04486832,-0.03723782
1.184036,-0.2659095,0.03962685,0.1766994,-0.05432554,0.1567048,0.01629696,-0.01250591,0.0001781142
1.307845,-0.191321,0.09243399,0.3005327,0.02000618,0.2096911,0.07204749,0.1714102,-0.08694055
1.358489,-0.06963292,0.1611397,0.3512228,0.1414504,0.2785244,-0.03720962,0.4777419,-0.1336932
1.314291,-0.0342293,0.1751561,0.307077,0.176619,0.2926079,-0.1741923,0.5870408,-0.03257253
1.255507,-0.1124641,0.08266994,0.248333,0.09815099,0.2001188,-0.3034737,0.3616585,0.1736112
1.213321,-0.2190401,-0.05908652,0.2061613,-0.008661961,0.05828288,-0.3149626,-0.008042584,0.3207232
1.164324,-0.3947265,-0.1490901,0.1571438,-0.1845899,-0.03187769,-0.04943145,-0.301507,0.3078365
1.096678,-0.6077665,-0.2106393,0.08943525,-0.3978694,-0.09365644,0.3494326,-0.3264151,0.2154779
1.023866,-0.6746218,-0.2697752,0.01651591,-0.4649471,-0.1530857,0.6294093,-0.1038986,0.1720285
0.9618674,-0.5699801,-0.2764176,-0.04563378,-0.3604914,-0.1600737,0.7552944,0.1672755,0.1672875
0.8866266,-0.3288755,-0.2854831,-0.1210657,-0.1195191,-0.1695244,0.671566,0.4181031,0.0531675
0.7880491,-0.08035851,-0.3017502,-0.219866,0.1289273,-0.1862041,0.2330784,0.4710583,-0.1478193
0.782983,-0.1008001,-0.2302654,-0.2251755,0.1084739,-0.1151473,-0.2925932,0.06277376,-0.2107006
0.8520781,-0.2357662,-0.1474245,-0.1563317,-0.02645313,-0.03274051,-0.3707922,-0.5518294,-0.09365098
0.8998002,-0.2539985,-0.1368622,-0.108858,-0.04460137,-0.02261246,0.009120311,-0.855933,-0.0373194
0.9875004,-0.3806904,-0.1199218,-0.02139622,-0.171166,-0.006103502,0.3096569,-0.8379429,-0.1160547
0.9731899,-0.4247184,-0.1009815,-0.03593145,-0.2150213,0.01240994,0.3319371,-0.7025565,-0.2084998
0.8256596,-0.2424689,-0.1242341,-0.1836701,-0.03254934,-0.01126414,0.3266486,-0.504568,-0.3165704
0.7853371,-0.2062168,-0.1130096,-0.2241794,0.003976614,-0.0004548318,0.3859046,-0.3749595,-0.3620386
0.8072966,-0.1627513,-0.09559653,-0.2023769,0.04776442,0.01655,0.4316046,-0.3122738,-0.3326422
0.870454,-0.07467516,-0.1381939,-0.1393378,0.1362053,-0.0264481,0.3267593,-0.2279108,-0.347829
0.9956261,-0.05683949,-0.1801582,-0.01423989,0.1544394,-0.06880445,0.117849,-0.2173826,-0.2961584
1.037077,0.03982126,-0.2063983,0.02718188,0.2515213,-0.09542518,-0.03106785,-0.2381167,-0.1600171
0.9934719,-0.008188847,-0.159055,-0.01640896,0.2039421,-0.04844705,-0.1600829,-0.2811542,-0.05577196
0.917009,-0.06393147,-0.05867483,-0.09281768,0.1486276,0.051586,-0.1984527,-0.4363247,0.03657525
0.8980675,-0.03871741,-0.04968762,-0.1116652,0.1742564,0.06024405,-0.1497664,-0.4946168,0.1045204
0.9385758,-0.1338541,-0.05990907,-0.07102184,0.07951281,0.04970881,-0.1163282,-0.3941996,0.1596291
0.9707443,-0.1006202,-0.05793664,-0.03867617,0.1131121,0.05137977,-0.008189292,-0.2748841,0.2183482
1.039873,-0.08303158,-0.09753511,0.03067147,0.1310336,0.01148965,0.09538181,-0.1637818,0.2262007
1.054297,-0.13607,-0.1321303,0.04535201,0.07829132,-0.02338871,0.1364014,-0.1236834,0.1911156
1.034437,-0.09615474,-0.1819667,0.02578117,0.1184624,-0.07349918,0.1830281,-0.005642435,0.1376507
1.08294,-0.1489268,-0.1918191,0.07460153,0.06590284,-0.08361414,0.2287353,0.263764,0.05142078
1.146357,-0.1589904,-0.1057002,0.1383583,0.0560067,0.00225676,0.2939726,0.3829707,-0.1233499
1.211455,-0.1178645,-0.03924615,0.2038098,0.09725388,0.06847852,0.2924804,0.3045293,-0.3438369
1.240526,-0.1308156,-0.07486378,0.233237,0.0843771,0.03264286,0.1141875,0.1596479,-0.4293986
1.301668,-0.1306518,-0.1650059,0.2947262,0.08456705,-0.0577051,-0.1544729,-0.01441308,-0.3858575
1.375538,-0.1717726,-0.2414248,0.3689198,0.0434235,-0.134317,-0.3041466,-0.1220192,-0.3233695
1.270647,-0.1775743,-0.3208296,0.2643131,0.03755037,-0.2138976,-0.3933145,-0.2325569,-0.2315069
1.09738,-0.231171,-0.3652339,0.0912797,-0.01616463,-0.2584524,-0.5263856,-0.3504745,-0.1782281
1.022048,-0.4003326,-0.3274246,0.01612342,-0.1854872,-0.2207584,-0.4536627,-0.22511,-0.2226934
1.048963,-0.4837097,-0.2524128,0.04315662,-0.2690589,-0.1458173,-0.1831658,0.1261946,-0.2330575
1.125989,-0.4361401,-0.1632338,0.120243,-0.2217043,-0.0566581,0.1688589,0.5184795,-0.1336591
1.150395,-0.3133916,-0.1346457,0.1446534,-0.09917794,-0.02803729,0.4457308,0.6918621,0.05178069
1.102179,-0.1744306,-0.1582837,0.09638215,0.03956287,-0.05159095,0.3317207,0.4669263,0.3146305
1.00113,-0.055682,-0.1628418,-0.00478058,0.158095,-0.05601481,0.08728261,0.2423957,0.5143219
0.8889358,-0.04042058,-0.1813781,-0.1171468,0.1731399,-0.0743682,-0.1907539,0.1521539,0.5460824
0.8016926,-0.1146635,-0.144995,-0.2046112,0.09867363,-0.03775452,-0.511557,0.02346275,0.5230293
0.7331957,-0.164175,-0.07426086,-0.2733664,0.04892642,0.03325622,-0.5272482,0.03949851,0.5075675
0.7296016,-0.2546623,-0.09093404,-0.2772409,-0.04181106,0.0169019,-0.513896,0.09225392,0.4920538
0.7711343,-0.3003679,-0.1057726,-0.2359946,-0.08777985,0.002419843,-0.5283812,0.1276017,0.4769059
0.7985295,-0.2741051,-0.08476586,-0.2088778,-0.06178897,0.02381621,-0.4170675,0.1756312,0.4172971
0.819309,-0.3126799,-0.06943413,-0.1883567,-0.1006392,0.03956641,-0.4197915,0.05148843,0.3005461
0.8288498,-0.3187543,-0.01856314,-0.1790448,-0.106987,0.09087962,-0.3028879,-0.03346313,0.1715934
0.8369598,-0.2991661,0.01478375,-0.1711261,-0.08766484,0.1246861,-0.09675206,-0.04006642,0.07517984
0.8431323,-0.2790138,0.003805092,-0.1651005,-0.06776603,0.1141766,-0.0718238,-0.03602718,0.002701797
0.8549175,-0.216634,0.01072854,-0.1534119,-0.005623752,0.1215709,-0.0818904,0.02836178,-0.02506469
0.899421,-0.2065838,0.01074728,-0.1089501,0.004206523,0.1220547,-0.1179364,0.02085399,-0.0106641
0.9750992,-0.2335187,-0.01936258,-0.03325626,-0.02293091,0.09239701,-0.1746319,0.1069504,-0.05601678
1.072347,-0.2550306,-0.04248015,0.06406387,-0.04462794,0.06971316,-0.2341809,0.2427664,-0.1483049
1.100612,-0.2575927,-0.03491087,0.09245239,-0.047357,0.07769342,-0.2397104,0.2423436,-0.2335288
1.120114,-0.2075425,-0.002501172,0.1121222,0.00254565,0.1104877,-0.1397562,0.2404761,-0.2875393
1.250132,-0.1220203,0.02469182,0.2423425,0.08793902,0.1380348,-0.1114266,0.2964175,-0.2589338
1.301701,-0.06610961,0.03358647,0.2941357,0.1437365,0.147248,-0.1987633,0.5056594,-0.1308
1.316327,-0.1409655,0.02361299,0.3089926,0.06877702,0.1375521,-0.2534257,0.6453343,0.1472897
1.434809,-0.2820647,0.004523789,0.4276952,-0.07242055,0.1186946,-0.01921985,0.346418,0.4193181
1.405035,-0.3651257,-0.03824652,0.3981129,-0.1555749,0.07610643,0.3905938,-0.1318543,0.4412998
1.250404,-0.4352735,-0.1723646,0.243627,-0.2258055,-0.05788032,0.6237084,-0.2610949,0.3755238
1.139166,-0.5802119,-0.3115739,0.1324733,-0.3708067,-0.1970056,0.8965678,0.1028738,0.3478076
0.9985708,-0.6768303,-0.287362,-0.008102496,-0.4674534,-0.1727481,1.150426,0.6344182,0.141169
0.8757412,-0.4603763,-0.2350542,-0.130977,-0.2509764,-0.1204224,0.7976558,0.8740629,-0.2549075
0.7753963,-0.1246914,-0.2973878,-0.2314228,0.08479482,-0.1827556,0.01108506,0.507915,-0.5070637
0.7447676,-0.03749704,-0.2886261,-0.2621952,0.172139,-0.1740015,-0.4223326,-0.1223402,-0.4449823
0.8575271,-0.1023009,-0.1766723,-0.1496074,0.1075395,-0.06205472,-0.2953895,-0.5270828,-0.2155039
0.9472536,-0.1988521,-0.09525405,-0.06006818,0.01123658,0.01936271,-0.08173008,-0.8256553,-0.03203246
0.9776625,-0.3152127,-0.0607686,-0.02985464,-0.1048384,0.05385465,-0.006857302,-0.8590481,-0.09981742
0.9524964,-0.3670942,-0.1033863,-0.05521996,-0.1563983,0.01124917,0.1079278,-0.6360679,-0.310299
0.8482122,-0.3351284,-0.1264106,-0.1597034,-0.1240727,-0.01175908,0.1903782,-0.6282086,-0.4045842
0.7504523,-0.2705425,-0.1103929,-0.2576559,-0.05908603,0.00427806,0.2198046,-0.6814816,-0.4446467
0.7098445,-0.2175326,-0.1612517,-0.2984393,-0.005633742,-0.04655806,0.3565854,-0.6767215,-0.3867264
0.8201805,-0.1618133,-0.196742,-0.1882496,0.05056682,-0.08202115,0.3799538,-0.6041923,-0.2745232
0.9665588,-0.1463582,-0.2273389,-0.04197881,0.06653722,-0.1125837,0.3235654,-0.3211666,-0.2990536
0.9906131,-0.1375065,-0.2194512,-0.01798907,0.07593149,-0.1046502,0.3927552,-0.1170045,-0.2593903
0.9791902,-0.07400151,-0.1276329,-0.02943408,0.139999,-0.01277094,0.3451775,-0.1157129,-0.1448801
0.9281109,-0.04818578,-0.08931905,-0.0804944,0.1663884,0.02562072,0.2107811,-0.2270879,-0.04111092
0.8930019,-0.01939612,-0.07745344,-0.1155432,0.1957529,0.03757966,0.04980674,-0.3371241,0.09058054
0.9295998,-0.003727326,-0.08286878,-0.07884267,0.2119867,0.03227046,-0.1248408,-0.3095909,0.1298629
0.9733741,-0.04933011,-0.09559455,-0.0349222,0.1669283,0.01966078,-0.1101619,-0.2680034,0.1984691
1.021123,-0.07550395,-0.09300245,0.01301625,0.1412687,0.02237647,-0.05974982,-0.2125382,0.2756382
1.035553,-0.1334713,-0.144425,0.02767453,0.08377827,-0.02891666,-0.002082508,-0.134393,0.2383628
1.070999,-0.1747954,-0.1514836,0.06338604,0.04288954,-0.03584068,0.08433917,0.00825103,0.202562
1.163674,-0.1632688,-0.1040352,0.1563547,0.05480807,0.01174786,0.1408046,0.2751857,0.0656609
1.216758,-0.1498106,-0.04699395,0.2097535,0.06861397,0.06893429,0.3098441,0.3525422,-0.1698637
1.211364,-0.07743821,-0.01420491,0.2046835,0.1412885,0.1018707,0.334183,0.2166259,-0.3639426
1.208094,-0.02796057,-0.09920905,0.2017347,0.1910195,0.01701201,0.02332521,0.09581563,-0.4346797
1.267946,-0.06287556,-0.2080031,0.2618946,0.1563041,-0.09164085,-0.3272768,0.02819894,-0.3376314
1.303389,-0.1437291,-0.3053562,0.2976185,0.07559166,-0.1888551,-0.4255628,0.04145523,-0.2892466
1.199671,-0.2584675,-0.3679349,0.1941445,-0.03906581,-0.2512904,-0.3141501,0.02780115,-0.3289661
0.9970866,-0.3555283,-0.3382557,-0.008244595,-0.1361025,-0.2214538,-0.3036995,-0.03190249,-0.3072805
0.8686124,-0.4289145,-0.3157888,-0.1365721,-0.2095132,-0.1988049,-0.3020275,0.04496091,-0.2728537
0.9529956,-0.4537116,-0.2661174,-0.05208638,-0.2343712,-0.1489187,-0.1446087,0.3082613,-0.2417128
1.101092,-0.3712792,-0.170219,0.0960748,-0.1520228,-0.05276718,0.09411696,0.6303884,-0.1242122
1.191293,-0.2254473,-0.1515308,0.1863032,-0.006287412,-0.03378553,0.3072368,0.7493509,0.1220888
1.219015,-0.1222515,-0.1755585,0.2140129,0.09680454,-0.05748019,0.1787026,0.5586686,0.3749611
1.103369,-0.08419971,-0.1568103,0.0983067,0.1347444,-0.03836081,-0.09726807,0.3711506,0.4850341
0.9461671,-0.0820799,-0.141746,-0.05900401,0.1367397,-0.02288876,-0.2261502,0.3462576,0.5261939
0.8274101,-0.1096781,-0.1321052,-0.1779172,0.1089991,-0.01280567,-0.4414165,0.3040482,0.5932939
0.7145961,-0.1320174,-0.08382648,-0.2909248,0.08649505,0.03594668,-0.5711939,0.2374914,0.6173854
0.7049338,-0.1746683,-0.08464544,-0.3008034,0.04365414,0.03562872,-0.6261801,0.1746825,0.6086669
0.7745229,-0.24582,-0.1236688,-0.2314368,-0.02771347,-0.002870901,-0.8100384,0.1592382,0.6207629
0.823883,-0.2975066,-0.1138418,-0.1822913,-0.0796399,0.007498468,-0.7795889,0.1903931,0.5272503
0.8326537,-0.3641383,-0.07249816,-0.173716,-0.1465301,0.04939969,-0.6179301,0.1227095,0.2952955
0.8061105,-0.4223094,0.00279697,-0.2004266,-0.2049704,0.1252631,-0.4896444,0.09881599,0.07171787
0.8047372,-0.4117879,0.03945266,-0.2019312,-0.1947187,0.162491,-0.2579545,0.188306,-0.07174208
0.7983322,-0.3468963,0.02565121,-0.2084234,-0.1300873,0.1492569,-0.08159862,0.2601637,-0.1570802
0.7778368,-0.270786,0.03807227,-0.2289541,-0.05421956,0.1622314,0.03128278,0.2681947,-0.2384191
0.8133025,-0.2124072,0.02189386,-0.1934646,0.003938396,0.1465841,0.04567938,0.1573233,-0.3012733
0.8859502,-0.1775034,-0.008535395,-0.1207279,0.0386438,0.1166559,-0.09167098,0.05375456,-0.3034101
0.9865864,-0.1978006,-0.01702925,-0.01993474,0.01816891,0.1086271,-0.1827689,0.01708464,-0.2648622
1.074029,-0.2313875,-0.02525329,0.06773111,-0.01557697,0.1008275,-0.2166948,-0.01309605,-0.227353
1.136127,-0.2143153,-0.00364645,0.1301114,0.001353685,0.1228144,-0.1263003,-0.03167952,-0.2287601
1.252949,-0.1592696,0.06580949,0.2472653,0.05627415,0.1926019,0.0007038403,0.02314897,-0.2212817
1.389019,-0.07537965,0.203165,0.3837014,0.1400525,0.3302341,-0.03484621,0.3470762,-0.188463
1.42762,-0.04201281,0.2915734,0.4226835,0.1733157,0.4188541,-0.03024976,0.660704,-0.1551513
1.365861,-0.09257797,0.1999923,0.3612998,0.1226474,0.3274057,-0.0116257,0.4847258,-0.01676043
1.351248,-0.1649281,0.03058439,0.3470355,0.05018793,0.1580394,-0.03461481,0.03149892,0.2255202
1.356379,-0.2814399,-0.1347179,0.3524703,-0.06644274,-0.007318008,0.1460366,-0.3336774,0.3814723
1.26154,-0.4257772,-0.2307379,0.2578746,-0.2109066,-0.1034869,0.4909766,-0.4224737,0.3852115
1.151742,-0.5505331,-0.2326839,0.1482494,-0.3357885,-0.1056666,0.7971842,-0.04993707,0.3281629
1.002952,-0.5841293,-0.2432922,-0.0004444101,-0.3694966,-0.1165819,0.8438699,0.4875768,0.1203008
0.8265371,-0.4014842,-0.237155,-0.1768373,-0.1869336,-0.1108129,0.4730965,0.6467924,-0.2970158
0.7534708,-0.1595019,-0.2414692,-0.2499471,0.05500687,-0.1155453,-0.08932087,0.3795716,-0.5259141
0.7631376,-0.074809,-0.2735268,-0.2403741,0.1396995,-0.1480604,-0.3672524,-0.1037372,-0.427289
0.8589678,-0.1035858,-0.2019461,-0.1446729,0.1109578,-0.07696589,-0.224656,-0.5554532,-0.2552712
0.9772066,-0.2118369,-0.1298289,-0.02658592,0.002769057,-0.00535516,-0.03235839,-0.7433658,-0.05300832
1.003757,-0.342175,-0.12221,-0.0002037262,-0.1274837,0.001742523,0.1392151,-0.6492653,-0.04053123
0.9272252,-0.3918489,-0.1007929,-0.0769151,-0.1770483,0.02262646,0.393594,-0.4953694,-0.2387962
0.809709,-0.3497953,-0.09821712,-0.1946195,-0.1348569,0.02465894,0.4789304,-0.4875831,-0.3238163
0.7764574,-0.2596802,-0.09930807,-0.2280595,-0.04457068,0.02301568,0.4655594,-0.4729275,-0.3847628
0.8093478,-0.1418618,-0.1301146,-0.1953472,0.07345341,-0.008351064,0.4418777,-0.4567481,-0.3654087
0.8808047,-0.01825054,-0.1758848,-0.1240482,0.1973008,-0.0546873,0.3078809,-0.4468365,-0.2156922
0.977979,-0.008481682,-0.1617472,-0.02700475,0.2073272,-0.04111817,0.3049972,-0.3170474,-0.1439487
0.9929823,-0.04473095,-0.1355156,-0.01210259,0.1713452,-0.01545395,0.3039474,-0.3286678,-0.03866604
0.9593817,-0.02619995,-0.1128248,-0.04577469,0.1901419,0.006673511,0.1445619,-0.3720253,0.01487877
0.944077,-0.06977005,-0.09470108,-0.06112155,0.1468259,0.02423961,0.1164357,-0.3399761,0.01807347
0.9332911,-0.1205117,-0.06616024,-0.07191958,0.09631887,0.05222868,0.1773356,-0.3906562,0.1185438
0.9179868,-0.1235207,-0.02489498,-0.08720471,0.09351917,0.09294702,0.2422,-0.373318,0.1273824
0.9233394,-0.1038715,-0.02620269,-0.08180005,0.1133482,0.09109483,0.2774697,-0.4049662,0.1714054
0.9639925,-0.06295506,-0.0480252,-0.04106046,0.1544111,0.06872725,0.2461959,-0.4416318,0.2707009
1.013529,-0.07930064,-0.08875703,0.008596945,0.138174,0.02744744,0.2887963,-0.3524971,0.2657772
1.0881,-0.08529991,-0.1589238,0.08332193,0.1322403,-0.04327072,0.3102009,-0.2051005,0.2881756
1.156388,-0.06829108,-0.20019,0.1517901,0.1492676,-0.08508945,0.278937,0.1463227,0.283941
1.186153,-0.07907892,-0.1525755,0.181754,0.1384472,-0.03802462,0.247978,0.3979895,0.1984162
1.212132,-0.0488492,-0.04356774,0.2079409,0.1685898,0.07043993,0.1443191,0.2466865,-0.01935134
1.255134,-0.03737849,-0.007526475,0.2511487,0.1799148,0.1059447,-0.01522191,0.008801728,-0.3246116
1.342972,-0.1004459,-0.08946671,0.3391763,0.1166394,0.02347231,-0.272497,-0.1181165,-0.4236713
1.401048,-0.1807355,-0.2197671,0.3974119,0.03607757,-0.107357,-0.4890477,-0.2093973,-0.3703095
1.285999,-0.2087124,-0.3360009,0.282477,0.007765425,-0.2241128,-0.4854556,-0.2192348,-0.2653137
1.054998,-0.2207945,-0.3952231,0.05153099,-0.004711023,-0.2838413,-0.438832,-0.1330124,-0.09392211
0.9398604,-0.3379884,-0.3700323,-0.06361502,-0.1223524,-0.2591284,-0.4390479,-0.07107797,-0.04744947
0.9715905,-0.4692058,-0.2902361,-0.03195306,-0.2540614,-0.1797695,-0.3280077,0.1182046,-0.09337699
1.059297,-0.467747,-0.21881,0.05563055,-0.2531249,-0.1087307,-0.06358231,0.5414203,-0.05591237
1.172574,-0.3392584,-0.1478531,0.1687344,-0.125174,-0.03810623,0.1665364,0.8809115,0.01954396
1.147449,-0.1644689,-0.1421905,0.143384,0.04907356,-0.03272008,0.2054667,0.7258667,0.191394
1.040865,-0.07374674,-0.195311,0.03652034,0.1392534,-0.08606173,0.06627778,0.3065596,0.4618592
0.9948138,-0.08827199,-0.1679876,-0.009864954,0.1241835,-0.05890464,-0.135948,0.191709,0.5662389
0.8907174,-0.1292163,-0.1508271,-0.1143451,0.0826879,-0.04185578,-0.2805804,0.1628194,0.5221742
0.8025061,-0.1876585,-0.134472,-0.202982,0.02368452,-0.02555879,-0.3203126,0.2304705,0.4707149
0.7491231,-0.2651817,-0.06067735,-0.2568202,-0.0544097,0.04822903,-0.2820435,0.5269028,0.3832902
0.6866603,-0.2936198,-0.05480826,-0.3197528,-0.08342604,0.05413833,-0.2446933,0.5781512,0.3245454
0.7117423,-0.2708119,-0.03540745,-0.2951385,-0.06119847,0.07362054,-0.1904933,0.5217426,0.2747308
0.7160367,-0.275135,-0.006688841,-0.2912931,-0.06609878,0.1024551,-0.1634642,0.4002519,0.1769721
0.7131567,-0.2846435,-0.02782235,-0.2945882,-0.07617636,0.08146503,-0.2191593,0.1740522,0.1113592
0.7632433,-0.2850139,-0.01463774,-0.2448694,-0.07710319,0.09481346,-0.1997085,0.1256686,0.1023
0.8009705,-0.3294516,-0.01626698,-0.2074513,-0.1220799,0.09336184,-0.1142825,0.08618617,0.1028033
0.8645451,-0.3716647,-0.01428429,-0.144119,-0.1648089,0.09552969,0.0139183,0.1744495,0.08548297
0.8735586,-0.3374977,0.008558963,-0.1352761,-0.1311281,0.1185595,0.1506244,0.3431635,0.05339515
0.8905847,-0.2294669,0.04327394,-0.1183459,-0.0235479,0.1534562,0.08368797,0.3255437,-0.04929931
1.016539,-0.1239363,0.1116902,0.007587402,0.08156975,0.2220418,-0.08459862,0.2647684,-0.2238695
1.057413,-0.116117,0.1092148,0.04851396,0.08901147,0.2197143,-0.2008949,0.1350766,-0.3082054
1.077347,-0.1624662,0.0821593,0.0685663,0.04231486,0.1927758,-0.2070049,0.01913118,-0.2543264
1.20198,-0.1559815,0.09337698,0.1933745,0.04847799,0.2040706,-0.1451834,-0.07171842,-0.2101846
1.278541,-0.1470874,0.09181143,0.2701573,0.0570724,0.2025346,-0.2256031,-0.0722528,-0.1865685
1.359947,-0.1759429,0.1548237,0.3518156,0.02793602,0.2655215,-0.2487881,0.3291648,-0.04269994
1.488955,-0.1898163,0.2224596,0.4810869,0.01379776,0.3330685,-0.1095463,0.6731779,0.1439951
1.422844,-0.2451458,0.1367912,0.415227,-0.04178176,0.2472381,0.009969188,0.2783919,0.2744125
1.249105,-0.3574302,0.01390671,0.2417081,-0.1543006,0.1241105,0.2198939,-0.3341395,0.3514563
1.194685,-0.4724677,-0.07008899,0.1874606,-0.2695518,0.03978765,0.4921462,-0.3382438,0.247913
1.097056,-0.5808408,-0.2026634,0.08994736,-0.3781079,-0.09319521,0.6943344,-0.1362737,0.04947789
0.9922465,-0.5782964,-0.2361476,-0.01480461,-0.3757017,-0.1271611,0.8087673,0.04089647,-0.1314878
0.958927,-0.3976426,-0.1862569,-0.04812432,-0.1951265,-0.07781423,0.7347746,0.4506304,-0.3811701
0.8286696,-0.1577061,-0.2644905,-0.1784334,0.04480008,-0.1566421,0.3402965,0.4621085,-0.4664977
0.7867856,-0.04462513,-0.2735027,-0.2204106,0.1579392,-0.1662873,-0.234304,-0.1644735,-0.2949808
0.8576892,-0.1003812,-0.1841245,-0.1496296,0.1023009,-0.07756914,-0.4064376,-0.8436529,-0.1365076
0.8731144,-0.2162276,-0.1528924,-0.1343446,-0.01337804,-0.04701423,-0.09559199,-1.036923,-0.02805287
0.9453038,-0.3752126,-0.1070744,-0.06230417,-0.1721515,-0.001883957,0.1474963,-0.8208446,-0.05335822
0.9291343,-0.4863803,-0.1344102,-0.07862503,-0.2830628,-0.02991374,0.2844334,-0.7019063,-0.252217
0.8304342,-0.4355175,-0.1648514,-0.1774734,-0.231892,-0.06105159,0.4911504,-0.4767686,-0.3835105
0.8198069,-0.3662674,-0.1316117,-0.1882395,-0.162275,-0.02850711,0.5826065,-0.3361013,-0.3939001
0.7768949,-0.3065819,-0.1717413,-0.2312717,-0.1021588,-0.06932627,0.5390065,-0.5073304,-0.2865393
0.8260906,-0.1717873,-0.1748286,-0.1821684,0.03313083,-0.07309331,0.5064946,-0.3793271,-0.1496298
0.9618691,-0.05166609,-0.1712962,-0.04644657,0.1538069,-0.07022623,0.4484798,-0.2506593,-0.12582
0.9802749,-0.03219172,-0.1758787,-0.02805817,0.1738859,-0.07545521,0.395469,-0.2792301,-0.06564894
0.9688486,-0.07518176,-0.10863,-0.03946253,0.1315376,-0.008830337,0.327015,-0.2198289,0.02644841
0.9391187,-0.04880165,-0.08587544,-0.06913189,0.1585843,0.01332512,0.1799707,-0.3682121,0.08761929
0.907316,-0.01473723,-0.04712942,-0.1008357,0.1933284,0.05149659,0.1360053,-0.4686608,0.1756329
0.9242425,-0.06883525,-0.006199548,-0.08377078,0.1399118,0.09187454,0.1432002,-0.4508802,0.1830161
0.9434055,-0.07563902,-0.02243667,-0.06442862,0.1337809,0.0751046,0.1045676,-0.3951874,0.1064532
0.9932857,-0.08027619,-0.01599541,-0.01432852,0.1297994,0.08102816,0.1660419,-0.1944052,0.03108465
1.043522,-0.09872047,-0.05273205,0.03616676,0.1119864,0.04378535,0.2290716,-0.1208337,0.02973926
1.097269,-0.07857015,-0.1032262,0.09020755,0.1327372,-0.00720576,0.2147706,0.05917475,0.09663133
1.190531,-0.1294919,-0.1048166,0.1837916,0.08237958,-0.009284323,0.2285898,0.3813471,0.09769253
1.250787,-0.1515315,-0.07355655,0.2443884,0.06086357,0.02149685,0.2629422,0.4072177,0.0004667358
1.254804,-0.09855053,-0.005994438,0.2487512,0.1143249,0.08858931,0.2448468,0.2458437,-0.2155837
1.259287,-0.06252165,0.009549237,0.2535713,0.1507877,0.1036704,0.08669626,0.1130479,-0.4215843
1.329515,-0.06095496,-0.0774527,0.3241143,0.1527375,0.01620983,-0.1984804,0.07401083,-0.4492067
1.368574,-0.1225136,-0.226101,0.3634512,0.09150662,-0.1328943,-0.4512721,0.03954062,-0.4233873
1.252112,-0.1916978,-0.3380103,0.2472174,0.02259229,-0.2452524,-0.6444861,-0.05949981,-0.4023522
1.054083,-0.2886242,-0.3509624,0.04935287,-0.07412159,-0.2586367,-0.7743617,-0.1279508,-0.3582442
0.8716532,-0.3966992,-0.2895921,-0.1329767,-0.1820362,-0.1976701,-0.5896781,-0.04385473,-0.3472559
0.8329346,-0.4229286,-0.1965976,-0.1716553,-0.2081479,-0.1050406,-0.2238677,0.2855387,-0.3400044
0.9901005,-0.383545,-0.1688556,-0.01449926,-0.1686772,-0.07761887,-0.07223448,0.6579945,-0.213454
1.157098,-0.2597755,-0.1616981,0.1524456,-0.04484062,-0.07073387,-0.003514974,0.7942977,0.07483081
1.179703,-0.1211175,-0.1188308,0.1749561,0.09387062,-0.0280903,-0.02195075,0.5191134,0.3476778
1.107306,-0.05894484,-0.1403865,0.1024179,0.1560826,-0.04982114,-0.2749885,0.1304072,0.4315594
1.024023,-0.06720342,-0.1601451,0.01894539,0.147845,-0.06970698,-0.5592933,0.1103989,0.4129692
0.9032631,-0.1021303,-0.1255905,-0.1020506,0.1129147,-0.03523217,-0.7602984,0.165344,0.4381905
0.793581,-0.127497,-0.1092247,-0.2120102,0.08751527,-0.01889939,-0.8135499,0.1327537,0.4789545
0.7784051,-0.1947828,-0.09092304,-0.2274933,0.02016478,-0.0005857457,-0.7855928,0.1780567,0.4999992
0.7802712,-0.2481405,-0.07454779,-0.2259507,-0.03328966,0.01584362,-0.7526154,0.1772107,0.5125722
0.7774233,-0.2726963,-0.06892807,-0.2291245,-0.05797158,0.02155609,-0.6335144,0.17254,0.4507352
0.7866012,-0.3111788,-0.06114478,-0.2202622,-0.0966049,0.0294668,-0.5161551,0.1585592,0.3245211
0.7774149,-0.3069027,-0.04660599,-0.229742,-0.09249834,0.04416342,-0.3758785,0.1082408,0.1977569
0.7834674,-0.3137807,0.006203015,-0.2239502,-0.09955797,0.09715586,-0.2099147,0.0717194,0.1090027
0.8113903,-0.3138159,0.05102044,-0.1962452,-0.09978061,0.1421761,-0.03205615,-0.0003724503,0.04916406
0.8517502,-0.2851641,0.05026467,-0.1560524,-0.07131629,0.1416347,0.225581,-0.0617355,-0.03958091
0.891341,-0.2644975,0.04585806,-0.1165723,-0.05083227,0.1374457,0.3142157,-0.09689993,-0.05345559
0.9193751,-0.1857859,0.03640607,-0.08858879,0.02770458,0.1282065,0.2633115,0.007544872,0.01200109
0.9782321,-0.1270112,0.01321669,-0.0297216,0.08631254,0.1052181,0.2614005,0.2079432,0.02575761
1.035177,-0.1288633,0.001903846,0.02729267,0.08429924,0.09408869,0.1326766,0.208983,0.01607123
1.076522,-0.1326857,0.03173232,0.06876222,0.08031727,0.1240784,-0.07523514,0.06098518,-0.08963073
1.146849,-0.1438911,0.08552091,0.1392619,0.06894993,0.1780012,-0.171398,-0.03563295,-0.2825523
1.21374,-0.1315635,0.09875152,0.2063636,0.08110992,0.1913329,-0.1629514,0.09995215,-0.3282966
1.323841,-0.119647,0.07294606,0.316702,0.09285003,0.1655884,-0.106803,0.4244287,-0.1785475
1.448734,-0.125752,0.01316334,0.4418413,0.08655668,0.1058206,-0.05993552,0.5201588,0.08192881
1.372402,-0.1735384,-0.09755973,0.3657458,0.03856698,-0.004936826,-0.07816379,0.1433825,0.3693172
1.232661,-0.3134602,-0.1635095,0.2262126,-0.1015738,-0.07096896,-0.05377006,-0.3964897,0.5432901
1.230762,-0.5634805,-0.1668898,0.2244768,-0.351824,-0.07447488,0.299427,-0.4917689,0.5125225
1.131823,-0.8306568,-0.2245553,0.1256493,-0.6192273,-0.1323018,0.9038603,-0.2314883,0.3575888
0.9978207,-0.7558325,-0.2802273,-0.008299009,-0.5446035,-0.1881625,1.161131,0.08973102,0.1208146
0.9555591,-0.4281584,-0.2818698,-0.05056317,-0.2170788,-0.1900105,0.7594329,0.6053938,-0.2126364
0.78787,-0.2790306,-0.3204128,-0.2183057,-0.0680333,-0.2287644,0.1716394,0.6637773,-0.4428292
0.7473066,-0.1889608,-0.2958035,-0.2589625,0.02202548,-0.2043597,-0.170862,-0.01706303,-0.4581512
0.8673647,-0.1532349,-0.1742235,-0.1390242,0.0578084,-0.08296788,-0.2533458,-0.5667823,-0.3168373
0.8405756,-0.2571629,-0.1240744,-0.165947,-0.04600044,-0.03298398,0.02290248,-0.748533,-0.1546351
0.9287452,-0.33366,-0.1004053,-0.0779158,-0.1223206,-0.009454541,0.4104596,-0.7011689,-0.2087015
1.006269,-0.4193365,-0.07280953,-0.0005284038,-0.2077628,0.01802676,0.5699339,-0.5515613,-0.3697755
0.8701111,-0.3905472,-0.1065824,-0.1368173,-0.178679,-0.01583675,0.5970924,-0.4646926,-0.4895051
0.8275475,-0.2650902,-0.1302315,-0.179502,-0.05286366,-0.03955382,0.5575471,-0.3866453,-0.565746
0.8181316,-0.1812935,-0.1328309,-0.1890223,0.03135513,-0.04219868,0.576052,-0.4079641,-0.438605
0.8609506,-0.03735298,-0.1409762,-0.1462829,0.1757761,-0.05036669,0.5773711,-0.3439667,-0.2791415
0.9778038,-0.0165824,-0.1425692,-0.0294783,0.1970751,-0.0519586,0.4585747,-0.238991,-0.231956
0.9607091,-0.0372207,-0.1253215,-0.04658766,0.1769996,-0.03468535,0.3625765,-0.3927619,-0.1228486
0.9342204,0.03108043,-0.09995658,-0.07305668,0.245884,-0.009270248,0.158103,-0.5254225,-0.004568356
0.9272937,-0.02094547,-0.1084521,-0.079929,0.1944479,-0.01769158,0.04062923,-0.5914338,0.1147518
0.919464,-0.07435674,-0.09668255,-0.08766828,0.1416205,-0.005824876,0.1602171,-0.6017937,0.2260242
0.9552737,-0.1114318,-0.06141527,-0.0517311,0.1051132,0.02956079,0.2118621,-0.4668892,0.2340393
0.9632848,-0.1495621,-0.06342336,-0.04355483,0.06752801,0.02768995,0.2475545,-0.3278607,0.2236848
0.9912265,-0.104797,-0.07212424,-0.01541111,0.1128104,0.01914228,0.2639889,-0.1816217,0.2010091
1.00834,-0.07963876,-0.08771101,0.001939213,0.1384539,0.00372194,0.2168723,-0.1524209,0.145332
1.006661,-0.04612099,-0.1188531,0.0005298369,0.1724194,-0.02724234,0.1607367,-0.1627557,0.09971982
1.06441,-0.05116284,-0.1308402,0.05857775,0.1677814,-0.03904094,0.04778143,-0.008931709,0.090524
1.147476,-0.128875,-0.08068725,0.1419665,0.09042332,0.01131099,0.07139192,0.1575456,0.05838456
1.215097,-0.171184,0.02395354,0.2099268,0.04841474,0.11616,0.2810924,0.1837427,-0.1148968
1.199204,-0.1685576,0.06318262,0.1943785,0.05128686,0.155602,0.4028713,0.0564377,-0.2770166
1.188731,-0.1002523,-0.05351096,0.1842444,0.1197833,0.03911961,0.1779823,0.01641645,-0.3001122
1.280932,-0.06151451,-0.2338071,0.2767674,0.1586564,-0.1409712,-0.2282181,0.1021471,-0.3203502
1.307172,-0.1449096,-0.3145216,0.3033016,0.07533827,-0.2214839,-0.3427747,0.08720901,-0.367864
1.167136,-0.262479,-0.3367153,0.1635184,-0.04221362,-0.2434714,-0.3073665,-0.07908233,-0.3677473
0.9789878,-0.3541496,-0.3798948,-0.02442544,-0.1339225,-0.2864293,-0.4180296,-0.2614032,-0.3520491
0.9607274,-0.456106,-0.3372977,-0.04253203,-0.2359645,-0.2435837,-0.3740399,-0.1027572,-0.3621209
1.091779,-0.560309,-0.2262946,0.08862593,-0.3402871,-0.1322953,0.09604699,0.2771824,-0.246816
1.162563,-0.4858608,-0.1807115,0.1594703,-0.265976,-0.08638365,0.6536508,0.5390368,0.02753753
1.187166,-0.235698,-0.2070495,0.1840847,-0.01595268,-0.1123476,0.6598658,0.6354192,0.3041053
1.173681,-0.05011837,-0.238788,0.1705569,0.169492,-0.1436649,0.2650491,0.3730028,0.5311522
1.085235,-0.005627837,-0.2285106,0.08201173,0.2138498,-0.1329177,0.03681874,0.09258016,0.6287057
0.9511256,-0.03683986,-0.2136059,-0.05225695,0.1824987,-0.1174925,-0.1813609,0.147763,0.6205081
0.7956043,-0.06445458,-0.1933858,-0.2079921,0.1547298,-0.09669982,-0.4540712,0.1665112,0.6125042
0.7284937,-0.1548061,-0.1380781,-0.2753604,0.06420207,-0.0407675,-0.5673684,0.1361819,0.5558956
0.7303671,-0.2996905,-0.102812,-0.2737733,-0.08088325,-0.004826992,-0.5633641,0.1874497,0.4489134
0.741538,-0.3416144,-0.07783223,-0.2629007,-0.1230304,0.0208731,-0.4480716,0.1992448,0.3458945
0.78436,-0.3668018,-0.05867845,-0.2203738,-0.1484565,0.04078739,-0.3568125,0.1732574,0.2273471
0.8007337,-0.3763451,-0.0548414,-0.2042789,-0.1582456,0.0454187,-0.278516,0.1174572,0.07493176
0.8339673,-0.3230609,-0.01775437,-0.1712974,-0.1052056,0.08332678,-0.0958736,0.08224384,0.01746192
0.8735929,-0.2961323,-0.006391666,-0.1318885,-0.07851258,0.09552976,0.01152647,0.08578064,0.05549378
0.8589882,-0.2301435,-0.03169045,-0.1466688,-0.01274593,0.07108256,0.03359512,0.09947308,0.007238395
0.8734635,-0.1712463,-0.02854607,-0.1323229,0.04594433,0.07508243,-0.009706662,0.110747,-0.06319364
0.9008684,-0.1612816,-0.02445491,-0.1049973,0.05571625,0.08002642,-0.1094346,0.06519015,-0.1015382
0.9364664,-0.1625027,-0.02063017,-0.06942595,0.05431372,0.08469516,-0.1903736,0.03179011,-0.1252257
1.014161,-0.2065364,-0.01825858,0.008295213,0.01010709,0.08789601,-0.2641205,0.07190046,-0.101547
1.090782,-0.2204969,-0.02373654,0.08499275,-0.004019415,0.08322699,-0.2399925,0.09346994,-0.1325648
1.158925,-0.225294,-0.01688257,0.1532572,-0.008976105,0.09086438,-0.1878336,0.02894356,-0.190461
1.199874,-0.2020131,0.002508779,0.1943615,0.0141517,0.1110087,-0.1665112,-0.002570667,-0.1999915
1.252115,-0.1265126,0.08362715,0.2467821,0.08950483,0.192844,-0.1077234,0.1646764,-0.1642335
1.330229,-0.1136575,0.1774011,0.3250836,0.1022156,0.2872913,-0.05964163,0.3880258,-0.06142897
1.326751,-0.1193551,0.1292955,0.3217878,0.09637265,0.2398051,-0.006149517,0.3854108,0.07919311
1.270439,-0.1545066,-0.03161524,0.2656349,0.06107036,0.07945016,0.004236136,0.111421,0.2879146
1.22846,-0.2518595,-0.1620832,0.2237788,-0.03644153,-0.05053032,0.100179,-0.2267486,0.4469712
1.155278,-0.3939859,-0.2066173,0.1506744,-0.1787339,-0.09464297,0.4711941,-0.3349581,0.4421275
1.070485,-0.5932073,-0.2213132,0.0659056,-0.3781211,-0.1089769,0.8517259,-0.1431329,0.4140803
0.993807,-0.6344235,-0.2792191,-0.01080191,-0.4194889,-0.1665717,0.9835342,0.2133992,0.3140053
0.9008127,-0.4351044,-0.3239806,-0.1038776,-0.2202896,-0.2110627,0.7971843,0.5954071,0.05710677
0.8455329,-0.2134806,-0.3252954,-0.1592836,0.001258899,-0.2121361,0.2812902,0.6880146,-0.2662386
0.8678048,-0.09728795,-0.3131011,-0.1371731,0.1174239,-0.1997174,-0.3364985,0.408715,-0.4416736
0.9404735,-0.1082277,-0.1995581,-0.06469113,0.1064993,-0.08595658,-0.521189,0.1041777,-0.3132816
1.013671,-0.214579,-0.05625078,0.008301444,0.0001983286,0.05756837,-0.2030493,-0.2424088,-0.1816704
1.019609,-0.3348785,-0.05233522,0.0140198,-0.1200203,0.0617023,0.01403383,-0.5178248,-0.1709953
0.9448395,-0.3703256,-0.08687867,-0.06098108,-0.1553558,0.02737536,0.1880981,-0.4375595,-0.156569
0.8410674,-0.3106149,-0.08594754,-0.1649937,-0.09549941,0.02851839,0.3676627,-0.4236367,-0.2402469
0.769588,-0.2537705,-0.1236736,-0.2367155,-0.03847222,-0.009002052,0.259739,-0.5290896,-0.2685075
0.787529,-0.1957867,-0.1652315,-0.2190083,0.01973185,-0.05036093,0.318442,-0.4997234,-0.1856096
0.8812804,-0.1311244,-0.1769397,-0.1254713,0.08464888,-0.06187544,0.3991518,-0.4727414,-0.1397445
0.9705064,-0.1267795,-0.1931094,-0.03643285,0.08927738,-0.07785411,0.2781234,-0.3488929,-0.08998589
1.018299,-0.1262317,-0.174418,0.01120267,0.09013089,-0.05897136,0.3377396,-0.2200332,-0.1285409
1.008724,-0.09840973,-0.1354737,0.001499444,0.1182733,-0.01983277,0.267632,-0.1613057,-0.1658645
0.969481,-0.08073901,-0.1295544,-0.03784412,0.1362718,-0.01371471,0.1275461,-0.09607642,-0.09123694
0.9535891,-0.06421193,-0.1100874,-0.05380903,0.153126,0.005955396,0.04389035,-0.1969406,-0.03923276
0.7523412,-0.2299876,-0.2075989,-0.2422553,-0.006040928,-0.04559693,0.7752351,-0.5314403,-0.3675024
0.8406366,-0.1511014,-0.2460418,-0.1545156,0.07296478,-0.08539895,0.7276815,-0.5096215,-0.3024009
0.9555354,-0.177334,-0.2168223,-0.0401322,0.04691465,-0.0575316,0.6998641,-0.4329447,-0.2454675
1.002813,-0.1495188,-0.2204667,0.006673618,0.07496738,-0.06251441,0.7099487,-0.2546419,-0.2023261
1.000029,-0.1355601,-0.1625039,0.003461843,0.08921073,-0.005870725,0.6902627,-0.2379215,-0.1632426
0.9650029,-0.1113392,-0.1205183,-0.03194954,0.1137548,0.03481872,0.5579597,-0.2850508,-0.02853246
0.9142846,-0.05859902,-0.1117266,-0.0830125,0.1668477,0.04233867,0.3922793,-0.3417494,0.07271085
0.9095216,-0.09413006,-0.09468446,-0.08807829,0.1316888,0.05813334,0.2087366,-0.3955327,0.07416306
0.9605238,-0.1186782,-0.1274324,-0.03733559,0.1075227,0.02416158,0.1672101,-0.2926406,0.09613507
1.028133,-0.1571491,-0.1401332,0.03005797,0.06943569,0.01026023,0.2570925,-0.1219134,0.085873
1.05675,-0.2096637,-0.141874,0.05850081,0.01730146,0.007342738,0.3066792,0.01180438,0.05035834
1.038848,-0.167914,-0.176144,0.04046101,0.05942424,-0.02807907,0.3391009,0.1384418,0.0009435722
1.047133,-0.1578666,-0.1805712,0.04864127,0.06983482,-0.03363106,0.3151098,0.3440878,-0.1319567
1.097365,-0.1597555,-0.119032,0.09879575,0.06829555,0.02681227,0.3151945,0.4632262,-0.2730446
1.154566,-0.1015732,-0.01697388,0.1559419,0.1268103,0.127804,0.3331383,0.3505006,-0.4197658
1.205754,-0.05105033,-0.01367449,0.2070882,0.1776434,0.1300634,0.2303429,0.2450338,-0.4955899
1.246541,-0.04329448,-0.1032767,0.2478363,0.1856804,0.03944338,0.06036099,0.2000409,-0.3802572
1.254246,-0.1194669,-0.1761104,0.2554949,0.1097529,-0.03438889,-0.10284,0.1539118,-0.2750235
1.152744,-0.2537215,-0.2715839,0.153928,-0.02429781,-0.1308403,-0.1503576,0.1673531,-0.2792504
0.9826284,-0.3869909,-0.3380596,-0.01628105,-0.1574037,-0.198268,-0.1819686,0.1487634,-0.2905958
0.9122747,-0.4532552,-0.3168705,-0.08675646,-0.2235381,-0.1779964,-0.2246211,0.01400335,-0.3493701
0.9349379,-0.4720967,-0.2676615,-0.06423997,-0.2422723,-0.1296614,-0.08022967,-0.05104907,-0.4763649
1.015947,-0.4883627,-0.2092892,0.01660253,-0.2584405,-0.07211281,0.1462298,0.1426854,-0.5130781
1.190465,-0.4081998,-0.1550853,0.1909365,-0.1781765,-0.01867842,0.4433375,0.3541527,-0.2683419
1.269372,-0.2978713,-0.1286734,0.2696384,-0.06773369,0.007018718,0.6827511,0.2687821,0.1683654
1.152845,-0.2220395,-0.1240475,0.1528768,0.008230687,0.0109834,0.6076168,0.04733239,0.4529146
1.025754,-0.1313989,-0.1143568,0.02551525,0.0990221,0.02006386,0.4631469,-0.04967149,0.4782261
0.9234975,-0.1250208,-0.1077577,-0.07704898,0.1055652,0.02610093,0.3102214,-0.01212872,0.429501
0.806909,-0.1711973,-0.09335817,-0.1939777,0.05956214,0.03998335,0.1035124,0.05882685,0.3995469
0.7529881,-0.1945027,-0.05855418,-0.2482612,0.03643327,0.07431153,0.001999408,0.02835278,0.3644863
0.7687921,-0.2405723,-0.05789701,-0.2328292,-0.009459767,0.07452959,-0.04433908,0.001091543,0.3734431
0.7992219,-0.2613781,-0.06040058,-0.2027671,-0.03009027,0.07161855,-0.0201192,0.06313624,0.4054742
0.8194545,-0.2572709,-0.04058206,-0.1828861,-0.02580866,0.09105616,0.02662036,0.02765007,0.3446382
0.8245083,-0.2718379,-0.03193725,-0.1781577,-0.04020127,0.09934146,0.03437314,-0.0257979,0.2351658
0.8213293,-0.2898172,-0.02155599,-0.1816277,-0.05800461,0.1093792,0.06848196,-0.04829139,0.1383345
0.825478,-0.3068698,-0.01130846,-0.1777278,-0.07487784,0.1192935,0.08977148,-0.0679668,0.07407249
0.8539755,-0.2990578,0.02182858,-0.1494304,-0.06688066,0.1521019,0.2175087,0.01178028,0.09230428
0.9121117,-0.2420762,0.04983074,-0.09144023,-0.009705549,0.1797733,0.3355797,0.05174788,0.06659496
0.9728282,-0.1519092,0.01296337,-0.03081349,0.08066333,0.142566,0.2012409,0.08613484,-0.04338295
1.01011,-0.1136232,-0.01680298,0.006434388,0.1191569,0.1124443,-0.02565997,0.1018545,-0.08960618
1.083753,-0.1848571,0.01478811,0.0800959,0.0481311,0.1436596,-0.1977943,0.02662437,-0.07057326
1.195732,-0.2777869,0.05366976,0.1921395,-0.04459428,0.1821405,-0.1667043,0.04451448,-0.05254322
1.247223,-0.294736,0.07832059,0.2437302,-0.06134308,0.2063602,-0.02444045,0.07812733,-0.07429665
1.303819,-0.209273,0.1402487,0.300448,0.02431717,0.26782,-0.04007376,0.2446113,-0.110148
1.381618,-0.07715259,0.2043433,0.3783741,0.1566316,0.3314006,-0.1393042,0.5421568,-0.109341
1.332852,-0.05882805,0.1620357,0.3297233,0.1751423,0.2885232,-0.304952,0.4825332,-0.005167971
1.275646,-0.2103828,0.01841524,0.2726031,0.02375924,0.1442682,-0.3649961,0.05364268,0.256922
1.314207,-0.409472,-0.1204846,0.3112081,-0.1751759,0.004664834,-0.007665849,-0.366287,0.4135563
1.252393,-0.5832861,-0.1734025,0.2493814,-0.3488487,-0.04902294,0.6136156,-0.3768068,0.3186417
1.039808,-0.6663611,-0.206346,0.03672093,-0.4317818,-0.08279536,1.041041,-0.03703828,0.2066287
0.8246971,-0.4891633,-0.2718603,-0.1785312,-0.2544241,-0.1491876,0.9232545,0.3368721,0.06618019
0.7638506,-0.1498244,-0.2992997,-0.2395768,0.08510615,-0.1775419,0.5992395,0.6699695,-0.1810404
0.809766,-0.008619247,-0.3382564,-0.1939041,0.2265356,-0.2174371,0.2142633,0.4988446,-0.3457166
0.7998478,-0.04905616,-0.3580898,-0.2040941,0.1863474,-0.2382183,-0.5267052,-0.0272944,-0.3275841
0.8575792,-0.1055585,-0.2238172,-0.1466506,0.1301065,-0.1048887,-0.776053,-0.293668,-0.1794561
0.9583707,-0.2629269,-0.07276726,-0.04615283,-0.02699689,0.04523289,-0.2789099,-0.5471468,-0.0437596
0.9488305,-0.4117544,-0.0313464,-0.05598591,-0.1755588,0.08574377,-0.004105186,-0.5926558,-0.1010588
0.930516,-0.3976857,-0.07394333,-0.07458821,-0.1612207,0.04225422,0.1113878,-0.3821661,-0.255686
0.8486265,-0.3141709,-0.1232792,-0.1567563,-0.07742637,-0.007958465,0.1566473,-0.42928,-0.3565363
0.7484526,-0.2283218,-0.09593684,-0.2571928,0.008716488,0.01852284,0.09006316,-0.4793118,-0.4111426
0.7682429,-0.1684243,-0.1154079,-0.2376398,0.06892202,-0.001792837,0.2095953,-0.555045,-0.3194786
0.8268792,-0.1469563,-0.1667403,-0.1792046,0.09070907,-0.05395207,0.1733009,-0.625116,-0.2028854
0.9266554,-0.1462503,-0.1560353,-0.07958545,0.09173947,-0.04405413,0.1082493,-0.4496283,-0.2185125
0.9804804,-0.1365673,-0.1676002,-0.02586946,0.1017465,-0.05640304,0.2222539,-0.3546911,-0.1764693
0.9679838,-0.1000025,-0.1333559,-0.03842658,0.1386288,-0.02291703,0.2153127,-0.2229827,-0.07334599
0.9634019,-0.06232814,-0.08352288,-0.04302205,0.1766073,0.02618554,0.233989,-0.1251444,0.02017497
0.9126101,-0.03260718,-0.09767164,-0.09378127,0.2066112,0.01133421,0.1495996,-0.1976075,0.07715134
0.9132428,-0.02884563,-0.09594473,-0.09307007,0.2106255,0.01238571,-0.08777806,-0.1554654,0.07301142
0.9541918,-0.03924469,-0.1065222,-0.05199566,0.2004401,0.001159201,-0.1576528,-0.1702936,0.1399218
0.9673211,-0.0659181,-0.12955,-0.03869437,0.1739329,-0.02249151,-0.1265451,-0.2295845,0.1839394
1.024115,-0.1270324,-0.1678058,0.01831614,0.1129312,-0.06134364,-0.06648016,-0.2149425,0.1612708
1.150968,-0.1520663,-0.1946989,0.1454274,0.08795235,-0.0888046,-0.02532988,-0.05312273,0.1580033
1.344904,-0.1256544,-0.1207351,0.3396538,0.1143602,-0.01537745,0.06492257,0.2933705,0.0353632
1.411135,-0.0856058,-0.03907379,0.4061923,0.154344,0.06577951,0.2336381,0.3838444,-0.1774461
1.339948,-0.05783986,-0.02626484,0.3353092,0.1819824,0.07811457,0.1982765,0.2131562,-0.3142124
1.367233,-0.07854247,-0.06691161,0.3628771,0.1610858,0.03702053,-0.07045233,0.06495965,-0.3317741
1.41663,-0.141648,-0.1618038,0.4125157,0.09771725,-0.05829534,-0.3067036,-0.0411357,-0.345089
1.402701,-0.1969105,-0.2729311,0.3987709,0.04212163,-0.1698221,-0.2770329,-0.05264303,-0.3845907
1.286432,-0.212658,-0.3415893,0.2826126,0.02597333,-0.2388508,-0.2644837,-0.02364135,-0.2909942
1.000693,-0.2795812,-0.3651957,-0.003100381,-0.04141428,-0.2627895,-0.4480671,-0.02029525,-0.215795
0.7648623,-0.4249094,-0.3272078,-0.2389898,-0.1872633,-0.2250856,-0.3565782,0.003622359,-0.2613811
0.7666459,-0.4759256,-0.2152781,-0.2373394,-0.2388453,-0.1133825,-0.1492837,0.1438577,-0.235019
0.9774738,-0.3811024,-0.1797455,-0.02670382,-0.1446187,-0.07801383,-0.02895344,0.350761,-0.09315154
1.210161,-0.2812176,-0.1642,0.205742,-0.04534858,-0.06256822,0.2403406,0.3952141,0.1878788
1.20254,-0.2444913,-0.1022073,0.1978316,-0.009246552,-0.0006121952,0.2535552,0.1944324,0.4821263
1.091491,-0.1924562,-0.171374,0.08644159,0.0421585,-0.06975474,-0.03222168,-0.03336485,0.5773912
1.054683,-0.09522286,-0.2037549,0.04923807,0.1387572,-0.1020527,-0.235315,-0.02355778,0.5755336
0.9238891,-0.07093047,-0.1680795,-0.08200339,0.1624078,-0.06623641,-0.3750071,0.07835265,0.6006505
0.7759126,-0.1326983,-0.1653649,-0.230474,0.09998661,-0.06332339,-0.3708424,0.08879668,0.5960533
0.7251867,-0.1788723,-0.05328571,-0.2817277,0.05314397,0.04901001,-0.3356144,0.09997576,0.5273003
0.6947419,-0.2334358,-0.02582897,-0.3127178,-0.002104465,0.07677208,-0.357179,0.1218585,0.4319098
0.7518406,-0.268183,-0.06627049,-0.2561644,-0.03755132,0.03668023,-0.3239582,0.1530609,0.3058258
0.8121356,-0.2235177,-0.02033625,-0.1963992,0.00640297,0.08300126,-0.3547981,0.1629438,0.1731383
0.7960348,-0.2137516,-0.02557877,-0.2130017,0.0154501,0.07817556,-0.3576444,0.1311893,0.09830418
0.7989493,-0.2414999,0.01127889,-0.2105507,-0.01302273,0.1154727,-0.286501,0.1175406,0.05209278
0.7891672,-0.2361011,0.05906776,-0.2207485,-0.008351653,0.1637154,-0.2025834,0.07415572,0.008365269
0.8035636,-0.2254723,0.0495126,-0.2067114,0.001548788,0.1546194,-0.09014631,0.06424949,-0.05483623
0.8783635,-0.1856949,0.04648955,-0.132207,0.04059901,0.1520512,-0.1360978,0.1859869,-0.1470719
0.9927286,-0.1597384,0.0009573009,-0.01806942,0.06583048,0.1069609,-0.3057943,0.3402818,-0.196467
1.14686,-0.1996367,-0.006529097,0.1359015,0.02520878,0.09989655,-0.4038689,0.3713331,-0.2123169
1.251223,-0.2127618,0.02019067,0.2401634,0.01136156,0.1270131,-0.3013402,0.2284682,-0.2603753
1.329705,-0.1366333,0.04098984,0.3185921,0.08676958,0.1481783,-0.1763992,0.1481354,-0.2523692
1.422337,-0.06698327,0.06857771,0.4111985,0.1556996,0.1760958,-0.4181492,0.2965912,-0.02620354
1.487881,-0.1395654,0.0344752,0.4767248,0.08239438,0.1422801,-0.618038,0.3908447,0.3460337
1.48714,-0.2888258,-0.04937153,0.4759514,-0.0675946,0.05867221,-0.3840528,0.1584757,0.6038354
1.36022,-0.4446423,-0.1970462,0.3489623,-0.2241427,-0.08881324,-0.009811949,-0.2288402,0.6552906
1.187311,-0.6348245,-0.3089453,0.1759303,-0.4150495,-0.2005685,0.4222938,-0.3348789,0.5986602
1.021185,-0.6931686,-0.2809515,0.009617554,-0.4740937,-0.1724674,0.7025256,0.09959811,0.4209163
0.8579913,-0.5140242,-0.2697647,-0.1538255,-0.2956043,-0.1611982,0.5725972,0.7788387,0.02534448
0.7724585,-0.2587551,-0.3009814,-0.2396625,-0.04092875,-0.1923472,0.1044107,0.9552392,-0.364689
0.7605168,-0.1117957,-0.2865388,-0.2519489,0.1055045,-0.1778414,-0.5839306,0.3671037,-0.4326618
0.8247531,-0.1388192,-0.217742,-0.1880824,0.07801913,-0.1089768,-0.8199918,-0.3740979,-0.2835134
0.9290214,-0.2626753,-0.101979,-0.08419534,-0.04624104,0.006864704,-0.2925931,-0.72062,-0.1641478
0.9627704,-0.3899073,-0.04969005,-0.05083013,-0.1738226,0.05924463,0.1236056,-0.7001811,-0.1506762
0.9117897,-0.4236588,-0.1036872,-0.1021912,-0.207867,0.005349177,0.1824288,-0.5629034,-0.2645037
0.8106759,-0.3313852,-0.1382188,-0.2036765,-0.1158245,-0.02907212,0.2595454,-0.4418136,-0.4309847
0.7161289,-0.2490125,-0.1405996,-0.2985776,-0.03361738,-0.03133477,0.2699992,-0.3847666,-0.462719
0.6962765,-0.1873398,-0.1650158,-0.3187545,0.02795498,-0.05562429,0.2644959,-0.4089014,-0.3602058
0.7687646,-0.09498584,-0.1841268,-0.2465477,0.1202694,-0.07459868,0.2350641,-0.4012285,-0.2719545
0.853265,-0.06842348,-0.2034508,-0.1622739,0.1468453,-0.09377393,0.1456515,-0.3445508,-0.1977421
0.9052406,-0.0786294,-0.1986276,-0.1104629,0.1366957,-0.08878696,0.1714463,-0.308263,-0.1261285
0.9493647,-0.04984065,-0.1626799,-0.066438,0.165573,-0.05265765,0.1444674,-0.2987673,-0.03552051
0.9291519,-0.03967841,-0.1558078,-0.08668422,0.1758456,-0.04558423,0.003057764,-0.3256578,0.1083952
0.9018676,-0.04309653,-0.136243,-0.1139362,0.1725491,-0.02579772,-0.09538311,-0.3271882,0.2126145
0.9456526,-0.05397573,-0.0976452,-0.07005357,0.1617927,0.01304164,-0.1209768,-0.2947908,0.2649952
0.9997029,-0.109446,-0.07976872,-0.01584085,0.1064377,0.03117783,-0.03112504,-0.1979995,0.2476135
1.072713,-0.140021,-0.07506813,0.05739361,0.07596404,0.03615333,0.123876,-0.00357767,0.1355579
1.114842,-0.1088745,-0.1088003,0.09980194,0.1071933,0.002707949,0.2287886,0.1283092,0.04531233
1.126339,-0.07777744,-0.1325599,0.1116256,0.1383505,-0.02075532,0.1190997,0.2363187,-0.01562533
1.215353,-0.06800908,-0.09487256,0.2010023,0.1481518,0.01723627,-0.03224083,0.3382736,-0.1043209
1.269521,-0.07345301,-0.04376729,0.2555587,0.1427082,0.06865194,0.1238097,0.1708763,-0.2479974
1.255678,-0.09808859,-0.04358014,0.2421153,0.1180354,0.06915239,0.2150731,-0.120491,-0.3642175
1.303271,-0.1593592,-0.1594782,0.2901041,0.0566866,-0.04643304,0.008199993,-0.1618923,-0.3680037
1.31649,-0.2541027,-0.352099,0.3037003,-0.03817696,-0.238742,-0.1549882,-0.0008326266,-0.4049387
1.160473,-0.3273013,-0.4381499,0.1480289,-0.1115345,-0.3244755,-0.2256691,0.1277623,-0.4286031
0.9179949,-0.3715319,-0.3405903,-0.09414542,-0.1559563,-0.2265816,-0.2239358,0.09993779,-0.4009535
0.839318,-0.4099988,-0.2670799,-0.1725586,-0.1946369,-0.1527088,-0.2045728,-0.01496754,-0.4983855
1.074237,-0.4088633,-0.3062322,0.06258917,-0.1937266,-0.1914631,-0.1930557,-0.006243697,-0.5244075
1.368819,-0.3588111,-0.2786806,0.3573683,-0.1439004,-0.1634724,0.03977423,0.2389603,-0.2375871
1.406963,-0.2766649,-0.2122501,0.3956694,-0.06197206,-0.09655729,0.3242406,0.5096868,0.2368613
1.237475,-0.1779976,-0.184155,0.226285,0.03649061,-0.06793014,0.3305897,0.4359908,0.5760384
1.017483,-0.1231368,-0.1478436,0.00633138,0.09116036,-0.03103958,0.1697935,0.2283012,0.6212624
0.8023901,-0.1028251,-0.1469352,-0.2087892,0.1112914,-0.02950737,0.0213894,0.2063691,0.6084124
0.6542157,-0.077951,-0.1345081,-0.3570472,0.1359899,-0.01641479,-0.1976437,0.1318555,0.6239332
0.6116715,-0.09919475,-0.08456395,-0.3997134,0.1145696,0.03423231,-0.5179671,0.1141288,0.5877915
0.6420369,-0.1524821,-0.08467979,-0.3694869,0.06109938,0.03485198,-0.700774,0.2141505,0.5641637
0.7009075,-0.197949,-0.09209868,-0.3107512,0.01543977,0.02819534,-0.725048,0.1809324,0.5567873
0.7643636,-0.2582161,-0.07224429,-0.2474088,-0.04503046,0.04883292,-0.7356205,0.1776442,0.4927556
0.7972642,-0.3138446,-0.03603982,-0.2145871,-0.1008703,0.0858356,-0.6838968,0.1164589,0.2706332
0.787202,-0.3359602,0.01340255,-0.2246835,-0.1232009,0.1360843,-0.5395564,-0.009194195,0.01494221
0.7920328,-0.3112595,0.03250523,-0.2198338,-0.09871277,0.1559929,-0.3351827,0.004952346,-0.06831075
0.8078621,-0.2628039,0.04861691,-0.203925,-0.05046157,0.1729007,-0.1640271,0.001190228,-0.106729
0.8024268,-0.2378913,0.05471859,-0.209214,-0.02574131,0.1797788,-0.1063407,0.03447368,-0.1451875
0.8504959,-0.2299799,0.002133661,-0.1609264,-0.01800838,0.1279412,-0.1315105,0.07497739,-0.08292136
0.9782558,-0.2276039,-0.05430075,-0.03287302,-0.01579622,0.07221758,-0.1808576,0.06125358,-0.03328489
1.10229,-0.2244368,-0.0797574,0.09152742,-0.01277809,0.04743057,-0.1740022,0.08830115,-0.1060793
1.214544,-0.2146337,-0.03738911,0.2042145,-0.00310894,0.09042476,-0.05113694,0.09425296,-0.2242019
1.404372,-0.1773947,0.06720835,0.3945259,0.03401045,0.1956015,0.08329342,0.262313,-0.2788684
1.529871,-0.1249277,0.1078088,0.5205392,0.08637046,0.2367288,-0.005969476,0.6018197,-0.1739547
1.432135,-0.1377676,0.07015263,0.4233233,0.07343277,0.1995396,-0.174397,0.7151866,0.1479027
1.395671,-0.166573,-0.0060798,0.3873598,0.04453487,0.1237065,-0.1349117,0.324863,0.5169507
1.42002,-0.2296063,-0.1101108,0.4121673,-0.01858868,0.02000315,0.06422548,-0.1977151,0.6344246
1.235893,-0.4908064,-0.1960827,0.2284403,-0.2798757,-0.065712,0.5047579,-0.2350438,0.4458634
1.068357,-0.7321756,-0.265989,0.06123338,-0.5213197,-0.1354272,0.9677504,-0.04688428,0.2302683
0.9867389,-0.6555017,-0.2823723,-0.02013176,-0.4446907,-0.151676,0.9657988,0.2213795,0.08108445
0.8638855,-0.438627,-0.2554094,-0.1428037,-0.227811,-0.1246246,0.6649411,0.6042738,-0.1855035
0.8022794,-0.2420709,-0.279803,-0.2042912,-0.03118707,-0.1489655,0.2285686,0.4256549,-0.3918592
0.7883794,-0.08379395,-0.2816879,-0.2181231,0.1272228,-0.1508238,-0.1894358,-0.1125582,-0.3361189
0.8244718,-0.1305584,-0.19536,-0.1819994,0.08065038,-0.06448657,-0.1142487,-0.4648144,-0.1941176
0.9184478,-0.2629622,-0.09662924,-0.08801658,-0.05151054,0.03424251,0.2258347,-0.8597624,-0.1240251
0.9620344,-0.3113332,-0.05789217,-0.04443891,-0.09959299,0.07296866,0.4065417,-0.9534527,-0.1998156
0.9206266,-0.377563,-0.1097079,-0.08586605,-0.165489,0.02113168,0.5239578,-0.7008977,-0.340732
0.8195895,-0.32813,-0.153585,-0.1869277,-0.1156753,-0.02277804,0.5343979,-0.6617943,-0.4129833
0.7046756,-0.2139722,-0.1379777,-0.3018636,-0.001088055,-0.007214225,0.5387303,-0.6608011,-0.408794
0.6556042,-0.1824979,-0.1518583,-0.350942,0.03086293,-0.02114765,0.6248314,-0.6675791,-0.3218266
0.7615611,-0.08903121,-0.1842752,-0.244963,0.124848,-0.05362494,0.5488206,-0.6941645,-0.2130513
0.9136295,-0.07591874,-0.2107092,-0.09283136,0.1385123,-0.08012403,0.5018602,-0.4841766,-0.1563563
0.9756989,-0.1098657,-0.2133606,-0.03065171,0.1051407,-0.08284163,0.5438324,-0.2649828,-0.1045957
0.9886739,-0.04459541,-0.150681,-0.0175192,0.1709999,-0.02022522,0.4726372,-0.1853575,0.01901808
0.9545631,-0.03123191,-0.09227734,-0.05142717,0.184956,0.03812026,0.3915809,-0.2302004,0.165888
0.9430178,-0.01284896,-0.06250845,-0.0627262,0.2039243,0.06783566,0.2248545,-0.2544283,0.2415992
0.9799858,-0.02885001,-0.03396885,-0.02546991,0.1884904,0.09632367,0.1129664,-0.1856405,0.2389869
0.9854676,-0.07832501,-0.02730235,-0.01965942,0.1395546,0.1029364,0.1783666,-0.2241159,0.1473659
0.9935812,-0.04710751,-0.07321669,-0.01117921,0.171275,0.05696181,0.0972034,-0.1904343,0.03437459
1.04321,-0.06500767,-0.1415284,0.03885114,0.1538346,-0.01141967,-0.02867125,-0.03201189,0.007093451
1.186186,-0.1040538,-0.1121741,0.1822579,0.1151989,0.01785449,0.01167227,0.1752508,0.009997714
1.3221,-0.1315855,-0.04400037,0.3186219,0.08802388,0.08593772,0.1587267,0.3394401,-0.0829591
1.28571,-0.1487162,-0.009644529,0.2826886,0.07119363,0.120191,0.3079871,0.1871146,-0.2322903
1.214392,-0.121016,0.0255499,0.2118158,0.09913706,0.1552668,0.2584021,-0.03603835,-0.2582933
1.203583,-0.1423484,-0.101863,0.2014287,0.07798955,0.02771462,-0.02249839,-0.1229997,-0.2331444
1.20308,-0.1663363,-0.3599133,0.2013133,0.05412783,-0.2304965,-0.3653918,0.03810993,-0.3065752
1.189778,-0.2051133,-0.4679387,0.1883559,0.01541881,-0.3386971,-0.5692764,0.3003064,-0.3948956
1.083877,-0.303166,-0.3869823,0.08274878,-0.08262129,-0.2579165,-0.6083999,0.04455967,-0.4871475
0.9948898,-0.3639343,-0.2986865,-0.005999115,-0.1434265,-0.1697821,-0.6021548,-0.1734039,-0.5304713
1.146393,-0.3893184,-0.310306,0.1456898,-0.168888,-0.1815378,-0.433975,0.1776285,-0.3890134
1.35002,-0.3639191,-0.2776399,0.349445,-0.143596,-0.1489747,-0.05323238,0.4917567,-0.0616534
1.327294,-0.2815946,-0.2117238,0.3267837,-0.06139866,-0.08312242,0.169124,0.6315641,0.3784617
1.219622,-0.1755364,-0.2115126,0.2190998,0.04451883,-0.08293249,0.05501741,0.5559981,0.6094894
1.100084,-0.08712401,-0.1686699,0.09946743,0.1327789,-0.0400669,-0.06976129,0.3664324,0.5463751
0.8884202,-0.08565945,-0.1621828,-0.1123748,0.1340768,-0.03351302,-0.1766026,0.3931568,0.5575371
0.7351976,-0.08365756,-0.1806654,-0.2658537,0.1358929,-0.05188596,-0.5431015,0.3476109,0.5972889
0.6571978,-0.07714094,-0.1306109,-0.344172,0.1421995,-0.001680515,-0.8671254,0.2772351,0.5558121
0.6016131,-0.1409391,-0.1252665,-0.4001168,0.07816263,0.00385407,-0.8833076,0.3061284,0.583031
0.6651566,-0.1984547,-0.1107311,-0.3369527,0.0203772,0.01861562,-0.9091107,0.218183,0.5552008
0.736489,-0.272198,-0.07404539,-0.2659985,-0.05366666,0.0555594,-0.9319805,0.1833808,0.3954287
0.7572228,-0.3550646,-0.04355274,-0.2456248,-0.1368605,0.08633705,-0.7714603,0.159655,0.1715631
0.8224279,-0.3639442,0.02059492,-0.1807488,-0.1460864,0.1507901,-0.5561471,0.1147485,0.01335063
0.8570234,-0.326221,0.04855488,-0.1464419,-0.10872,0.1790673,-0.3688319,0.1690846,0.00196282
0.8527814,-0.2438437,0.05635819,-0.1509251,-0.02670222,0.1871899,-0.2748974,0.1781621,-0.08629518
0.8983314,-0.1539102,0.03114151,-0.1055642,0.06287336,0.1622845,-0.2723808,0.2324998,-0.1956402
0.9896212,-0.1053988,-0.03234124,-0.01440878,0.1110287,0.09909604,-0.3380306,0.3047183,-0.1723269
1.07249,-0.1130271,-0.07040649,0.06837957,0.1030432,0.06130194,-0.4559142,0.2869543,-0.1661529
1.088542,-0.1838745,-0.07742476,0.08440083,0.03183371,0.05452811,-0.4566478,0.2572797,-0.163381
1.08805,-0.2092553,-0.03231988,0.08392102,0.006083816,0.09984846,-0.3885689,0.2120375,-0.1684763
1.174557,-0.1469666,-0.002727561,0.1704741,0.06799613,0.1296246,-0.3812269,0.3413691,-0.1933407
1.313421,-0.1032024,-0.003322451,0.3094091,0.111376,0.129178,-0.3857985,0.5814857,-0.1053035
1.385372,-0.1868462,-0.02918115,0.381442,0.02733771,0.1034279,-0.3394168,0.5869773,0.1647619
1.379785,-0.3432708,-0.116756,0.3759282,-0.1294919,0.01591917,-0.05026328,0.3284546,0.5525195
1.341069,-0.43595,-0.1933748,0.3372601,-0.2225821,-0.06067588,0.4026045,0.08555829,0.6620836
1.205702,-0.4833839,-0.2675941,0.2018988,-0.2704231,-0.1349097,0.5830835,0.1837938,0.4119062
0.9879466,-0.4203298,-0.2769889,-0.01590234,-0.2077596,-0.1443499,0.4354963,0.3021745,0.2170618
0.8813489,-0.2839747,-0.2480948,-0.1225987,-0.07176757,-0.1155232,0.07419189,0.181868,0.0814011
0.9210604,-0.2997761,-0.2962013,-0.08303242,-0.08789781,-0.1637102,-0.3091563,0.1022939,-0.03801996
0.9272349,-0.3837495,-0.2011983,-0.07704157,-0.1721619,-0.06879301,-0.167974,-0.2195938,-0.02330752
0.8923878,-0.4435795,-0.07135151,-0.1121028,-0.2322393,0.06096827,0.2672543,-0.6345072,-0.04600745
0.8965849,-0.465654,-0.1443612,-0.1081426,-0.2545104,-0.01212524,0.40401,-0.5020426,-0.1754865
0.8451346,-0.3966371,-0.1672321,-0.1598444,-0.1856309,-0.03507839,0.5586007,-0.3642451,-0.3274778
0.7607275,-0.3240658,-0.1382253,-0.2445084,-0.1131307,-0.006151635,0.6576518,-0.5131693,-0.3850092
0.7439211,-0.2193587,-0.1845525,-0.2615659,-0.008425681,-0.05255542,0.5508762,-0.4972871,-0.2835691
0.7628986,-0.1294072,-0.1864587,-0.2428209,0.08159078,-0.05453297,0.5696181,-0.5486809,-0.2131336
0.8436168,-0.1468948,-0.1696312,-0.162305,0.06422912,-0.03776956,0.4796865,-0.6315756,-0.1969317
0.9680653,-0.1479742,-0.1608116,-0.03802048,0.06332855,-0.02900471,0.4603772,-0.4737086,-0.184296
1.020673,-0.1404192,-0.11679,0.01446459,0.0711076,0.0149725,0.5954596,-0.3394307,-0.2126192
0.9890138,-0.1000702,-0.08555952,-0.01727679,0.1117182,0.04616851,0.5064209,-0.1989276,-0.1677726
0.9538111,0.006516305,-0.07906717,-0.05252354,0.2185951,0.05263432,0.4099841,-0.1289885,-0.0897248
0.9414967,0.03622829,-0.06724109,-0.06484469,0.2486148,0.06443887,0.1598875,-0.2600309,-0.008364298
0.9237604,0.005876168,-0.04451948,-0.08255019,0.2185746,0.08714055,-0.1244651,-0.3241755,0.1066688
0.9435765,-0.02082786,-0.02145343,-0.06266506,0.1921737,0.1101842,-0.1115733,-0.4077009,0.1494636
0.9788898,-0.0495619,-0.02137951,-0.02724399,0.1637233,0.1102286,-0.1072412,-0.4525967,0.1925401
0.9897659,-0.07498674,-0.04207075,-0.01622211,0.138554,0.0894958,-0.03527524,-0.323006,0.2324871
1.013983,-0.09277387,-0.07379277,0.008176384,0.1209878,0.05771633,0.01489672,-0.2436883,0.1960023
1.035065,-0.1003963,-0.1101352,0.02947386,0.1135469,0.0212981,-0.04523383,-0.1201443,0.1734562
1.135786,-0.1548564,-0.1024345,0.130438,0.05922518,0.02890397,-0.000678799,0.07193743,0.1305597
1.288139,-0.2191716,-0.06559112,0.2830555,-0.00499582,0.06563332,0.0914041,0.1686991,-0.009822169
1.290838,-0.2082083,-0.02809427,0.2860272,0.006018451,0.102996,0.3009749,0.1382187,-0.2299533
1.214436,-0.1563245,0.02567063,0.2098919,0.05791229,0.156604,0.3860656,0.04549201,-0.3787319
1.192288,-0.1254861,-0.03031905,0.1879919,0.08872093,0.1004306,0.2131525,0.03210631,-0.3881943
1.202524,-0.1513451,-0.1980393,0.1984469,0.0627921,-0.0675028,0.07389388,0.02206535,-0.4176576
1.190227,-0.2001392,-0.3157869,0.1863321,0.01388772,-0.1854909,-0.04500563,0.1220038,-0.4394961
1.086491,-0.2336555,-0.3826035,0.08273244,-0.01977791,-0.2525667,-0.1847508,0.265315,-0.3873392
0.9096695,-0.2621598,-0.3529085,-0.09399964,-0.04846725,-0.2231372,-0.3776914,0.04370388,-0.3624396
0.8050171,-0.2916521,-0.2789126,-0.1986068,-0.07817571,-0.1494005,-0.4581046,-0.1248087,-0.3573495
0.8921824,-0.3066282,-0.2895151,-0.1114314,-0.0933928,-0.1602459,-0.3276671,0.1437007,-0.2500793
1.094201,-0.2663687,-0.2504758,0.09057036,-0.05339283,-0.1214254,-0.2599291,0.413477,0.05261983
1.257758,-0.1953906,-0.1841464,0.2540867,0.01731248,-0.05528515,-0.2058363,0.4328851,0.4069956
1.261039,-0.145928,-0.1776594,0.2572963,0.06649172,-0.04895443,-0.1870249,0.3226739,0.5665952
1.106397,-0.1270897,-0.1601547,0.1025445,0.08503568,-0.03157214,-0.2687664,0.2682398,0.5652267
0.9634317,-0.1309034,-0.1564613,-0.04057568,0.08091485,-0.02796737,-0.2810693,0.303306,0.5534722
0.8188369,-0.1198123,-0.131638,-0.1853673,0.09168341,-0.003199539,-0.3903017,0.3182177,0.5580981
0.7040801,-0.1181845,-0.09528722,-0.3003539,0.09297087,0.03312726,-0.5838587,0.2934945,0.5592496
0.7479398,-0.1732663,-0.08080359,-0.2567426,0.0375288,0.04761542,-0.6246318,0.2809671,0.5405559
0.7773881,-0.2466428,-0.03503326,-0.227546,-0.03622832,0.09341458,-0.5553522,0.2719606,0.5001147
0.7792868,-0.2827033,-0.02312274,-0.2258884,-0.07268753,0.1053728,-0.4389203,0.2015199,0.4158362
0.7937388,-0.2616211,-0.02625097,-0.2116554,-0.05201748,0.1023047,-0.3895216,0.08298914,0.2579014
0.7413924,-0.237273,-0.005202942,-0.2641878,-0.02808997,0.123419,-0.3993336,-0.0338265,0.1489291
0.7537569,-0.2409295,-0.006907165,-0.2519662,-0.03217153,0.1217805,-0.3466751,-0.06720968,0.1637676
0.7991512,-0.2443883,0.00471322,-0.2066615,-0.03605672,0.1334599,-0.2591953,-0.002251834,0.1136394
0.8530168,-0.2566826,0.02760066,-0.1528244,-0.04877554,0.156393,-0.1184639,0.0763361,-0.07189353
0.9510191,-0.2424897,0.0428452,-0.05478493,-0.03500224,0.1716634,-0.03016886,0.1907084,-0.2510491
0.9829516,-0.2120026,0.04895679,-0.02274885,-0.004927274,0.1777738,-0.1003744,0.2798631,-0.2932799
1.033527,-0.2229298,0.03609447,0.02799366,-0.01625716,0.1648766,-0.1627157,0.2724738,-0.173631
1.117149,-0.2007545,0.03033276,0.1118412,0.005525836,0.15904,-0.1432896,0.2350346,-0.0995494
1.186737,-0.1111679,0.036841,0.1817037,0.09473054,0.165428,-0.189998,0.2000907,-0.1546762
1.277862,-0.01571002,0.05151431,0.2731405,0.189814,0.1799308,-0.3865801,0.2304057,-0.1243913
1.348958,-0.02755664,0.06041165,0.344571,0.1775943,0.1886026,-0.5280375,0.2206717,0.1036531
1.416642,-0.2296246,0.02601596,0.412593,-0.02485201,0.1539217,-0.369867,-0.00884707,0.4400131
1.427382,-0.4608371,-0.07760215,0.4236543,-0.2564493,0.04995572,0.03979856,-0.2177538,0.5793074
1.354496,-0.5616395,-0.2086152,0.3510523,-0.3576346,-0.08146701,0.464088,-0.09888404,0.4000375
1.21541,-0.5729035,-0.2572463,0.2121977,-0.3692645,-0.1305634,0.8098117,0.1822046,0.2244131
0.9732365,-0.5230644,-0.2254515,-0.02980961,-0.3197567,-0.09927993,1.116747,0.3970855,0.08455763
0.7640694,-0.3493314,-0.236592,-0.2388744,-0.1463054,-0.1109673,1.086526,0.5235048,-0.1327825
0.7098592,-0.1080632,-0.2881689,-0.2930363,0.09473874,-0.1631165,0.3050628,0.3714668,-0.2257759
0.7990112,-0.04009953,-0.2796384,-0.2038747,0.1625343,-0.1551736,-0.6294785,-0.06155836,-0.2091668
0.9268152,-0.1591202,-0.2163681,-0.07608504,0.04339371,-0.0924957,-0.5939333,-0.482378,-0.1457763
1.004162,-0.280048,-0.143963,0.001232592,-0.07761329,-0.02068002,-0.1374504,-0.6755005,-0.04072262
1.026736,-0.3788062,-0.1021481,0.02376553,-0.1764118,0.02055294,-0.1147298,-0.5600368,-0.1227064
0.9393587,-0.4076927,-0.109466,-0.06366197,-0.2052965,0.01266209,0.1144134,-0.5307085,-0.2891792
0.8297178,-0.3210404,-0.1256636,-0.1733605,-0.1185947,-0.004098956,0.3096015,-0.6168698,-0.3537008
0.7659013,-0.2317405,-0.1589026,-0.237235,-0.02919368,-0.03789115,0.1504643,-0.5045058,-0.3884277
0.7216407,-0.1750014,-0.1822112,-0.2815438,0.02769823,-0.06174085,0.2543952,-0.5519509,-0.2872511
0.7763184,-0.1415697,-0.1748822,-0.2268924,0.06133052,-0.05493782,0.2372482,-0.6010023,-0.1437808
0.888723,-0.1570479,-0.1820138,-0.1144816,0.04609511,-0.06257707,0.1527472,-0.3827184,-0.1425069
0.9859597,-0.1479031,-0.1539556,-0.01720002,0.05551831,-0.03500522,0.2713805,-0.2278624,-0.1556397
0.9724265,-0.1034634,-0.1169908,-0.03064833,0.1002657,0.001496548,0.1936887,-0.1469402,-0.1414757
0.8974069,-0.07056729,-0.1165478,-0.1055439,0.1334917,0.001500351,0.1520112,-0.2604365,-0.07885211
0.9550065,-0.0312781,-0.106024,-0.04778129,0.1731245,0.01160853,0.05376057,-0.4136935,0.04657784
0.9774732,-0.03159166,-0.1092261,-0.02511248,0.1731586,0.008013373,-0.09413209,-0.362171,0.1434379
0.9603956,-0.05440279,-0.1074129,-0.04194996,0.1506893,0.00945502,-0.03803958,-0.3450584,0.1889816
1.012281,-0.07350786,-0.09611101,0.01021225,0.1319116,0.02040592,-0.06558669,-0.2539103,0.1773305
0.98808,-0.1258904,-0.1000507,-0.01367929,0.07983505,0.01613439,-0.007252405,-0.1415824,0.1491201
1.007169,-0.13071,-0.09619503,0.005750068,0.07529508,0.01967617,0.09273679,-0.1156385,0.1258817
1.100322,-0.1179489,-0.1111997,0.09927145,0.08830625,0.004374118,0.03951617,0.0008141484,0.09613285
1.191068,-0.1524327,-0.1220521,0.1904049,0.05404038,-0.006760033,0.06679693,0.1821247,0.05070594
1.266117,-0.1465671,-0.1116901,0.2658531,0.06008994,0.003335358,0.1245748,0.3885313,-0.09040082
1.224627,-0.1143345,-0.1032356,0.2247606,0.09247101,0.01153802,0.1469231,0.413794,-0.2590918
1.232373,-0.09229774,-0.08923648,0.2328887,0.114619,0.02529935,0.01774799,0.3558137,-0.3228014
1.268047,-0.08502021,-0.103535,0.2689182,0.1219677,0.01077575,-0.2724184,0.4571208,-0.3314603
1.195456,-0.1343516,-0.1672917,0.1966427,0.07266436,-0.05319391,-0.4606765,0.4225759,-0.3613092
1.114862,-0.2057123,-0.2782333,0.1163173,0.00128733,-0.1643349,-0.564919,0.1932941,-0.3842748
0.9858493,-0.2708558,-0.3523059,-0.01248061,-0.06391555,-0.2385883,-0.6976586,-0.1292444,-0.3648119
0.9369672,-0.3833336,-0.3168297,-0.06120041,-0.1764906,-0.2032655,-0.6944524,-0.2735488,-0.3472013
0.9811332,-0.531383,-0.2862205,-0.0169206,-0.3246653,-0.1727732,-0.2855891,0.1789507,-0.3131078
1.043799,-0.5526658,-0.2533862,0.04581535,-0.3460868,-0.140012,0.2717155,0.6534537,-0.1877091
1.257596,-0.428139,-0.1692499,0.259639,-0.2216952,-0.05590014,0.4346015,0.5780732,0.0262933
1.291875,-0.3012616,-0.1843354,0.2938972,-0.09493555,-0.07095957,0.2531128,0.4262868,0.2467784
1.103773,-0.1377963,-0.2278799,0.1057194,0.06843626,-0.1144271,0.05556272,0.3277455,0.3497521
1.008472,-0.03167465,-0.1760253,0.01028155,0.1744881,-0.06244425,-0.2051687,0.0507362,0.3747686
0.8660725,-0.07909791,-0.1584089,-0.1323148,0.1270122,-0.04464814,-0.5355917,-0.05034173,0.4018789
0.7717009,-0.09618472,-0.1319423,-0.2269343,0.1098819,-0.01795169,-0.6032482,0.03887425,0.4048519
0.7825895,-0.1497427,-0.07743675,-0.2163323,0.05628289,0.03683088,-0.5607305,-0.001326008,0.4417342
0.9131058,-0.07407319,-0.09318555,-0.1051513,0.1080673,0.01538363,-0.566893,-0.1341306,0.1219809
0.9116028,-0.05589446,-0.09314982,-0.1066655,0.126388,0.01544563,-0.6019895,-0.1119684,0.2007769
0.8952021,-0.07277856,-0.1040671,-0.1230225,0.1096851,0.004574645,-0.6796549,-0.07077899,0.3016993
0.9463232,-0.1043422,-0.09543214,-0.07180164,0.07833283,0.01327387,-0.6897029,-0.05280496,0.3476297
0.9906819,-0.145263,-0.1081557,-0.02728671,0.03764608,0.0006305353,-0.6697252,0.002933716,0.3404895
1.024355,-0.1683519,-0.1381601,0.00659691,0.01480868,-0.02927913,-0.6307332,0.06125948,0.3358676
1.065028,-0.148786,-0.1610495,0.04753201,0.03463965,-0.05205993,-0.6307636,0.2192644,0.2675785
1.143268,-0.1351672,-0.1388645,0.126078,0.04853402,-0.02975177,-0.6352963,0.560202,0.2061908
1.281797,-0.1088313,-0.08170466,0.2649481,0.07515208,0.02754584,-0.6329868,0.7159396,0.03545167
1.295116,-0.07562281,-0.06601925,0.2786306,0.108645,0.04338231,-0.6974889,0.5272231,-0.223491
1.290648,-0.103663,-0.07799992,0.2745328,0.0808861,0.03156325,-0.7925772,0.3825424,-0.3150329
1.396948,-0.1635726,-0.08436738,0.3811934,0.02124971,0.02536492,-0.893372,0.3299741,-0.2599182
1.38937,-0.2071058,-0.1126959,0.3739486,-0.02202098,-0.002789305,-0.8849959,0.1358523,-0.1732092
1.246823,-0.2154169,-0.2348455,0.2316909,-0.03008054,-0.1247601,-0.9112434,-0.03997385,-0.1111014
1.013354,-0.230547,-0.4678443,-0.001544148,-0.04496885,-0.3575719,-1.151241,-0.01575734,-0.08035353
0.7923652,-0.3087513,-0.5743339,-0.2223571,-0.1229386,-0.463855,-1.28836,0.1153301,-0.09047412
0.8568298,-0.3831578,-0.4003802,-0.1577666,-0.1971131,-0.2896586,-1.152905,0.3067037,-0.1079191
0.9748046,-0.4269517,-0.1858536,-0.03970522,-0.2406701,-0.07483909,-0.7152524,0.5246827,-0.07075925
0.950172,-0.3890003,-0.1213556,-0.06428211,-0.2024674,-0.009992387,-0.137323,0.6682713,0.06934304
1.044685,-0.258519,-0.1620053,0.03026077,-0.0717116,-0.05023872,-0.04282703,0.6986713,0.3849452
1.077351,-0.1794438,-0.2325965,0.06293256,0.007665481,-0.1203746,-0.4081881,0.4978309,0.6699403
1.01035,-0.05818211,-0.2569018,-0.004085314,0.1292553,-0.1441732,-0.638772,0.1466202,0.7848978
1.058579,0.01111072,-0.2181042,0.04410276,0.1988965,-0.1048166,-0.7436782,0.09149815,0.8202726
0.9747894,-0.1616483,-0.1456143,-0.03974953,0.0264968,-0.03171488,-0.82664,0.2737195,0.7367411
0.8709445,-0.2452069,-0.09792701,-0.143677,-0.05669794,0.01663494,-0.8175343,0.3528877,0.6554905
0.8639326,-0.233379,-0.1141257,-0.1507852,-0.04450352,0.001144982,-0.8733035,0.4259577,0.6151832
0.7927314,-0.2788408,-0.08710047,-0.2220879,-0.0895949,0.0289195,-0.8905911,0.4516935,0.5289154
0.8106136,-0.2526697,-0.01792195,-0.2043021,-0.0630473,0.09888157,-0.8042324,0.4043383,0.4728297
0.8161838,-0.2607697,-0.002951941,-0.1988131,-0.07076269,0.1146615,-0.7767373,0.432712,0.3506219
0.7854953,-0.2613146,0.02661082,-0.2295575,-0.07091284,0.1450513,-0.7229139,0.4253152,0.1754823
0.8189044,-0.2243542,0.06205723,-0.1961697,-0.0335459,0.1813313,-0.6975104,0.4068638,0.08941002
0.8021664,-0.2338468,0.04785087,-0.2128864,-0.04261952,0.1679543,-0.6970028,0.4214746,0.007782179
0.8554514,-0.1994984,0.0491474,-0.1595299,-0.007839617,0.1700653,-0.6530946,0.418407,-0.09292808
0.9349026,-0.1901742,0.0457672,-0.07995184,0.001927579,0.1674746,-0.7623977,0.4633288,-0.1359338
0.9966617,-0.1937712,-0.0112917,-0.01800896,-0.001216611,0.1111715,-0.9248082,0.4627961,-0.09236963
1.139166,-0.1994863,-0.06382008,0.1247336,-0.006470852,0.05935893,-0.9584457,0.4396683,-0.0564113
1.256687,-0.2367097,-0.04470485,0.2425394,-0.04322678,0.07914587,-0.9085146,0.5236174,-0.1151908
1.36803,-0.1895477,0.05263389,0.3542015,0.004408438,0.1771091,-0.8518626,0.6982743,-0.1384434
1.422838,-0.1604827,0.1364171,0.4093432,0.03395122,0.2614643,-0.8326554,0.8781695,-0.03329389
1.356587,-0.1921675,0.1027915,0.3434204,0.002746721,0.2283498,-0.7876992,0.7694196,0.1937326
1.295689,-0.2389971,-0.003906775,0.2828248,-0.04360195,0.1220935,-0.6718041,0.3268269,0.4719209
1.23007,-0.3698581,-0.1261898,0.2174694,-0.1739813,0.0001786426,-0.3347714,-0.1602268,0.5644222
1.1068,-0.5298164,-0.2650617,0.09441251,-0.3334519,-0.1383974,0.1071943,-0.3159411,0.4644489
1.019796,-0.6077917,-0.3201359,0.007567093,-0.4109228,-0.1932407,0.2129485,0.283478,0.3796488
1.007999,-0.5185554,-0.2803531,-0.004126918,-0.3211503,-0.1532803,0.1382733,1.00827,0.1662554
0.8974431,-0.3268015,-0.277946,-0.1146307,-0.128815,-0.1507371,-0.02090719,0.9413854,-0.2230116
0.7558616,-0.153553,-0.28328,-0.2562037,0.04506642,-0.1559654,-0.5483309,0.5103341,-0.3560304
0.7873965,-0.08002902,-0.2135131,-0.2246921,0.1192721,-0.08611416,-0.8873557,0.02665364,-0.2003761
0.8720087,-0.1800826,-0.1117278,-0.1401217,0.01994119,0.01574117,-0.6452022,-0.4885838,-0.0961483
0.9429772,-0.2726268,-0.05627152,-0.06920294,-0.07184679,0.07125587,-0.4487569,-0.5341578,-0.03368694
0.9517712,-0.2833744,-0.07502512,-0.06045995,-0.08180851,0.05254835,-0.3645246,-0.3929478,-0.051746
0.8643844,-0.3272113,-0.1084488,-0.1478944,-0.1248304,0.01915654,-0.1797932,-0.4041118,-0.1895729
0.8203158,-0.2938085,-0.1217479,-0.1920017,-0.09058277,0.005874144,-0.1462372,-0.2669967,-0.2414954
0.8186446,-0.1994746,-0.1253625,-0.1936951,0.004625963,0.002261346,-0.1288858,-0.1926577,-0.269357
0.8430523,-0.1295303,-0.1234517,-0.1692845,0.0754724,0.004159667,-0.1112112,-0.2166065,-0.2918677
0.8913222,-0.0390332,-0.1388233,-0.1209796,0.1668926,-0.01123744,-0.2466129,-0.06532278,-0.2153692
0.9374849,-0.007288136,-0.1416436,-0.07474477,0.1995716,-0.01409537,-0.3249065,-0.02359855,-0.1418888
0.9938032,-0.004383953,-0.1256532,-0.01831513,0.2034083,0.001846975,-0.4422845,-0.1277228,0.01720528
0.9861402,0.01126038,-0.1113342,-0.025828,0.219971,0.01610852,-0.5736491,-0.1506861,0.1982944
0.9512701,-0.03936739,-0.06340186,-0.06051062,0.1702354,0.06397405,-0.5511442,-0.1811346,0.2259818
0.947941,-0.07857543,-0.03933706,-0.06361592,0.1318831,0.08796155,-0.6107445,-0.2023311,0.2461483
0.9479412,-0.08890876,-0.06293181,-0.06335599,0.1223612,0.06427649,-0.6635177,-0.1814141,0.2634244
1.001294,-0.09905287,-0.06897239,-0.009707633,0.1129786,0.05813005,-0.5824692,-0.1555286,0.2595496
1.073506,-0.07565635,-0.1027531,0.06283355,0.1370819,0.02422622,-0.5535939,-0.06692843,0.2568626
1.11158,-0.07274169,-0.1647544,0.101265,0.1406441,-0.03791552,-0.5659482,0.1310106,0.2084673
1.169377,-0.08228383,-0.1729015,0.1594416,0.1316859,-0.04621878,-0.5596757,0.3836336,0.1645052
1.258124,-0.09448377,-0.1118258,0.2485808,0.1200023,0.01468824,-0.5067544,0.4335799,0.004313471
1.29788,-0.1197697,-0.0445989,0.2887287,0.09516229,0.08173553,-0.4247587,0.2759705,-0.2495092
1.265074,-0.1266949,-0.0708874,0.2563001,0.0886108,0.05525583,-0.40103,0.2026299,-0.3263674
1.269614,-0.1750033,-0.1859057,0.2611888,0.04060362,-0.05996625,-0.472917,0.2254375,-0.2658209
1.260035,-0.2581646,-0.3171568,0.2519187,-0.04232741,-0.1914314,-0.5793452,0.2646942,-0.26312
1.081336,-0.3090379,-0.3728144,0.07347747,-0.09303671,-0.2473059,-0.6294463,0.2778811,-0.3087218
0.8320279,-0.3508011,-0.3008615,-0.1756278,-0.1346947,-0.1755619,-0.6818162,0.1958374,-0.3297593
0.7602564,-0.3758641,-0.2439415,-0.2472451,-0.1597015,-0.1188327,-0.6536569,0.1378564,-0.4047533
0.9508137,-0.3432278,-0.2425714,-0.0565714,-0.1270477,-0.117628,-0.5151441,0.2784237,-0.4377901
1.182595,-0.2707682,-0.2023256,0.1752969,-0.05459943,-0.07751746,-0.4614829,0.5082288,-0.1908759
1.288787,-0.184219,-0.1804694,0.2815449,0.03191584,-0.05576311,-0.3747516,0.5518204,0.2300509
1.299172,-0.1015477,-0.1836059,0.2919477,0.114533,-0.05896669,-0.3163538,0.4450785,0.5528733
1.194387,-0.08683214,-0.17361,0.1871321,0.1291723,-0.04900219,-0.4429155,0.4045989,0.6087213
0.9983991,-0.1060519,-0.1489444,-0.008943739,0.1098506,-0.0243324,-0.5392755,0.4424388,0.5190856
0.7819414,-0.08225052,-0.08692434,-0.2255454,0.1335201,0.03772649,-0.7218504,0.4448329,0.5076991
0.6796261,-0.08100443,-0.04908551,-0.3280508,0.1346006,0.07563573,-1.027153,0.3204196,0.5167471
0.6952378,-0.119647,-0.02864755,-0.3126586,0.09575506,0.09617054,-1.179358,0.1543629,0.5299186
0.6900655,-0.1736966,-0.004444186,-0.3180614,0.04146269,0.1204907,-1.183169,0.07863569,0.5752938
0.7739175,-0.2378702,-0.02848889,-0.2344335,-0.02299309,0.09657553,-1.088232,0.0712141,0.5430684
0.8644699,-0.2599676,-0.03780907,-0.1440851,-0.04540921,0.08739109,-0.9771051,0.08866744,0.4059187
0.8414534,-0.2580946,-0.01557469,-0.1672758,-0.04388672,0.1097615,-0.8461274,0.1185862,0.2310358
0.8442936,-0.2420514,-0.00464254,-0.1645731,-0.0282203,0.1208244,-0.7341631,0.1458934,0.1304761
0.8084237,-0.2027989,0.008962897,-0.2005376,0.01063359,0.1345493,-0.7746866,0.148986,0.09137346
0.8085948,-0.1892655,0.01115985,-0.2004115,0.02374967,0.1368486,-0.7273411,0.1794785,0.02810234
0.8884017,-0.1988999,0.001818965,-0.1205938,0.01368124,0.1275869,-0.6477551,0.2579391,0.02654586
0.9532316,-0.2191025,-0.02190904,-0.05569369,-0.006970373,0.1039098,-0.6970109,0.2494673,0.04804486
1.092668,-0.2368981,-0.06015055,0.08387226,-0.02522798,0.06568693,-0.6416262,0.1484445,-0.0202236
1.212841,-0.2014982,-0.06388904,0.2042284,0.00969971,0.06193272,-0.5682586,0.1003266,-0.0717459
1.345403,-0.1210522,0.000577253,0.3370148,0.08966522,0.1263475,-0.5562461,0.2262184,-0.05221736
1.497717,-0.0633767,0.1086487,0.4895768,0.1468509,0.2343287,-0.5321029,0.5099286,0.06924897
1.479056,-0.07510519,0.1431337,0.4711646,0.13462,0.2686788,-0.5711576,0.6745323,0.3099313
1.420746,-0.1566054,0.0210852,0.4130812,0.05260056,0.1464428,-0.6134766,0.5657202,0.5086257
1.357108,-0.2956345,-0.1357035,0.3496246,-0.08696586,-0.01059118,-0.5258868,0.3167739,0.5785522
1.232681,-0.4819562,-0.1988979,0.2253187,-0.2738386,-0.07408753,-0.1569618,-0.03271038,0.4796765
1.079248,-0.6285518,-0.2261087,0.0719346,-0.4209872,-0.1016508,0.40979,-0.257839,0.2951055
0.8597801,-0.5891655,-0.2370605,-0.1475575,-0.3821377,-0.1129967,0.681769,0.05496339,0.1789948
0.7112878,-0.3754476,-0.2160099,-0.2961399,-0.1689217,-0.09237253,0.4529522,0.5494256,-0.05268959
0.7208546,-0.1648113,-0.2380459,-0.286714,0.04125965,-0.1148584,0.07918765,0.5957231,-0.3689076
0.8202396,-0.1104909,-0.2372867,-0.1875035,0.09517409,-0.114564,-0.2897567,0.239906,-0.407079
0.9451556,-0.2311574,-0.154156,-0.062781,-0.02585318,-0.03190556,-0.4942532,-0.3172789,-0.1777499
1.00491,-0.3642888,-0.07135683,-0.003230149,-0.159303,0.05041908,-0.111341,-0.7270354,0.038264
0.9761052,-0.422938,-0.02641541,-0.0322455,-0.2182262,0.09488486,0.3254636,-0.747179,0.009503944
0.906623,-0.4247829,-0.06988702,-0.1019416,-0.2202941,0.05093497,0.3418343,-0.6369753,-0.2199707
0.8136009,-0.3091446,-0.1228266,-0.1951765,-0.1048207,-0.002487147,0.387704,-0.4915422,-0.4278434
0.7261213,-0.1839128,-0.1077477,-0.2828594,0.02030791,0.01210497,0.395741,-0.4456817,-0.4975596
0.7712317,-0.1280333,-0.1272531,-0.2379317,0.07614441,-0.007890346,0.3637224,-0.5607649,-0.3699773
0.892644,-0.05576374,-0.1570287,-0.1166702,0.1484248,-0.03815722,0.3860171,-0.5637018,-0.2006541
0.9300562,-0.0389967,-0.1721274,-0.07936968,0.1652469,-0.05374585,0.2494761,-0.4029783,-0.1099253
0.9334965,-0.06756949,-0.1588495,-0.07599869,0.1367628,-0.04095335,0.176096,-0.1883019,-0.03858856
0.9116225,-0.05425977,-0.10036,-0.09789814,0.1501841,0.01705832,0.1439543,-0.1821079,0.0003421751
0.8944523,-0.0364776,-0.08330999,-0.1150484,0.1680913,0.03363945,0.05837239,-0.3211823,0.1305242
0.8989654,-0.0256053,-0.05055438,-0.1104679,0.1790925,0.06593459,-0.02199928,-0.3112174,0.2692995
0.8905521,-0.03237044,-0.0418154,-0.1187644,0.1724507,0.07421965,-0.1856462,-0.2817553,0.2497596
0.9729627,-0.05985865,-0.1134301,-0.03618585,0.1450714,0.002155423,-0.2487862,-0.1586175,0.2476403
1.040547,-0.08229393,-0.1291741,0.03161716,0.1227234,-0.01403468,-0.2336041,0.03935467,0.2056669
1.01842,-0.08339089,-0.1331599,0.009754373,0.1216863,-0.01846224,-0.2693724,0.09818288,0.09939124
1.069636,-0.09230425,-0.1247264,0.0612778,0.1128007,-0.01046469,-0.2842048,0.1792108,0.07459507
1.231691,-0.1557599,-0.05171095,0.2236744,0.04933756,0.06212181,-0.2045491,0.2380598,-0.02400391
1.386383,-0.1998379,-0.01022165,0.3787315,0.0052152,0.1031882,0.008072691,0.1281512,-0.24351
1.374204,-0.1470504,-0.03619888,0.3669248,0.05792217,0.07679111,0.06729592,0.02966797,-0.4075382
1.390091,-0.07412446,-0.1466577,0.3831691,0.130732,-0.03408715,-0.1844037,0.1192571,-0.4320482
1.506268,-0.07149925,-0.2452452,0.4996708,0.1332038,-0.1330932,-0.4791707,0.242814,-0.4065601
1.384563,-0.1045027,-0.2795034,0.378236,0.1000065,-0.1677642,-0.6310641,0.2387012,-0.382675
1.144044,-0.162217,-0.3565594,0.1379157,0.04205598,-0.2452189,-0.8137786,0.1963671,-0.315712
0.9422713,-0.2881245,-0.3858549,-0.06373724,-0.08412958,-0.2748883,-0.9760865,0.04349376,-0.3013641
0.8047013,-0.4093656,-0.2881304,-0.2012641,-0.2056852,-0.1775014,-0.7700969,-0.09930974,-0.3257086
0.9386629,-0.4450977,-0.203047,-0.06732586,-0.241758,-0.09270993,-0.4764109,0.07810311,-0.2503609
1.133781,-0.3934814,-0.2033948,0.1277119,-0.1904952,-0.09329913,-0.2139718,0.3858907,-0.005039748
1.227851,-0.295997,-0.2035914,0.2216483,-0.09336497,-0.09368411,0.08919972,0.507582,0.4004417
1.263942,-0.2011021,-0.1775772,0.2575484,0.001183135,-0.06780406,0.05258282,0.4110794,0.6668226
1.100237,-0.1131141,-0.1787652,0.09358822,0.08883462,-0.06907125,-0.07075486,0.3144748,0.6666381
0.8870373,-0.0639328,-0.1580021,-0.1199317,0.1376878,-0.04833267,-0.1786429,0.3137953,0.6715711
0.7291499,-0.0484527,-0.09834116,-0.2781986,0.1528432,0.01135719,-0.4956886,0.2097349,0.7086929
0.6159062,-0.05430703,-0.06361103,-0.3918663,0.1466609,0.04616656,-0.6924675,0.09574281,0.6767973
0.6568059,-0.1225594,-0.06687554,-0.3514144,0.0780714,0.04302667,-0.7750462,0.1558902,0.6331335
0.7090492,-0.2003322,-0.07228211,-0.2996219,-5.160146e-05,0.03778442,-0.7803562,0.201876,0.5403563
0.7639357,-0.2533496,-0.04483288,-0.2451708,-0.05343228,0.06543204,-0.6612173,0.1663849,0.3276465
0.8308279,-0.2995766,-0.005913556,-0.1786846,-0.1000327,0.1045779,-0.529887,0.1655421,0.07859038
0.7938556,-0.3157323,0.03405661,-0.2160231,-0.1165664,0.1447955,-0.3443337,0.1532955,-0.0397983
0.7896885,-0.2859331,0.05200556,-0.2205079,-0.08714333,0.1630045,-0.2667455,0.1346774,-0.02517084
0.7946606,-0.2224115,0.03922169,-0.2157965,-0.02399022,0.1504838,-0.2323902,0.1305384,-0.02660451
0.7935081,-0.1965347,0.04678368,-0.2171449,0.001528879,0.1583033,-0.1740321,0.06143697,-0.05978975
0.8849329,-0.1970289,0.02941099,-0.1258449,0.0006890286,0.1411742,-0.2427838,0.02930686,-0.0746334
0.9975483,-0.17868,-0.01349312,-0.01327973,0.0187044,0.09849267,-0.2670467,0.1265385,-0.06668766
1.152091,-0.1877889,-0.01266717,0.1412853,0.009273651,0.09951478,-0.2723698,0.2095967,-0.04374162
1.291541,-0.182301,-0.005643818,0.2808207,0.01445091,0.1067039,-0.2984404,0.1983146,-0.0255191
1.343088,-0.1177754,0.01659874,0.3325019,0.07867579,0.129078,-0.3078608,0.2742107,0.01316567
1.376664,-0.04446264,0.09823919,0.366242,0.1516952,0.2108114,-0.3966134,0.5277399,0.1225022
1.404819,-0.05606029,0.1525926,0.3945696,0.1398064,0.2652128,-0.4172834,0.5687868,0.3526892
1.447766,-0.20877,0.04329839,0.4376776,-0.01319779,0.1559136,-0.3226367,0.144296,0.5906147
1.447223,-0.3945487,-0.1556764,0.4372635,-0.1992754,-0.04312457,-0.008123786,-0.2103448,0.5693835
1.316718,-0.5301566,-0.2170917,0.306834,-0.3351801,-0.1046603,0.5168366,0.02906665,0.3209735
1.058849,-0.6177706,-0.173801,0.04897579,-0.4230749,-0.06154036,0.7769617,0.3957267,0.09234523
0.7905588,-0.5890258,-0.1646236,-0.2193743,-0.3945769,-0.05257619,0.820206,0.4131232,-0.03315678
0.7158296,-0.3953869,-0.1771516,-0.2942242,-0.2011333,-0.06535292,0.6970485,0.3985231,-0.09481587
0.7925486,-0.1699394,-0.236027,-0.2176712,0.02418139,-0.1245058,0.1359077,0.1638234,-0.1772585
0.8685745,-0.1210108,-0.3003292,-0.1418408,0.07304095,-0.189106,-0.2729182,-0.4881147,-0.1958683
0.946165,-0.2361778,-0.2408736,-0.06446313,-0.04213605,-0.1299596,-0.1632546,-0.8610722,-0.05677517
0.9878288,-0.3576051,-0.1246122,-0.02302228,-0.1635183,-0.01400955,0.02679726,-0.8210259,-0.01055344
0.921499,-0.4364818,-0.09647303,-0.0895805,-0.2422939,0.01382093,0.2215826,-0.7456044,-0.1700503
0.8101666,-0.4548259,-0.1188888,-0.201142,-0.2604755,-0.008899344,0.3664667,-0.7155907,-0.4095803
0.746643,-0.3775425,-0.1239983,-0.2648871,-0.1829611,-0.01430853,0.3823439,-0.6572812,-0.6060314
0.7380489,-0.2477063,-0.1411442,-0.2736837,-0.05282037,-0.03174827,0.415126,-0.5629527,-0.5994255
0.8029716,-0.1255398,-0.1788569,-0.2089324,0.0697236,-0.06974724,0.430751,-0.4915516,-0.4791394
0.8872306,-0.07764265,-0.2122818,-0.1248033,0.118065,-0.1034477,0.4017981,-0.2612372,-0.3675734
0.9272968,-0.08701062,-0.2038586,-0.08481974,0.1091981,-0.09528543,0.3547913,-0.06410393,-0.2834195
0.9589427,-0.03215513,-0.1733593,-0.05320652,0.1645999,-0.06502781,0.2956621,-0.0889873,-0.2409841
0.9378532,-0.01001772,-0.1456779,-0.07427827,0.1873169,-0.03756582,0.1714051,-0.1025408,-0.08076323
0.8979232,-0.04061243,-0.08348086,-0.1141402,0.1573226,0.02443565,0.001503233,-0.2242207,0.1143309
0.9019585,-0.003589732,-0.05462208,-0.1099856,0.1949542,0.05312181,-0.04600839,-0.3511301,0.1865138
0.9123189,-0.04891032,-0.07132922,-0.09945315,0.1502399,0.0362623,-0.02678929,-0.3580864,0.2258021
0.9809213,-0.1223451,-0.0583597,-0.03062526,0.07739904,0.04909647,0.07098456,-0.3146092,0.2049837
1.079655,-0.09430414,-0.07476556,0.06838547,0.1060144,0.03256919,0.2538433,-0.1517003,0.145393
1.1268,-0.08459705,-0.1424352,0.1158538,0.1162711,-0.03521017,0.2774564,-0.03666853,0.1200533
1.158536,-0.07150002,-0.1785065,0.1479513,0.1298875,-0.07137995,0.2249026,0.1481911,0.09065533
1.201269,-0.06508173,-0.1069713,0.1910719,0.1367895,6.941651e-05,0.2546038,0.2848456,0.003441616
1.221609,-0.07376102,-0.001631316,0.2118157,0.1285526,0.1053364,0.2860242,0.05452757,-0.1933518
1.208313,-0.05425061,-0.02828853,0.1989267,0.148459,0.07861628,0.2544162,-0.1321533,-0.3524308
1.22925,-0.07517314,-0.1518602,0.2202621,0.1278814,-0.04501212,0.03085572,-0.09389206,-0.3411541
1.246986,-0.1301992,-0.2880535,0.2383766,0.07314516,-0.1812564,-0.2888919,0.07956597,-0.3015982
1.151217,-0.2454073,-0.3657129,0.1429555,-0.04182959,-0.2589557,-0.3937836,0.2083836,-0.30617
0.9804389,-0.3947445,-0.3222169,-0.02751382,-0.1909866,-0.2154792,-0.3956914,-0.06773159,-0.3520289
0.907623,-0.4433815,-0.3075672,-0.1000599,-0.2394875,-0.200818,-0.3956899,-0.3750574,-0.5045751
1.105558,-0.4129742,-0.3280973,0.09810867,-0.2089756,-0.2212972,-0.196468,-0.2101122,-0.5717901
1.392519,-0.3635347,-0.2808455,0.3852665,-0.15945,-0.1739472,0.09219679,0.1941055,-0.1827118
1.453536,-0.2973372,-0.2778482,0.4464343,-0.09317447,-0.1707979,0.345208,0.4903198,0.46931
1.348117,-0.2378608,-0.2735502,0.3411039,-0.03362133,-0.1662895,0.4131329,0.5019461,0.7167938
1.121094,-0.2072064,-0.1818435,0.1140932,-0.002888084,-0.07431062,0.2499923,0.31083,0.5781633
0.8015657,-0.1563239,-0.1121716,-0.2055038,0.04807599,-0.004304106,0.1996222,0.2285369,0.5644842
0.7142364,-0.1119022,-0.1124359,-0.2929754,0.0925804,-0.004174293,0.009581639,0.1431905,0.5641653
0.7753363,-0.1557862,-0.1346168,-0.2320754,0.04877676,-0.02590613,-0.3114811,0.03694504,0.4590472
0.6665423,-0.1702479,-0.111186,-0.3411082,0.03438985,-0.001975866,-0.3402181,0.1279125,0.5143133
0.657194,-0.1503816,-0.1041638,-0.3507157,0.05432302,0.005591605,-0.452713,0.1211308,0.5799023
0.776613,-0.2034833,-0.1203299,-0.2315576,0.001278603,-0.009988093,-0.5601211,0.09892481,0.4963036
0.7505621,-0.2839542,-0.05760504,-0.2578551,-0.07914488,0.05335963,-0.5014746,0.1729387,0.3693828
0.7636531,-0.3681414,-0.01378669,-0.2449837,-0.1632917,0.0978313,-0.4448356,0.09746319,0.1499576
0.7844074,-0.3557676,0.002041252,-0.2244104,-0.1508784,0.1143354,-0.1914732,0.100921,-0.00886575
0.7496095,-0.2868075,0.04162996,-0.2593406,-0.08187289,0.1546143,-0.09679496,0.08603929,-0.02955674
0.8257576,-0.2845999,0.0301722,-0.1832673,-0.0796081,0.143851,-0.1502854,0.02469431,-0.1508321
0.8853624,-0.2074261,0.00711903,-0.123673,-0.002362462,0.121487,-0.08942975,0.1064067,-0.2272233
0.9655712,-0.1523302,-0.002709973,-0.04340689,0.05282046,0.1123335,-0.2271026,0.1524471,-0.1494776
1.079819,-0.1996842,-0.008846289,0.07096506,0.005566963,0.1068522,-0.3232763,0.2740446,-0.1346414
1.127197,-0.1768236,0.005804957,0.118527,0.02853888,0.1221316,-0.2594377,0.3138717,-0.1520153
1.215914,-0.144692,0.02276887,0.2074798,0.06079006,0.1396912,-0.254192,0.232059,-0.1907073
1.286194,-0.09709018,0.05512658,0.2780347,0.1085165,0.1726059,-0.2528175,0.3227993,-0.2377811
1.371119,-0.04589769,0.1167941,0.3632563,0.1598334,0.2347846,-0.2224438,0.3614597,-0.05178603
1.475381,-0.1333264,0.1478828,0.467817,0.07252235,0.2663302,-0.1184254,0.3338988,0.3615605
1.458251,-0.2682668,0.02811036,0.4509684,-0.06231153,0.1469512,0.002023123,0.2100493,0.664136
1.38273,-0.3806714,-0.1586241,0.3756873,-0.1746205,-0.03945888,0.3044611,-0.0281228,0.6000403
1.194439,-0.4766658,-0.2198093,0.1875775,-0.2705237,-0.100388,0.8602137,0.0004133883,0.3451637
0.9331054,-0.5393833,-0.2148542,-0.0736431,-0.3331431,-0.09523827,1.164127,0.2237783,0.1161206
0.7907285,-0.5515281,-0.224511,-0.2159738,-0.3451688,-0.1047533,1.061967,0.5196619,-0.1550151
0.753986,-0.4509014,-0.2430945,-0.2527261,-0.2443874,-0.1232392,0.7173172,0.7280812,-0.3694331
0.780292,-0.27459,-0.2777394,-0.2264708,-0.06787456,-0.1578215,0.1646965,0.4141628,-0.4481306
0.8508631,-0.1125664,-0.2747467,-0.1559767,0.09440088,-0.154792,-0.2063713,-0.1324278,-0.4245445
0.9410479,-0.0776488,-0.2254112,-0.06588343,0.1296165,-0.105436,-0.1078181,-0.4743793,-0.269069
0.9852269,-0.2019642,-0.1551261,-0.02180335,0.005637339,-0.03513935,0.07668734,-0.7275548,-0.1861828
0.9703643,-0.3179977,-0.07392653,-0.03676851,-0.1100281,0.04606687,0.2077322,-0.7787934,-0.2556463
0.9275506,-0.3566866,-0.06086032,-0.07968586,-0.1483181,0.05913526,0.3653949,-0.6156171,-0.3480917
0.8138262,-0.3405934,-0.0972489,-0.1935109,-0.1317927,0.02274274,0.4054126,-0.5711332,-0.4197268
0.7357182,-0.2714538,-0.0963501,-0.2717092,-0.06218485,0.02362991,0.5091,-0.5864463,-0.3996694
0.7602455,-0.1770063,-0.1169602,-0.2472514,0.03276775,0.002999817,0.5902636,-0.5334034,-0.3078785
0.8075619,-0.06901071,-0.1576856,-0.1999722,0.1413016,-0.03775375,0.467772,-0.450077,-0.1767648
0.8874249,-0.02769118,-0.1508159,-0.1201053,0.1831847,-0.03091905,0.3971898,-0.3487302,-0.08754771
0.9355565,-0.04050766,-0.1352347,-0.07192349,0.1709459,-0.01537754,0.2907379,-0.2950984,-0.06591105
0.9103843,-0.01654827,-0.1086663,-0.09699685,0.1954856,0.01114794,0.1627444,-0.2676012,0.04097674
0.8900876,-0.004741949,-0.06205645,-0.1171452,0.2078633,0.05771179,0.09839832,-0.3102912,0.1671232
0.8784083,-0.005413796,-0.04571609,-0.1286253,0.207743,0.07400185,-0.03742022,-0.4092816,0.2785643
0.9105926,-0.0127301,-0.05912689,-0.09618908,0.2009475,0.06053385,-0.08608769,-0.4188239,0.3566306
1.012213,-0.04191062,-0.0737712,0.005736407,0.1722476,0.0458228,-0.07556904,-0.3200546,0.2847461
1.100017,-0.04705691,-0.1007714,0.09389585,0.1675337,0.01874456,-0.0967279,-0.1335674,0.1980174
1.149894,-0.06436913,-0.1467296,0.1441731,0.1505991,-0.02730341,-0.1098127,0.006298408,0.1491949
1.203705,-0.1031753,-0.1393381,0.1984162,0.1121107,-0.02001228,-0.1235469,0.1237001,0.1047631
1.254783,-0.1278297,-0.05521357,0.2499489,0.08771092,0.06400258,0.03136125,0.2171337,0.01616913
1.254578,-0.1319582,-0.002505725,0.2502048,0.08377255,0.1165911,0.1998655,0.05394514,-0.2251928
1.261666,-0.1186463,-0.07636247,0.2577456,0.09720947,0.04260281,0.07107304,-0.1112525,-0.4103474
1.382324,-0.132317,-0.2391244,0.3788349,0.08359851,-0.1203044,-0.2090183,-0.06628208,-0.4254844
1.457279,-0.1670171,-0.3579621,0.4541838,0.04889301,-0.2392975,-0.4045027,0.01083179,-0.4434676
1.235248,-0.2257927,-0.3872961,0.2324891,-0.009951399,-0.2687874,-0.4573507,0.07873114,-0.4465198
0.8792295,-0.3178741,-0.3554355,-0.1232596,-0.1021609,-0.2370705,-0.4650561,0.05056994,-0.382009
0.7997015,-0.3855337,-0.2928546,-0.2025857,-0.1700003,-0.1746092,-0.4538798,-0.01441327,-0.3070633
1.003329,-0.4078322,-0.2439939,0.0011856,-0.1925195,-0.125835,-0.2721181,0.07460693,-0.2285876
1.192644,-0.3604688,-0.2077564,0.1905938,-0.1454056,-0.08964498,0.02649979,0.3673116,-0.04014495
1.255452,-0.2618633,-0.1879692,0.2534431,-0.04706741,-0.06986332,0.2462308,0.6625187,0.2968218
1.170433,-0.1620195,-0.1669062,0.1684077,0.05249772,-0.0487627,0.289939,0.507281,0.5395535
1.027298,-0.08145543,-0.1473856,0.02519364,0.1327734,-0.02916138,0.1671912,0.2399298,0.5673141
0.953692,-0.07774895,-0.1563916,-0.04855517,0.136179,-0.03804497,0.01718981,0.3530894,0.5372262
0.8119642,-0.1038232,-0.1226872,-0.1904829,0.109787,-0.004177941,-0.2392367,0.3055345,0.5097881
0.6151956,-0.119245,-0.07727904,-0.3874974,0.09402621,0.04143038,-0.5681799,0.1356963,0.5073279
0.615124,-0.1676221,-0.07762638,-0.3878428,0.04528656,0.04131665,-0.6391498,0.206223,0.5411865
0.7396208,-0.2104189,-0.07709029,-0.263627,0.002102736,0.04211492,-0.6062482,0.1277018,0.5403447
0.7665303,-0.2619276,-0.06941124,-0.2369878,-0.0498158,0.05007973,-0.6227445,0.0493504,0.4415621
0.7526667,-0.2973474,-0.0490347,-0.2510972,-0.08566422,0.0707606,-0.5741839,0.1018398,0.2450703
0.7766186,-0.2762462,-0.03072433,-0.227355,-0.06500492,0.0893885,-0.4940881,0.05125183,0.1032983
0.7950138,-0.2966049,0.01379536,-0.2091234,-0.08581283,0.1342328,-0.3304737,0.07885273,0.03982117
0.8273542,-0.3064441,0.06982784,-0.1768923,-0.09610273,0.1905896,-0.1423615,0.1060257,-0.08884465
0.8643292,-0.2473113,0.03608759,-0.1399659,-0.03741652,0.1571645,-0.01794117,0.1050617,-0.206256
0.9433674,-0.1921641,-0.01822179,-0.06091212,0.01729208,0.1031528,-0.01417581,0.1544322,-0.2240476
1.054673,-0.1494995,-0.03820331,0.05047287,0.05952739,0.08344506,-0.153637,0.09408527,-0.194839
1.087396,-0.1730442,-0.03005067,0.08333598,0.03556171,0.09184335,-0.2011525,0.03389992,-0.1519218
1.191926,-0.2068177,0.02504547,0.1880575,0.001374014,0.1471534,-0.08870105,0.02567015,-0.1361031
1.344506,-0.149098,0.05399642,0.3408691,0.05868569,0.1762819,0.01349192,0.1405716,-0.1312898
1.387279,-0.1151568,0.06914553,0.3838957,0.09222354,0.1915663,-0.08976117,0.4713651,-0.04311922
1.463826,-0.1295105,0.08332166,0.4606996,0.07746849,0.2058287,-0.2343801,0.6567428,0.1991107
1.459174,-0.191251,0.000424976,0.4562839,0.01532604,0.122963,-0.09828847,0.3582085,0.483478
1.302236,-0.3654181,-0.1608412,0.2995404,-0.1592442,-0.03833084,0.2436158,-0.2232548,0.5627226
1.190436,-0.515541,-0.2803627,0.1878785,-0.3097655,-0.1579363,0.6969142,-0.4660709,0.4513033
1.058218,-0.5248413,-0.284951,0.05573049,-0.319448,-0.1626565,0.9487854,-0.08278077,0.3065211
0.9287079,-0.4649067,-0.2676996,-0.0737765,-0.2598646,-0.1455737,0.8336814,0.5889678,0.02431207
0.8703618,-0.3751408,-0.3005356,-0.1321832,-0.1704057,-0.1786038,0.4156403,0.9000925,-0.3879334
0.8093368,-0.1963166,-0.2818818,-0.1933225,0.008163512,-0.1601587,-0.3598631,0.3880018,-0.536011
0.8013189,-0.06449824,-0.2092348,-0.201496,0.1397797,-0.08772555,-0.5693162,-0.4416511,-0.301003
0.8579493,-0.1738565,-0.1180249,-0.1450496,0.03026696,0.003272455,-0.05353698,-0.8656946,-0.07533464
0.9384507,-0.3107026,-0.03936318,-0.06474964,-0.1066917,0.0817268,0.09818258,-0.932643,-0.07915988
0.9510402,-0.3455279,-0.06796323,-0.05237158,-0.1415889,0.05292261,0.1529361,-0.8308994,-0.1826473
0.8506936,-0.3782159,-0.1097029,-0.1529342,-0.1743052,0.01097976,0.3200521,-0.6889183,-0.2728875
0.7661835,-0.304795,-0.1151204,-0.2376579,-0.1008644,0.00535862,0.3055261,-0.6211484,-0.2940674
0.7306834,-0.1789551,-0.1690511,-0.2733593,0.02504591,-0.04877593,0.3432498,-0.532975,-0.2596994
0.7683301,-0.1214209,-0.1979181,-0.2358893,0.08269926,-0.07784503,0.2782255,-0.506469,-0.2093991
0.8486596,-0.08495559,-0.1976624,-0.155701,0.1193264,-0.07778642,0.2188325,-0.5115047,-0.09626457
0.8973201,-0.09567602,-0.1946864,-0.1071382,0.1088021,-0.07499845,0.2815904,-0.3404153,0.001505756
0.9427313,-0.09490828,-0.1479428,-0.06177732,0.1097918,-0.02843039,0.2455708,-0.2186952,0.02812473
0.9313089,-0.06185961,-0.1169094,-0.07320095,0.1430796,0.002442141,0.2132263,-0.2224966,0.09919163
0.9247953,-0.06706544,-0.09017758,-0.07966656,0.1381219,0.02902772,0.1173815,-0.222815,0.1725716
0.9654055,-0.07493868,-0.06071103,-0.03895924,0.1304972,0.05836138,0.05202282,-0.2380594,0.20968
0.9935668,-0.09894995,-0.06359119,-0.0106527,0.1067276,0.05535894,0.0920015,-0.1374629,0.2192201
1.062684,-0.1110319,-0.06192387,0.05865547,0.09487419,0.05691141,0.07165073,-0.009061638,0.1443543
1.086468,-0.09457489,-0.09588705,0.08266957,0.1115413,0.02283789,0.0765106,0.07699818,0.08574038
1.102158,-0.1183062,-0.1264516,0.09862461,0.08799717,-0.007834338,0.08186176,0.2437216,0.06294542
1.210715,-0.1497657,-0.06112553,0.2074706,0.05669844,0.05738571,0.1124401,0.3125678,-0.04204216
1.2614,-0.1743453,-0.01115965,0.2584597,0.03225086,0.1072457,0.1647284,0.171251,-0.2629101
1.279291,-0.1746207,-0.08491031,0.2766551,0.03207779,0.03338609,0.09650798,0.01444658,-0.4924745
1.360826,-0.1575694,-0.2180972,0.3584809,0.04920194,-0.09991462,-0.05341092,0.002603037,-0.5544012
1.412782,-0.1789573,-0.3266823,0.4106973,0.02785726,-0.2086159,-0.2292848,-0.02024981,-0.5567495
1.281879,-0.1964065,-0.3886652,0.2800084,0.01042185,-0.2707092,-0.3538611,-0.141687,-0.578043
0.9697318,-0.2666921,-0.3645611,-0.03198587,-0.05987782,-0.2466985,-0.4268511,-0.202914,-0.4966845
0.7606737,-0.4030691,-0.2958885,-0.2409525,-0.1962927,-0.1780907,-0.3328487,-0.1924958,-0.4271956
0.8500987,-0.439775,-0.2712651,-0.1514892,-0.2330521,-0.1534944,-0.03304849,-0.005780579,-0.3883183
1.160609,-0.3697859,-0.2532016,0.159017,-0.1631211,-0.1354142,0.1586197,0.3931564,-0.2011172
1.414925,-0.2756392,-0.2354265,0.4132878,-0.06902713,-0.1175741,0.2873313,0.6601587,0.1306672
1.360904,-0.1956776,-0.2216194,0.3591718,0.01089269,-0.1036511,0.2933699,0.5195851,0.4166052
1.183371,-0.1466681,-0.1917509,0.1814796,0.05987254,-0.07361398,0.05465986,0.2534883,0.5022308
1.058985,-0.07763966,-0.1682031,0.05686326,0.1288809,-0.04984467,-0.09972444,0.2233667,0.5150478
0.8353429,-0.01828023,-0.1456384,-0.1670811,0.1882242,-0.02700689,-0.3427031,0.1657533,0.5620073
0.6471914,-0.04161441,-0.1351033,-0.3555975,0.16487,-0.01614938,-0.6391069,0.1089718,0.5845952
0.6364115,-0.09283927,-0.1024747,-0.366787,0.1136132,0.01684732,-0.6610409,0.2055344,0.6284906
0.6236839,-0.1609404,-0.07814984,-0.3799473,0.04546228,0.04158176,-0.7153403,0.1776784,0.6624189
0.6740643,-0.2561974,-0.1011822,-0.330001,-0.04986475,0.01899505,-0.700877,0.1846341,0.5298182
0.7791931,-0.3099858,-0.05915473,-0.2252886,-0.1037418,0.06149873,-0.4985822,0.1836994,0.1941574
0.7956165,-0.3513924,-0.01073625,-0.2092496,-0.1452503,0.1104179,-0.3272838,0.1056339,-0.1146202
0.8280666,-0.3603547,-0.01228027,-0.1771415,-0.1543206,0.1093919,-0.1649499,0.2194289,-0.151586
0.8381993,-0.2990626,0.01037548,-0.1673005,-0.09313469,0.1325746,-0.08489975,0.2697621,-0.1124595
0.828371,-0.2511303,0.03941479,-0.1773639,-0.04530054,0.1621414,0.04379999,0.2285718,-0.2086653
0.8737482,-0.1960102,0.06239967,-0.1321601,0.009732712,0.1856451,0.0879253,0.2397694,-0.2653478
0.936623,-0.1623162,0.02664101,-0.06939333,0.04335159,0.1503874,-0.1610931,0.221554,-0.2646775
1.079486,-0.1886688,-0.01936924,0.07342731,0.01693414,0.1048518,-0.2825349,0.2023554,-0.3085961
1.241685,-0.1836341,0.01883069,0.2356429,0.02191224,0.1434937,-0.1509542,0.113691,-0.2723377
1.37473,-0.149513,0.05988778,0.3687537,0.0559832,0.1849543,-0.009640948,0.1372621,-0.1717262
1.44523,-0.1014714,0.114325,0.439348,0.1039786,0.2397496,-0.06842214,0.4493276,-0.05104306
1.38654,-0.09302732,0.1600195,0.3807588,0.1123761,0.2857481,-0.1347588,0.6475895,0.1536946
1.34596,-0.2097884,0.06609843,0.3402661,-0.004436226,0.1920674,-0.0121002,0.184309,0.3204147
1.300376,-0.4104731,-0.08850696,0.2947376,-0.2051778,0.03763181,0.1958012,-0.4624619,0.379975
1.177433,-0.577906,-0.188238,0.1718034,-0.3726668,-0.06200134,0.7652688,-0.3630947,0.2743121
1.036127,-0.5874001,-0.2642627,0.03045318,-0.3822025,-0.137995,1.217434,-0.08054184,0.03654451
0.8645612,-0.4820836,-0.3037183,-0.1412122,-0.2768964,-0.1774768,0.9652105,0.05043303,-0.06811548
0.8265326,-0.3775841,-0.2944626,-0.1793885,-0.1723621,-0.1682927,0.6124601,0.5162598,-0.09846028
0.9439763,-0.2746927,-0.3009857,-0.06213036,-0.06938221,-0.1749206,0.3652036,0.6390029,-0.1773698
0.9712987,-0.1853617,-0.275193,-0.03502245,0.02009291,-0.1492547,0.2180386,0.1979404,-0.2208983
0.9363495,-0.1746222,-0.1935696,-0.07020886,0.03102969,-0.06776997,0.2340804,-0.2420902,-0.2159631
0.9386923,-0.2305383,-0.1253664,-0.06812079,-0.02464079,0.0002890297,0.1903348,-0.6421187,-0.1790063
0.9300101,-0.2542101,-0.06533658,-0.07706995,-0.04802267,0.06017186,0.2932817,-0.7699042,-0.1874363
0.888208,-0.2817977,-0.07359051,-0.1191454,-0.07527843,0.05176766,0.4393233,-0.6352459,-0.1999273
0.794405,-0.3190102,-0.1152166,-0.2132216,-0.1121179,0.009986491,0.4110464,-0.5399259,-0.1977346
0.7104614,-0.2596187,-0.08273237,-0.2974285,-0.05231189,0.04230965,0.4828851,-0.4789233,-0.2469281
0.7117405,-0.1779811,-0.08838174,-0.2963901,0.02978113,0.0364926,0.5318898,-0.4749038,-0.2441198
0.783334,-0.1010891,-0.1250642,-0.2250016,0.1071655,-0.0003648709,0.477,-0.4780994,-0.2234772
0.9034197,-0.02996945,-0.1280641,-0.1050746,0.1788073,-0.003546934,0.4649166,-0.4655135,-0.1599586
0.9744144,-0.03531097,-0.1582163,-0.0341863,0.1740069,-0.03388749,0.4061704,-0.4640161,0.03069195
0.9557675,-0.03275174,-0.1503376,-0.05288667,0.1771149,-0.02620139,0.327469,-0.4345762,0.1873417
0.935518,-0.02211566,-0.1066438,-0.07313748,0.1882962,0.01729742,0.2248624,-0.396709,0.2579062
