accx,accy,accz,body_accx,body_accy,body_accz,body_gyrox,body_gyroy,body_gyroz
0.8196169,-0.1523413,-0.2422404,-0.1596844,0.02743872,0.02216813,0.100242,0.2156219,0.3154295
0.7263481,-0.1258414,-0.1893542,-0.2529884,0.0547654,0.07516061,0.008503451,0.1391817,0.4115987
0.7224561,-0.1287885,-0.1984056,-0.256924,0.05263453,0.0662696,-0.1525264,0.06716759,0.4982341
0.738002,-0.1454875,-0.2260944,-0.2414169,0.03673707,0.03878789,-0.2951389,0.04910887,0.4981643
0.778136,-0.1552341,-0.1702969,-0.2013044,0.02777402,0.09483215,-0.3522726,0.04804018,0.4085116
0.8337465,-0.2126298,-0.1433626,-0.1456883,-0.02885843,0.1220453,-0.4254719,0.003153315,0.3080552
0.8332373,-0.2259102,-0.153768,-0.1461576,-0.0413964,0.1119427,-0.4874815,0.02519491,0.1879665
0.7790485,-0.2006561,-0.08247691,-0.2002664,-0.01541989,0.1835517,-0.4752286,0.0886398,0.09176018
0.7469656,-0.2140471,-0.02173189,-0.2322232,-0.02810764,0.2446196,-0.4185771,0.06005652,0.04107323
0.7593049,-0.2060002,-0.04876722,-0.2197049,-0.01937585,0.2179005,-0.4058273,-0.04168356,-0.006992885
0.8223562,-0.199729,-0.1240764,-0.1564147,-0.01243768,0.1428895,-0.4328746,-0.124615,0.005872173
1.023634,-0.1953431,-0.1956127,0.0451654,-0.007402331,0.0716247,-0.4337967,0.0798864,0.04278308
1.210724,-0.1644344,-0.2282532,0.2326175,0.02413818,0.03922447,-0.435025,0.3885814,0.05080311
1.199154,-0.1473014,-0.2131743,0.2214578,0.04188429,0.05451053,-0.4126143,0.3648274,0.06237542
1.191154,-0.1225652,-0.1765107,0.2139028,0.06721299,0.09134724,-0.3918086,0.2944322,0.04745426
1.25175,-0.1278222,-0.1295897,0.2749614,0.06252501,0.1384053,-0.3861866,0.3237669,0.0609161
1.208684,-0.1879457,-0.02689001,0.2323617,0.002944458,0.2412019,-0.3122885,0.1576756,0.1808942
1.195745,-0.2555073,-0.02242764,0.2198782,-0.0641012,0.2457141,-0.1188466,-0.09136769,0.4237642
1.301555,-0.3414472,-0.2466015,0.3261198,-0.1495498,0.02153597,0.2137287,-0.1340765,0.6655351
1.315069,-0.4350869,-0.5460139,0.3400277,-0.2427168,-0.277936,0.3888658,0.1808486,0.676458
1.181611,-0.5161423,-0.6958346,0.2069116,-0.3233078,-0.4278612,0.193918,0.6906421,0.5749798
0.9337341,-0.5348926,-0.5162188,-0.04068461,-0.3415888,-0.248376,-0.05149943,0.8293038,0.4626615
0.7311251,-0.4290494,-0.3070211,-0.2430741,-0.2352568,-0.03931786,-0.227848,0.3581101,0.1901889
0.7493088,-0.2680887,-0.3612186,-0.2247228,-0.07377702,-0.09365373,-0.4465375,-0.2151951,-0.0381336
0.8767369,-0.1551993,-0.4280687,-0.09716583,0.03966621,-0.1606356,-0.5100935,-0.3261262,-0.04578519
1.052244,-0.1495634,-0.4628542,0.07844094,0.04588828,-0.1955398,-0.3249941,-0.1270524,-0.03395317
1.109254,-0.2469725,-0.4318112,0.1355252,-0.05090683,-0.1645947,-0.1275321,0.001031899,-0.1003973
0.9695751,-0.3362027,-0.2897141,-0.004107961,-0.1394985,-0.02256766,-0.05539152,0.05477937,-0.2287749
0.8362572,-0.3297099,-0.2566698,-0.1374082,-0.1323415,0.01043742,-0.07801833,-0.09573533,-0.3535893
0.6973052,-0.249262,-0.2510407,-0.2763651,-0.05120187,0.01605707,-0.08883451,-0.4309455,-0.3616021
0.6496896,-0.1632887,-0.2392731,-0.3239964,0.03549123,0.02784247,-0.05685739,-0.550323,-0.2827882
0.7258442,-0.1150836,-0.2885834,-0.2478534,0.08444069,-0.02142572,-0.05978419,-0.524777,-0.1876549
0.7553711,-0.1123288,-0.2960397,-0.21832,0.08795808,-0.02881737,-0.02416391,-0.4843309,-0.1025269
0.8365118,-0.1312759,-0.3058493,-0.1371439,0.06978446,-0.03854081,0.04394305,-0.2783767,-0.07297408
0.9340802,-0.1434794,-0.2888417,-0.03950477,0.05835822,-0.02142548,0.06752468,-0.0717312,-0.09363118
0.9267762,-0.1595929,-0.2447136,-0.04670033,0.04302027,0.02283114,0.1171868,-0.009609644,-0.09622001
0.8863454,-0.1554734,-0.2204978,-0.08698496,0.0479088,0.04719426,0.1760563,-0.03266198,-0.05235647
0.8475746,-0.1109598,-0.1559903,-0.1255712,0.09318046,0.1118642,0.2430597,-0.07246937,0.01589196
0.8387766,-0.06302219,-0.135353,-0.1341444,0.1418601,0.1326735,0.2973154,-0.08961813,0.08806667
0.8867962,-0.03236207,-0.1446614,-0.08585706,0.1732393,0.1235397,0.2776821,-0.109531,0.1049611
0.9732741,-0.04674702,-0.1586666,0.0009326048,0.1595424,0.1097044,0.2433843,-0.01381063,0.05673437
1.044187,-0.09422355,-0.2295407,0.07219908,0.1127153,0.03898999,0.1763799,0.1681687,0.0254221
1.080409,-0.1512256,-0.2365786,0.108812,0.0563182,0.03209794,0.1170419,0.2627614,-0.01427847
1.131563,-0.1785606,-0.1579069,0.1603843,0.02954089,0.1108994,0.1195956,0.2935217,-0.1644104
1.195357,-0.07284678,-0.0934392,0.2246149,0.1357636,0.1754774,0.06938345,0.2139974,-0.4261702
1.22254,0.08086831,-0.10991,0.25224,0.2899357,0.159092,-0.05339349,0.1172162,-0.5845563
1.212374,0.1088467,-0.1799359,0.2425087,0.3183111,0.08912003,-0.176012,0.1034588,-0.481455
1.207781,0.001186935,-0.2859141,0.2383294,0.2109777,-0.01683897,-0.2543409,-0.1131482,-0.3517842
1.183848,-0.1969817,-0.5134131,0.2147765,0.01305673,-0.2443523,-0.3499953,-0.3419828,-0.3266724
1.097055,-0.3795165,-0.6520028,0.128322,-0.1693093,-0.38298,-0.4473612,-0.04187038,-0.3779009
0.9667648,-0.4243495,-0.5375771,-0.001679612,-0.2140441,-0.2686006,-0.3830728,0.270167,-0.5749548
0.8809346,-0.3759568,-0.4664593,-0.08727001,-0.1656105,-0.1975209,-0.3193572,-0.03595242,-0.6754482
0.9842795,-0.3651103,-0.5134989,0.01626918,-0.154767,-0.2445779,-0.3490816,-0.2440994,-0.5406246
1.171701,-0.3466613,-0.4913026,0.2038421,-0.1363532,-0.222368,-0.2102813,0.004552253,-0.2998114
1.233486,-0.2560126,-0.4386407,0.2657332,-0.0457624,-0.1696526,0.04862803,0.2141633,0.117211
1.2273,-0.2131215,-0.4048761,0.2596005,-0.00294565,-0.1357874,0.2370416,0.458257,0.4705347
1.158067,-0.19307,-0.3522805,0.1903582,0.01701817,-0.08303981,0.2535792,0.5862255,0.4714344
0.9829646,-0.1331804,-0.3022732,0.0151777,0.07680755,-0.03282794,0.07740564,0.4118087,0.4017805
0.7950897,-0.1249187,-0.2243726,-0.1728425,0.08495534,0.04532825,-0.09799697,0.2966453,0.4318222
0.6565218,-0.1351977,-0.1487814,-0.3116141,0.07454633,0.1212214,-0.2258881,0.07556555,0.4346553
0.6281513,-0.1288906,-0.16049,-0.3402305,0.08070461,0.1098529,-0.3146402,-0.12586,0.467676
0.6777042,-0.1275149,-0.1874742,-0.2909465,0.08191056,0.08323814,-0.3899798,-0.01230604,0.5481922
0.7300259,-0.1008342,-0.2003309,-0.2388982,0.1083981,0.07077198,-0.5543981,-0.04182335,0.5136418
0.8053069,-0.08284803,-0.2009205,-0.1638808,0.1261649,0.07058745,-0.6851232,-0.08820565,0.4257821
0.8399138,-0.1252164,-0.1637954,-0.1295171,0.08354799,0.1081258,-0.7721129,0.07178956,0.3542417
0.7998573,-0.2077081,-0.1204386,-0.1697887,0.0007764702,0.1518975,-0.8205555,0.0935103,0.2395171
0.7650724,-0.2660793,-0.04039441,-0.2047542,-0.05790485,0.2323501,-0.7330267,-0.0002953078,0.1752312
0.7796791,-0.2925527,-0.005482295,-0.1902861,-0.08471442,0.2676536,-0.6249767,-0.1874829,0.1081065
0.8840652,-0.3001735,-0.1038341,-0.08599009,-0.09269135,0.1696644,-0.4994604,-0.3235487,0.01772203
1.069676,-0.2803744,-0.2219351,0.0995824,-0.07326152,0.05188816,-0.3395253,-0.137727,0.03583092
1.202189,-0.255426,-0.2960338,0.2321039,-0.04868967,-0.02192773,-0.2339774,0.1022116,0.0462342
1.229117,-0.2035528,-0.2943858,0.259076,0.00280433,-0.0200381,-0.191376,0.261539,0.03034512
1.269833,-0.1494679,-0.1898509,0.299858,0.05650962,0.08469967,-0.1977445,0.4431608,0.05690267
1.314031,-0.1227625,-0.01157557,0.3441274,0.08283454,0.2631383,-0.174822,0.4991816,0.09219913
1.256651,-0.08681303,0.09668882,0.2868066,0.1184005,0.37152,-0.1606236,0.3407128,0.2102951
1.189468,-0.1341974,-0.05852516,0.2196573,0.07062591,0.2163661,-0.1264602,0.1145472,0.4007871
1.195893,-0.3157219,-0.3575008,0.2260769,-0.1112972,-0.08261527,0.1358472,-0.05034858,0.5675122
1.140222,-0.5363906,-0.6207355,0.170355,-0.3323691,-0.3459195,0.3772499,-0.05165892,0.6314164
1.001019,-0.6375131,-0.7393433,0.03104734,-0.4338872,-0.4646458,0.2248561,0.2818257,0.5910533
0.9410097,-0.5118031,-0.5258259,-0.02911981,-0.3085469,-0.2512742,-0.003873734,0.608203,0.5066326
0.8791415,-0.3463528,-0.2837207,-0.09119572,-0.143424,-0.009323576,-0.0443627,0.4131568,0.2894418
0.8006593,-0.2405435,-0.3391982,-0.1699281,-0.03789007,-0.06495492,-0.2116096,0.04565719,0.007748847
0.9046582,-0.1371513,-0.3628,-0.06621233,0.06528084,-0.08870576,-0.3400478,-0.1798692,-0.164396
1.030441,-0.1559093,-0.3174528,0.05926225,0.04635232,-0.04349955,-0.1920328,-0.4033205,-0.2578569
1.047173,-0.2254332,-0.3760978,0.07566444,-0.02329619,-0.102274,-0.1516056,-0.3874919,-0.2631467
1.019264,-0.2283343,-0.3374539,0.04740393,-0.02627976,-0.06374461,-0.1289024,-0.1904325,-0.2465362
0.8547207,-0.2144041,-0.2529299,-0.1175121,-0.01239197,0.02068237,-0.03401692,-0.1675023,-0.2745941
0.6627747,-0.1593419,-0.2312079,-0.3098465,0.04266562,0.04232496,-0.08527797,-0.2350547,-0.2450462
0.6426653,-0.1411881,-0.211983,-0.3303477,0.0608492,0.06148595,-0.06222222,-0.3856647,-0.2029155
0.7461001,-0.153413,-0.2534983,-0.2272921,0.04868362,0.01991892,-0.01141774,-0.4892586,-0.1662499
0.8259303,-0.1401475,-0.2731965,-0.1478149,0.06203286,0.0001785437,0.02107255,-0.4120852,-0.09287065
0.8689106,-0.1843375,-0.251346,-0.1051519,0.01794641,0.02199507,0.1571706,-0.3322701,-0.06514093
0.9235906,-0.1891512,-0.2466523,-0.05074875,0.01325235,0.02666152,0.2123186,-0.1518319,-0.07144661
0.8940378,-0.1332852,-0.1838718,-0.08053569,0.06925111,0.08941986,0.2553854,-0.03013779,-0.05207339
0.8463549,-0.08339414,-0.130328,-0.1284083,0.1192843,0.1429427,0.3085158,-0.1124236,0.00685994
0.8668361,-0.0257595,-0.1313102,-0.1080699,0.1770645,0.1419353,0.3122604,-0.1068177,0.09108815
0.8647822,-0.02751932,-0.1485537,-0.1102173,0.1754456,0.1246557,0.3307965,-0.1043557,0.1401145
0.9107747,-0.03366679,-0.1941314,-0.0642664,0.1694259,0.07902549,0.2758263,-0.1468892,0.1393046
0.9983917,-0.04981302,-0.2323552,0.02336086,0.1533858,0.04072885,0.2304037,-0.1010987,0.1128928
1.094448,-0.1834953,-0.2198912,0.1194765,0.01978209,0.05309785,0.2331321,0.0003772015,0.04147931
1.244197,-0.3069742,-0.1573239,0.2693252,-0.1036481,0.1155469,0.2614146,0.1531258,-0.1484036
1.268493,-0.24128,-0.1266457,0.2937504,-0.03793184,0.1460811,0.3259428,0.2177474,-0.4041627
1.172693,-0.02455849,-0.1568102,0.198092,0.1787882,0.1157429,0.2750592,0.1346,-0.5294249
1.157399,0.1064985,-0.2187038,0.1829382,0.3098179,0.05364255,0.145495,0.01819605,-0.5072834
1.160326,0.04494961,-0.3088409,0.1859937,0.2482071,-0.0367356,-0.08976899,-0.1305259,-0.4693679
1.120751,-0.1156495,-0.3998456,0.1465273,0.08750148,-0.1280126,-0.3948615,-0.2465578,-0.4479238
1.041097,-0.2624946,-0.5191588,0.06695448,-0.05949915,-0.2476219,-0.4229813,-0.1556349,-0.4629037
0.9273009,-0.307621,-0.5634922,-0.04679105,-0.1048276,-0.2922633,-0.2850734,-0.07226928,-0.549119
0.9636715,-0.3028052,-0.4959603,-0.01039987,-0.1002533,-0.225037,-0.2633708,-0.2636753,-0.5926616
1.119225,-0.3566748,-0.5055537,0.1451464,-0.1543949,-0.2349195,-0.2630187,-0.3523195,-0.4484129
1.230062,-0.4314588,-0.511402,0.2559465,-0.2294712,-0.2410288,-0.1640616,-0.07021347,-0.1400824
1.31495,-0.3906438,-0.4613848,0.3407596,-0.1889575,-0.1912336,0.06611616,0.3156765,0.1941072
1.24029,-0.2816128,-0.4228613,0.2659756,-0.08022567,-0.1528847,0.3001564,0.4676261,0.4164061
1.078615,-0.1755441,-0.3272638,0.104118,0.02555332,-0.05740873,0.3185276,0.3057695,0.4814725
1.016099,-0.07167751,-0.316829,0.04135635,0.1291412,-0.04704022,0.1329609,0.2159843,0.4543892
0.893998,-0.1181695,-0.3494116,-0.08105364,0.08237839,-0.07963427,-0.06273957,0.2863553,0.4279767
0.7446449,-0.1735443,-0.2512017,-0.2307711,0.02673635,0.01861793,-0.1375121,0.205788,0.429851
0.6685831,-0.1467905,-0.1961303,-0.30724,0.05322385,0.07378211,-0.1670002,0.06867533,0.4474664
0.6502883,-0.2101928,-0.1670865,-0.3259674,-0.01044542,0.1029634,-0.2934063,-0.01213332,0.4610531
0.7030069,-0.1907934,-0.1332181,-0.2736883,0.008686296,0.1370062,-0.4482057,-0.101379,0.3904512
0.7700799,-0.1379897,-0.1833377,-0.2070452,0.06122158,0.08708872,-0.5170482,-0.1235718,0.2557584
0.8525213,-0.1720007,-0.1766036,-0.1250113,0.02694085,0.0940447,-0.5506274,-0.05187558,0.1664838
0.8602139,-0.1525718,-0.1389172,-0.1176953,0.04609729,0.1319654,-0.5657972,0.02357015,0.0904446
0.7985347,-0.1836141,-0.09776529,-0.1797143,0.01477894,0.1733564,-0.4964159,0.002812906,0.01250528
0.7901717,-0.2330138,-0.03263315,-0.1883744,-0.03490043,0.2387234,-0.4009127,-0.09153995,-0.02560757
0.8142806,-0.246848,-0.09326015,-0.164513,-0.04901651,0.1783167,-0.397667,-0.1149458,-0.05183063
0.9346779,-0.2860952,-0.1781264,-0.04430844,-0.08854494,0.09364682,-0.4170694,0.03393553,-0.06690666
1.088933,-0.2574992,-0.1920971,0.1098099,-0.06022526,0.07984255,-0.3573187,0.2536569,-0.08781526
1.162369,-0.2003115,-0.207206,0.1831605,-0.00330561,0.06486679,-0.2707089,0.2846322,-0.1378831
1.194169,-0.1587069,-0.1777568,0.2149144,0.03804108,0.09441389,-0.1845936,0.2076362,-0.157807
1.217549,-0.1714215,-0.09863343,0.2382769,0.02507825,0.1735977,-0.07138813,0.2139081,-0.06359844
1.275827,-0.2637336,-0.04982617,0.2965515,-0.06747332,0.2224232,0.1833925,0.1222444,0.2070314
1.331288,-0.3452887,-0.2042324,0.3520082,-0.1492575,0.06798743,0.6030921,0.011626,0.5316175
1.359024,-0.4485653,-0.5347574,0.3797227,-0.2527473,-0.2626164,0.7950583,0.1695707,0.638639
1.232594,-0.5146806,-0.6559464,0.2532372,-0.3190502,-0.3839249,0.5720377,0.57863,0.5065621
0.8921721,-0.4918931,-0.4624334,-0.0872858,-0.296412,-0.1905556,0.3017949,0.8989803,0.3530686
0.6681261,-0.4334434,-0.2833604,-0.311478,-0.2380607,-0.01163529,0.1577227,0.5243169,0.2073184
0.7010599,-0.2874758,-0.3247212,-0.2787241,-0.09213099,-0.05315014,0.01944431,-0.214479,0.03451165
0.8700393,-0.1703476,-0.4202567,-0.1099427,0.02502368,-0.1488368,-0.07326621,-0.4142194,-0.009870373
1.062823,-0.1646701,-0.4439341,0.08263624,0.03078986,-0.1726576,-0.02504087,-0.3312408,0.01528085
1.156985,-0.2067838,-0.447468,0.1765875,-0.01117816,-0.1763192,0.1067955,-0.201775,-0.04291739
1.135624,-0.2833634,-0.3721944,0.1550071,-0.08755948,-0.1011502,0.2050864,0.03805647,-0.1353428
0.99997,-0.282307,-0.2491827,0.0191186,-0.08625434,0.02178496,0.2504084,-0.04822732,-0.2964344
0.8163454,-0.2341011,-0.1701407,-0.1647575,-0.03774986,0.1007787,0.2872468,-0.2752517,-0.4065869
0.7337987,-0.2131602,-0.1626184,-0.247567,-0.01646203,0.1082767,0.3078674,-0.4447527,-0.3579676
0.7557625,-0.1579,-0.2348711,-0.2258668,0.03919052,0.03601747,0.309728,-0.6515319,-0.3182068
0.7742339,-0.1378236,-0.2607525,-0.2076472,0.0596995,0.01014251,0.3416378,-0.57103,-0.2436688
0.8082627,-0.1496193,-0.2662721,-0.1738476,0.04837067,0.004639973,0.4211278,-0.3864154,-0.1537993
0.8726791,-0.1352998,-0.2822818,-0.1096292,0.06318459,-0.01134353,0.4698108,-0.2501177,-0.1453305
0.8430809,-0.1195359,-0.2331997,-0.1393882,0.07946402,0.03777302,0.4463623,-0.103957,-0.09226703
0.7922922,-0.07467417,-0.1963674,-0.1902957,0.1248558,0.07464642,0.441634,-0.2160729,-0.02214691
0.8040201,-0.02192989,-0.1496953,-0.1786388,0.1781364,0.1213626,0.4552248,-0.2780883,0.04774367
0.8209268,-0.0004908163,-0.1371765,-0.1617499,0.2001086,0.1339234,0.4272257,-0.1784052,0.1425691
0.8917519,-0.009586396,-0.1972113,-0.09088444,0.1915324,0.07392264,0.3681051,-0.1931423,0.1631381
0.9676825,-0.04045773,-0.2148457,-0.01485376,0.1611563,0.05630956,0.2655094,-0.120809,0.1472799
1.027611,-0.107306,-0.2309168,0.04523333,0.09477104,0.04024424,0.1835723,-0.02416654,0.1122406
1.1266,-0.1909802,-0.2087277,0.1444326,0.01152224,0.06242206,0.1731761,-0.0102609,-0.03761333
1.201814,-0.1635737,-0.1485226,0.2198998,0.03931492,0.122597,0.158377,0.01803648,-0.3000807
1.249509,-0.04767735,-0.134171,0.2678792,0.1555572,0.136896,0.09529808,-0.01314153,-0.4964904
1.252571,0.01844308,-0.1428116,0.2712398,0.2219802,0.1281762,-0.02774054,-0.04569782,-0.4764887
1.230601,-0.02799065,-0.2274462,0.2495676,0.1757992,0.04343153,-0.1613166,-0.1056849,-0.378465
1.236175,-0.198514,-0.3792247,0.2554258,0.005473032,-0.1084887,-0.2643671,-0.1964846,-0.34745
1.174483,-0.3597391,-0.5336993,0.1939908,-0.155611,-0.2631321,-0.3517214,-0.1675883,-0.4061929
1.020137,-0.393205,-0.5752225,0.03986493,-0.1889852,-0.3048396,-0.3270876,-0.04592679,-0.5268463
0.8489941,-0.3561635,-0.4961939,-0.1310968,-0.1518904,-0.2259962,-0.2368721,0.04730241,-0.5975225
0.8054436,-0.3631401,-0.4997031,-0.1745022,-0.1588409,-0.2296774,-0.2423569,-0.09286413,-0.6090085
0.9552601,-0.3950839,-0.5072801,-0.02456811,-0.1907754,-0.2374013,-0.2353894,-0.2813983,-0.4563622
1.099141,-0.3552602,-0.4281211,0.119408,-0.1509492,-0.1583542,-0.1238214,-0.1762976,-0.06099873
1.145673,-0.3045692,-0.3541732,0.1660132,-0.1002539,-0.08447559,0.07394377,-0.0790389,0.2819072
1.140308,-0.2458916,-0.3095737,0.1606941,-0.04156378,-0.0398992,0.2391891,-0.0857955,0.4027191
1.048389,-0.176697,-0.3377473,0.06878774,0.02765428,-0.06804915,0.1622111,-0.01608764,0.3669621
0.8958257,-0.1758722,-0.3329203,-0.08379885,0.0285135,-0.06315228,0.03789021,-0.004457242,0.3019023
0.761869,-0.1693937,-0.2612368,-0.217811,0.03503531,0.008646693,-0.008866494,0.01913507,0.3258812
0.6964296,-0.1621447,-0.2317205,-0.2833286,0.04233422,0.03832153,-0.1172606,0.04233473,0.3774064
0.6879229,-0.1563894,-0.2115154,-0.2919222,0.04814332,0.05872382,-0.1602556,-0.06020482,0.4678786
0.7251145,-0.1314373,-0.2063249,-0.2548111,0.07315014,0.06414455,-0.2402275,-0.1015297,0.5191765
0.7828812,-0.1716951,-0.1818962,-0.1971051,0.03294521,0.08883032,-0.3963162,-0.006175557,0.4124477
0.7821287,-0.2158758,-0.1233431,-0.1978879,-0.0111871,0.1476602,-0.4237707,0.2026932,0.2830199
0.7679674,-0.24704,-0.0647609,-0.2120404,-0.04230758,0.2065305,-0.4604723,0.3585559,0.1079497
0.7663616,-0.2501392,0.00912615,-0.2135908,-0.04536647,0.2807061,-0.4294129,0.2451439,-0.06996025
0.7536517,-0.2061947,-0.0418042,-0.2261911,-0.001383121,0.2300521,-0.3258251,0.001250756,-0.1024313
0.8492826,-0.2047066,-0.1623963,-0.1303901,0.0001434399,0.1097123,-0.3891963,-0.2228664,-0.08358336
1.066448,-0.1661899,-0.2058701,0.08700865,0.03869827,0.0664589,-0.4094276,-0.2106814,-0.03114282
1.24994,-0.1270183,-0.2796912,0.270794,0.07790637,-0.007176562,-0.3578965,0.1900191,0.05052375
1.28568,-0.1566473,-0.3126749,0.3068715,0.04830968,-0.04000928,-0.3415234,0.5579804,0.105953
1.232969,-0.1606643,-0.2170611,0.2545272,0.04431792,0.05572327,-0.2660681,0.5652253,0.09879959
1.228283,-0.2021917,-0.07594011,0.2502176,0.002807019,0.1969313,-0.2150411,0.4347173,0.07423929
1.23563,-0.2759962,-0.004775629,0.2579368,-0.07099006,0.2681466,-0.04220743,0.2480035,0.1940934
1.249493,-0.3331487,-0.2115621,0.2721545,-0.1281416,0.06136765,0.3315919,-0.1337183,0.3808178
1.279855,-0.4407044,-0.5682566,0.3028385,-0.2356971,-0.2953653,0.5693932,-0.2662429,0.5326589
1.15071,-0.5535814,-0.6660744,0.1739712,-0.3485648,-0.3932588,0.5930566,0.2526076,0.5837903
0.9050979,-0.5557437,-0.4741482,-0.07141566,-0.3506949,-0.2014284,0.4456291,0.7583779,0.4570411
0.7936041,-0.4232588,-0.3243318,-0.182736,-0.2181403,-0.05171222,0.1837665,0.6761883,0.3235339
0.8461826,-0.2443431,-0.3829684,-0.1300281,-0.03910681,-0.1104449,0.04254686,0.3276638,0.1763695
0.9380773,-0.09486874,-0.429093,-0.03803855,0.1105362,-0.1566561,-0.06259936,0.03852467,-0.006629362
1.004301,-0.05140281,-0.3950722,0.02825234,0.1542166,-0.1227065,-0.1850904,-0.1653807,-0.06973767
1.025907,-0.1208678,-0.4043339,0.04990004,0.08500233,-0.1320179,-0.1060229,-0.2240797,-0.09606013
0.9517998,-0.2212464,-0.3289013,-0.02419064,-0.01509763,-0.05660866,-0.02807571,-0.1870395,-0.1846577
0.8361673,-0.331024,-0.2229423,-0.1398291,-0.1245732,0.04935566,-0.03886996,-0.2216549,-0.3285871
0.7847996,-0.3172212,-0.2463911,-0.1912198,-0.1104445,0.02593945,0.0665708,-0.3060157,-0.4201671
0.7640208,-0.1999524,-0.2648845,-0.2120295,0.007175952,0.007502872,0.1458692,-0.4275231,-0.3851947
0.7444088,-0.175877,-0.2626055,-0.2316693,0.03162867,0.009859835,0.2063219,-0.5357285,-0.3180009
0.7493496,-0.1682097,-0.288322,-0.2267421,0.03969557,-0.01575975,0.3205229,-0.4866329,-0.2218697
0.816121,-0.1540669,-0.2817374,-0.1599599,0.05425593,-0.009060616,0.3879243,-0.3520782,-0.1527527
0.9032983,-0.1456586,-0.2654003,-0.07273965,0.06309478,0.007407339,0.4334973,-0.1690524,-0.1593327
0.9055938,-0.09093109,-0.2561421,-0.07036516,0.1182604,0.01681112,0.383489,-0.05850792,-0.1378427
0.8591873,-0.06542506,-0.2197053,-0.1166548,0.1442056,0.05340618,0.3140336,-0.1434813,-0.07088606
0.8293072,-0.01152389,-0.1643411,-0.1463783,0.198539,0.1089376,0.3383528,-0.1633851,0.02837736
0.8602817,0.02099771,-0.1534622,-0.1152045,0.2314762,0.1199878,0.328094,-0.0961682,0.1247141
0.9352394,-0.03968175,-0.1824173,-0.04000229,0.1711855,0.09120169,0.3105009,-0.08556658,0.1454382
0.9751911,-0.04253135,-0.1996407,0.0002390723,0.1686886,0.07413963,0.2802063,-0.03932322,0.09503241
1.01565,-0.06939052,-0.22626,0.0410297,0.1421386,0.04766986,0.2316788,0.02387993,0.01497031
1.085893,-0.1663243,-0.23371,0.1116421,0.04546544,0.04035458,0.2578879,0.1227812,-0.1377874
1.182116,-0.2023114,-0.1739531,0.2082634,0.009688397,0.1002295,0.2860313,0.2382369,-0.4068856
1.225729,-0.1446462,-0.107445,0.252292,0.06751384,0.1668356,0.2663904,0.1597086,-0.6058243
1.156676,0.009910123,-0.1104274,0.1836594,0.2221805,0.1639259,0.1450169,0.004489837,-0.5792538
1.103978,0.1035677,-0.1798314,0.1313742,0.3158941,0.0945634,-0.03780351,-0.06940343,-0.4296689
1.096818,0.01168025,-0.3042615,0.124611,0.2239999,-0.02986034,-0.1267193,-0.1556138,-0.3178192
1.118085,-0.1985786,-0.5047966,0.1462506,0.01366421,-0.2304224,-0.2615944,-0.1496259,-0.3917876
1.124353,-0.4000237,-0.6368081,0.1528607,-0.1879281,-0.362485,-0.4082464,-0.1088902,-0.611716
0.9871151,-0.4304665,-0.5545017,0.01593028,-0.2185797,-0.2802384,-0.334966,-0.221967,-0.7663602
0.8776863,-0.3616513,-0.4797868,-0.09322864,-0.1500208,-0.2055758,-0.2930697,-0.3282681,-0.7213041
1.030266,-0.364454,-0.5403397,0.0595858,-0.1531141,-0.2661608,-0.3053948,-0.3220324,-0.4087648
1.251984,-0.3705393,-0.5226703,0.2815038,-0.1595125,-0.2484918,-0.03724311,-0.05201514,0.04814701
1.271933,-0.3175242,-0.4508546,0.3016123,-0.106823,-0.176635,0.2875319,0.4620018,0.3847783
1.185555,-0.2629293,-0.4142297,0.2153421,-0.05255762,-0.1399194,0.3569215,0.6766673,0.4924781
1.061526,-0.1865877,-0.3109881,0.09136158,0.02345532,-0.03653363,0.2120534,0.5338173,0.4499988
0.8149138,-0.112107,-0.2142733,-0.1552654,0.09760995,0.06037868,0.01836279,0.3180079,0.376773
0.637005,-0.1164955,-0.1645711,-0.3332449,0.09289603,0.1103272,-0.1221624,-0.02323116,0.2966342
0.6324747,-0.1284682,-0.1403084,-0.3378869,0.08059486,0.1348768,-0.2833137,-0.3006732,0.2949597
0.6742586,-0.1207056,-0.1950542,-0.2962363,0.08802271,0.08044898,-0.3703462,-0.274334,0.4073687
0.7560288,-0.1190153,-0.2322086,-0.2146033,0.08936893,0.04363559,-0.4020998,-0.09322693,0.4610602
0.8337559,-0.1073567,-0.2329849,-0.1370037,0.100671,0.04321689,-0.5086965,0.08234834,0.4278491
0.8424418,-0.1321889,-0.2159507,-0.1284265,0.07546694,0.06062077,-0.567454,0.1552598,0.3485407
0.7972182,-0.1931988,-0.1220533,-0.1737333,0.01406804,0.1548946,-0.6088959,0.162127,0.2328125
0.7526749,-0.2546525,-0.03334493,-0.218328,-0.04779165,0.2439786,-0.5673553,0.2003095,0.120405
0.7711317,-0.2782562,-0.02564204,-0.1998829,-0.07181525,0.2520457,-0.4137456,0.08031523,-0.01389769
0.8426078,-0.2661099,-0.0874829,-0.1283719,-0.06009813,0.1905456,-0.3663322,-0.06932638,-0.100729
0.9637643,-0.2622319,-0.1402203,-0.00712942,-0.05665337,0.1381152,-0.3501498,0.09030703,-0.09434286
1.094689,-0.2181409,-0.1736628,0.1239312,-0.01299557,0.1049389,-0.2840265,0.2421936,-0.0747005
1.192227,-0.1659203,-0.2349583,0.2216484,0.03879469,0.04386481,-0.1740938,0.2322066,-0.05945286
1.265863,-0.1607876,-0.2217901,0.2954953,0.0435005,0.05720826,-0.07980616,0.2998158,-0.02719241
1.28048,-0.1669072,-0.1278303,0.3103387,0.03695649,0.1512963,-0.05390099,0.3508715,0.03370849
1.283411,-0.2010111,-0.06201643,0.3134941,0.00242985,0.2171886,0.1117146,0.2967192,0.2033594
1.304537,-0.2596618,-0.124026,0.3348264,-0.05664147,0.1552028,0.4156169,0.1348544,0.4943522
1.281714,-0.3678959,-0.3540502,0.312176,-0.1652912,-0.07485611,0.6750263,0.03996814,0.6352993
1.187439,-0.5251826,-0.5586639,0.218026,-0.3229815,-0.27956,0.7166529,0.3997749,0.5821385
0.9705818,-0.5775056,-0.546934,0.001236214,-0.3756836,-0.2679637,0.4504244,0.793558,0.5481237
0.7788712,-0.4610752,-0.3988924,-0.190465,-0.2595922,-0.1200839,0.1602993,0.4824974,0.404003
0.8181671,-0.2954359,-0.3477339,-0.1512106,-0.09423877,-0.06910307,0.03682021,-0.04953033,0.1357931
0.9562322,-0.1945447,-0.4034286,-0.01322727,0.006425651,-0.1249834,-0.02397723,-0.2222042,-0.04842001
1.06269,-0.1707935,-0.4078518,0.0931156,0.03000897,-0.1295939,0.01295615,-0.2730126,-0.1713231
1.096013,-0.2215357,-0.3632243,0.1262911,-0.02084618,-0.0851487,0.1643677,-0.2324562,-0.2826531
0.9956465,-0.2814198,-0.292176,0.0257441,-0.08079169,-0.01427253,0.1907882,-0.2540345,-0.3678627
0.865259,-0.2579316,-0.2511546,-0.1048576,-0.05731476,0.02658922,0.1722966,-0.4080951,-0.4085465
0.7611247,-0.2098806,-0.2512011,-0.2092346,-0.009225594,0.02639524,0.2829925,-0.4262969,-0.4004399
0.6777367,-0.1520479,-0.2288755,-0.2928832,0.04869254,0.04858381,0.2760346,-0.5089971,-0.3477067
0.6881079,-0.08893349,-0.2393349,-0.2827762,0.1119348,0.03799552,0.2481302,-0.5779577,-0.2426807
0.7744818,-0.09546667,-0.2524108,-0.1966554,0.1055647,0.02479664,0.313405,-0.5063101,-0.1255348
0.8934104,-0.1081265,-0.2453148,-0.07795737,0.0930951,0.03177379,0.3387955,-0.4003374,-0.04639906
0.9499294,-0.1019061,-0.2336839,-0.02164003,0.09952509,0.04328833,0.4097542,-0.1265932,-0.04180297
0.886542,-0.09260253,-0.1821555,-0.08519795,0.1090507,0.09470084,0.3946962,-0.01718747,-0.04169008
0.8458555,-0.04844598,-0.1461135,-0.1260223,0.1534345,0.1306239,0.3572893,-0.1134725,0.03353038
0.8372406,-0.02550379,-0.1229032,-0.1347391,0.1766012,0.1537072,0.4274592,-0.09787615,0.1141185
0.8402213,-0.03098362,-0.1211121,-0.1318206,0.1713347,0.155357,0.4286605,-0.1047189,0.1587994
0.921875,-0.03425446,-0.1656898,-0.05018549,0.1682573,0.1106176,0.426385,-0.1118035,0.1525573
1.001437,-0.0612144,-0.2020819,0.02940222,0.1414632,0.07403876,0.3376783,-0.08467232,0.1004517
1.085602,-0.1247496,-0.2219845,0.1136356,0.0780603,0.05392168,0.1540587,-0.01242423,0.01700027
1.219394,-0.1683633,-0.1899701,0.2475297,0.03454171,0.0856928,0.1086166,0.1508652,-0.1952959
1.281982,-0.08820832,-0.1504216,0.3102427,0.1147534,0.1249681,0.0894303,0.2495205,-0.4695374
1.231415,0.0468359,-0.1767645,0.2598077,0.2498134,0.09831958,-0.02974087,0.1944026,-0.555291
1.195206,0.05568361,-0.226039,0.223723,0.25863,0.04870545,-0.2322116,0.01545857,-0.4792329
1.219553,-0.09689862,-0.360617,0.2481743,0.105962,-0.08624616,-0.4437261,-0.1278561,-0.4917966
1.173929,-0.2865801,-0.5531007,0.2026233,-0.08386377,-0.279132,-0.5627833,-0.1566569,-0.6067677
1.051621,-0.3439504,-0.5893385,0.08034856,-0.1414335,-0.3157884,-0.5647393,-0.1445907,-0.7036656
0.9614556,-0.3164529,-0.5074277,-0.009827355,-0.1141816,-0.2342968,-0.5216093,-0.193541,-0.7442457
0.9970854,-0.3403016,-0.4954409,0.02574778,-0.1383117,-0.2227148,-0.5240509,-0.280264,-0.6072196
1.16822,-0.3434818,-0.5245564,0.196785,-0.1417989,-0.252208,-0.413788,-0.1450268,-0.3097006
1.257778,-0.3159827,-0.5075265,0.2862012,-0.1146229,-0.2355174,-0.137795,0.2520673,0.01905085
1.207429,-0.3007093,-0.4301561,0.235657,-0.09968014,-0.158438,0.1072025,0.6357726,0.3452612
1.109597,-0.2363024,-0.3158539,0.1375698,-0.03560459,-0.04437163,0.201007,0.6463779,0.4834937
0.9455003,-0.1748761,-0.2663828,-0.02684667,0.02549371,0.004920971,0.1105308,0.4182218,0.4378499
0.7760023,-0.1562751,-0.2561977,-0.1967255,0.04377128,0.01498277,0.008145253,0.3653672,0.3772362
0.6553871,-0.1488474,-0.1791072,-0.3177717,0.0508793,0.09200093,-0.07554199,0.2072883,0.2978743
0.6244791,-0.1567221,-0.1353362,-0.3491437,0.04268692,0.1357439,-0.1923499,-0.002486214,0.3335134
0.6748501,-0.1388099,-0.1551219,-0.2992498,0.0602817,0.1159663,-0.2233744,0.02904207,0.4289239
0.7383366,-0.114812,-0.1402374,-0.2362352,0.08396047,0.130886,-0.326891,-0.05421276,0.4068754
0.8132486,-0.1190874,-0.1330875,-0.1617754,0.0793617,0.1380895,-0.4443633,-0.1565154,0.3652874
0.838087,-0.1373943,-0.1336253,-0.1373591,0.06072426,0.1376155,-0.4183339,-0.1386425,0.2819946
0.8064801,-0.174463,-0.08624837,-0.1693506,0.02331602,0.185058,-0.4553684,-0.07486588,0.1812622
0.7705843,-0.189715,-0.03929834,-0.2055868,0.007714902,0.2320665,-0.4538012,0.05359574,0.137638
0.7785754,-0.196981,-0.04308222,-0.1978849,9.071337e-05,0.228324,-0.3783825,-0.07818156,0.08432769
0.903793,-0.234634,-0.1139195,-0.07289884,-0.03792785,0.1575009,-0.3453615,-0.1904629,0.08216542
1.064402,-0.2637005,-0.1870688,0.08753898,-0.06736472,0.08433108,-0.2592329,0.05725225,0.09076649
1.14488,-0.2585083,-0.1839936,0.167902,-0.06254378,0.08734677,-0.1969693,0.2948365,0.04309362
1.209729,-0.230612,-0.1819313,0.2326815,-0.03501564,0.08930891,-0.1437043,0.3899557,-0.03156905
1.293187,-0.2159122,-0.1897366,0.3161041,-0.0206776,0.08136125,-0.07139451,0.3759355,-0.1258876
1.264623,-0.1947004,-0.08885813,0.2875215,0.0001807609,0.1820538,0.003039649,0.4527841,-0.0680764
1.206858,-0.1383571,0.05396805,0.2297382,0.05617964,0.3246463,0.1536615,0.5603532,0.09555116
1.225417,-0.1131236,0.07625352,0.2482676,0.08107643,0.3466418,0.2203455,0.2558478,0.254992
1.185458,-0.1947648,-0.1006721,0.2082543,-0.0008958649,0.1693597,0.2950129,-0.1306597,0.5420352
1.1477,-0.3344414,-0.4256441,0.1704084,-0.1408987,-0.1560406,0.4821111,-0.09873312,0.7071814
1.113461,-0.3870752,-0.6153159,0.1360415,-0.1938496,-0.3462065,0.5071625,0.2122696,0.6250702
1.029883,-0.4009353,-0.5285017,0.05228992,-0.2080098,-0.2599357,0.4235286,0.4903083,0.5354547
0.959822,-0.4417086,-0.3921425,-0.0179901,-0.2490562,-0.1241505,0.2510405,0.4498751,0.2572636
0.8582141,-0.3899958,-0.3308656,-0.1198597,-0.1975795,-0.06346449,-0.04353288,0.03068113,-0.205842
0.9022786,-0.2898996,-0.2935268,-0.07609302,-0.09767377,-0.02672505,-0.1043475,-0.4528154,-0.4402211
1.034161,-0.2034858,-0.2828026,0.05546259,-0.01140012,-0.01660378,0.02364066,-0.6849615,-0.4447709
1.003846,-0.1385755,-0.2838914,0.02479585,0.05342001,-0.01829586,0.05706128,-0.7150454,-0.4052251
0.9865189,-0.1537281,-0.2957729,0.007093316,0.03822353,-0.03077814,0.07551204,-0.6647507,-0.3381469
0.9093936,-0.148236,-0.3064031,-0.07042842,0.04371276,-0.04200397,0.09431354,-0.545532,-0.2619616
0.7100477,-0.1145847,-0.2645018,-0.2701864,0.0773967,-0.0006903123,0.07772738,-0.517142,-0.1906003
0.650296,-0.119195,-0.2274403,-0.330355,0.07284899,0.0357934,0.07418836,-0.6040095,-0.1572957
0.6892369,-0.1326288,-0.2284544,-0.2918204,0.05950171,0.03421156,0.0779639,-0.6423213,-0.1793386
0.7552367,-0.2002313,-0.2385113,-0.2262006,-0.007995367,0.02359636,0.1359982,-0.6156402,-0.1777771
0.8435009,-0.2406248,-0.2517233,-0.1382779,-0.04826721,0.009834851,0.2615192,-0.4407707,-0.1475326
0.8524762,-0.1564485,-0.2303045,-0.1295978,0.03604579,0.03071268,0.3663697,-0.1543213,-0.1085836
0.830014,-0.04531495,-0.1992569,-0.1523038,0.1473291,0.06122757,0.4107255,-0.04576477,-0.0004326349
0.8713476,3.285043e-05,-0.1853625,-0.1111586,0.1928337,0.07459581,0.4202245,-0.06256463,0.1174789
0.9440443,-0.02896726,-0.1881741,-0.03859213,0.1639888,0.07126249,0.4148944,0.002184395,0.1649432
1.025911,-0.05587667,-0.2068703,0.04320201,0.1372238,0.05204642,0.3823727,0.08835644,0.1691908
1.143546,-0.08720296,-0.1937807,0.1608178,0.1060239,0.06461613,0.3360729,0.1625151,0.1081508
1.212564,-0.1554766,-0.1811456,0.229862,0.03785351,0.07672946,0.3235179,0.2376147,-0.01596984
1.202807,-0.1617679,-0.1561222,0.2201614,0.03163978,0.101227,0.3319208,0.2220491,-0.1550435
1.208252,-0.09003321,-0.1021731,0.2256819,0.1034254,0.1546431,0.2767888,0.1481481,-0.3424312
1.2106,0.03683272,-0.1035413,0.2281106,0.230313,0.1527302,0.1146427,0.1168502,-0.5587483
1.188434,0.141657,-0.1325669,0.2060186,0.335123,0.1231434,-0.1011464,0.0292932,-0.6327815
1.148427,0.02675122,-0.2503872,0.1660669,0.2201566,0.004741507,-0.3028519,-0.236595,-0.5047548
1.097815,-0.2635147,-0.5244266,0.1154855,-0.07022462,-0.2698984,-0.4851065,-0.4394777,-0.3882005
1.082252,-0.4769357,-0.6599469,0.09992063,-0.2838144,-0.4060282,-0.5706553,-0.1340444,-0.4427851
1.017133,-0.4776851,-0.4904441,0.03476483,-0.2847745,-0.2371271,-0.4399546,0.1768434,-0.592689
0.9333298,-0.3635349,-0.3784004,-0.04910995,-0.1708608,-0.1256609,-0.3176698,-0.2945705,-0.7225953
1.065197,-0.3385568,-0.5169788,0.08265214,-0.1461308,-0.2647817,-0.3761741,-0.6309758,-0.6799253
1.284925,-0.3280397,-0.5737819,0.3022422,-0.1358631,-0.3220819,-0.278597,-0.1266059,-0.3643466
1.301349,-0.2452961,-0.4681866,0.3184876,-0.05336251,-0.2169268,0.07081795,0.247258,0.1249036
1.211288,-0.2323963,-0.4246598,0.2281978,-0.04069423,-0.1737729,0.3568174,0.2655049,0.5943975
1.088413,-0.2295828,-0.3845707,0.1050349,-0.038098,-0.1339829,0.3957401,0.4480678,0.7429139
0.8511425,-0.1834589,-0.2475597,-0.1325851,0.007824176,0.002805846,0.2796364,0.5132836,0.5399869
0.6242703,-0.1623451,-0.1097198,-0.3598623,0.02875197,0.140498,0.2152669,0.1855684,0.3470844
0.5125753,-0.1289481,-0.07721609,-0.4720003,0.06197713,0.1729203,0.1268456,-0.1965069,0.2758725
0.5125631,-0.1164194,-0.1241447,-0.4724697,0.07434541,0.1259652,0.02369565,-0.4222954,0.3312865
0.6273528,-0.1287821,-0.1967747,-0.358126,0.06182991,0.05335283,0.03821741,-0.4616746,0.4842972
0.764565,-0.1372845,-0.2901341,-0.2213278,0.05317901,-0.03995257,-0.05641403,-0.2566567,0.5002082
0.8105748,-0.1624898,-0.2662051,-0.1756857,0.02782667,-0.01593693,-0.189024,-0.003164036,0.3852666
0.7705897,-0.2009725,-0.1221138,-0.2159832,-0.01080332,0.1282711,-0.172987,0.2177954,0.208957
0.7532627,-0.2556119,-0.04026072,-0.23356,-0.06558996,0.210265,-0.1518835,0.3520312,0.01870452
0.7635895,-0.2590908,-0.02919306,-0.2234129,-0.06921399,0.2214877,-0.1059596,0.2623475,-0.05212522
0.7998137,-0.2302119,-0.06966856,-0.1872914,-0.04047479,0.1811696,-0.09146914,0.1233893,-0.06915561
0.9942436,-0.2318599,-0.1319824,0.007116711,-0.04225442,0.119005,-0.1552403,-0.01534184,-0.07081665
1.204574,-0.2027577,-0.175916,0.2175037,-0.01327381,0.07520486,-0.1895626,-0.05589872,-0.05689016
1.235844,-0.1643148,-0.1848681,0.2488995,0.02505828,0.0663661,-0.2069185,0.06547721,-0.04399204
1.280656,-0.1451553,-0.1427392,0.2938877,0.04411719,0.1085849,-0.180723,0.1256933,0.0393034
1.347931,-0.1473,-0.1439704,0.3613735,0.04187996,0.1074172,-0.1581717,0.2184553,0.1472416
1.284612,-0.2085375,-0.102375,0.2982789,-0.01944401,0.1490459,-0.1088135,0.2417828,0.2705926
1.279887,-0.2862639,-0.02977551,0.2937746,-0.09725115,0.2216434,0.1119524,0.05635481,0.4423089
1.324041,-0.3752064,-0.1889841,0.3381286,-0.1862655,0.0623918,0.3813373,-0.006727228,0.5707671
1.242255,-0.4955202,-0.4638661,0.2565073,-0.3066352,-0.2125761,0.4868435,0.1389846,0.5718986
1.099582,-0.5653544,-0.5998462,0.1139514,-0.3764979,-0.3486779,0.3868575,0.3574814,0.4762462
0.8785639,-0.5012595,-0.5087353,-0.1070016,-0.3123894,-0.2577097,0.2365905,0.458826,0.3911282
0.7593127,-0.3502142,-0.3729417,-0.2262376,-0.1612752,-0.1220636,0.05308901,0.3962843,0.276374
0.8316552,-0.2262847,-0.4106368,-0.153919,-0.03721386,-0.1598999,-0.1889368,0.270122,0.09105229
0.8698133,-0.1259181,-0.4098677,-0.1158122,0.06334799,-0.1592576,-0.2714513,0.01493853,-0.07632576
0.9894915,-0.08833706,-0.3613053,0.003795828,0.1011825,-0.1108006,-0.2249087,-0.1514966,-0.180718
1.056145,-0.1719095,-0.3546284,0.07036424,0.01791382,-0.1042019,-0.1911378,-0.1620574,-0.2283084
0.9483189,-0.2432971,-0.2814899,-0.03755963,-0.05312675,-0.03111078,-0.1505285,-0.2709554,-0.3028614
0.9183813,-0.25749,-0.2702657,-0.06760805,-0.0669329,-0.01990198,-0.105706,-0.3174277,-0.341919
0.7957427,-0.2344824,-0.2784483,-0.190366,-0.04350022,-0.02806835,-0.02167654,-0.2733289,-0.2804042
0.6690203,-0.1730721,-0.2412449,-0.3172081,0.01837184,0.009181661,0.05519521,-0.3239672,-0.2409228
0.7102302,-0.1455654,-0.2562057,-0.2761058,0.04637364,-0.005703914,0.0995723,-0.3815223,-0.1659847
0.728065,-0.1345128,-0.2517088,-0.2583528,0.05794964,-0.001105397,0.1475136,-0.3751803,-0.07894205
0.8226202,-0.1346309,-0.2501146,-0.1638416,0.05837716,0.000614715,0.2087246,-0.2869054,-0.07025808
0.9064274,-0.1314305,-0.240823,-0.08003305,0.06213943,0.01005437,0.2850297,-0.150684,-0.04846915
0.8745216,-0.0867209,-0.1920491,-0.1118881,0.1074209,0.05899592,0.2808361,-0.06704709,-0.03482465
0.8820099,-0.0534276,-0.1717583,-0.104298,0.1412893,0.07947014,0.2663362,-0.01583166,0.005368423
0.8892062,-0.003942917,-0.1600493,-0.09694762,0.1913441,0.0913735,0.2739811,0.02753141,0.103123
0.9025696,0.03905747,-0.176675,-0.08337677,0.2348997,0.07494741,0.2044458,0.01389501,0.1545125
0.9403058,-0.01738708,-0.2009624,-0.04537979,0.1789847,0.05086006,0.1786989,-0.005266177,0.1603841
1.011639,-0.1411257,-0.2022837,0.02626554,0.05574076,0.04973516,0.1934561,0.03297375,0.1207057
1.138864,-0.2275587,-0.1824427,0.15385,-0.03023706,0.06976588,0.195153,0.08382884,-0.001225777
1.23822,-0.2093188,-0.1217034,0.2536031,-0.01158144,0.1306847,0.2098184,0.13706,-0.2614834
1.268587,-0.1202212,-0.107366,0.2843918,0.07789401,0.1451865,0.1314974,0.123767,-0.546138
1.202816,0.02285769,-0.1355921,0.2190509,0.2213122,0.1171038,-0.02262479,0.01703676,-0.579425
1.129117,0.1253915,-0.1698749,0.1457757,0.3241408,0.08293798,-0.1316057,-0.04918266,-0.4335856
1.120451,0.02073293,-0.2945142,0.1375169,0.2197224,-0.04161367,-0.1741371,-0.05608482,-0.3381235
1.111556,-0.2504974,-0.5356924,0.1290052,-0.05133066,-0.2827312,-0.2950435,0.001167755,-0.3611838
1.087091,-0.4780797,-0.7169748,0.1048941,-0.278798,-0.4639696,-0.4562606,0.05145119,-0.5042079
1.022799,-0.4351042,-0.5937422,0.04092134,-0.2357594,-0.3406917,-0.4103182,-0.05771333,-0.6408236
1.008517,-0.2796291,-0.441228,0.02692164,-0.08025825,-0.1881123,-0.3923975,-0.2258077,-0.6025933
1.112844,-0.2965391,-0.5499653,0.1314926,-0.09716837,-0.296751,-0.4645665,-0.285056,-0.311533
1.227208,-0.2810028,-0.5610918,0.2460609,-0.08165096,-0.3077348,-0.2116153,-0.06709078,0.1449146
1.282254,-0.2233954,-0.4610085,0.301264,-0.0240756,-0.2074539,0.1436437,0.3655252,0.5128427
1.205711,-0.2614103,-0.4528185,0.2248201,-0.06213169,-0.1990028,0.2079673,0.6056348,0.6161434
1.0255,-0.2099824,-0.3404353,0.04464282,-0.01075091,-0.08628992,0.111945,0.5524512,0.5447617
0.8060171,-0.1643182,-0.2131784,-0.1748739,0.03486207,0.041366,-0.01088974,0.3404699,0.4360995
0.6027728,-0.1758074,-0.1692324,-0.37821,0.02331775,0.08577569,-0.1766839,0.02047312,0.3140119
0.5752204,-0.1473951,-0.139159,-0.4058951,0.05167006,0.116369,-0.3194729,-0.2338879,0.3159834
0.6459253,-0.153459,-0.1892095,-0.3353421,0.04553986,0.06688436,-0.3142025,-0.2411184,0.4265345
0.7096438,-0.1112684,-0.216195,-0.2717743,0.08765589,0.04050156,-0.3441335,-0.1119528,0.4329489
0.8152348,-0.0908616,-0.218706,-0.166317,0.1079771,0.03862267,-0.5174546,0.040176,0.3727679
0.8497111,-0.1571258,-0.1969464,-0.1319468,0.0416129,0.0610375,-0.5699197,0.2977852,0.249357
0.7864529,-0.2038459,-0.07720791,-0.1952765,-0.005223719,0.1814475,-0.5421742,0.3862755,0.06686306
0.7494266,-0.2694036,-0.02807481,-0.2323329,-0.07091378,0.231259,-0.5043691,0.1465793,-0.04484428
0.7922091,-0.2895767,-0.0477912,-0.1895319,-0.09123188,0.2122158,-0.3951439,-0.04395696,-0.1176666
0.9155278,-0.2798489,-0.1100229,-0.06613962,-0.08165666,0.1506398,-0.3287463,-0.07229168,-0.1162721
1.085567,-0.2533758,-0.2292258,0.10403,-0.05533868,0.03206596,-0.2342322,0.07973413,-0.05181263
1.221042,-0.1438722,-0.2616646,0.2396862,0.05401095,0.0002248526,-0.1040339,0.2667425,-0.03439112
1.279544,-0.1029753,-0.2195663,0.2984074,0.09475516,0.04288823,-0.05068678,0.2164112,-0.01837912
1.345519,-0.1407283,-0.102751,0.3646244,0.05684815,0.1602347,0.008904975,0.2931571,0.0250039
1.368604,-0.1691618,0.01937538,0.3879537,0.02825657,0.2828537,0.1172586,0.4462378,0.1550243
1.315317,-0.2180391,-0.06689989,0.3348939,-0.0207845,0.1970237,0.2551308,0.1634346,0.367963
1.306542,-0.3155182,-0.2885268,0.3263117,-0.1184318,-0.02421319,0.4025641,-0.1135524,0.5100319
1.213719,-0.4215079,-0.4781536,0.2336318,-0.2245894,-0.213506,0.4720307,0.05331292,0.5286442
1.002319,-0.447757,-0.5919088,0.02231572,-0.2509973,-0.3269747,0.3383283,0.2791335,0.4912954
0.8653394,-0.4233407,-0.579346,-0.1146418,-0.2267196,-0.3141576,0.1391937,0.3618595,0.4814576
0.8722098,-0.3632588,-0.4818877,-0.1078055,-0.1667451,-0.2164603,0.08719349,0.3333316,0.3819368
0.9390845,-0.2814259,-0.3963457,-0.04101254,-0.08498098,-0.1306811,0.00176197,0.1449404,0.1075618
0.932431,-0.2436515,-0.3284628,-0.04778785,-0.04723252,-0.06255391,-0.07044651,-0.03846826,-0.1701419
0.9825285,-0.2370222,-0.295838,0.002153515,-0.0405854,-0.02967382,0.04796439,-0.1978788,-0.3701334
1.043888,-0.2510258,-0.2923723,0.0633263,-0.05452821,-0.02594033,0.1119176,-0.3712911,-0.4435354
0.9499348,-0.2349545,-0.2926327,-0.0308429,-0.03835393,-0.02592057,0.1093452,-0.3696401,-0.420073
0.8906723,-0.1876037,-0.3010735,-0.09034728,0.0091407,-0.03406911,0.1463141,-0.321238,-0.4024175
0.7923222,-0.1350196,-0.2642986,-0.1889596,0.06190663,0.003009902,0.1448689,-0.330837,-0.3113306
0.6789015,-0.06807715,-0.2267731,-0.3026533,0.1290636,0.04085004,0.1503115,-0.3214786,-0.1967941
0.7235142,-0.06709523,-0.2284241,-0.2583109,0.1302853,0.03952182,0.1429239,-0.3851816,-0.1356668
0.7616938,-0.100922,-0.2268977,-0.2203849,0.09671489,0.04137581,0.139117,-0.4281086,-0.07013131
0.8403186,-0.1244535,-0.2352461,-0.1419855,0.07344892,0.03335641,0.2108611,-0.3410639,-0.0436523
0.8965521,-0.1434698,-0.2202306,-0.08594126,0.05470124,0.04869943,0.3066427,-0.2067878,-0.03089
0.8543589,-0.1049183,-0.1905219,-0.1282831,0.09351987,0.07873088,0.3951287,-0.1017557,-0.004783764
0.8792063,-0.05758429,-0.1626634,-0.1035405,0.1411147,0.1069035,0.4309846,-0.008531066,0.002453324
0.8692938,-0.02849728,-0.1512407,-0.1135111,0.1704499,0.118627,0.4343369,0.06795579,0.05067602
0.8640388,-0.02831657,-0.1874245,-0.118775,0.1708587,0.08272502,0.4215876,0.005462266,0.1241083
0.9486352,-0.07774098,-0.1979971,-0.03413622,0.1216347,0.07241111,0.3559216,-0.0635229,0.1470343
1.062692,-0.1327928,-0.1937962,0.08001377,0.06675013,0.07684423,0.2936362,-0.0164431,0.099133
1.22079,-0.1686027,-0.1629294,0.2382494,0.03107111,0.1079139,0.2282447,0.05908089,-0.02969471
1.295352,-0.08909056,-0.08173117,0.3129813,0.1106767,0.1892819,0.1801545,0.1630168,-0.2860682
1.266898,0.0741238,-0.07045612,0.2847163,0.2739446,0.2006881,0.1213657,0.1725149,-0.5964719
1.211862,0.1185127,-0.149007,0.2298691,0.3183402,0.1222233,-0.07790915,0.0392109,-0.6578192
1.150021,0.01610064,-0.2840746,0.1682051,0.2158778,-0.01280802,-0.2672461,-0.2344135,-0.4442608
1.133557,-0.1206464,-0.3958629,0.1518946,0.07901507,-0.1246086,-0.3391237,-0.4987773,-0.3091304
1.078391,-0.2554104,-0.4366835,0.09685241,-0.0559324,-0.1654837,-0.4175458,-0.2756983,-0.3785474
0.9383935,-0.4109607,-0.5012259,-0.04305409,-0.2117288,-0.2301122,-0.4208795,0.05499122,-0.540725
0.8743259,-0.417245,-0.5214162,-0.107064,-0.2183107,-0.2504079,-0.3361621,-0.04535538,-0.6990206
1.029057,-0.3143821,-0.4930208,0.04769619,-0.1157829,-0.2221236,-0.3389434,-0.09836207,-0.6836744
1.214414,-0.3749335,-0.5437634,0.2330556,-0.1766943,-0.2729698,-0.2709653,-0.0258113,-0.3660091
1.204747,-0.3626981,-0.5362279,0.2233604,-0.1648328,-0.2655179,-0.002921097,0.08779833,0.1091166
1.164179,-0.2409655,-0.440355,0.1827247,-0.04347829,-0.1696967,0.2473863,0.3980275,0.4536445
1.162654,-0.225525,-0.3932143,0.1810862,-0.02841352,-0.122567,0.327574,0.5066563,0.5200076
1.083122,-0.167631,-0.3411342,0.1013894,0.02911028,-0.07045254,0.2086475,0.4596762,0.4186205
0.9021238,-0.1728363,-0.2647121,-0.07982852,0.02354112,0.006050876,0.06860316,0.383941,0.330362
0.6513458,-0.1927861,-0.1629165,-0.3308746,0.003233487,0.1079724,-0.04414153,0.05197338,0.2812065
0.5651326,-0.1251072,-0.1070643,-0.4173903,0.07055978,0.1639889,-0.2214402,-0.1572043,0.3064809
0.6692454,-0.1567027,-0.1641245,-0.3135941,0.03861582,0.1071219,-0.2815688,-0.1789015,0.3986054
0.704547,-0.1144653,-0.1590748,-0.2786033,0.08050693,0.1123845,-0.3500987,-0.1861275,0.4182271
0.7656296,-0.06863387,-0.1664549,-0.2178096,0.1259913,0.1052291,-0.4932065,-0.06634782,0.3904119
0.8513227,-0.1137994,-0.2129049,-0.1323719,0.08047425,0.05900859,-0.5542636,-0.002356515,0.3272332
0.7775987,-0.09568596,-0.1283435,-0.2063096,0.09822796,0.1437987,-0.637962,0.03061867,0.2120564
0.719674,-0.1486952,-0.07206359,-0.264399,0.04484767,0.2003,-0.605944,0.02790066,0.176484
0.7100161,-0.1890384,-0.06796712,-0.2741642,0.004120607,0.2046021,-0.5440373,-0.04839363,0.1587663
0.7637369,-0.2091145,-0.08792817,-0.2204837,-0.01635156,0.1848216,-0.5787009,0.06384076,0.08597461
1.021497,-0.2868433,-0.1653553,0.03730897,-0.09448617,0.1075416,-0.4640708,0.242813,0.05165267
1.21626,-0.263411,-0.1898658,0.2321768,-0.07146492,0.08313953,-0.3501905,0.3534033,0.03773023
1.240692,-0.1884863,-0.2290241,0.2567733,0.003048057,0.04404804,-0.29287,0.3206369,0.03113022
1.243831,-0.111692,-0.2087979,0.2601215,0.07943281,0.06429888,-0.1960339,0.1948063,0.05135091
1.245108,-0.1068628,-0.06125189,0.2616357,0.08385381,0.2118264,-0.1205481,0.249599,0.1163822
1.284685,-0.1902797,0.008570531,0.3014606,2.786104e-05,0.2815828,0.03534151,0.1704132,0.3128241
1.302859,-0.2833878,-0.09221187,0.3198771,-0.09349036,0.1806794,0.3045398,-0.02160753,0.5641627
1.272162,-0.4598776,-0.3455565,0.2894026,-0.2703873,-0.07284675,0.6572521,-0.0233738,0.6367123
1.158546,-0.5583437,-0.5881281,0.1759734,-0.3692471,-0.3156573,0.8150578,-0.05094455,0.553772
0.9532088,-0.5146814,-0.6691212,-0.02922083,-0.32595,-0.396933,0.4784207,0.1870636,0.5100177
0.8594905,-0.4674506,-0.541054,-0.1228408,-0.2790399,-0.2691724,0.03166845,0.5556408,0.4241723
0.8844541,-0.3537434,-0.3623844,-0.09781832,-0.165596,-0.09081492,-0.1537495,0.4000232,0.198464
0.9331452,-0.2616837,-0.3721675,-0.04910038,-0.07373454,-0.1009045,-0.2443819,0.1575119,-0.06122905
1.008992,-0.2566395,-0.3233124,0.02674673,-0.06882087,-0.05234382,-0.2448573,-0.02137803,-0.3129406
1.072937,-0.2430111,-0.2145289,0.0906689,-0.05525572,0.05616028,-0.07742576,-0.4490806,-0.4600291
1.072402,-0.247804,-0.2754326,0.09008633,-0.06004586,-0.005007399,0.02998016,-0.5484641,-0.4660408
0.9607981,-0.232338,-0.2632427,-0.02159208,-0.04451304,0.006932748,0.1239538,-0.3346723,-0.4588927
0.791641,-0.1710327,-0.2192532,-0.1908481,0.01692064,0.05068565,0.2908511,-0.3957994,-0.4157928
0.6801747,-0.1270228,-0.240427,-0.3024306,0.06111611,0.02928697,0.3322237,-0.4735211,-0.3372987
0.6662097,-0.1012738,-0.2256302,-0.3165157,0.08710145,0.04386833,0.3268104,-0.5131232,-0.2766546
0.6816511,-0.1106183,-0.2672791,-0.3011826,0.07803628,0.002011657,0.350673,-0.5757477,-0.1951135
0.7339601,-0.1531735,-0.2853279,-0.2489552,0.03579565,-0.01623823,0.4092843,-0.3942225,-0.1275681
0.8569309,-0.1836199,-0.2666698,-0.1260274,0.005692782,0.002225483,0.5355797,-0.1643319,-0.1006018
0.8838249,-0.1432696,-0.2478824,-0.09913063,0.04641106,0.02082543,0.5892556,0.01672147,-0.06491137
0.8327226,-0.04317181,-0.16119,-0.1501809,0.1468963,0.1073363,0.5803818,0.1161727,0.00066208
0.8491883,0.006021174,-0.1417609,-0.133611,0.1964886,0.1265865,0.5422054,0.07258144,0.0703676
0.8835496,0.00920464,-0.1888408,-0.09909078,0.200073,0.07932537,0.4613825,0.1087832,0.1244054
0.9390466,-0.005279293,-0.2120846,-0.0433787,0.1859807,0.05589376,0.3671233,0.1219866,0.1391838
1.020994,-0.07648008,-0.2204513,0.03883814,0.1151524,0.04732997,0.2303365,0.09860021,0.1048305
1.119521,-0.1835917,-0.189887,0.137686,0.008387124,0.07768588,0.1470926,0.1403483,0.008069961
1.22112,-0.2358785,-0.1339837,0.2396449,-0.04358158,0.1333675,0.1844219,0.1241581,-0.2671663
1.22387,-0.1191094,-0.078863,0.2427839,0.07347776,0.188249,0.2004369,0.07440148,-0.57048
1.193874,0.01760504,-0.1173981,0.2131885,0.210454,0.1494516,0.06788317,-0.04813503,-0.5874666
1.218146,-0.03314997,-0.2469342,0.2378616,0.1599274,0.01962481,-0.09732245,-0.2105006,-0.4704898
1.224948,-0.166695,-0.3809874,0.2450498,0.02657137,-0.1147483,-0.1437696,-0.3265852,-0.453021
1.198826,-0.2985025,-0.5301461,0.2192889,-0.1050886,-0.2642506,-0.1097864,-0.3442035,-0.4986326
1.077404,-0.3661116,-0.5701749,0.09819048,-0.1725872,-0.3046347,-0.04838865,-0.1339239,-0.5869391
0.8585651,-0.3623862,-0.5197539,-0.1203651,-0.1687797,-0.2545656,-0.01804141,0.009397864,-0.6870423
0.8085824,-0.4207669,-0.5316711,-0.1701041,-0.2270963,-0.2668165,-0.03298663,-0.1762951,-0.686743
0.993124,-0.4422612,-0.5044724,0.01464915,-0.2485329,-0.2399197,-0.009609292,-0.3244166,-0.4913059
1.153928,-0.3834539,-0.4480788,0.1756374,-0.1896624,-0.1837854,0.1951373,-0.1363225,-0.1110653
1.190198,-0.3274563,-0.4096238,0.212061,-0.1335859,-0.1455385,0.5432802,0.1191453,0.2613032
1.183696,-0.2125011,-0.3322829,0.2056758,-0.01852947,-0.06834918,0.6498264,0.176912,0.3771808
1.134328,-0.1475807,-0.3093626,0.1563793,0.04651645,-0.04552223,0.47705,0.1553444,0.3115189
0.987848,-0.154133,-0.2975357,0.009920204,0.04011191,-0.03373085,0.3201704,0.1283394,0.2689632
0.7972606,-0.1078214,-0.2206172,-0.1806964,0.08658926,0.04320746,0.1594269,0.1035287,0.22636
0.660908,-0.1109044,-0.1824106,-0.3171204,0.0836852,0.08148466,-0.01776919,0.02430042,0.2997279
0.6265178,-0.1337289,-0.1649343,-0.351609,0.06104727,0.09907569,-0.1295686,-0.1162915,0.48853
0.7010235,-0.1156987,-0.1498063,-0.2772107,0.07926672,0.1143546,-0.2611648,-0.1171932,0.5003681
0.785612,-0.146254,-0.167788,-0.1927222,0.04889912,0.09655151,-0.3894214,-0.06957753,0.4020858
0.8037381,-0.1744434,-0.1552519,-0.1746762,0.02089244,0.1092861,-0.4328723,-0.04948251,0.3055976
0.7848881,-0.191234,-0.1135554,-0.1935779,0.00427747,0.1511932,-0.4731597,0.03114022,0.1747432
0.7453299,-0.2164403,-0.06352391,-0.2331511,-0.02076076,0.2014392,-0.4678871,0.06518296,0.09181881
0.7362722,-0.2203187,-0.03610681,-0.242179,-0.02447827,0.2290645,-0.4077884,0.00984768,0.01949367
0.8136562,-0.2399689,-0.1049689,-0.1647121,-0.04397357,0.1603941,-0.4192276,-0.06760647,-0.0252088
0.9866884,-0.2374709,-0.1980743,0.00846135,-0.04132505,0.06745521,-0.4144674,0.01755187,-0.005276015
1.187321,-0.1887993,-0.2445555,0.2092917,0.007494623,0.02111062,-0.3805496,0.2213873,-0.005171899
1.277686,-0.1285218,-0.2666009,0.2999019,0.06791778,-0.0008288627,-0.360843,0.308356,0.0005963469
1.270469,-0.07946011,-0.2228072,0.292962,0.1171206,0.04304072,-0.3275681,0.3399209,0.02707778
1.24439,-0.0848739,-0.1063134,0.2671735,0.1118391,0.1595805,-0.3622061,0.3811153,0.06580058
1.202131,-0.1071645,0.005598138,0.2252018,0.08966679,0.2715044,-0.4081893,0.4249643,0.1143563
1.184049,-0.1771681,-0.009093388,0.2073921,0.01976318,0.2567838,-0.3960009,0.2749301,0.200797
1.211372,-0.3703116,-0.2120075,0.2349604,-0.1732991,0.05379058,-0.1748929,-0.04087395,0.4088307
1.220638,-0.5359253,-0.5048247,0.2444352,-0.3388447,-0.239158,0.3527524,-0.08949791,0.6035743
1.147058,-0.5533039,-0.6868848,0.1710161,-0.3561554,-0.421393,0.6416513,0.07491629,0.6284234
1.036595,-0.5004437,-0.5917371,0.06066048,-0.3032113,-0.3264456,0.4198176,0.4206292,0.5785524
0.9426068,-0.4175735,-0.4035338,-0.03327623,-0.2202261,-0.1384486,0.2115275,0.791153,0.4278847
0.8318479,-0.2848845,-0.3361507,-0.1440365,-0.08738055,-0.07126467,0.1119926,0.5788703,0.06228101
0.8008407,-0.1796057,-0.3054741,-0.1750899,0.01810059,-0.04077368,-0.1857094,0.08661134,-0.2755771
0.9117937,-0.1816153,-0.3232728,-0.06421769,0.01633804,-0.05874148,-0.3193479,-0.2416965,-0.3988648
0.988008,-0.2284132,-0.3232407,0.01188934,-0.03017212,-0.05885984,-0.08270482,-0.5724537,-0.4450944
0.9601802,-0.2771725,-0.2877754,-0.01606759,-0.07860601,-0.02352467,0.08316615,-0.6216409,-0.4335443
0.8816523,-0.3057596,-0.3266052,-0.09474365,-0.1068309,-0.06246296,0.2401912,-0.3833852,-0.4093895
0.7804686,-0.2750334,-0.2944534,-0.1960892,-0.075705,-0.03039722,0.4279749,-0.3037739,-0.4097276
0.7529533,-0.2425151,-0.2678276,-0.2237714,-0.04274922,-0.00383427,0.4075524,-0.2942253,-0.3377591
0.7722645,-0.1847,-0.2892187,-0.2046215,0.01554016,-0.02526535,0.3821236,-0.3587343,-0.272308
0.7594187,-0.09830026,-0.2371557,-0.2176119,0.1024474,0.0267795,0.391498,-0.4727132,-0.2236067
0.8234551,-0.1120643,-0.249314,-0.1536935,0.08921766,0.0146234,0.4171575,-0.3860156,-0.1670082
0.918751,-0.1255997,-0.2502026,-0.05848196,0.07623565,0.01375495,0.4963915,-0.2710427,-0.1542358
0.8909416,-0.04379261,-0.2111978,-0.08633794,0.1586075,0.0527955,0.4816352,-0.1230985,-0.07774429
0.8639521,-0.01897114,-0.2152157,-0.1133346,0.1839963,0.0488261,0.4564967,0.01180214,0.04391162
0.8995973,-0.02880977,-0.1956053,-0.07765496,0.1747176,0.06849413,0.4213813,-0.04281763,0.1244179
0.8873747,0.004781729,-0.2071771,-0.08980007,0.2088515,0.0569852,0.3221838,-0.02296312,0.1845315
0.8914241,-0.003526199,-0.2058221,-0.08562873,0.2010581,0.05840489,0.2470521,0.007418442,0.186275
0.9719603,-0.04865743,-0.1999046,-0.004925961,0.1564041,0.06438519,0.159275,-0.01170924,0.1596616
1.108212,-0.1396955,-0.2232404,0.1315344,0.06579884,0.04110754,0.09149452,0.1004089,0.1129026
1.235522,-0.2487909,-0.1896381,0.259089,-0.0429116,0.07476037,0.1104544,0.1624745,-0.05780822
1.207791,-0.1931632,-0.1387075,0.2316262,0.01305411,0.125731,0.1391013,0.1252302,-0.303452
1.164202,-0.04405669,-0.07366322,0.1883135,0.1624533,0.1908,0.07875478,0.09996167,-0.407144
1.203331,0.05189019,-0.07715075,0.227715,0.2586452,0.1873152,-0.003253934,0.03958731,-0.315056
1.158265,0.09076119,-0.1894407,0.1829073,0.2977062,0.0749988,-0.09835451,-0.1972494,-0.2247868
1.161646,-0.06118473,-0.3541043,0.1865215,0.1458861,-0.08972381,-0.3250425,-0.3938649,-0.2121272
1.201325,-0.3047146,-0.5855782,0.2263993,-0.09758768,-0.3212857,-0.461974,-0.06866867,-0.2768832
1.063441,-0.3721803,-0.6347486,0.08867395,-0.1650637,-0.3705608,-0.3747496,0.2512077,-0.4796394
0.8837772,-0.3517619,-0.489162,-0.0908782,-0.1447121,-0.2250788,-0.3325522,-0.1125247,-0.6181849
0.801774,-0.3588112,-0.4638509,-0.1728122,-0.151873,-0.1998568,-0.3723102,-0.4702655,-0.5215604
0.9302416,-0.3606425,-0.5063004,-0.04431076,-0.1538492,-0.2423688,-0.2874291,-0.3365873,-0.2576497
1.172745,-0.3346992,-0.5112077,0.1981974,-0.1280735,-0.2473021,-0.04789835,-0.06791975,0.1464387
1.24596,-0.2813212,-0.4776271,0.2713861,-0.07487687,-0.2137014,0.2023789,0.3018282,0.4559052
1.226839,-0.2420461,-0.4051194,0.2521998,-0.03579031,-0.1411196,0.2918346,0.538649,0.4787261
1.108385,-0.208057,-0.3383696,0.1336327,-0.001992961,-0.07423684,0.1709443,0.4106177,0.4054488
0.8685565,-0.1917665,-0.2294682,-0.106362,0.01410464,0.03485706,0.02512932,0.2517716,0.3070416
0.7271833,-0.1987278,-0.1485991,-0.2479505,0.006949747,0.1159744,-0.07642672,0.01506242,0.2228718
0.693074,-0.1840082,-0.1655328,-0.2823124,0.02147516,0.09933676,-0.1784475,-0.1728891,0.311618
0.7190463,-0.1584522,-0.1863835,-0.2566138,0.04683602,0.07882066,-0.2198428,-0.04139645,0.4554536
0.7638698,-0.1032774,-0.209009,-0.2120694,0.1018132,0.05656021,-0.3359524,-0.00325668,0.4791123
0.801416,-0.06082427,-0.2130056,-0.1747947,0.1440631,0.05295217,-0.4885829,-0.008917925,0.4186903
0.8330652,-0.09092152,-0.1738646,-0.1433991,0.1137521,0.09249935,-0.5356082,0.1175302,0.3269377
0.7695264,-0.14358,-0.1225426,-0.2071652,0.06086472,0.1442386,-0.5910112,0.1551256,0.2389126
0.7078696,-0.2005623,-0.06807599,-0.2690149,0.003635816,0.1991253,-0.5754241,0.2043496,0.1771268
0.7255498,-0.2353157,-0.08014879,-0.2514831,-0.03138188,0.1874657,-0.5441419,0.2066239,0.1046694
0.791206,-0.2597786,-0.1199738,-0.1859212,-0.05612404,0.148037,-0.5535442,0.2017484,0.011642
0.9687013,-0.3046674,-0.1218264,-0.008459451,-0.101303,0.1465551,-0.4330543,0.3670136,-0.03724427
1.158982,-0.288054,-0.15184,0.1818483,-0.08498536,0.11688,-0.3050039,0.4470656,-0.01566525
1.217171,-0.2037755,-0.1752355,0.2401165,-0.001002814,0.09378553,-0.209876,0.3568287,0.01053479
1.196753,-0.1139043,-0.1512952,0.219817,0.08857462,0.1179853,-0.1427433,0.2567605,0.04522757
1.194835,-0.07281518,-0.103658,0.2180416,0.1293708,0.1658369,-0.1322433,0.2375066,0.1573291
1.20536,-0.152864,-0.0658385,0.2287198,0.04902628,0.2038211,0.03453486,0.1009852,0.3235984
1.229028,-0.3062901,-0.1906086,0.2525386,-0.1047007,0.07916058,0.3676523,-0.2398618,0.5026117
1.280163,-0.469218,-0.4726585,0.3038098,-0.2679316,-0.2028363,0.68528,-0.2654975,0.5912648
1.237793,-0.5825017,-0.6287367,0.261547,-0.38151,-0.3589108,0.7560235,0.1927136,0.5172504
1.050231,-0.5522517,-0.531781,0.07405253,-0.3515306,-0.261985,0.460606,0.6595382,0.4191687
0.8115958,-0.4470297,-0.3695922,-0.1645595,-0.2465388,-0.09984316,0.1097107,0.6188948,0.2837332
0.7215926,-0.2924953,-0.3090834,-0.254579,-0.09218167,-0.03938752,-0.04883614,0.1526482,0.08557986
0.8767946,-0.1181271,-0.3342512,-0.09942153,0.08206708,-0.06460925,-0.1163524,-0.1837485,-0.02395267
1.01596,-0.1046134,-0.3940861,0.03968108,0.0955163,-0.1244952,-0.1193255,-0.3230479,-0.1093157
1.063932,-0.2021465,-0.3937702,0.08757483,-0.002032779,-0.1242229,-0.04871856,-0.2727021,-0.1833776
1.083438,-0.2851697,-0.3243308,0.1069875,-0.08502874,-0.05481431,-0.03284701,-0.1487848,-0.2424581
0.9466778,-0.3058115,-0.2685555,-0.02988545,-0.1056017,0.0009462179,0.01227224,-0.1824945,-0.3811077
0.772428,-0.2341452,-0.2127209,-0.2042649,-0.0338241,0.05678255,0.1275114,-0.2076969,-0.4384883
0.6925015,-0.1739268,-0.2204182,-0.2843313,0.02654771,0.04910118,0.1314328,-0.3702347,-0.402311
0.6833237,-0.1297032,-0.2698943,-0.2936465,0.07096375,-0.0003479521,0.1275573,-0.5204631,-0.3323349
0.7342472,-0.1002658,-0.2754473,-0.2428437,0.1006269,-0.005865071,0.2015425,-0.4099406,-0.1674101
0.7827631,-0.1335163,-0.296113,-0.194419,0.06762849,-0.02648685,0.2999151,-0.3313383,-0.07143073
0.8497626,-0.1434527,-0.2819631,-0.1274722,0.05796382,-0.01228481,0.3746175,-0.1595684,-0.08222624
0.863059,-0.1202106,-0.2503794,-0.114184,0.08149149,0.01935911,0.3319257,-0.01045351,-0.0862835
0.8236613,-0.08372448,-0.2221973,-0.1535416,0.1182714,0.04760842,0.3251696,-0.03384604,-0.06620535
0.8650643,-0.03265612,-0.1680685,-0.1120472,0.1696351,0.1018089,0.3513043,0.03875433,-0.007834723
0.8834402,-0.01081661,-0.1897941,-0.093526,0.191763,0.0801554,0.2850587,0.06276317,0.04552644
0.9106283,-0.0133167,-0.2008294,-0.06613778,0.1895354,0.06918813,0.2428432,0.03330101,0.0545831
1.000665,-0.03790825,-0.1827201,0.02415358,0.165191,0.08735735,0.1749829,0.04292657,0.03634114
1.055096,-0.09991966,-0.2020471,0.07888874,0.103394,0.06807866,0.07689134,0.04903261,0.01491284
1.150094,-0.1656382,-0.155343,0.1742344,0.03785218,0.1148159,0.06221023,0.1315828,-0.09687709
1.223289,-0.1392059,-0.09041178,0.2478094,0.06442159,0.1797608,0.07856642,0.1882061,-0.3548197
1.186535,-0.03296431,-0.07929074,0.2114553,0.1707593,0.1908702,0.0369016,0.09505536,-0.5508188
1.182047,-5.383476e-05,-0.1821307,0.207371,0.2037217,0.08798665,-0.1087406,-0.06817906,-0.5612396
1.228591,-0.1205548,-0.3945272,0.254312,0.08322329,-0.1244889,-0.2879763,-0.1741357,-0.5041323
1.223723,-0.2991285,-0.5241899,0.2498205,-0.09539988,-0.2542619,-0.3727108,-0.2365611,-0.4915895
1.108393,-0.3232886,-0.5522728,0.1348349,-0.1196577,-0.2824754,-0.3231376,-0.1248767,-0.5146435
0.9048848,-0.2704915,-0.5382368,-0.06836725,-0.0669986,-0.2685755,-0.2956373,0.07023112,-0.511989
0.8044351,-0.3305637,-0.5045158,-0.1685498,-0.127241,-0.2349815,-0.3595231,-0.1237926,-0.4849073
0.9452155,-0.3493272,-0.5008641,-0.02753503,-0.1461985,-0.2314349,-0.3415131,-0.2948045,-0.3997179
1.132105,-0.3098812,-0.4862176,0.159561,-0.1069617,-0.2168609,-0.2347829,-0.04576821,-0.1738334
1.191691,-0.2942675,-0.4386298,0.2193245,-0.09156429,-0.1693037,-0.02931909,0.1617622,0.1586175
1.171679,-0.2378011,-0.3672682,0.1994539,-0.03531523,-0.09792428,0.216279,0.2565065,0.3884792
1.074515,-0.2106153,-0.3188985,0.1023872,-0.008343921,-0.04948486,0.2449293,0.2501851,0.3989322
0.9219701,-0.2034701,-0.3030743,-0.05010798,-0.001408603,-0.03353901,0.1534845,0.1710807,0.351028
0.7600147,-0.1720852,-0.2321417,-0.2120587,0.02977164,0.03756507,0.06834792,0.1945328,0.3145732
0.661807,-0.1575232,-0.1794265,-0.3102974,0.04413341,0.0904973,-0.06578333,0.07966269,0.2784022
0.6913498,-0.1287809,-0.185778,-0.2808062,0.07267844,0.08440145,-0.1769505,-0.09953195,0.3477947
0.7553347,-0.1116053,-0.1781184,-0.2168777,0.08965684,0.09234786,-0.306741,-0.1101732,0.4347925
0.8363452,-0.1156651,-0.1861126,-0.1359154,0.08539667,0.0846638,-0.4636786,-0.05750345,0.4001503
0.8816172,-0.127137,-0.1738408,-0.09067466,0.0737175,0.09726202,-0.506788,0.0473302,0.3237395
0.8145384,-0.1651207,-0.1147042,-0.1577621,0.03551684,0.1567341,-0.4891917,0.1433297,0.23265
0.7564816,-0.1949836,-0.0508474,-0.2157995,0.005425974,0.2209271,-0.4937956,0.1790744,0.1133505
0.7334353,-0.2141991,-0.0262185,-0.238791,-0.01402828,0.2458822,-0.4558601,0.1272484,0.05470277
0.7828636,-0.2460513,-0.08548308,-0.1892643,-0.04612838,0.1869226,-0.4096157,0.02725675,0.01963996
0.931266,-0.2862108,-0.1278235,-0.04071324,-0.08654193,0.1448558,-0.3827552,0.07058855,-0.04172351
1.068049,-0.2738787,-0.1413245,0.09627033,-0.0744657,0.1315897,-0.2870809,0.2011446,-0.04715053
1.209361,-0.182154,-0.2030133,0.237828,0.01700539,0.07009228,-0.1620885,0.2965081,-0.04049448
1.281066,-0.1155869,-0.2239039,0.309812,0.08332293,0.0493471,-0.08051783,0.2460377,-0.03683077
1.264436,-0.1286239,-0.1758764,0.2934795,0.07003882,0.09747315,-0.02143569,0.1321425,0.04279518
1.314706,-0.1716198,-0.1388665,0.3440452,0.02679553,0.1345336,0.1146876,0.1934559,0.1905418
1.349353,-0.2454936,-0.1757622,0.3789714,-0.04732742,0.09763856,0.4031077,0.1822265,0.3900263
1.360507,-0.3830804,-0.2771695,0.3903688,-0.1851631,-0.003819603,0.6828855,0.0822469,0.4951294
1.35396,-0.4488179,-0.3675892,0.3840113,-0.2511427,-0.09433985,0.7508449,0.1365225,0.4262464
1.085723,-0.4103991,-0.4170824,0.1158965,-0.2129488,-0.1439772,0.589431,0.2121278,0.3622838
0.7619946,-0.4546643,-0.4440541,-0.2077851,-0.2574106,-0.1711272,0.3348192,0.3210958,0.3084639
0.782047,-0.454613,-0.4522182,-0.1877541,-0.2575167,-0.1794933,0.07045379,0.3306411,0.1639582
0.8997432,-0.3054748,-0.4066217,-0.07013545,-0.1084869,-0.1341112,-0.1528478,0.09341517,0.03605576
0.9138248,-0.1520318,-0.3805003,-0.0561767,0.04490155,-0.1082075,-0.1669004,-0.1273158,-0.03455609
1.011969,-0.04801071,-0.4042389,0.04180632,0.1489203,-0.1321595,-0.07527277,-0.2322016,-0.1246808
1.019137,-0.1338212,-0.3654401,0.0487786,0.0631525,-0.09356335,-0.05756351,-0.2350008,-0.1865552
0.8793354,-0.2851482,-0.3136328,-0.09125066,-0.08809407,-0.04194298,-0.04057083,-0.2269627,-0.2497986
0.864535,-0.2866729,-0.2857833,-0.1063072,-0.08950347,-0.01426166,-0.04007103,-0.2886083,-0.3511172
0.8021915,-0.2592063,-0.2653005,-0.1689276,-0.06188608,0.006072564,-0.01649765,-0.3464358,-0.3710845
0.6723151,-0.1780717,-0.2637756,-0.2990915,0.01943516,0.007467649,0.06350949,-0.4218424,-0.342103
0.6911329,-0.1104265,-0.2470987,-0.2805588,0.08730059,0.0240323,0.1092388,-0.4313372,-0.2676191
0.7621394,-0.1343824,-0.2784037,-0.2098207,0.06359335,-0.007369086,0.179173,-0.3271493,-0.1199475
0.8746101,-0.1392552,-0.3029834,-0.09759009,0.05899147,-0.03203017,0.2760481,-0.1445447,-0.06486029
0.9288031,-0.1689623,-0.2637649,-0.04360224,0.02957215,0.007121508,0.3307997,0.03066647,-0.08637842
0.8640831,-0.1270692,-0.2229862,-0.1084897,0.0717652,0.04784736,0.3592554,-0.003999781,-0.06003831
0.8539498,-0.02950049,-0.1512901,-0.1187506,0.1696409,0.119502,0.3767287,-0.05520998,-0.01143439
0.8708541,-0.02149138,-0.1368507,-0.1019314,0.1779567,0.1339066,0.3704883,-0.0006317191,0.02435891
0.8946278,-0.01671781,-0.1707933,-0.07819755,0.1830274,0.09992958,0.3282241,-0.03103757,0.03922849
0.9431811,-0.03067266,-0.1561359,-0.02963755,0.169351,0.1145468,0.302175,-0.05785654,0.02328796
1.005601,-0.05954054,-0.1746036,0.03283478,0.1407344,0.09602822,0.2885108,-0.08242516,-0.00666263
1.090651,-0.1165511,-0.2075694,0.1179785,0.08394164,0.06299665,0.2672913,-0.1095697,-0.04060249
1.161718,-0.2061199,-0.2102428,0.1891748,-0.005446485,0.06023955,0.2812573,0.04209733,-0.1919044
1.197453,-0.1615063,-0.1588192,0.2250625,0.03931035,0.1115594,0.2769891,0.1806177,-0.4515184
1.156852,-0.05408427,-0.08885675,0.1846256,0.1468381,0.1813948,0.2169991,0.0797764,-0.557079
1.112642,0.01225659,-0.1574276,0.140581,0.2132449,0.1126689,0.12761,-0.04269448,-0.4687997
1.094966,0.003669237,-0.3128506,0.1230629,0.2046777,-0.04294078,-0.01490988,-0.06351002,-0.3805536
1.093542,-0.1715188,-0.5091229,0.1217801,0.02945813,-0.2394296,-0.2456504,-0.09995798,-0.3627959
1.126363,-0.360478,-0.692712,0.1547218,-0.1595854,-0.4232549,-0.419061,-0.0270439,-0.4931168
1.027814,-0.3805385,-0.5967399,0.05626673,-0.1797764,-0.3275212,-0.3651562,0.04738057,-0.7439928
0.9304342,-0.2912748,-0.4442093,-0.04104899,-0.09067889,-0.1752134,-0.3600603,-0.2783579,-0.761603
1.026731,-0.2569803,-0.5280664,0.05528306,-0.0565765,-0.259264,-0.4610958,-0.5615254,-0.4726594
1.150639,-0.3033879,-0.5186967,0.1791977,-0.1031951,-0.2500478,-0.2596116,-0.2174751,-0.1229246
1.256327,-0.3128096,-0.4204984,0.2848587,-0.1128403,-0.1519537,0.05413407,0.2782585,0.2216893
1.273393,-0.2908395,-0.4118337,0.3018562,-0.09109958,-0.1433369,0.1439653,0.4828432,0.4242923
1.134626,-0.2648294,-0.3364983,0.1629691,-0.06531855,-0.06798909,0.1378309,0.5394772,0.4279229
0.9448821,-0.2137618,-0.2647234,-0.02695439,-0.01447544,0.003859085,0.08738109,0.3850345,0.3603019
0.7504878,-0.1794309,-0.1944604,-0.221585,0.019638,0.07425324,0.02350034,0.02044661,0.3020296
0.6434524,-0.1720385,-0.1348795,-0.3289031,0.02682014,0.1340168,-0.04875701,-0.229238,0.361921
0.6561343,-0.1580882,-0.192418,-0.3165334,0.0405664,0.07670356,-0.1480453,-0.2451984,0.4457348
0.7118329,-0.1222134,-0.2040545,-0.2611576,0.07624155,0.06532632,-0.2673831,-0.09504498,0.4602442
0.7823663,-0.1048616,-0.2128286,-0.1909416,0.09339525,0.05683816,-0.482273,0.04876938,0.4110445
0.8067994,-0.1245386,-0.1999158,-0.1668083,0.07351806,0.07005773,-0.6175108,0.09222337,0.2541068
0.7610113,-0.1461578,-0.08403811,-0.2128688,0.05169334,0.1862565,-0.6075849,0.1410885,0.1520347
0.7023283,-0.1828159,-0.05449238,-0.2717879,0.01482219,0.216129,-0.6097481,0.06536134,0.1311168
0.692063,-0.2242451,-0.05836367,-0.2822425,-0.02682808,0.2125793,-0.5659305,-0.167557,0.1007401
0.8258329,-0.2501704,-0.09285205,-0.1486053,-0.05298106,0.1783961,-0.515966,-0.2532712,0.08351059
1.083264,-0.2741677,-0.1974375,0.1087556,-0.07720945,0.07409034,-0.4521005,0.02446619,0.04997097
1.229794,-0.2670645,-0.2318043,0.2552753,-0.07033698,0.03997232,-0.3043439,0.4457235,0.03320329
1.206219,-0.2146979,-0.2339221,0.2317358,-0.01819663,0.03807036,-0.1816682,0.4764927,-0.0126676
1.207527,-0.159399,-0.2136171,0.2331125,0.03688274,0.0585576,-0.08645904,0.2849021,-0.04781042
1.243354,-0.1368499,-0.1396294,0.2690252,0.05921871,0.1326931,-0.04635728,0.2820178,0.0410999
1.227687,-0.1168304,-0.03347754,0.2534463,0.07902957,0.2389548,-0.0341945,0.2625431,0.1292762
1.222019,-0.1034436,-0.0001813546,0.2478553,0.09220877,0.272316,0.04094004,0.1469359,0.2337571
1.229438,-0.1939812,-0.1753892,0.2553286,0.001461457,0.09712003,0.1969021,-0.01043037,0.40101
1.200841,-0.385156,-0.4431755,0.2267514,-0.1899254,-0.1707113,0.4701622,-0.05251502,0.5097481
1.134248,-0.5654478,-0.6588479,0.1601331,-0.3704257,-0.3864791,0.5703078,0.2144944,0.533343
1.003336,-0.6236897,-0.6774175,0.02914686,-0.4288583,-0.405178,0.3935925,0.6251778,0.501761
0.8738589,-0.5040875,-0.4700557,-0.1004561,-0.3094114,-0.1979587,0.2285992,0.8901327,0.3678786
0.8409601,-0.3210845,-0.315786,-0.133526,-0.1265127,-0.04382897,0.04301433,0.5976402,0.08899728
0.8612355,-0.1924181,-0.3216512,-0.1134585,0.002108128,-0.04982382,-0.08722596,0.05728336,-0.1159285
0.9197701,-0.131568,-0.3733636,-0.05515944,0.06297112,-0.1016521,-0.02138776,-0.1227026,-0.1244349
1.007187,-0.1707248,-0.3775425,0.03200034,0.02388095,-0.10593,0.05954949,-0.2630649,-0.1116997
1.023923,-0.2306796,-0.3514142,0.04846222,-0.0359592,-0.07987987,0.1199535,-0.2680231,-0.1175733
0.9354215,-0.2379237,-0.3217727,-0.04033113,-0.04304419,-0.05029237,0.1694444,-0.09081903,-0.1521649
0.808583,-0.2462963,-0.2274839,-0.1674755,-0.05121516,0.04396773,0.1915036,-0.2128376,-0.2041013
0.7350607,-0.2176178,-0.1895684,-0.2413105,-0.02229413,0.0818783,0.2547988,-0.35314,-0.2158141
0.7417615,-0.1776874,-0.2385858,-0.2349186,0.01791789,0.03287573,0.2787131,-0.5290844,-0.2190179
0.8054564,-0.1851969,-0.2440784,-0.1715164,0.01072567,0.0274136,0.2795472,-0.6901342,-0.2005387
0.8718801,-0.1766054,-0.2486653,-0.1053598,0.0196662,0.02286956,0.3834245,-0.4776014,-0.1916222
0.8779321,-0.152974,-0.2398946,-0.09954277,0.04367409,0.0316933,0.4483904,-0.355761,-0.1815454
0.875092,-0.09779991,-0.1904727,-0.1025816,0.09924715,0.08117566,0.425737,-0.3054307,-0.1062101
0.8567471,-0.0252802,-0.1405346,-0.1210859,0.1721816,0.1311778,0.4399551,-0.2201862,0.005150267
0.7920372,-0.003861699,-0.1170132,-0.1859119,0.1940216,0.1547611,0.4420873,-0.2915072,0.1325396
0.8190967,-0.007939583,-0.1512352,-0.1589205,0.1903613,0.120592,0.4345415,-0.2428697,0.2176055
0.929711,-0.0526407,-0.1886682,-0.048322,0.1460635,0.0831966,0.4253197,-0.2176898,0.2429881
1.020057,-0.1289656,-0.2260913,0.04206229,0.07011939,0.04579167,0.3706044,-0.1493291,0.2012701
1.085944,-0.1921567,-0.252591,0.1080372,0.007281684,0.01928864,0.2990375,0.06901532,0.06696487
1.115672,-0.2150829,-0.1992337,0.1378959,-0.01531981,0.07262039,0.1875401,0.0529496,-0.1040784
1.186077,-0.1522501,-0.1347349,0.2084648,0.04780955,0.1370702,0.1286202,0.02602219,-0.3366331
1.248629,-0.07115903,-0.1075844,0.271201,0.1291688,0.1641449,0.1608346,0.08241531,-0.5493895
1.206485,-0.02366289,-0.1110805,0.2292487,0.1769016,0.1605409,0.149751,0.04713809,-0.5862343
1.192263,-0.00842551,-0.1961447,0.2152129,0.1923382,0.07533168,0.1220987,-0.01628567,-0.511668
1.178752,-0.06565263,-0.3441622,0.2018696,0.1352663,-0.07286999,0.04266862,-0.2270141,-0.4414816
1.127168,-0.1535206,-0.4353383,0.1504249,0.04750446,-0.164266,-0.1537758,-0.3670494,-0.4275704
1.080566,-0.2510917,-0.4615988,0.1039278,-0.05001075,-0.1907738,-0.2624342,-0.07451254,-0.4621555
0.9387213,-0.3596359,-0.5225699,-0.03784995,-0.1585457,-0.2520077,-0.2274958,0.2246316,-0.5649835
0.8644607,-0.3548217,-0.5345877,-0.1120816,-0.1537606,-0.2642908,-0.2661451,0.02030885,-0.667735
0.994632,-0.2815576,-0.4712012,0.01808588,-0.08055444,-0.2011587,-0.3330795,-0.1496362,-0.5749125
1.105312,-0.2951005,-0.4789233,0.128733,-0.09417549,-0.2091124,-0.2405846,0.05675121,-0.2899442
1.111107,-0.27125,-0.4706991,0.1344647,-0.07041705,-0.201087,-0.08355449,0.1656601,0.09218469
1.094499,-0.2103667,-0.3980221,0.1177603,-0.009634551,-0.1285678,0.04613214,0.3352221,0.3915486
1.094556,-0.2118289,-0.3556162,0.1176844,-0.01120312,-0.08627292,0.09436912,0.5301567,0.416419
1.075355,-0.1722494,-0.3155801,0.0983089,0.02826569,-0.04629836,-0.01883013,0.3861269,0.3316285
0.951617,-0.183071,-0.2823518,-0.02564474,0.01732946,-0.01308229,-0.1327379,0.2744634,0.3043262
0.7422522,-0.2226018,-0.2139798,-0.2352639,-0.02232016,0.05532477,-0.1833237,0.1693437,0.3197049
0.6348845,-0.1932021,-0.1670892,-0.3429146,0.006957206,0.102293,-0.244487,0.01776245,0.3874441
0.7095289,-0.206887,-0.2184003,-0.2685658,-0.006852798,0.05109549,-0.2949093,0.08615193,0.4374509
0.7668172,-0.1662488,-0.2011658,-0.2115693,0.03365801,0.06847286,-0.4001697,0.1040957,0.4053098
0.7864167,-0.1229257,-0.1760096,-0.1922444,0.0768508,0.09379512,-0.51002,0.1008977,0.3055875
0.8535709,-0.1596146,-0.1760959,-0.125338,0.04002704,0.09389174,-0.5561504,0.1689514,0.1824115
0.8157175,-0.157516,-0.08929108,-0.1634049,0.04198405,0.1808895,-0.5831064,0.1082483,0.112063
0.7437622,-0.1935719,-0.05086576,-0.235533,0.005778652,0.2195092,-0.5151209,0.06515272,0.08819617
0.7748471,-0.2387536,-0.06106722,-0.2045729,-0.03956037,0.2094931,-0.4206043,-0.005818866,0.0448347
0.8534972,-0.2634844,-0.08704959,-0.1259923,-0.06445464,0.1836766,-0.3984005,-0.07811333,-0.01711536
1.02535,-0.2909536,-0.151215,0.04585026,-0.09208987,0.1196488,-0.3609928,0.1213414,-0.05823167
1.151923,-0.2327393,-0.1851213,0.1724696,-0.03404005,0.0858457,-0.2853541,0.2854423,-0.07599258
1.147248,-0.1462305,-0.2264985,0.1678887,0.05230871,0.04453404,-0.2065491,0.1893313,-0.0534552
1.200867,-0.08960724,-0.2127994,0.2216377,0.1087759,0.05825997,-0.1692187,0.1564933,0.02500323
1.236329,-0.1099261,-0.09582417,0.2572519,0.08830174,0.1752223,-0.1543406,0.281816,0.1269952
1.205061,-0.1519307,0.02318712,0.226145,0.04613843,0.2941772,-0.106542,0.328513,0.253534
1.220177,-0.1298403,0.05469149,0.2414174,0.06806381,0.3255735,-0.02888219,0.2057789,0.3627051
1.226447,-0.1920836,-0.09396146,0.2478258,0.005647092,0.1767506,0.1184124,0.05825062,0.4063163
1.205545,-0.3080981,-0.3337019,0.2270352,-0.1105491,-0.06322809,0.2469215,0.05506068,0.4460937
1.128616,-0.3783454,-0.5124427,0.1501777,-0.1809824,-0.2422725,0.1448454,0.307474,0.5592933
0.9781219,-0.4357624,-0.5491478,-0.0002893435,-0.2385819,-0.2793343,-0.04842268,0.632586,0.662499
0.892399,-0.4101872,-0.4284537,-0.08603067,-0.2131752,-0.1590337,-0.1027077,0.6468126,0.5142796
0.8852288,-0.3291464,-0.326874,-0.09326026,-0.1322786,-0.05787008,-0.2131406,0.3717775,0.2130003
0.8872784,-0.2563556,-0.312015,-0.0913037,-0.0596005,-0.04344088,-0.3383562,0.05828037,0.002059462
0.9390076,-0.2121313,-0.3160339,-0.03969405,-0.0154543,-0.0478976,-0.2216347,-0.1987209,-0.1870431
1.035192,-0.2628938,-0.3306416,0.0563497,-0.06625966,-0.06294686,-0.08555177,-0.2734017,-0.2893201
1.080211,-0.3085302,-0.3216424,0.1012068,-0.1119037,-0.0543888,0.01580653,-0.1417831,-0.3115602
1.004113,-0.2779392,-0.2977333,0.02492684,-0.08128332,-0.03091638,0.1321205,-0.06588538,-0.386088
0.8504683,-0.2399503,-0.2616891,-0.128921,-0.04322643,0.004698513,0.1159346,-0.1838368,-0.3750195
0.740901,-0.1741194,-0.2333311,-0.2387075,0.02271095,0.03263574,0.1335651,-0.3545868,-0.3122194
0.7227132,-0.1388518,-0.2510435,-0.2571202,0.0581212,0.01451122,0.192237,-0.5027034,-0.2452012
0.7869388,-0.1741843,-0.2504084,-0.1931123,0.02296281,0.01474211,0.2359015,-0.5474145,-0.130607
0.8819066,-0.1699257,-0.2429262,-0.0983442,0.02742253,0.02182776,0.3905195,-0.3601886,-0.1164281
0.918668,-0.1450481,-0.2385104,-0.06175763,0.05252393,0.0258542,0.4626133,-0.1448722,-0.1344838
0.8988791,-0.1085252,-0.1975611,-0.08169274,0.08928885,0.06642037,0.4007023,-0.1427348,-0.08583956
0.8707177,-0.02579992,-0.1677756,-0.1099695,0.1722683,0.09582709,0.3764447,-0.1799107,-0.0302615
0.8637599,-0.001174405,-0.1499155,-0.1170087,0.197152,0.1133094,0.3712972,-0.1439948,0.06061756
0.8615495,-0.03404031,-0.1443295,-0.1192632,0.1645384,0.1185144,0.359361,-0.1680711,0.1444763
1.234296,-0.121933,-0.3322288,0.253038,0.068301,-0.06480788,0.3315872,-0.09642808,-0.4159105
1.313113,-0.1847815,-0.4595475,0.3321628,0.005814771,-0.1923094,0.1296262,-0.03936738,-0.4458891
1.234611,-0.1730693,-0.4511843,0.2539287,0.01784018,-0.1841449,0.0868748,-0.007195412,-0.4675902
1.070994,-0.1314229,-0.4236105,0.09052627,0.05975221,-0.1567754,0.1482146,-0.05955115,-0.4832654
0.9129679,-0.1635528,-0.4841278,-0.06734158,0.02784121,-0.2174922,0.1212121,-0.2448091,-0.474278
0.8468713,-0.2590788,-0.4596928,-0.1333348,-0.06751098,-0.1932422,0.1121267,-0.4635472,-0.4558236
0.8944767,-0.3833863,-0.4204436,-0.08567307,-0.1916855,-0.1541539,0.1760038,-0.3566386,-0.381597
0.9624771,-0.4341107,-0.444963,-0.01765548,-0.2423087,-0.1788023,0.2726726,-0.09396458,-0.185955
1.086125,-0.3539048,-0.3845015,0.1059754,-0.1620214,-0.1184313,0.4593981,0.1199272,0.03255615
1.204089,-0.3032062,-0.348703,0.2238884,-0.1112503,-0.08268014,0.5689156,0.3474418,0.1308964
1.109731,-0.2404309,-0.3548467,0.1294412,-0.04840375,-0.08882537,0.4618801,0.2205869,0.1352243
0.9649168,-0.1343499,-0.3264339,-0.015506,0.0577509,-0.06036716,0.3356911,-0.02358414,0.1485161
0.9036452,-0.143724,-0.3133753,-0.07695295,0.04845263,-0.047216,0.2904244,0.09814185,0.1833971
0.7920326,-0.1613559,-0.2432436,-0.1887778,0.03089656,0.02305427,0.2418243,0.03648991,0.2339315
0.7332739,-0.1490498,-0.1916613,-0.2477757,0.04327607,0.07481772,0.1618179,-0.1630839,0.3217654
0.7619413,-0.1833598,-0.202962,-0.2193613,0.009035165,0.06373524,0.05796601,-0.1185548,0.3888295
0.8046493,-0.1990491,-0.1989749,-0.1769071,-0.00659043,0.06797102,-0.03106355,-0.1303587,0.3773659
0.9019184,-0.2123129,-0.2170953,-0.079882,-0.01979572,0.05012357,-0.05842839,-0.07445796,0.3114129
0.9263945,-0.2213833,-0.2051026,-0.05563341,-0.02881214,0.06240787,-0.07761902,-0.008767498,0.1935786
0.8536186,-0.2217814,-0.1571215,-0.1286164,-0.0291594,0.1106936,-0.1062605,-0.06133999,0.05535436
0.7990994,-0.2332372,-0.09798679,-0.1833178,-0.04056583,0.1701396,-0.08336087,-0.03842943,-0.0239007
0.7801322,-0.2392536,-0.06326944,-0.2024359,-0.04653255,0.2051664,-0.04250216,-0.1430816,-0.05362186
0.8368199,-0.2639853,-0.1301385,-0.1458606,-0.07121205,0.1385952,-0.01264993,-0.1781141,-0.06382271
0.9453817,-0.2786197,-0.1962639,-0.03736686,-0.08578912,0.07274801,0.004250034,0.06069468,-0.0288795
1.071326,-0.2777165,-0.2109057,0.08855518,-0.08481992,0.05835954,-0.00409149,0.3250986,-0.001295561
1.169729,-0.2526375,-0.180571,0.1869762,-0.05966298,0.08891995,0.02121154,0.4433889,-0.08488026
1.158222,-0.171257,-0.1210979,0.1755195,0.02180952,0.1485881,0.05516132,0.2707146,-0.2069078
1.112957,-0.1094021,-0.1078225,0.1303264,0.08376998,0.1620237,0.02274072,0.08027592,-0.2094786
1.110917,-0.1046896,-0.05981357,0.1283685,0.08859806,0.210152,-0.01185355,-0.02437927,-0.1043831
1.151115,-0.1388264,-0.007969928,0.1686514,0.05458205,0.262067,0.008708357,-0.116542,0.05346447
1.235362,-0.2024876,-0.08639159,0.2529781,-0.008957203,0.1836607,0.06515095,-0.0250335,0.240073
1.28806,-0.3017595,-0.2129714,0.3057396,-0.1081072,0.0570338,0.223718,0.06015563,0.3589129
1.25208,-0.4120412,-0.3274106,0.2697941,-0.2182639,-0.05751615,0.5207496,0.1001055,0.366187
1.130391,-0.4627532,-0.4367074,0.1480985,-0.2688404,-0.1669826,0.7180194,0.06731628,0.3176709
0.9446548,-0.4818804,-0.4703131,-0.03769233,-0.2878107,-0.2008068,0.6435134,-0.07231537,0.2781072
0.8245259,-0.4522178,-0.4105844,-0.1579223,-0.257958,-0.141333,0.5079023,-0.01204915,0.2404375
0.8165705,-0.3415671,-0.3685715,-0.1660182,-0.1470735,-0.09959957,0.3767572,0.00117079,0.1137614
0.8109566,-0.2504611,-0.4013738,-0.171801,-0.05568392,-0.1326967,0.1422386,-0.1484691,-0.06072297
0.8691094,-0.1788385,-0.4184849,-0.1138348,0.01627322,-0.1501095,0.03969619,-0.1818311,-0.1338569
0.9950377,-0.132182,-0.3998348,0.01189764,0.06331181,-0.1317597,0.1071037,-0.1903385,-0.1499463
1.014801,-0.1792511,-0.3924909,0.03146013,0.01666658,-0.1247071,0.1006346,-0.1493516,-0.2274466
1.009504,-0.223118,-0.3771188,0.02595761,-0.02674025,-0.1096104,0.1074904,-0.1133516,-0.3239145
1.000875,-0.1990081,-0.3569212,0.0171181,-0.002138238,-0.08966652,0.1291452,-0.1943797,-0.3941456
0.8371442,-0.1900726,-0.2993407,-0.1468278,0.007318142,-0.03231438,0.1154346,-0.317222,-0.4250167
0.7054953,-0.1973931,-0.218113,-0.2786905,0.0005438672,0.04871203,0.1707617,-0.4991537,-0.3792607
0.8056833,-0.1758373,-0.2582698,-0.1787056,0.02266762,0.008379746,0.2002167,-0.5325793,-0.3175469
0.9510295,-0.1760845,-0.3291427,-0.03354197,0.02300628,-0.06264464,0.2391984,-0.3784938,-0.2835914
0.9546117,-0.1806368,-0.2927241,-0.03011671,0.0190539,-0.02635409,0.3383943,-0.2266507,-0.2679524
0.9119676,-0.1349436,-0.2707184,-0.07289069,0.06535696,-0.00445251,0.3608252,-0.06065019,-0.272315
0.8980327,-0.102296,-0.2454431,-0.08692734,0.09861965,0.02074188,0.3555511,-0.03536422,-0.2260786
0.8714735,-0.07963039,-0.1828768,-0.1135578,0.1218993,0.08324846,0.3818956,-0.12154,-0.1222676
0.8821699,-0.03368079,-0.1822017,-0.1028992,0.1684546,0.08388108,0.4132735,-0.1118265,-0.006483815
0.9177775,-0.01320617,-0.1894155,-0.06729308,0.189518,0.07663695,0.4139563,-0.09143641,0.08374102
0.9683953,-0.02807673,-0.1984077,-0.01663892,0.1752101,0.06762183,0.3707227,-0.02511526,0.0881576
1.037354,-0.04874834,-0.2271488,0.05239341,0.1550663,0.03886108,0.3285617,0.07284833,0.0524144
1.03239,-0.07265842,-0.2198426,0.04753559,0.1316417,0.04614786,0.2523218,0.05000467,0.02102908
1.044323,-0.1424278,-0.1999723,0.05960361,0.06231018,0.0659966,0.203965,0.03025839,-0.0127516
1.100827,-0.1979939,-0.144409,0.1162665,0.007131746,0.1215331,0.3121923,0.05197843,-0.1127573
1.103965,-0.1320089,-0.09307841,0.1195783,0.07345411,0.1728271,0.4174289,-0.01342168,-0.3106239
1.119295,-0.02684669,-0.1332954,0.1350918,0.1789031,0.1325575,0.3143333,-0.07093707,-0.4136525
1.138572,0.01135483,-0.2015699,0.1545534,0.2173373,0.06420866,0.1604756,-0.05552644,-0.4079243
1.150704,-0.02823536,-0.2851661,0.1668625,0.1779197,-0.01948665,0.08015807,-0.1007157,-0.4221831
1.191014,-0.1545839,-0.4223285,0.2073353,0.05167847,-0.1567716,-0.06775814,-0.1536974,-0.4124686
1.166168,-0.3203641,-0.517769,0.1826271,-0.1140605,-0.2523514,-0.1570535,-0.05026089,-0.436505
1.018209,-0.3759977,-0.4903229,0.03477439,-0.1697129,-0.2250503,-0.1068851,0.05545369,-0.5335262
0.855219,-0.2997875,-0.4547943,-0.1281438,-0.09357164,-0.18966,-0.1290997,-0.05855769,-0.6161256
0.8763859,-0.2754649,-0.4766769,-0.1069357,-0.06935783,-0.2116635,-0.1770419,-0.2892362,-0.5974372
1.059187,-0.29908,-0.4762604,0.07588143,-0.09311352,-0.2113405,-0.183807,-0.3888873,-0.4038323
1.204066,-0.2711538,-0.4814882,0.2207539,-0.06535284,-0.2166257,-0.1271544,-0.1223939,-0.07255905
1.247591,-0.2652815,-0.4729116,0.2642446,-0.05966488,-0.2080617,0.06909486,0.3733868,0.2527212
1.159334,-0.2624631,-0.371668,0.1759157,-0.05704443,-0.1067788,0.2163696,0.5464263,0.3358844
1.016715,-0.2328239,-0.2668312,0.03318107,-0.02761227,-0.001847243,0.1899416,0.4257221,0.2413765
0.9292544,-0.227037,-0.2384486,-0.05444114,-0.02203815,0.0266845,0.09227764,0.3638879,0.241188
0.7968455,-0.2068208,-0.2241959,-0.1870538,-0.002038211,0.04113644,0.01590368,0.2191657,0.247767
0.6431235,-0.1813668,-0.1666513,-0.341011,0.02319744,0.09892421,-0.01448234,-0.005430653,0.318742
0.6310948,-0.1811,-0.1664545,-0.3532908,0.0232441,0.09940071,-0.07062104,-0.1390907,0.5194382
0.7289241,-0.15885,-0.2254136,-0.2557102,0.04527187,0.04075009,-0.1996041,-0.1677445,0.5505652
0.8143461,-0.1152379,-0.2131874,-0.170519,0.0886582,0.05330677,-0.3448126,-0.09499127,0.4671556
0.8780537,-0.1211787,-0.2086907,-0.1070137,0.08248571,0.0581509,-0.4319582,0.001267819,0.3863753
0.8792497,-0.1857297,-0.1972795,-0.1059853,0.01769456,0.06992113,-0.4935376,0.152626,0.2198432
0.7893762,-0.232432,-0.1066448,-0.1959872,-0.02925756,0.160921,-0.5243609,0.2218641,0.1041241
0.7623341,-0.2407065,-0.05306035,-0.2231132,-0.03779003,0.2148689,-0.4692077,0.0421018,0.04301862
0.7609816,-0.2293258,-0.03917906,-0.2244978,-0.02667304,0.229102,-0.4262334,-0.1353462,-0.05625178
0.7587245,-0.2203372,-0.06800868,-0.2267275,-0.017951,0.2006014,-0.4110364,-0.1995479,-0.07363938
0.8863078,-0.2233172,-0.1382661,-0.0990507,-0.02119831,0.1306405,-0.3713738,-0.1097123,-0.01095822
1.034567,-0.2174927,-0.1879293,0.04937018,-0.01564006,0.0812344,-0.3123697,0.1238086,0.006677287
1.165261,-0.2153121,-0.2106129,0.1802904,-0.01372303,0.05876488,-0.2213001,0.2146531,-0.01127807
1.216217,-0.1744974,-0.1762769,0.2315256,0.02683173,0.09327032,-0.1881052,0.1865243,-0.02296928
1.179725,-0.1155083,-0.1348237,0.1953524,0.08556441,0.1348467,-0.2183939,0.2196739,-0.02703736
1.21943,-0.1281073,-0.05316675,0.235402,0.07271033,0.2165775,-0.210819,0.2515286,-0.001527751
1.223896,-0.141369,0.03247861,0.2402221,0.05919177,0.3022414,-0.1614364,0.1024271,0.1088423
1.222757,-0.1701461,-0.0619793,0.2394343,0.03015375,0.2077384,-0.01953374,-0.09973893,0.33209
1.242384,-0.325629,-0.2243132,0.2593962,-0.1255946,0.04528895,0.2749755,-0.01903161,0.5020208
1.170847,-0.5198622,-0.3988175,0.1881656,-0.3200931,-0.1294019,0.5329135,0.08411116,0.4786102
1.06301,-0.5944193,-0.5467934,0.08059652,-0.3949039,-0.2776277,0.4923912,0.1283238,0.4084608
0.9049977,-0.5407296,-0.4936082,-0.0771893,-0.3414394,-0.2247413,0.2935483,0.3400109,0.3272683
0.8644968,-0.4222677,-0.3986409,-0.1175045,-0.2231579,-0.1301061,0.1285158,0.3316386,0.1423753
0.920692,-0.2351151,-0.3733509,-0.06115802,-0.03612999,-0.1051686,-0.05946966,0.134047,-0.02501329
0.8956066,-0.09693674,-0.3565326,-0.0861199,0.1019823,-0.08871429,-0.09710525,-0.008469233,-0.1084465
0.9768576,-0.1225245,-0.3560537,-0.00476776,0.07638255,-0.08860389,0.04552919,-0.2561811,-0.1694082
1.054667,-0.1762505,-0.3149344,0.07312351,0.02269147,-0.04785194,0.1278729,-0.3143244,-0.2007352
1.008479,-0.2217006,-0.2993211,0.0269983,-0.02268262,-0.03260037,0.1686061,-0.180798,-0.2454253
0.9525259,-0.2571966,-0.3008632,-0.02891229,-0.05806501,-0.03449559,0.164011,-0.2027142,-0.28586
0.8218288,-0.1942868,-0.2268197,-0.1595842,0.00499437,0.03920499,0.1362405,-0.259004,-0.2581169
0.7318588,-0.1359391,-0.2192543,-0.2495405,0.06352544,0.04643765,0.1490908,-0.3501876,-0.251326
0.7545942,-0.133082,-0.2485428,-0.2267925,0.06659537,0.01682529,0.1213517,-0.4545903,-0.2503611
0.7884594,-0.1332917,-0.2300152,-0.1929042,0.06662219,0.0350365,0.1556452,-0.4297485,-0.1942042
0.8623099,-0.1511371,-0.2511415,-0.1190106,0.04903131,0.01360011,0.254123,-0.348971,-0.1628584
0.9198305,-0.1478684,-0.2551612,-0.06142031,0.05256765,0.009275985,0.2936043,-0.2139377,-0.142657
0.8828961,-0.1074724,-0.2336713,-0.09825532,0.09323952,0.03046651,0.3065726,-0.09487715,-0.07040787
0.8232984,-0.03898262,-0.2116333,-0.1577215,0.1620081,0.05220975,0.2956498,-0.05658804,0.04881585
0.8141575,0.008047446,-0.174537,-0.1666951,0.2093121,0.08901385,0.3017256,-0.04838338,0.1470818
0.8446653,-0.01895378,-0.1921086,-0.1359792,0.1825707,0.07115001,0.2865209,-0.08373309,0.1568702
0.9050758,-0.0397023,-0.2167234,-0.07531628,0.1620584,0.04623987,0.2263805,-0.09217463,0.1375338
0.9885265,-0.0657015,-0.2330643,0.008432494,0.1362641,0.02959861,0.2045556,-0.06582393,0.1166924
1.074072,-0.1467489,-0.2624563,0.09431922,0.0553847,-9.950238e-05,0.1719006,-0.00253397,0.0453991
1.173166,-0.2120885,-0.2034871,0.1937911,-0.009826357,0.05855787,0.1903397,0.1023337,-0.101639
1.206431,-0.2050245,-0.1039489,0.2274586,-0.002672455,0.1577773,0.240733,0.09522323,-0.2976854
1.14783,-0.08623059,-0.08260545,0.1692731,0.1161744,0.1787913,0.1703397,0.03378809,-0.3979027
1.122622,0.07235593,-0.1082053,0.1444817,0.2747755,0.1528449,0.08341571,0.0008822631,-0.3531058
1.140051,0.1022019,-0.138023,0.1623185,0.304591,0.1226576,0.00340169,-0.09176795,-0.2835499
1.163538,-0.03715711,-0.2207544,0.1861952,0.1651467,0.03952959,-0.125972,-0.2069595,-0.254092
1.196261,-0.2300597,-0.3825918,0.2192806,-0.02790242,-0.1227318,-0.2261642,-0.2250918,-0.302259
1.177337,-0.3310299,-0.5241561,0.2006839,-0.1290792,-0.2647418,-0.2722906,-0.04811158,-0.4309143
1.024286,-0.319278,-0.5427093,0.04791656,-0.1175865,-0.2837507,-0.2444588,0.1029759,-0.5453696
0.8253947,-0.2998872,-0.4849753,-0.1507378,-0.09849736,-0.2264672,-0.2053831,-0.0692223,-0.5923226
0.8244452,-0.3321705,-0.4593166,-0.1514927,-0.1311149,-0.2012403,-0.2319815,-0.2962802,-0.55525
1.001271,-0.3523378,-0.4540275,0.02549342,-0.1516396,-0.1963531,-0.1910626,-0.2627588,-0.3698018
1.147728,-0.3328906,-0.4261496,0.1720804,-0.1325633,-0.1688379,-0.002052503,0.007945449,-0.03415612
1.199439,-0.2938952,-0.3914868,0.22389,-0.09394341,-0.1344913,0.2328474,0.3814261,0.2631818
1.14022,-0.2113986,-0.3428275,0.1647293,-0.01182013,-0.08609661,0.3063344,0.4918697,0.3264239
1.044408,-0.1579951,-0.3133951,0.06893112,0.04121566,-0.0568743,0.1373728,0.2685797,0.2908214
0.9435457,-0.1664283,-0.2995326,-0.03196648,0.03242101,-0.04316704,-0.006856845,0.1560476,0.3182765
0.7961161,-0.1585962,-0.2384276,-0.1794762,0.03989668,0.01783645,-0.02997979,0.1477242,0.3320868
0.7446249,-0.1539609,-0.1964159,-0.231084,0.04417927,0.05979725,-0.100846,-0.00403064,0.4012589
0.7572302,-0.1523005,-0.1988347,-0.2186192,0.04548921,0.05737306,-0.2157161,-0.1050162,0.5172367
0.7455036,-0.1405075,-0.190038,-0.2304968,0.05693257,0.06620361,-0.3465949,-0.07062384,0.5036535
0.8264256,-0.1546038,-0.1852881,-0.1497241,0.04248565,0.07102067,-0.4391061,-0.04707461,0.4293218
0.8615996,-0.1776869,-0.1648826,-0.1146877,0.01904967,0.09152017,-0.4586831,-0.0116942,0.3456527
0.795939,-0.202017,-0.1223607,-0.1804669,-0.005635892,0.1341564,-0.4862105,0.07694124,0.244791
0.7655409,-0.2208302,-0.0687321,-0.2109578,-0.02480637,0.1879119,-0.4863137,0.08512714,0.1759044
0.7307696,-0.2245933,-0.02470909,-0.2457876,-0.02892686,0.2320647,-0.4496728,-0.0502391,0.09656393
0.7644565,-0.2289945,-0.07642116,-0.212116,-0.03368318,0.1804746,-0.4176696,-0.1911568,0.03563103
0.8857097,-0.2333709,-0.1634344,-0.09082719,-0.0384101,0.09356586,-0.3810169,-0.2220273,0.03954432
1.036149,-0.2354437,-0.2087698,0.0597019,-0.04082633,0.04831156,-0.3024555,-0.06759994,0.05941928
1.191172,-0.2157335,-0.2422037,0.2148651,-0.02145015,0.01493258,-0.142245,0.1133004,0.06163681
1.223553,-0.1609354,-0.2217316,0.2474269,0.03302483,0.03543336,-0.05341128,0.1341964,0.03222193
1.234044,-0.1167586,-0.1570664,0.2581242,0.07688905,0.1001007,-0.1029822,0.1938806,0.01006949
1.295752,-0.1252038,-0.04699023,0.3200497,0.06813945,0.2101505,-0.1186218,0.2346568,0.07031453
1.297688,-0.1427285,0.0495095,0.3221961,0.05031552,0.3065891,-0.06852581,0.1238179,0.2280088
1.297938,-0.1578404,-0.08586137,0.3226337,0.03490677,0.1711134,0.02934846,0.02760491,0.4438906
1.283409,-0.2833182,-0.34849,0.3082554,-0.09086613,-0.09167041,0.2740014,-0.09958945,0.6090827
1.161798,-0.4962384,-0.5181676,0.186744,-0.3040764,-0.2615512,0.5419739,-0.1050334,0.5958888
0.9794691,-0.5982885,-0.5831218,0.004455343,-0.4064011,-0.3267447,0.526146,0.114966,0.4843274
0.8505612,-0.5450762,-0.4624596,-0.1244722,-0.3534316,-0.2063414,0.3348902,0.315988,0.3395401
0.7956165,-0.4332282,-0.3168705,-0.1794898,-0.2417779,-0.06101624,0.159711,0.4570106,0.06360987
0.7684395,-0.2810461,-0.3721864,-0.2067816,-0.08973018,-0.116592,-0.06413076,0.2622033,-0.1500933
0.8713392,-0.1387829,-0.4102236,-0.1040265,0.05246314,-0.1548788,-0.1255433,-0.107978,-0.1446803
1.057489,-0.1269844,-0.3794119,0.0819588,0.06425358,-0.1243,-0.01784861,-0.07842971,-0.1250434
1.086101,-0.1807952,-0.3943374,0.1103881,0.01049045,-0.1394353,-0.001641754,-0.0352521,-0.1378502
0.9893265,-0.2042083,-0.3361762,0.01341191,-0.01282541,-0.08145514,0.02446576,-0.1057309,-0.1577418
0.8696816,-0.2293227,-0.263087,-0.1064535,-0.03779666,-0.008514897,0.003216556,-0.07976646,-0.2354924
0.7392365,-0.2159103,-0.2582088,-0.2371337,-0.02419808,-0.00375269,-0.08613784,-0.2744082,-0.3220203
0.7066255,-0.1940992,-0.2567839,-0.2699842,-0.002160079,-0.002412065,-0.03713884,-0.50858,-0.3442197
0.7648106,-0.2147958,-0.2674749,-0.2120305,-0.02259172,-0.01315748,0.02936514,-0.5185927,-0.2626793
0.827224,-0.2111738,-0.2645341,-0.1498283,-0.01866932,-0.010243,0.1243804,-0.3991163,-0.1716548
0.9014027,-0.2113685,-0.2651702,-0.07583218,-0.01853081,-0.01087856,0.2993743,-0.2347292,-0.150735
0.9034649,-0.2059915,-0.2635904,-0.07391949,-0.01279008,-0.009272856,0.3530627,-0.146127,-0.1485109
0.8400825,-0.1420398,-0.202475,-0.1374154,0.05155316,0.05189205,0.3401383,-0.1180815,-0.1352176
0.8494032,-0.07575301,-0.1608107,-0.1281693,0.1182546,0.09362628,0.3411337,-0.141421,-0.08254109
0.8679314,-0.02156145,-0.1716189,-0.109673,0.172877,0.08290331,0.307078,-0.1154567,0.001208095
0.8749648,0.03396227,-0.1855047,-0.1026256,0.2288378,0.06911272,0.2467938,-0.04256496,0.08671588
0.9322916,0.04150504,-0.1836588,-0.04523702,0.2368122,0.07105867,0.1397304,-0.04923787,0.1220864
0.9753021,-0.009658942,-0.2058323,-0.002117166,0.1860624,0.04898597,0.02639873,-0.0160836,0.09096886
1.022259,-0.05150965,-0.2369977,0.04499388,0.1445978,0.01791881,-0.06546979,0.02110521,0.07903815
1.114203,-0.144039,-0.1853764,0.1371326,0.05241931,0.06963352,-0.1185353,0.1091426,0.007011322
1.207375,-0.2691704,-0.1330528,0.2305312,-0.07239939,0.122043,-0.08330849,0.2436038,-0.2135797
1.203338,-0.1771053,-0.1173009,0.2267402,0.01994131,0.1378689,-0.06911917,0.1605554,-0.452506
1.13666,0.01584244,-0.07836883,0.1603155,0.213129,0.1768571,-0.1414757,0.04631975,-0.5298963
1.169268,0.04846293,-0.1153351,0.1931722,0.2459499,0.1399224,-0.1969442,-0.01111105,-0.4008979
1.19026,-0.03785564,-0.2582757,0.2143982,0.1597846,-0.003016351,-0.2135871,-0.1751693,-0.2978366
1.21432,-0.2227901,-0.4553897,0.2386674,-0.02504982,-0.2001587,-0.231807,-0.1779837,-0.3274073
1.279261,-0.3795287,-0.6078107,0.3037824,-0.181741,-0.3526307,-0.1982433,0.1161776,-0.3506538
1.082313,-0.3756942,-0.5612903,0.1069633,-0.177904,-0.3061693,-0.0993897,0.3088118,-0.4087091
0.8118604,-0.3445504,-0.4501287,-0.1634128,-0.1467911,-0.1950588,-0.05975942,0.1128228,-0.497413
0.8069443,-0.3507334,-0.4332495,-0.1682993,-0.1530277,-0.1782101,-0.08219475,-0.1571327,-0.4512243
0.9342957,-0.347052,-0.4033343,-0.04095658,-0.1494127,-0.148296,-0.0178866,-0.1534929,-0.1997159
1.07132,-0.3062117,-0.3951315,0.09602822,-0.1086431,-0.1400586,0.1751423,-0.06955334,0.2236345
1.155637,-0.2347548,-0.4209082,0.1802758,-0.03725435,-0.1657599,0.3611429,-0.009599166,0.5403774
1.151413,-0.1768003,-0.3783815,0.1759489,0.02063808,-0.1231124,0.3567858,0.1270811,0.5037102
1.049385,-0.1646646,-0.34451,0.07377956,0.03271842,-0.08907128,0.227137,0.1645171,0.3660902
0.8823678,-0.1897702,-0.2757259,-0.09342035,0.007562936,-0.02006763,0.1388161,0.1146923,0.3335715
0.7562217,-0.1947346,-0.1781066,-0.2197861,0.002552936,0.07781958,0.05955896,0.08987694,0.3260173
0.7105459,-0.1833391,-0.1839899,-0.2657077,0.01390653,0.07224715,-0.01549477,-0.009462034,0.3962972
0.7384934,-0.1596956,-0.1996847,-0.2380182,0.03751094,0.05689912,-0.1374397,-0.07848037,0.458672
0.7767035,-0.111996,-0.2007532,-0.2000642,0.08517269,0.05620639,-0.3455248,-0.07711492,0.3897532
0.8201202,-0.1149227,-0.188752,-0.15689,0.08220635,0.06860606,-0.4518219,-0.03989503,0.3033461
0.8517851,-0.1598994,-0.1307846,-0.1254451,0.03718476,0.1269883,-0.4686263,0.08785333,0.1858039
0.7992627,-0.2003116,-0.09215992,-0.178158,-0.003280017,0.1660367,-0.4726728,0.1678255,0.04690418
0.7577838,-0.2440054,-0.07899255,-0.2197912,-0.04703405,0.1796276,-0.4123569,0.182933,-0.01310217
0.7921498,-0.2688616,-0.09634954,-0.185536,-0.07195636,0.1626841,-0.3747008,0.2058913,-0.02259862
0.9175282,-0.2713332,-0.1018601,-0.06021817,-0.07449653,0.1575681,-0.3471951,0.234813,-0.03196499
1.088983,-0.2449497,-0.108247,0.1112286,-0.04818027,0.1515485,-0.2820857,0.2873564,-0.06218796
1.149155,-0.1869347,-0.1687669,0.1714394,0.009771758,0.09136227,-0.2361889,0.2631514,-0.05431797
1.204276,-0.1350998,-0.1973025,0.2266369,0.06154858,0.06312202,-0.2356593,0.2508914,-0.01236388
1.311712,-0.1263468,-0.1575107,0.3341731,0.07024675,0.1031681,-0.2700757,0.4092201,0.02902569
1.289951,-0.1454596,-0.02107063,0.3125197,0.05107928,0.2398184,-0.2330816,0.46771,0.136703
1.254963,-0.1474755,0.0921261,0.2776319,0.04900591,0.3531746,-0.1003786,0.1508636,0.3135462
1.289892,-0.2004451,-0.06582194,0.3126362,-0.00402585,0.1953251,0.1134499,-0.182989,0.5461089
1.243918,-0.3628051,-0.3863104,0.2666996,-0.1664524,-0.1251329,0.3401472,-0.04583641,0.6613638
1.133059,-0.5263935,-0.6132224,0.1558299,-0.330106,-0.3520791,0.3863953,0.2443112,0.5610519
0.9661964,-0.5610351,-0.6588736,-0.01109976,-0.3647996,-0.3978138,0.2778041,0.4137058,0.5013455
0.8475003,-0.4552957,-0.526425,-0.1299175,-0.2590835,-0.2654772,0.1066902,0.6081543,0.4065351
0.8704593,-0.3221503,-0.3775873,-0.1071285,-0.1259197,-0.1167617,-0.05619033,0.49398,0.1589716
0.8508251,-0.2193656,-0.3633265,-0.1269714,-0.02306805,-0.1026216,-0.160295,0.2192651,-0.00993839
0.856125,-0.1643287,-0.3690334,-0.1219096,0.03208508,-0.1084408,-0.2132784,0.0600509,-0.1398832
0.9401911,-0.1995593,-0.344615,-0.03810225,-0.002983309,-0.08412125,-0.158084,-0.3093454,-0.2332318
0.9546061,-0.2425555,-0.3538759,-0.02396042,-0.04577524,-0.09346334,-0.1288721,-0.4079314,-0.2207607
0.9474047,-0.2542689,-0.3125375,-0.03144546,-0.0572449,-0.05218493,-0.0975214,-0.1406948,-0.2513903
0.8673076,-0.2426741,-0.2384545,-0.111833,-0.04536793,0.02186104,0.03057587,-0.1337848,-0.2679783
0.7432048,-0.1710601,-0.2075188,-0.2362276,0.02656505,0.05278203,0.02993959,-0.2363743,-0.2319535
0.7326125,-0.1314845,-0.2107559,-0.2471032,0.06649332,0.04954942,0.01131149,-0.3823948,-0.1958192
0.7867722,-0.1436168,-0.2396994,-0.1932071,0.05474208,0.02062608,0.09260027,-0.4961001,-0.1318432
0.8578823,-0.1485383,-0.2427368,-0.1223307,0.05022396,0.01762144,0.1542067,-0.456355,-0.1075201
0.8943975,-0.1587474,-0.243015,-0.08601262,0.04043532,0.01738641,0.2248956,-0.4160682,-0.09294621
0.8847956,-0.1313745,-0.230887,-0.09577128,0.0682406,0.02956611,0.2408591,-0.2426551,-0.03243226
0.8766844,-0.06640233,-0.175128,-0.1039963,0.1336519,0.08538297,0.2348485,-0.09378051,0.05331466
0.876172,-0.01346561,-0.1556745,-0.1045773,0.1870274,0.104897,0.2565603,-0.0486541,0.1564766
0.9131019,-0.01321138,-0.170748,-0.06766884,0.187711,0.08988183,0.2086038,0.03932368,0.2102181
0.9719076,-0.05166822,-0.1987352,-0.008836772,0.1496645,0.06194592,0.1348468,0.07946706,0.2034089
1.023417,-0.06255123,-0.2180848,0.04274481,0.1391645,0.04263727,0.07368399,0.15587,0.1615527
1.047783,-0.1075041,-0.2003784,0.06722544,0.0945608,0.06037171,0.04258571,0.180339,0.08761024
1.091789,-0.1735238,-0.1531876,0.1113826,0.02885228,0.1075756,0.07348427,0.1266975,-0.05463707
1.170041,-0.1485587,-0.08606512,0.1898121,0.05408874,0.1746924,0.1200225,0.09265301,-0.3167585
1.167896,-0.05493169,-0.0846715,0.1878637,0.1479464,0.1760562,0.1443546,-0.006364337,-0.5322396
1.145166,0.02618109,-0.1211418,0.1653367,0.2292459,0.1395252,0.1305475,-0.07644657,-0.5143243
1.165679,-0.01928681,-0.183089,0.1860496,0.1839144,0.07748117,0.07026738,-0.2849749,-0.3935727
1.179075,-0.1792029,-0.4109952,0.1996321,0.02407887,-0.1505595,-0.0548329,-0.5188433,-0.3594286
1.189867,-0.3358831,-0.6333531,0.2105889,-0.1325777,-0.3730834,-0.1845256,-0.2347471,-0.4095462
1.097296,-0.4082478,-0.6037099,0.1181504,-0.2049693,-0.3436231,-0.1903488,0.1226313,-0.5128476
0.9026082,-0.3217058,-0.4847344,-0.07644031,-0.1184937,-0.2248296,-0.1583712,0.009224594,-0.6048331
0.8338585,-0.2566462,-0.459566,-0.1451286,-0.05352968,-0.199827,-0.2269409,-0.222675,-0.5671346
0.9860167,-0.3140529,-0.4632338,0.007061673,-0.1110532,-0.2036334,-0.2351483,-0.325996,-0.3752932
1.173712,-0.2978008,-0.4501876,0.1947639,-0.09493298,-0.1906897,-0.01925507,-0.1798751,0.0002875625
1.203079,-0.2598099,-0.4210217,0.2241095,-0.05708271,-0.1615826,0.2650911,0.1918464,0.4020984
1.146737,-0.2416493,-0.3705053,0.1677102,-0.03906662,-0.1110754,0.3306335,0.357938,0.4856508
1.043984,-0.17328,-0.3369339,0.06485939,0.02915735,-0.07746026,0.1598528,0.3643637,0.3694266
0.8305297,-0.1548405,-0.2839788,-0.1487367,0.04745131,-0.02440759,-0.01222179,0.3680682,0.3420835
0.6712678,-0.1597175,-0.2153738,-0.3081776,0.0424275,0.04434709,-0.1680077,0.2200603,0.3186001
0.6709611,-0.1594468,-0.1870393,-0.308687,0.04254842,0.07287887,-0.3029335,0.1046284,0.3133542
0.7119287,-0.1767964,-0.1654352,-0.267929,0.02504462,0.094721,-0.3444924,0.06456513,0.4049518
0.7716094,-0.1515676,-0.166764,-0.2084492,0.05011355,0.09366338,-0.4437908,0.03009509,0.4234618
0.8530883,-0.1376308,-0.1676267,-0.1271503,0.0638836,0.09309696,-0.5347432,0.05340597,0.3459551
0.8678976,-0.1561648,-0.1202297,-0.1124926,0.04517426,0.1408077,-0.5521268,0.1500685,0.2311252
0.8035821,-0.1691804,-0.07453057,-0.1769254,0.03197317,0.1868297,-0.6017087,0.335939,0.09567756
0.7587252,-0.1802529,-0.05198237,-0.2218599,0.02070419,0.2096997,-0.5549182,0.2796974,0.06394594
0.7890477,-0.173782,-0.07407485,-0.1915682,0.02696756,0.1879177,-0.4928958,0.03476556,0.06466209
0.8418123,-0.1715964,-0.1189461,-0.1387808,0.02893456,0.1433356,-0.5040724,-0.05517276,0.02078089
0.9176777,-0.1737683,-0.1399039,-0.06283498,0.02653302,0.1226377,-0.4545792,-0.05207799,0.02789451
1.110416,-0.166449,-0.1551869,0.130042,0.03361162,0.10758,-0.4041622,0.1042733,0.05183916
1.308686,-0.1539701,-0.1633371,0.3285001,0.04583856,0.09961613,-0.3563761,0.2138074,0.06763655
1.282875,-0.1295389,-0.1687607,0.3029144,0.070006,0.09433692,-0.3327967,0.2051064,0.07464034
1.206933,-0.111409,-0.1490308,0.2272155,0.08785873,0.1141666,-0.3573625,0.3512124,0.09975351
1.28253,-0.09553715,-0.07493939,0.3030573,0.1034378,0.1883105,-0.2893892,0.4090705,0.253931
1.286243,-0.1235362,-0.02451881,0.3070019,0.07512756,0.2387313,-0.1245645,0.2405147,0.4944985
1.272285,-0.2690181,-0.1343323,0.2932475,-0.07068515,0.1288598,0.1103148,0.02420989,0.6323304
1.344097,-0.433161,-0.4235293,0.3652211,-0.2351755,-0.1604562,0.2516726,0.004494381,0.5443749
1.206379,-0.4794194,-0.6646042,0.2276082,-0.2817886,-0.4017047,0.1272995,0.2628947,0.4375921
0.9840898,-0.4791747,-0.6588293,0.005359288,-0.281892,-0.3961413,-0.04268437,0.4483794,0.4630707
0.8909553,-0.4761416,-0.459571,-0.08780258,-0.2791856,-0.1971108,-0.1658609,0.3647489,0.3545529
0.8394068,-0.3708231,-0.284637,-0.1394396,-0.1741595,-0.02240525,-0.2933043,0.08894086,0.1158312
0.8774766,-0.2545158,-0.2997211,-0.1015101,-0.05810089,-0.03771058,-0.2884044,-0.190127,-0.07481158
0.9511832,-0.2326684,-0.3527096,-0.02798564,-0.03645451,-0.09091002,-0.1821384,-0.3106395,-0.2263691
1.035338,-0.2402187,-0.3227371,0.05595137,-0.0441577,-0.06113535,-0.07162133,-0.2794038,-0.2854174
1.071235,-0.2775512,-0.3179705,0.09159827,-0.08159565,-0.05655023,0.02035838,-0.2447649,-0.363142
0.9379449,-0.2905467,-0.3023891,-0.04197423,-0.09464899,-0.04113158,0.04420429,-0.3122043,-0.4505007
0.805144,-0.2370165,-0.2557885,-0.1750866,-0.04112843,0.005326358,0.07971759,-0.3412441,-0.3885552
0.7169592,-0.1715402,-0.2556116,-0.2636039,0.02438607,0.00538054,0.1240604,-0.402139,-0.3261534
0.6890759,-0.1246751,-0.2584847,-0.2918274,0.0713339,0.002403737,0.1273816,-0.4752762,-0.2535017
0.7717641,-0.1471298,-0.2510975,-0.2094725,0.0490013,0.009704914,0.2029469,-0.4146714,-0.1452899
0.8403514,-0.1706006,-0.2563357,-0.1411988,0.02568601,0.00439683,0.3264128,-0.3529619,-0.1494578
0.8842167,-0.160221,-0.2421528,-0.09761881,0.03624959,0.01852483,0.4012426,-0.1864291,-0.1519672
0.869555,-0.1447215,-0.2092512,-0.112532,0.05195707,0.05138459,0.4108552,-0.06221,-0.1057038
0.8418532,-0.06779459,-0.1790835,-0.1404474,0.129111,0.08152081,0.3863263,-0.1146057,-0.05753724
0.8841446,-0.01564916,-0.1763679,-0.09832761,0.1814956,0.08421139,0.379678,-0.03605368,0.03360508
0.9035209,-0.01876265,-0.186176,-0.07907776,0.1786243,0.07438027,0.3343298,0.03527918,0.08229555
0.959427,-0.02100952,-0.1734427,-0.0232513,0.1766129,0.08708835,0.2621401,0.01839992,0.06586581
1.050541,-0.0610678,-0.1752399,0.06782858,0.1367742,0.08525985,0.2039287,0.03277641,0.02893164
1.10204,-0.1226075,-0.1654304,0.119335,0.07543107,0.09502781,0.1529922,0.03569809,-0.07311443
1.165468,-0.1595416,-0.1053422,0.1828039,0.0386662,0.1550603,0.2030339,0.06448153,-0.2255935
1.181796,-0.09337056,-0.07742872,0.199197,0.1049768,0.1828983,0.2539588,0.05616774,-0.3533078
1.151154,0.02328848,-0.1243128,0.1686321,0.221743,0.1359127,0.1293183,0.008472517,-0.3925333
1.159188,0.01665208,-0.2327706,0.1767453,0.2151752,0.02732223,-0.05502088,-0.08560408,-0.3627302
1.213989,-0.1240496,-0.3948334,0.231618,0.07449677,-0.1349054,-0.2045589,-0.2188329,-0.3851718
1.243454,-0.3018835,-0.56839,0.2611361,-0.1033625,-0.3086529,-0.3165866,-0.1837073,-0.4993725
1.086373,-0.3625836,-0.615865,0.1040788,-0.1641327,-0.3563318,-0.2840751,-0.02224744,-0.6087776
0.8335523,-0.3556768,-0.4992739,-0.1487509,-0.1573317,-0.2399409,-0.1437353,0.04121019,-0.6053996
0.7901642,-0.4252918,-0.4461958,-0.1921795,-0.2270768,-0.187044,-0.07195755,-0.1245873,-0.5036945
0.9528093,-0.4353741,-0.492021,-0.02959755,-0.2373014,-0.2330205,-0.08012324,-0.287445,-0.3626002
1.108466,-0.3730716,-0.4743344,0.1259796,-0.175141,-0.2154458,-0.03038107,-0.01279528,-0.09436209
1.211281,-0.2800605,-0.4035546,0.2286978,-0.08226145,-0.1447303,0.1776433,0.4025935,0.2690555
1.268426,-0.1284819,-0.3349078,0.2857229,0.06920181,-0.07609462,0.3520132,0.4678765,0.4782907
1.185612,-0.09626975,-0.3236782,0.2027541,0.1013147,-0.06482047,0.2890817,0.3684084,0.461578
0.9915387,-0.1307432,-0.3136061,0.008483802,0.06675406,-0.05464852,0.1429151,0.3205129,0.3504462
0.8424086,-0.1175523,-0.2381118,-0.1408867,0.07986481,0.02099935,-0.02531384,0.297955,0.2883294
0.75648,-0.1804097,-0.2067819,-0.2270926,0.01693049,0.05253299,-0.1828954,0.2100149,0.3175299
0.7020945,-0.220298,-0.1868409,-0.2817802,-0.02303367,0.07272225,-0.1755316,0.06624548,0.3965995
0.7143703,-0.1844853,-0.1547137,-0.2698161,0.01270386,0.1051349,-0.1513384,0.02464964,0.457348
0.7748878,-0.1838641,-0.1810641,-0.2096048,0.01325085,0.07909947,-0.2195151,-0.009698889,0.3867491
0.8078813,-0.1754741,-0.1704297,-0.1768993,0.02156714,0.09007069,-0.3027813,-0.05625365,0.2379311
0.77449,-0.1671764,-0.1138344,-0.2105505,0.02979078,0.1470173,-0.4037698,0.009449015,0.1236519
0.717751,-0.1760179,-0.05721658,-0.267512,0.02087406,0.2039925,-0.4216041,0.01314883,0.02690297
0.7085711,-0.1758167,-0.01296901,-0.2768667,0.02099773,0.2485931,-0.3277161,-0.08896016,-0.007058008
0.7892101,-0.2077657,-0.0624777,-0.1963449,-0.01103156,0.1994214,-0.2628922,-0.1555103,0.003704592
0.9640539,-0.2347885,-0.1266041,-0.02155351,-0.03813705,0.1356053,-0.2555077,-0.09208562,-0.007205988
1.149331,-0.1999683,-0.1442198,0.1637368,-0.003400771,0.1182656,-0.2265009,0.09898442,-0.003751871
1.247331,-0.1265945,-0.172088,0.2618066,0.06988869,0.09063389,-0.1389779,0.2074575,-0.007320454
1.2673,-0.07937483,-0.1411686,0.281889,0.117022,0.1217469,-0.07859856,0.1682774,-0.009923242
1.263298,-0.1174511,-0.03564769,0.2780263,0.0788537,0.2274148,-0.04944281,0.1183102,0.04816379
1.244979,-0.2010494,0.03333506,0.2598569,-0.004845864,0.2964915,0.07651099,0.07789885,0.1839809
1.220076,-0.3068505,-0.1141426,0.2350977,-0.110758,0.1490465,0.3473678,-0.1100572,0.4191569
1.214876,-0.4603242,-0.4580088,0.2300235,-0.2643482,-0.1948526,0.7157743,-0.3198486,0.6103028
1.161766,-0.5433664,-0.6251259,0.1770103,-0.3475019,-0.3620623,0.8388236,-0.07000952,0.5821576
1.007005,-0.491126,-0.5261526,0.02231053,-0.2953536,-0.263225,0.4414565,0.537197,0.4579816
0.8794649,-0.4059224,-0.3841365,-0.1052082,-0.2102086,-0.1213707,0.02473036,0.8418118,0.2955825
0.8796034,-0.2741747,-0.2981778,-0.1050828,-0.07847545,-0.03558721,-0.01352958,0.480238,0.002365777
0.9708657,-0.1437427,-0.3189084,-0.01386182,0.05198995,-0.05649994,-0.03874047,-0.07735831,-0.2133797
1.067334,-0.1541787,-0.3706893,0.08254158,0.04163324,-0.1084657,-0.1022383,-0.1922153,-0.2252722
1.067778,-0.2080626,-0.3547507,0.08289719,-0.01213016,-0.09270978,-0.0005584763,-0.2445705,-0.219866
0.9789623,-0.237636,-0.3344831,-0.00603023,-0.04154587,-0.07261772,0.01464208,-0.3498857,-0.2434763
0.8664324,-0.2583619,-0.3055262,-0.1186956,-0.06207875,-0.04382501,-0.04137223,-0.2171819,-0.3011666
0.769212,-0.221154,-0.2470835,-0.2160693,-0.02464343,0.0144671,-0.01312006,-0.2837069,-0.3507171
0.7477318,-0.1937025,-0.2476915,-0.2377111,0.003068597,0.01372263,-0.04694253,-0.3981912,-0.3166522
0.7509966,-0.1817181,-0.282213,-0.234604,0.01534448,-0.0209221,-0.05309285,-0.3810089,-0.281506
0.7134259,-0.1453826,-0.2837821,-0.272316,0.05199861,-0.02260162,-0.01667077,-0.449193,-0.1918205
0.7309874,-0.1521207,-0.2814284,-0.2548673,0.04560189,-0.02034517,0.05604063,-0.3069257,-0.08228699
0.8136133,-0.1646034,-0.2517216,-0.1723146,0.03347859,0.009277691,0.2695746,-0.1748253,-0.08523047
0.8615913,-0.145843,-0.2056247,-0.1243621,0.05261195,0.05530312,0.3763179,-0.1508521,-0.07089537
0.8532068,-0.1307748,-0.1884879,-0.1327194,0.06806209,0.07237892,0.3792739,-0.06104992,-0.003790471
0.8353472,-0.0733049,-0.180731,-0.1504961,0.125918,0.08008134,0.4364341,-0.0794564,0.06687333
0.8687723,0.01390891,-0.1781388,-0.1169296,0.213515,0.08262155,0.4190136,-0.03465478,0.1304668
0.9256493,0.02408556,-0.178225,-0.05985083,0.2240627,0.08248174,0.3224475,-0.05461662,0.1383666
0.9736737,-0.02026913,-0.1912523,-0.01156484,0.1800564,0.06939519,0.2109632,-0.1197782,0.122556
1.049836,-0.06564341,-0.1788998,0.06491592,0.1349985,0.08167937,0.1795317,-0.01329694,0.08176201
1.179288,-0.1519236,-0.1124725,0.1947352,0.04899617,0.1480258,0.2014623,0.01910896,-0.0642872
1.297674,-0.1685622,-0.06949965,0.3135271,0.03259408,0.1909002,0.1609499,0.06507332,-0.3584816
1.250492,-0.04645271,-0.09455204,0.2667728,0.1548976,0.1657251,0.1153282,0.06812935,-0.5594823
1.1764,0.01674577,-0.1909179,0.1931149,0.2182449,0.0692062,0.01803991,-0.0164924,-0.4523103
1.217366,-0.06417726,-0.3362815,0.2345053,0.13742,-0.0763435,-0.1166856,-0.0576805,-0.3449569
1.170169,-0.2214061,-0.5368631,0.1877138,-0.01976578,-0.2771405,-0.2115773,-0.1534252,-0.3804377
1.096066,-0.3602838,-0.6751149,0.1139859,-0.1586542,-0.4156253,-0.2749576,-0.0537182,-0.4543979
1.025629,-0.370391,-0.5615309,0.04388752,-0.1688184,-0.302274,-0.2150914,0.04302392,-0.6153199
0.9062526,-0.3176096,-0.439138,-0.07518845,-0.1161295,-0.180096,-0.1537046,-0.222801,-0.6180235
0.9826515,-0.313284,-0.4923901,0.001474067,-0.1119218,-0.2335325,-0.1509364,-0.3860073,-0.3659788
1.139483,-0.3199703,-0.4916474,0.1585346,-0.118743,-0.2329339,0.01983058,-0.1658189,-0.04901469
1.21715,-0.298426,-0.4414251,0.2363933,-0.09734314,-0.1828066,0.2797263,0.1980331,0.3162777
1.257472,-0.2756901,-0.4202308,0.2768637,-0.07475469,-0.1616509,0.379146,0.4382586,0.4420926
1.119234,-0.2472947,-0.3372009,0.1387202,-0.04650475,-0.07859844,0.2608299,0.4676182,0.2984186
0.9095161,-0.1951808,-0.2451965,-0.07096123,0.005468875,0.01349084,0.09352647,0.2547834,0.2238066
0.76448,-0.1538154,-0.1894672,-0.2160174,0.04670006,0.06936451,-0.01509681,-0.0456978,0.1533253
0.6748419,-0.1435406,-0.1568706,-0.3057211,0.05684569,0.1021584,-0.1290445,-0.1286701,0.1972323
0.692319,-0.1400385,-0.1714551,-0.2883391,0.0602212,0.08781589,-0.1705172,-0.1415676,0.3936656
0.7148774,-0.1121144,-0.181813,-0.2658884,0.08801823,0.07773599,-0.2422791,-0.1756906,0.4289053
0.7383086,-0.09004167,-0.181066,-0.2425619,0.10996,0.07878935,-0.4217052,-0.1344955,0.3782763
0.8048787,-0.1251046,-0.1702754,-0.1760808,0.074758,0.08990759,-0.5134169,-0.1090472,0.2955222
0.7998533,-0.1688319,-0.1210008,-0.1811693,0.03088022,0.1395239,-0.5464856,-0.01680629,0.142768
0.7461076,-0.1919773,-0.08969546,-0.2349438,0.007571366,0.1711772,-0.4737313,0.06079752,0.07301317
0.7253367,-0.2228214,-0.0756262,-0.2557008,-0.02344889,0.1855913,-0.3464567,0.02840215,0.07044499
0.7721758,-0.2345612,-0.09156802,-0.2087964,-0.03537573,0.1699817,-0.3691404,0.07730257,0.06286446
0.8983386,-0.2085486,-0.1595505,-0.08250965,-0.009558647,0.1023101,-0.3587171,0.1668164,0.06262595
1.035745,-0.1819739,-0.2104076,0.05508182,0.0168142,0.05173644,-0.3026898,0.2151378,0.1075144
1.144964,-0.1660379,-0.2412101,0.1645423,0.03254274,0.02118692,-0.2691032,0.1796674,0.1577609
1.224384,-0.1308794,-0.226085,0.2442508,0.06748789,0.03653389,-0.1759354,0.1031057,0.1264048
1.254249,-0.1112756,-0.1584015,0.2744368,0.08687094,0.1044075,-0.1816643,0.1740416,0.119751
1.264918,-0.1750408,-0.1370916,0.2854431,0.02287529,0.125874,-0.1605727,0.1963821,0.26174
1.317469,-0.3134698,-0.2139368,0.3383312,-0.1157943,0.04914879,0.1323887,0.01413468,0.506946
1.346163,-0.4738532,-0.4132195,0.3673456,-0.276424,-0.1500513,0.4516928,-0.05716518,0.644685
1.218063,-0.5735078,-0.5834491,0.2395303,-0.3763196,-0.3202298,0.5026326,0.2118423,0.5080386
0.971019,-0.5489204,-0.504328,-0.007274098,-0.3519522,-0.2410769,0.2484215,0.5734285,0.3115148
0.787259,-0.4386269,-0.3727598,-0.1908441,-0.2418409,-0.1094822,-0.05598532,0.5179256,0.2247856
0.8091591,-0.3038288,-0.4064407,-0.1687969,-0.107175,-0.1431317,-0.1554629,0.0805982,0.127283
0.9854065,-0.2140323,-0.4237491,0.007564646,-0.01745481,-0.1603969,-0.1345115,-0.2592502,0.04640541
1.134867,-0.2340576,-0.4012489,0.1571119,-0.03750011,-0.1378352,-0.02347672,-0.2815098,-0.0374626
1.144151,-0.2775525,-0.3947068,0.1664531,-0.08096045,-0.1312072,0.1322337,-0.1079448,-0.2132494
0.9968248,-0.2769351,-0.299441,0.01915021,-0.08025509,-0.03582674,0.1345369,-0.1139348,-0.356167
0.8084261,-0.2716335,-0.248242,-0.1692596,-0.07481246,0.01551739,0.1018759,-0.2732157,-0.4519819
0.6941921,-0.219378,-0.2648981,-0.2835331,-0.02236337,-0.0009645119,0.1659557,-0.3756534,-0.4913337
0.6623648,-0.1472792,-0.2440563,-0.3154156,0.04997925,0.02007787,0.1959894,-0.5098199,-0.4089026
0.7019569,-0.1341117,-0.2656251,-0.2758785,0.06343608,-0.001266948,0.2102722,-0.5300421,-0.3067611
0.7548566,-0.1581215,-0.2792861,-0.223019,0.03975469,-0.01468323,0.3016184,-0.4355101,-0.1917412
0.8179099,-0.1790631,-0.2748081,-0.1599792,0.01917452,-0.009941537,0.4167198,-0.2765109,-0.1072752
0.8646597,-0.1415217,-0.2626291,-0.1132081,0.05710483,0.002518287,0.4665243,-0.04215838,-0.118778
0.8445454,-0.08532703,-0.2042648,-0.1332613,0.1137105,0.06117856,0.4382274,0.02449384,-0.1080904
0.8508669,-0.06277072,-0.1901798,-0.1268355,0.1366929,0.07557112,0.4227924,0.05971612,-0.06637151
0.8603072,-0.04559034,-0.1839114,-0.1172444,0.1543059,0.08215367,0.4284635,0.1052424,-0.02778119
0.862604,-0.0499305,-0.1691577,-0.114748,0.150396,0.09722266,0.3850622,0.05878634,-0.01014283
0.9422984,-0.04975292,-0.1876017,-0.03480356,0.1509926,0.07908987,0.3340465,0.07977676,-0.06180439
1.032663,-0.05401918,-0.2180547,0.05586059,0.1471261,0.04893908,0.2357742,0.1027635,-0.1124337
1.117683,-0.09620466,-0.2440591,0.1412244,0.1053139,0.02322435,0.1025628,0.1902873,-0.1411135
1.171064,-0.1033174,-0.1511414,0.1949845,0.09854243,0.1164169,0.08980515,0.2709848,-0.2554407
1.141177,-0.01823082,-0.04809095,0.1655002,0.1839336,0.219723,0.04767292,0.06717206,-0.4107811
1.113191,0.09047357,-0.1429729,0.1379293,0.2928997,0.1250708,-0.1299411,-0.1423063,-0.4095812
1.122621,0.03696241,-0.3002059,0.1477755,0.2395983,-0.03196411,-0.2526836,-0.1302913,-0.3029178
1.155328,-0.1956119,-0.4465634,0.1808934,0.007173456,-0.1781557,-0.3034846,-0.1912521,-0.2994822
1.160367,-0.4531953,-0.6204888,0.1863261,-0.2503218,-0.35194,-0.338109,-0.3246979,-0.454194
1.036476,-0.5558343,-0.6482372,0.06280468,-0.3529243,-0.3795577,-0.3317509,-0.2179785,-0.7296873
0.8701407,-0.4077721,-0.5082798,-0.1031901,-0.2048608,-0.2394627,-0.2853428,-0.1712341,-0.8596182
0.899865,-0.3117473,-0.444148,-0.07315295,-0.1088541,-0.1751718,-0.2395305,-0.3993329,-0.6593914
1.118047,-0.3507991,-0.5114602,0.1453177,-0.1479326,-0.2422936,-0.1883904,-0.4565027,-0.3171491
1.329049,-0.2745944,-0.5508914,0.3565812,-0.07175588,-0.2814944,-0.0255606,-0.1294655,0.1039499
1.395402,-0.2161896,-0.464965,0.4231587,-0.0133751,-0.1952885,0.2419971,0.4423338,0.459073
1.206222,-0.2004312,-0.3486158,0.2341496,0.002365698,-0.07860382,0.4109704,0.6867839,0.4892159
0.9261343,-0.1404871,-0.2902285,-0.04583012,0.06229848,-0.01982276,0.274091,0.3382018,0.3945375
0.7509463,-0.1457748,-0.2366928,-0.2209754,0.05700361,0.03416261,0.0122625,0.02798777,0.3574778
0.6331693,-0.1515672,-0.2289286,-0.338764,0.05120544,0.04242706,-0.1270578,-0.0312451,0.3384413
0.6338542,-0.1461839,-0.2530502,-0.3381277,0.05658122,0.01884982,-0.2321338,-0.001361368,0.4413496
0.6876408,-0.1529433,-0.2342494,-0.2844075,0.0498102,0.03823258,-0.2218552,0.1058975,0.5795511
0.7110141,-0.1435398,-0.2340029,-0.2611011,0.05919531,0.03909293,-0.2417836,0.1505421,0.5361603
0.7658044,-0.1752966,-0.2075101,-0.2063638,0.0274113,0.06622524,-0.4579526,0.09983354,0.3591708
0.7530914,-0.2079376,-0.1318504,-0.2191046,-0.005266981,0.1425432,-0.5265248,0.03885301,0.1767532
0.722896,-0.2229658,-0.07976595,-0.2492927,-0.02034224,0.1952963,-0.5168334,0.05676163,0.07984275
0.7421362,-0.2340688,-0.05923361,-0.2300008,-0.03150098,0.2164964,-0.4946674,0.04205335,0.07088224
0.7805159,-0.2356461,-0.08818863,-0.1915165,-0.03314047,0.1881965,-0.3798907,-0.110877,0.02224623
0.8916804,-0.245552,-0.1186319,-0.08018829,-0.0431128,0.1583847,-0.3515444,-0.1456538,-0.03214331
0.9832762,-0.2323578,-0.1366875,0.01163224,-0.02998677,0.1409281,-0.2583676,0.06346674,-0.0118796
1.103003,-0.192523,-0.1989844,0.1316415,0.009779837,0.0791905,-0.1182084,0.2759001,0.008908861
1.276171,-0.1088503,-0.2832607,0.3051402,0.09338458,-0.004569698,-0.07679132,0.2447466,0.05148457
1.252007,-0.0533385,-0.29579,0.2813408,0.1488262,-0.01662685,-0.05195558,0.1913499,0.1061477
1.179051,-0.1353281,-0.1438232,0.2087659,0.0667592,0.1357691,-0.02156749,0.2564163,0.1538438
1.268672,-0.244473,-0.04087535,0.2987695,-0.04247386,0.2391014,0.142346,0.09413774,0.3010693
1.314994,-0.3468019,-0.2855289,0.3454602,-0.1449014,-0.005217595,0.3814173,-0.1042068,0.4738087
1.289207,-0.4961596,-0.6623558,0.3200115,-0.294362,-0.3817598,0.5373,-0.01582295,0.5389974
1.114678,-0.5641479,-0.7407331,0.1457776,-0.3624457,-0.4598908,0.5449978,0.2881245,0.4935742
0.7567443,-0.5069141,-0.5023042,-0.2119138,-0.3052845,-0.2212338,0.3250274,0.6191487,0.420893
0.7147154,-0.4482164,-0.3344316,-0.2537478,-0.2466216,-0.05313483,0.07134456,0.4706658,0.3196542
0.9177742,-0.3386056,-0.4143754,-0.05053064,-0.1369966,-0.1328453,-0.02353873,0.04760288,0.1005391
0.9784596,-0.1528955,-0.4628062,0.01028599,0.04878209,-0.1810308,-0.03630927,-0.1419481,-0.07471239
1.063213,-0.1461996,-0.4018721,0.09514691,0.0556,-0.1198337,-0.02351045,-0.2432642,-0.1559726
1.048336,-0.2542917,-0.3966192,0.08035316,-0.05232188,-0.1142947,0.05182579,-0.1832651,-0.2324494
0.939627,-0.2388043,-0.3560401,-0.02829889,-0.03662006,-0.07340275,0.07820724,-0.1756713,-0.2550306
0.9429426,-0.2488824,-0.3067271,-0.02495223,-0.04644177,-0.02374835,0.04844098,-0.3190873,-0.3164111
0.8426243,-0.2489636,-0.3300648,-0.1252623,-0.04622598,-0.04671617,0.1294229,-0.2821618,-0.3437125
0.6997525,-0.1536672,-0.2751757,-0.2681423,0.04940592,0.008569962,0.1869047,-0.3993509,-0.2668985
0.6508492,-0.1427906,-0.2503003,-0.317059,0.06065258,0.03386719,0.2063916,-0.535282,-0.2320639
0.7051272,-0.1633776,-0.2942768,-0.2627856,0.0404647,-0.009666092,0.2988951,-0.3990261,-0.1821234
0.833252,-0.1732888,-0.2626843,-0.1346432,0.03097585,0.02238753,0.379803,-0.2953207,-0.1561357
0.8549208,-0.1811064,-0.2520235,-0.1129259,0.02359917,0.03352417,0.4447557,-0.1034624,-0.1683026
0.867965,-0.1114354,-0.2238079,-0.0997975,0.09372522,0.0622264,0.4336527,0.06272559,-0.1080037
0.8671087,-0.03086292,-0.1732963,-0.1005311,0.1747609,0.1132308,0.3885757,0.05168834,-0.05632624
0.8164395,0.03215613,-0.1861696,-0.1510366,0.2382426,0.1008502,0.3442269,0.09577641,0.01526059
0.8535468,0.04026949,-0.1701279,-0.1137218,0.2468067,0.1173779,0.2279041,0.05205814,0.1097567
0.8559855,0.01776203,-0.1667618,-0.1110292,0.2247257,0.1212169,0.1521491,-0.06910717,0.1260564
0.8828249,0.01145338,-0.1892174,-0.08388751,0.2188077,0.09921467,0.09836933,-0.08860987,0.09681908
1.011665,-0.09817353,-0.1972476,0.04530305,0.1095263,0.09161282,0.06971268,-0.07226637,0.0135483
1.128001,-0.2338508,-0.2114798,0.1620337,-0.02585591,0.07777981,0.1230116,0.01722548,-0.1689246
1.216746,-0.2558632,-0.1730294,0.2512081,-0.04762354,0.1165965,0.1570831,0.1557981,-0.4217353
1.218444,-0.1640064,-0.1397005,0.2533565,0.04443116,0.1502548,0.1446187,0.1392671,-0.5535545
1.21153,-0.07734435,-0.2056346,0.2468989,0.1312464,0.08460879,0.08095343,0.03808814,-0.495308
1.228983,-0.1494536,-0.3844949,0.2648,0.05924505,-0.09400712,-0.037509,-0.07230645,-0.483238
1.214327,-0.2472068,-0.5875096,0.2505688,-0.03844624,-0.2968176,-0.1667645,-0.230983,-0.5161925
1.176537,-0.3143389,-0.6099641,0.2131693,-0.1055598,-0.3190965,-0.1466458,-0.06093553,-0.5047536
1.002298,-0.3926288,-0.5154351,0.03927603,-0.183868,-0.2244051,-0.01611681,0.1846153,-0.5277067
0.8350144,-0.369272,-0.4683078,-0.1277094,-0.1605567,-0.1771144,-0.01960024,-0.1117003,-0.4976358
0.8871288,-0.3440964,-0.4060575,-0.07534126,-0.1354432,-0.1146897,-0.0685722,-0.3147966,-0.3619744
1.065789,-0.3579229,-0.400104,0.1035335,-0.1493395,-0.1085442,-0.07415286,-0.09410569,-0.1227605
1.255481,-0.2864246,-0.4577571,0.293403,-0.07791068,-0.1659831,0.05634503,0.09249874,0.2318948
1.311704,-0.1999709,-0.4003405,0.3497573,0.00847912,-0.1083255,0.2549861,0.263875,0.4695743
1.174232,-0.1440347,-0.3560688,0.212359,0.0643587,-0.06378207,0.151861,0.2848593,0.4735437
0.9827161,-0.123191,-0.3459257,0.0208521,0.0851513,-0.05333483,-0.03845806,0.1440165,0.4027218
0.8195909,-0.1516536,-0.2498487,-0.1423315,0.05663949,0.0430782,-0.1512562,0.1092726,0.3696178
0.6831725,-0.1632268,-0.2129763,-0.2788675,0.04501556,0.08031541,-0.30047,0.01320085,0.4286422
0.6519704,-0.1697931,-0.2055874,-0.3102317,0.03839432,0.08809218,-0.3163868,-0.06577908,0.5252813
0.703347,-0.1695996,-0.2012095,-0.259044,0.03852712,0.09287412,-0.4090512,-0.00715999,0.5456637
0.7236013,-0.1504077,-0.234659,-0.2389888,0.05765089,0.05983817,-0.6133454,-0.02546618,0.4626136
0.7609616,-0.1684267,-0.1898995,-0.2018233,0.03955473,0.1050147,-0.6641315,0.0020539,0.3133009
0.7726799,-0.1795483,-0.133275,-0.1902839,0.02834547,0.1620536,-0.6882097,0.1239308,0.2066645
0.7130846,-0.1716284,-0.07955819,-0.2500323,0.03616628,0.216174,-0.6435916,0.1562423,0.1640246
0.7024692,-0.190601,-0.04913379,-0.2607648,0.01708264,0.2469815,-0.5360429,0.0821071,0.128682
0.7669242,-0.2265197,-0.1218018,-0.1963809,-0.01895892,0.1746654,-0.4979083,-0.04411014,0.1129668
