accx,accy,accz,body_accx,body_accy,body_accz,body_gyrox,body_gyroy,body_gyroz
0.9249023,0.02340067,0.1525221,-0.09847809,0.196478,0.1042976,0.2928544,-0.52589,-0.1082776
1.020792,-0.02363948,0.06109736,-0.002367886,0.1499192,0.01397553,-0.00103187,-0.5870363,-0.2122669
1.111807,-0.06618715,0.03753407,0.08892581,0.1078252,-0.008516902,-0.1290764,-0.4056702,-0.04558514
1.289348,-0.1641921,0.06794626,0.266797,0.01024082,0.02293276,0.02792768,0.04311664,0.2049241
1.491322,-0.2788196,0.09122057,0.469137,-0.1040007,0.04721006,0.3323526,0.4145151,0.2819629
1.335716,-0.2397845,0.061579,0.3139133,-0.06461107,0.01853536,0.5666279,0.4830019,0.2504974
1.143909,-0.1775083,0.03547338,0.1224843,-0.00200726,-0.006640928,0.5965942,0.4430791,0.3510706
1.330241,-0.2490972,0.05544817,0.309177,-0.07329214,0.0142252,0.5035594,0.5853245,0.5291614
1.431168,-0.3199837,0.05203294,0.4104324,-0.1438943,0.01166331,0.4895958,0.9518314,0.4599566
1.247955,-0.4510629,0.05071766,0.2275033,-0.2747024,0.01116325,0.4812929,1.007391,0.0180908
1.007536,-0.6014668,0.08301584,-0.01268945,-0.4248369,0.04423826,0.5356075,0.3961972,-0.4762232
0.7103641,-0.5011662,0.09150946,-0.3096942,-0.3242525,0.05346948,0.7017072,-0.3599131,-0.5202488
0.6711181,-0.326825,0.04111558,-0.3488207,-0.1495977,0.003772824,0.5596458,-0.4899094,-0.2646902
0.8998068,-0.256623,-0.04505783,-0.1200436,-0.07904307,-0.0817436,0.3152522,-0.2285806,-0.1491849
0.9284833,-0.2338454,-0.06548571,-0.09129623,-0.05587054,-0.1015518,0.3183094,-0.3128213,0.009148021
0.9280813,-0.3573804,-0.01962606,-0.09163677,-0.1789679,-0.05510483,0.4257618,-0.4283436,0.1562203
0.9422583,-0.4895037,-0.01249573,-0.0774023,-0.310608,-0.04741498,0.7234639,-0.3999462,0.03017186
0.8419033,-0.4571171,-0.04286307,-0.1776989,-0.2776856,-0.07724696,0.9817229,-0.4855972,-0.08887003
0.8148567,-0.3602527,-0.06502934,-0.2046794,-0.1802244,-0.09889835,1.055825,-0.4750885,-0.176141
0.7518434,-0.2411435,-0.05718203,-0.26761,-0.0604524,-0.09055224,1.107254,-0.54027,-0.1889319
0.78462,-0.1651043,-0.04586893,-0.2347239,0.0163156,-0.07875195,1.023136,-0.5910411,0.005634369
0.9640182,-0.1137854,-0.05557528,-0.05518005,0.06842404,-0.08797875,0.9209407,-0.348261,0.06231196
1.016258,-0.05218343,-0.0469201,-0.002754149,0.1308675,-0.07884806,0.8584569,-0.1535425,0.0809821
1.051458,-0.05524264,-0.02758277,0.03267149,0.1286909,-0.05903619,0.7638708,-0.05995554,0.1894466
1.03294,-0.03774808,-0.005186952,0.0144139,0.1470974,-0.03616453,0.6053577,5.481106e-05,0.1848594
0.9710233,-0.02255779,0.02115712,-0.04720967,0.1632171,-0.009342318,0.4214824,0.05982023,0.1989187
0.9567632,-0.04734179,0.0254595,-0.06114757,0.1393685,-0.004559681,0.4180939,0.06510409,0.2171574
0.8998174,-0.03028093,0.02837596,-0.117742,0.1573598,-0.0011618,0.4256023,-0.05094648,0.2117397
0.9334062,-0.04572394,0.01814064,-0.08377149,0.1428324,-0.0109157,0.4445149,-0.001225501,0.1795746
0.9763978,-0.06287384,0.002243284,-0.04036647,0.1265744,-0.02633252,0.5819225,0.02186433,0.04062925
0.9924313,-0.06539898,0.02166397,-0.02388798,0.1249096,-0.006432675,0.6769698,-0.05585272,-0.07261867
1.088697,-0.0921655,0.03410154,0.07285257,0.09896546,0.006482147,0.8196057,-0.03929888,-0.1781719
1.091061,-0.00624857,0.03541835,0.07571519,0.1856609,0.008273231,0.8139718,-0.1789565,-0.2494532
1.074355,0.1710257,0.06223536,0.05952674,0.3636622,0.03555999,0.4562573,-0.368972,-0.1941769
1.15026,0.2562629,0.1092383,0.1359612,0.4495626,0.08302582,-0.04926736,-0.5716456,-0.03923747
1.264883,0.1014242,0.1275449,0.2511171,0.2953071,0.1017845,-0.3495596,-0.7799654,0.1308122
1.352921,-0.1842137,0.02896138,0.3396798,0.01015992,0.003638219,-0.2309189,-0.7396093,0.07855217
1.265975,-0.3561002,-0.124838,0.2532363,-0.1613307,-0.1497406,-0.1613534,-0.6578653,-0.04117989
1.147745,-0.4839632,-0.1758662,0.1354712,-0.2888842,-0.2003616,-0.2818563,-0.441747,-0.05115498
1.109134,-0.5633443,-0.1521644,0.09727928,-0.3680255,-0.1762579,-0.4026595,-0.104057,-0.2327229
1.035239,-0.5378385,-0.1155833,0.02375486,-0.3423293,-0.1392718,-0.5647344,-0.1367481,-0.4922864
1.042515,-0.5427854,-0.05682994,0.0313502,-0.3471143,-0.08010395,-0.2425617,-0.3277335,-0.5199538
1.139274,-0.4984644,-0.0546733,0.1283778,-0.3026406,-0.07751915,0.4327415,-0.3546976,-0.3133627
1.178434,-0.3633784,-0.08587988,0.1677545,-0.1673951,-0.1082814,0.6208617,-0.1671539,-0.05292225
1.184308,-0.2429145,-0.06705596,0.1737907,-0.04675398,-0.08899477,0.4753189,0.2164408,0.02451884
1.11082,-0.1698888,-0.06718591,0.1004041,0.02647077,-0.08864126,0.2722012,0.4692719,-0.02191661
0.9604503,-0.1525489,-0.03928212,-0.04992629,0.04403051,-0.06023159,-0.01201043,0.6359195,-0.03384911
0.8670685,-0.1251128,0.04085535,-0.1433275,0.07170357,0.02043449,-0.145207,0.779971,-0.07464442
0.7795549,-0.1096077,0.06427592,-0.2309104,0.0874581,0.04440435,-0.1243292,0.6615343,-0.08873502
0.6704226,-0.08428397,0.09935121,-0.3401485,0.1130378,0.08004523,-0.07212555,0.4523169,0.05504669
0.6426538,-0.02208116,0.1399179,-0.3680421,0.1754966,0.1211878,-0.03079322,0.1814082,0.2599873
0.6989846,-0.03190345,0.1096895,-0.3118362,0.1659224,0.0915383,-0.1432416,-0.079064,0.3449714
0.7650095,-0.03854634,0.0906681,-0.2459191,0.1595112,0.07309216,-0.350184,-0.1347784,0.3671124
0.8545031,-0.05234094,0.085528,-0.1565029,0.1459241,0.0685178,-0.4815405,-0.2654867,0.4118292
1.0037,-0.1105629,0.0842771,-0.00734481,0.08787906,0.06781852,-0.5646712,-0.1703337,0.3039731
1.025837,-0.1040108,0.1145021,0.01479262,0.09457299,0.09857677,-0.4460897,0.145325,0.07997747
0.9109776,-0.08474845,0.1422409,-0.1000266,0.1139392,0.1268259,-0.1276652,-0.02606735,-0.0707066
0.8752857,-0.03057233,0.1696478,-0.1356402,0.1681779,0.1547147,-0.03859885,-0.2494485,-0.1860843
0.8595999,0.0353747,0.1643692,-0.1512067,0.2341415,0.1498832,-0.121749,-0.3485649,-0.2059793
0.8872308,0.018622,0.08961579,-0.123412,0.2173527,0.07553614,-0.2941621,-0.5216694,-0.08757158
1.014079,-0.006501033,0.008004667,0.003646794,0.1921338,-0.005712762,-0.6813217,-0.2442283,0.106332
1.167722,-0.111271,-0.01743101,0.157546,0.0872028,-0.03083029,-0.7133572,0.1149704,0.3236189
1.3993,-0.3055388,0.003867869,0.3894175,-0.1072922,-0.009254724,-0.1214808,0.2731682,0.3332989
1.502028,-0.3764647,0.006868953,0.4924571,-0.1785057,-0.006015309,0.3945212,0.501865,0.2588949
1.448067,-0.354266,0.001611919,0.4388043,-0.1566439,-0.01106967,0.3371715,0.5254764,0.4044568
1.607318,-0.4288722,0.01186198,0.5983347,-0.231623,-0.0006501688,0.2250584,0.772974,0.4601758
1.719331,-0.5158552,0.001592136,0.7105719,-0.3190007,-0.01078151,0.424817,1.260358,0.1917218
1.273823,-0.511901,0.03709155,0.2652061,-0.3154464,0.02482746,0.3891903,0.9870174,-0.2836558
0.6020319,-0.4978956,0.116344,-0.4065397,-0.3018292,0.1041614,0.3745757,0.05995085,-0.6704723
0.4230139,-0.4024752,0.1496033,-0.5855995,-0.2067695,0.1374725,0.5925309,-0.8917223,-0.5353433
0.6976711,-0.2307764,0.1185037,-0.3110459,-0.03539285,0.1063917,0.4352452,-1.227451,-0.1262058
0.9384128,-0.1878587,-0.0333744,-0.07044406,0.007245745,-0.04550337,0.2836143,-0.6830306,0.2366963
1.159023,-0.2957095,-0.1705874,0.1500026,-0.1008407,-0.1827675,0.289697,-0.2392631,0.5007203
1.277387,-0.4206689,-0.1139367,0.2681813,-0.2259915,-0.1261948,0.2503757,-0.03306467,0.2753632
1.064401,-0.4562296,-0.04260733,0.05498157,-0.261694,-0.05496165,0.428256,0.2118123,-0.135557
0.8474978,-0.3994161,-0.05141869,-0.1621667,-0.2049644,-0.06388064,0.5441696,-0.06879771,-0.3583937
0.7771919,-0.3110473,-0.03210065,-0.232745,-0.1166146,-0.04467713,0.6032796,-0.3364105,-0.5352728
0.7359503,-0.2508248,-0.03037656,-0.274274,-0.0563422,-0.04307094,0.6498788,-0.4049242,-0.3533108
0.7992724,-0.195442,-0.05869848,-0.2112405,-0.0008414289,-0.07151099,0.6209857,-0.645294,-0.04437673
0.8801561,-0.1145438,-0.0504201,-0.1306338,0.08023909,-0.06334772,0.7640474,-0.3722412,0.1064276
0.9393114,-0.0970225,-0.05360109,-0.07173515,0.09800002,-0.06663737,0.721111,0.04070447,0.25724
0.97829,-0.09967563,-0.03685284,-0.03298812,0.09563496,-0.04998822,0.5964177,0.08332801,0.1584603
0.9227257,-0.06111534,0.02302857,-0.08875676,0.1345223,0.009805846,0.615028,0.1393293,0.1217313
0.9006773,-0.04967512,0.01763601,-0.1109801,0.1463189,0.004338252,0.4735164,0.1382794,0.1907445
0.9022526,-0.03200746,0.001069766,-0.1095471,0.1643619,-0.01229127,0.4810599,0.1527369,0.06378788
0.8977668,-0.00898663,0.007361459,-0.1141392,0.1877666,-0.00605165,0.5927613,0.1414946,0.07876571
0.9556024,-0.02101963,-0.01002473,-0.05637048,0.1761154,-0.0234789,0.6051584,0.1111119,0.005993435
0.9834784,-0.0314937,0.01779851,-0.02852079,0.1660111,0.00431422,0.7044509,0.1668212,-0.1595475
1.024809,-0.0535021,0.05490941,0.01282404,0.1443514,0.04140538,0.7128173,0.08865551,-0.1568877
1.060238,-0.07052328,0.05180094,0.04830455,0.1276506,0.03828587,0.637826,-0.01452475,-0.1997974
0.9990376,0.005566505,0.05570422,-0.01281087,0.2040258,0.04218436,0.4211781,-0.2509872,-0.1065323
0.9938713,0.1117926,0.08200328,-0.0178615,0.3104948,0.06848217,-0.01571453,-0.6220128,0.03440961
1.107999,0.08126376,0.1041775,0.09640988,0.2801564,0.09065548,-0.2835373,-0.8708867,0.03946143
1.263853,-0.08384538,0.03820348,0.252429,0.1151747,0.0246773,-0.426366,-1.082089,-0.01386211
1.337294,-0.3026521,-0.1036179,0.3260469,-0.1035721,-0.1171531,-0.6079801,-1.034091,-0.1343972
1.337057,-0.4889746,-0.1927742,0.3259823,-0.2898978,-0.2063204,-0.5735995,-0.5850441,-0.1844086
1.38583,-0.5682177,-0.17601,0.3749073,-0.3691932,-0.1895617,-0.4426886,0.03787321,-0.3901395
1.35633,-0.6033694,-0.1164288,0.3455212,-0.4044267,-0.1299715,-0.4262863,0.42141,-0.6221455
1.243858,-0.5513517,-0.06845425,0.2331117,-0.3524987,-0.08196672,-0.2116014,0.3921318,-0.4022405
1.179349,-0.3849785,-0.02008989,0.1686004,-0.1862041,-0.03354679,0.09419308,0.4138806,-0.1274788
1.085872,-0.2646967,-0.01414725,0.07505139,-0.06597692,-0.02752203,0.006632172,0.4715882,-0.1221407
1.000394,-0.185941,-0.02809512,-0.01056829,0.01275363,-0.04136142,-0.3061675,0.4179669,-0.2144416
0.9734604,-0.1638868,0.006236692,-0.03771164,0.03481196,-0.006895373,-0.5536959,0.4589415,-0.2825617
0.9279562,-0.2187536,0.02012012,-0.08348574,-0.02002376,0.00714687,-0.5969384,0.4836226,-0.1996488
0.8554097,-0.2118561,0.02800903,-0.1563543,-0.01307056,0.01521711,-0.4394067,0.5292657,-0.04956398
0.7569202,-0.173149,0.06596571,-0.2552068,0.025715,0.05337478,-0.3594309,0.5400735,0.08286743
0.7078006,-0.1375497,0.08330505,-0.3047159,0.06141339,0.07093096,-0.3078039,0.3365297,0.2897349
0.7721814,-0.1203585,0.09729352,-0.2407346,0.07872016,0.08514733,-0.2856619,0.1086417,0.3618123
0.8564274,-0.1584254,0.1001734,-0.1568832,0.04078082,0.08826078,-0.3566786,0.01591566,0.2008414
0.9034829,-0.160235,0.09909338,-0.1102062,0.03910656,0.0874146,-0.3109273,0.08133757,0.1121368
0.9052465,-0.1487246,0.121329,-0.1087977,0.05075683,0.109879,-0.289746,0.09817945,0.08741695
0.8451702,-0.1121276,0.1522353,-0.1692002,0.08749477,0.1410035,-0.2896679,-0.001058914,0.05948335
0.7751926,-0.007473377,0.1844127,-0.2394686,0.1922865,0.173382,-0.1730261,-0.1535383,0.09719975
0.7641084,0.047652,0.1681591,-0.2507997,0.2475385,0.1573056,-0.181865,-0.4637675,0.1098031
0.7951271,0.05587806,0.1358775,-0.2199746,0.25587,0.12517,-0.2837784,-0.6408437,0.1861213
0.8300877,0.0614419,0.123214,-0.1851457,0.2615066,0.1126163,-0.3734551,-0.6298177,0.2595145
0.9368281,0.004300333,0.06282137,-0.07846931,0.2043944,0.05229326,-0.4939474,-0.549805,0.1328768
1.117903,-0.1230878,-0.02943929,0.1026105,0.07698424,-0.03993881,-0.6114277,-0.1698397,0.04105701
1.209183,-0.2088484,-0.08330443,0.1939587,-0.008853234,-0.09381387,-0.6111019,0.1671961,0.1372709
1.221081,-0.2136783,-0.03509506,0.2059763,-0.01381314,-0.04564756,-0.195439,0.2097381,0.2122184
1.270198,-0.2164308,0.05533062,0.2552514,-0.01674442,0.0447071,0.4179298,0.1902107,0.1674072
1.288433,-0.1985371,0.07408928,0.2736662,0.0009262144,0.06336922,0.6182038,0.1506205,0.2413734
1.374666,-0.1867206,0.03713476,0.3600861,0.0124797,0.0262928,0.4607872,0.333932,0.5606651
1.635528,-0.243154,-0.0202718,0.6211231,-0.04425296,-0.03126067,0.3253344,0.9347607,0.7599038
1.68342,-0.3901773,-0.001855773,0.669153,-0.1916066,-0.01301457,0.1490709,1.482541,0.3976978
1.240728,-0.5966133,0.07955141,0.2265357,-0.3983937,0.06820205,-0.06890591,1.098022,-0.2814492
0.6674479,-0.6080912,0.1057626,-0.3467482,-0.4102266,0.09420259,0.1177757,0.04704634,-0.5753074
0.5157059,-0.4157483,0.1110726,-0.4985652,-0.2182231,0.09928014,0.3831702,-0.4928689,-0.499186
0.7481474,-0.2596262,0.04747172,-0.2662478,-0.0624099,0.03542291,0.198396,-0.5575731,-0.2606566
0.9125265,-0.1942351,-0.05593017,-0.1020203,0.002709466,-0.06825962,0.1043876,-0.4361319,0.2383172
1.059807,-0.2852366,-0.06787613,0.04509387,-0.08852525,-0.08050747,0.1629564,-0.2306224,0.4970267
1.168456,-0.4189414,-0.07127599,0.1535634,-0.2224235,-0.08422491,0.172093,-0.1412586,0.2534066
0.9879214,-0.4210072,-0.09220834,-0.02716273,-0.224638,-0.1054842,0.3856597,0.05052255,-0.08872817
0.8341223,-0.3704844,-0.07775767,-0.1811672,-0.1742116,-0.09136344,0.5210061,-0.08292511,-0.3263113
0.7955165,-0.2691747,-0.0435188,-0.2199859,-0.07293972,-0.05745165,0.5682452,-0.4087662,-0.3327852
0.7399727,-0.1759956,-0.02057298,-0.2757392,0.02026191,-0.03482561,0.637943,-0.4328366,-0.190837
0.8186321,-0.1568408,-0.02362783,-0.1972736,0.039497,-0.03818994,0.5994217,-0.5025108,-0.05408758
0.9130438,-0.1142157,-0.0211098,-0.1030293,0.08225467,-0.03596899,0.6946518,-0.330743,0.1316573
0.9702315,-0.09127413,-0.02716332,-0.04597625,0.1053737,-0.04230535,0.7029844,-0.1320148,0.1447999
1.00761,-0.07380435,-0.03637363,-0.008697667,0.1230573,-0.05178243,0.5599135,-0.1288816,0.041904
0.9652535,-0.007023365,-0.02997042,-0.05111871,0.1900792,-0.04562799,0.4789682,0.04301683,0.151472
0.9789324,0.02274117,-0.03055405,-0.03747058,0.2201009,-0.04644056,0.2113912,0.02356228,0.1674912
0.9891037,0.02877904,-0.0208853,-0.0272963,0.2264001,-0.03697938,0.06538996,0.06520474,0.1304242
0.9674746,0.007673731,-0.0118821,-0.04888938,0.2055482,-0.02816129,0.143838,0.1883818,0.2727897
0.9885983,-0.05871141,-0.01111257,-0.02769707,0.1393975,-0.02755378,0.1441386,0.1828657,0.1912315
0.9681485,-0.1000441,0.008782222,-0.0480463,0.09827246,-0.007797777,0.3045202,0.3330666,0.04551127
0.9601117,-0.141747,0.05036336,-0.05595108,0.05674535,0.03366713,0.5420988,0.2333735,-0.04354574
0.9705457,-0.1669093,0.07605798,-0.04535374,0.03172483,0.05926605,0.7096426,0.01684475,-0.2568241
0.9663088,-0.04408103,0.06428713,-0.0493961,0.1546596,0.04741677,0.7613087,-0.1791881,-0.3000308
0.9995689,0.1795367,0.0783748,-0.01591083,0.3783443,0.06143953,0.4621814,-0.511459,-0.2736782
1.061258,0.2555949,0.1062286,0.04603229,0.4544193,0.08923806,0.005068656,-0.6941006,-0.1805595
1.221606,0.0861902,0.0721556,0.2066595,0.2849658,0.0551154,-0.3557247,-0.8782833,0.008052735
1.384691,-0.1717826,-0.02878702,0.3700388,0.02686657,-0.04587454,-0.5090186,-0.8156172,0.006531995
1.320387,-0.3628956,-0.1514145,0.3060286,-0.1644524,-0.1685466,-0.522389,-0.551318,0.02876824
1.208661,-0.4242153,-0.1774039,0.1945795,-0.2260489,-0.1945731,-0.599769,-0.3299764,-0.004393247
1.221936,-0.4518903,-0.1219419,0.2081007,-0.2540568,-0.1391327,-0.5858967,0.06816553,-0.2825984
1.13405,-0.5702191,-0.102547,0.1204231,-0.3727568,-0.1197367,-0.3896232,-0.05634325,-0.5218193
1.059207,-0.5935839,-0.05778757,0.04574358,-0.396511,-0.0749484,-0.01603144,-0.3159066,-0.5127626
1.206207,-0.4415948,-0.02024849,0.1928604,-0.2449091,-0.03734989,0.3638071,0.0420368,-0.2226687
1.259455,-0.2922146,-0.06709769,0.2461725,-0.09589759,-0.08410796,0.2323956,0.2599525,0.01779411
1.18345,-0.1321582,-0.06683199,0.1701754,0.06381714,-0.08371862,-0.2624079,0.50309,0.02890191
1.136662,-0.05437006,-0.02986661,0.1233308,0.1412907,-0.04659599,-0.7019437,0.8197712,-0.005553555
1.038239,-0.1407062,-0.0112736,0.02478505,0.05466249,-0.02781176,-0.9763299,0.8114168,-0.04417018
0.9367409,-0.1951798,0.03754837,-0.07690064,-8.594599e-05,0.02123426,-0.8219272,0.8834047,-0.06375673
0.8124198,-0.2223845,0.05838401,-0.201467,-0.02755034,0.04232393,-0.5843536,0.7575199,-0.01656021
0.7007003,-0.219862,0.0700656,-0.3134775,-0.02527251,0.05428527,-0.5477671,0.4166028,0.1146655
0.6888195,-0.1550407,0.09612241,-0.3256784,0.0393195,0.08064239,-0.4162569,0.2086668,0.1989442
0.6970298,-0.1573688,0.09019148,-0.3177986,0.03677672,0.07502663,-0.4693096,-0.05687401,0.1766016
0.7420196,-0.1535525,0.08387153,-0.2731317,0.04039076,0.06903097,-0.5416626,-0.1151704,0.1441578
0.7962771,-0.1214914,0.07104115,-0.2191744,0.07225961,0.05652878,-0.4144998,-0.06340238,0.06084479
0.8239472,-0.1137066,0.07196745,-0.1917696,0.07985894,0.05778269,-0.4168439,-0.1976936,0.02961378
0.8381294,-0.06243266,0.09991924,-0.1778089,0.1309502,0.08605745,-0.2402571,-0.2953978,0.05854361
0.8428534,-0.0152255,0.114603,-0.1732553,0.1779721,0.1010552,-0.1243375,-0.3664669,0.01465882
0.8907591,0.01843696,0.1202988,-0.1254635,0.2114395,0.1070511,-0.2848172,-0.3572623,-0.0276292
0.937503,0.03103296,0.09137557,-0.07877326,0.223822,0.07840916,-0.3436094,-0.3080702,-0.09715183
1.011983,-0.03712551,0.03372888,-0.004285738,0.1554231,0.02102122,-0.5701794,-0.2832726,-0.1176986
1.172632,-0.1672026,-0.01216742,0.1564289,0.02507234,-0.02464043,-0.7095907,-0.05172415,0.07683356
1.325772,-0.3198397,-0.008222506,0.3096828,-0.1278727,-0.02048417,-0.4444016,0.2386753,0.2604252
1.35917,-0.3339361,0.03774303,0.3432304,-0.142306,0.02567112,-0.01753874,0.3927616,0.1674735
1.284308,-0.1996588,0.0378267,0.2685326,-0.008386452,0.02592388,0.3595671,0.4145063,0.03837372
1.280006,-0.1287009,0.004597828,0.2643938,0.0621987,-0.007156358,0.2375968,0.2657529,0.1556029
1.378888,-0.1540822,-0.02025194,0.3634231,0.0364314,-0.03187718,0.007795864,0.2740111,0.3577591
1.50091,-0.2828991,-0.01589242,0.485559,-0.09278393,-0.02740657,0.112472,0.8922602,0.4587726
1.493107,-0.508899,0.02989787,0.4778177,-0.3191901,0.01847903,0.1395033,1.49559,0.1105344
1.061068,-0.6150676,0.06156481,0.04577152,-0.4257603,0.05022644,0.323861,0.9659899,-0.5031398
0.5170763,-0.4487361,0.08509546,-0.4983019,-0.2598088,0.07382193,0.5911188,-0.04171086,-0.5045373
0.5108272,-0.2095956,0.06144943,-0.504693,-0.02101132,0.05022324,0.2606964,-0.4583175,-0.3096827
0.8374163,-0.1627398,-0.024656,-0.1782808,0.02554448,-0.03585369,-0.2414576,-0.599228,-0.3203671
1.020576,-0.2312803,-0.06933084,0.004685962,-0.04325337,-0.08051785,-0.3116463,-0.4727447,0.03750875
1.105622,-0.3229836,-0.07273781,0.08953199,-0.1351723,-0.0839282,-0.0363187,-0.1629114,0.2648813
1.042406,-0.418153,-0.0595925,0.02610794,-0.2305135,-0.07079544,0.3331739,-0.06247501,0.03863287
0.8546504,-0.3828333,-0.06061328,-0.1618631,-0.1953157,-0.07183325,0.4431833,0.009361626,-0.1765894
0.8095784,-0.298943,-0.06239896,-0.2071538,-0.111491,-0.0736363,0.4222315,-0.1759329,-0.3769218
0.8049311,-0.2466932,-0.02591526,-0.2120138,-0.05924634,-0.03716672,0.538571,-0.4401139,-0.3692678
0.8346912,-0.1587501,-0.02760877,-0.18245,0.02875181,-0.03886845,0.6134565,-0.4569385,-0.1202441
0.9276572,-0.131591,-0.0375362,-0.08965475,0.05602271,-0.04879632,0.6794797,-0.4896287,0.05347572
0.9355438,-0.1419931,-0.03098401,-0.08190782,0.04578319,-0.04223518,0.7129824,-0.2656609,0.1476237
0.96911,-0.0774716,-0.03285305,-0.04844721,0.110511,-0.04408426,0.6030779,0.004673614,0.1410486
0.9518056,-0.02055773,-0.00455222,-0.06582173,0.1676667,-0.01575124,0.4646236,0.006557624,0.1060683
0.9028682,0.002013279,0.001014772,-0.1147927,0.1905049,-0.0101393,0.2774293,-0.002770039,0.1512266
0.9642216,0.02118526,-0.01151396,-0.05343471,0.209958,-0.02261046,0.1539777,-0.03694542,0.1947438
0.983599,0.01106922,-0.01997428,-0.03401352,0.2001249,-0.0310007,0.1528888,0.03129532,0.2409711
1.027536,0.008408527,-0.04155801,0.01000644,0.1977377,-0.05250152,0.1263756,0.1415234,0.190333
1.062087,0.01201653,-0.02976442,0.04467602,0.2015993,-0.04061132,0.1504995,0.2665994,0.02776622
1.007552,-0.01534694,0.008931685,-0.009708485,0.1744602,-0.001804136,0.2323199,0.3473072,-0.03250691
0.9905451,-0.03631998,0.04875231,-0.02653517,0.1536743,0.03814157,0.2939243,0.12681,-0.03465359
0.971406,-0.01871367,0.04623857,-0.04546696,0.1714238,0.03576491,0.3136466,-0.13131,-0.03903188
0.9909173,0.0750668,0.0290566,-0.02572206,0.2652973,0.01872922,0.2021041,-0.4127821,-0.01445702
1.08908,0.1567896,0.05653858,0.07269907,0.3470546,0.046364,-0.07383095,-0.6069426,0.006562501
1.245893,0.03775426,0.04361994,0.2297903,0.2279851,0.0336021,-0.3823456,-0.5819093,0.07999386
1.349413,-0.1742675,-0.01962886,0.3335988,0.01585241,-0.02948823,-0.4270499,-0.6110396,0.08625425
1.21997,-0.2936095,-0.0885009,0.2044408,-0.1036774,-0.09820037,-0.2795665,-0.5531435,-0.06273506
1.095615,-0.3886703,-0.1318901,0.08035374,-0.1989955,-0.1414256,-0.335519,-0.5045397,-0.1791735
1.10408,-0.477683,-0.1122263,0.08906152,-0.2883217,-0.1215889,-0.5513164,-0.3932339,-0.1951456
1.068372,-0.5312334,-0.08201376,0.05356777,-0.3422242,-0.09118936,-0.6855165,-0.165799,-0.2774052
1.111259,-0.5693573,-0.04899894,0.09663732,-0.3807194,-0.05796956,-0.4987064,-0.3746267,-0.5279969
1.285566,-0.4888127,-0.05327559,0.271093,-0.300545,-0.06202102,-0.006579021,-0.5249463,-0.6273615
1.386076,-0.33389,-0.1012205,0.3717102,-0.1459742,-0.109719,0.2923897,-0.0730368,-0.4659387
1.348431,-0.2402535,-0.08636628,0.3341175,-0.05266004,-0.09459411,0.2624764,0.4807998,-0.3717459
1.194727,-0.1003426,-0.05732896,0.1803975,0.0869619,-0.06526001,-0.07704822,0.847486,-0.2627405
1.033217,0.06055159,-0.03051412,0.01879714,0.2475976,-0.03812096,-0.6705032,1.014436,-0.03671317
1.01461,0.0412949,0.001516571,2.436244e-05,0.2281037,-0.005738861,-0.9814801,1.04513,0.1123084
0.9567137,-0.07493948,0.008925202,-0.05810778,0.1116421,0.002046695,-0.9377763,0.9870318,0.182353
0.7439171,-0.1037791,0.07114764,-0.2712025,0.08257637,0.06466859,-0.8260458,0.828761,0.2864676
0.6854231,-0.1241416,0.1016311,-0.3300429,0.06198386,0.0955694,-0.6591301,0.5781441,0.4350035
0.7722702,-0.1601532,0.0773985,-0.2435722,0.02573547,0.07176614,-0.4995003,0.2563361,0.478759
0.7669797,-0.1516154,0.1081166,-0.2492515,0.03402848,0.1029191,-0.4304526,0.08250594,0.4021413
0.7939959,-0.1883332,0.113072,-0.2226216,-0.002942333,0.1083086,-0.4620104,0.04692618,0.3039296
0.8695698,-0.1865881,0.121487,-0.1474189,-0.001458182,0.1171505,-0.4476755,-0.03139002,0.1713326
0.8866503,-0.1513804,0.1657002,-0.1306848,0.03348187,0.1617768,-0.3051146,-0.1110339,0.09968517
0.887352,-0.1639621,0.160694,-0.1302982,0.02062605,0.1571624,-0.07690479,-0.2051075,0.07894227
0.8490632,-0.06787905,0.16247,-0.1688648,0.1164281,0.1593017,0.129828,-0.3151302,-0.02709052
0.8370304,0.02454001,0.1744013,-0.1811324,0.2085563,0.1715604,0.07052543,-0.4328136,-0.1301603
0.8876519,0.03305134,0.1503801,-0.1306967,0.2167606,0.1478242,-0.1266743,-0.5662513,-0.1329287
0.9649292,0.01992876,0.1030742,-0.05355178,0.2033065,0.1007552,-0.3593017,-0.584897,-0.08658191
1.144794,-0.09496026,0.02854507,0.1262345,0.08805412,0.02641166,-0.6567501,-0.3759533,0.03407485
1.305426,-0.2130807,0.009075501,0.2868359,-0.03046498,0.007076175,-0.6126484,0.01852099,0.2839609
1.350464,-0.2627619,0.0902781,0.3318769,-0.08057845,0.08836282,-0.1447243,0.3485776,0.373899
1.33817,-0.2264626,0.1528656,0.3196042,-0.0447396,0.1509848,0.3945889,0.4271867,0.05716434
1.229626,-0.1076912,0.1436392,0.2110807,0.07354868,0.1417411,0.5108093,0.2730791,-0.1995219
1.153097,0.009726945,0.1078561,0.1345594,0.1904629,0.1058859,-0.03528207,0.01976645,0.0556717
1.269537,0.02756092,0.06569475,0.2509846,0.2077686,0.06359563,-0.42672,0.06894533,0.5099876
1.397795,-0.2115714,0.03373716,0.3791952,-0.031921,0.03145239,-0.2384618,0.724743,0.678731
1.267776,-0.5352488,0.01831523,0.2490847,-0.3561833,0.01579008,-0.091706,1.320733,0.3512641
0.9236359,-0.6594137,0.03075062,-0.09520184,-0.480948,0.02793348,0.09404951,0.7581477,-0.2000568
0.6282799,-0.5425242,0.04297096,-0.3907567,-0.3646515,0.03981346,0.4837646,-0.3121048,-0.3663083
0.6486854,-0.3261462,-0.007477984,-0.3705882,-0.1488391,-0.0110211,0.4083524,-0.5175733,-0.2757988
0.9307712,-0.2272406,-0.06103505,-0.08875832,-0.0504588,-0.06500502,0.0275659,-0.32907,-0.2351478
1.071914,-0.2183553,-0.05534151,0.05212319,-0.04205343,-0.05977381,-0.02059417,-0.2851968,0.05422437
1.092035,-0.3211815,-0.04219095,0.07198016,-0.1453125,-0.04711442,0.03967689,-0.2002112,0.2981412
1.079885,-0.4492536,-0.04645041,0.05956335,-0.2737669,-0.05188763,0.2692779,-0.1779509,0.117183
0.9320636,-0.4029466,-0.04648935,-0.08852904,-0.2277844,-0.05245722,0.6852367,-0.1470261,-0.1264307
0.8500299,-0.3068023,-0.03991262,-0.1708365,-0.1318986,-0.04642272,0.7869937,-0.2796108,-0.2553561
0.819755,-0.1440003,-0.03372431,-0.2013806,0.03071515,-0.0407834,0.7395504,-0.4942959,-0.2550049
0.859539,-0.01280347,-0.02665659,-0.1618522,0.161792,-0.03426719,0.6481359,-0.4703011,-0.07051419
0.9817715,-0.03883861,-0.02731496,-0.03985335,0.1356968,-0.0354759,0.426916,-0.3642191,0.1563228
0.976856,-0.03383464,-0.02957214,-0.0449761,0.1406894,-0.03827897,0.2628021,-0.1148973,0.2384485
0.9870089,-0.0461019,-0.0173514,-0.03500258,0.1284488,-0.0265967,0.1648182,0.1067717,0.1961374
0.9517184,-0.06601813,-0.002712495,-0.0704438,0.1085877,-0.01248631,0.1782888,0.12641,0.1766302
0.878577,-0.04234322,0.01397831,-0.1437056,0.1323376,0.003687609,0.2010094,0.06464614,0.1669728
0.9283649,-0.03895889,0.01975807,-0.09400474,0.1358087,0.008962983,0.1920678,-0.02729423,0.1849703
0.9433996,-0.01042267,0.003977148,-0.07902044,0.1644355,-0.007309478,0.2092064,0.0573,0.2295101
0.991762,-0.01258879,-0.007070036,-0.03066964,0.1623556,-0.01883487,0.1791205,0.1490899,0.1907531
1.007164,-0.0230466,-0.01102686,-0.01524014,0.1519714,-0.02325563,0.2461652,0.1868189,0.07247299
0.962065,-0.01700078,0.008036161,-0.06027483,0.1580709,-0.004641153,0.3690538,0.2374246,-0.09276522
0.9905273,-0.03976503,0.04583794,-0.0317112,0.1353336,0.03272803,0.4676644,0.06627327,-0.1960093
0.9600257,-0.01434855,0.05162894,-0.06207553,0.1607447,0.03810179,0.4667542,-0.1915289,-0.1864779
0.9797977,0.07705441,0.05631519,-0.04213087,0.2521038,0.04238455,0.1642803,-0.4300532,-0.1501615
1.129549,0.1532517,0.1141068,0.1078273,0.3282107,0.09978413,-0.2699871,-0.5944443,-0.02460296
1.296311,0.04410793,0.1494944,0.2748236,0.2189199,0.1347875,-0.567606,-0.6475892,0.09645053
1.346932,-0.2135153,0.03192846,0.3256961,-0.03891429,0.01684074,-0.5330903,-0.6722872,-0.05227214
1.239696,-0.4044965,-0.1406407,0.218712,-0.2301695,-0.1561076,-0.2339372,-0.5536063,-0.2767907
1.199425,-0.5248842,-0.1623137,0.178679,-0.3508826,-0.1781544,-0.06394015,-0.4336562,-0.3390052
1.150697,-0.5312083,-0.1286463,0.1301659,-0.3575653,-0.1448473,-0.2494007,-0.3550716,-0.4739026
1.068304,-0.4647436,-0.1216724,0.04795721,-0.2914718,-0.1382121,-0.4604744,-0.2669754,-0.657969
1.153444,-0.458662,-0.05613305,0.133247,-0.2857554,-0.07298336,-0.1650139,-0.2852323,-0.6147327
1.260766,-0.3983284,-0.04145392,0.2406809,-0.2257657,-0.05858263,0.2198594,-0.1225712,-0.4170637
1.28928,-0.2873457,-0.08114084,0.2692628,-0.1150934,-0.09851318,0.2328737,0.2887034,-0.1947162
1.199788,-0.185809,-0.05944173,0.1797843,-0.01382676,-0.07702081,0.1160298,0.6057281,-0.07881895
1.030418,-0.08767702,-0.04259208,0.01036814,0.08407671,-0.06033892,-0.1891303,0.6928731,-0.07115284
0.9822606,-0.1002489,-0.0127573,-0.03789679,0.07131438,-0.03063183,-0.5116319,0.720134,0.04012097
0.9413254,-0.1491417,0.03314892,-0.07899532,0.02226394,0.01518636,-0.6193523,0.8429358,0.0988242
0.8233814,-0.1550005,0.04842754,-0.1971508,0.01627579,0.0304145,-0.625416,0.844558,0.06073088
0.7573828,-0.1638523,0.09824336,-0.2633977,0.007320114,0.08021358,-0.5121997,0.6659126,0.1680962
0.7367634,-0.1507649,0.1270546,-0.2842875,0.02032666,0.1090365,-0.414813,0.3663997,0.2756333
0.7582148,-0.1569594,0.1052538,-0.2631129,0.01407238,0.08726919,-0.33232,0.04518212,0.3062215
0.8140466,-0.1591614,0.09801552,-0.2075492,0.01182928,0.08007979,-0.2947705,0.03139709,0.2777667
0.8570556,-0.1284087,0.0878908,-0.1647876,0.04255752,0.07001368,-0.3501858,0.08353197,0.1876957
0.8739351,-0.116331,0.09830256,-0.1481258,0.05462478,0.08048892,-0.2857465,-0.048927,0.2276735
0.8575976,-0.08906139,0.1286222,-0.1646445,0.08189442,0.1108722,-0.2042959,-0.1204369,0.2482306
0.8482342,-0.05549658,0.1392797,-0.1741463,0.1154654,0.1215885,-0.10961,-0.1726771,0.1608632
0.84184,-0.0189243,0.1500577,-0.1806303,0.1520443,0.1324145,-0.04614849,-0.2579017,0.09996065
0.8526681,0.006533497,0.1490008,-0.1698375,0.1775023,0.1313893,-0.1836825,-0.3403344,-0.04769314
0.9303351,-0.01226235,0.1160527,-0.09214679,0.1586925,0.09845104,-0.315563,-0.4692105,-0.155353
0.9970451,-0.02037388,0.0732509,-0.02535206,0.1505456,0.05563307,-0.435533,-0.5203319,-0.1252415
1.060423,-0.05688544,0.05774505,0.0381704,0.1139709,0.04008293,-0.5123635,-0.3471357,-0.0254654
1.234186,-0.1524109,0.07280568,0.2121311,0.01835046,0.05507046,-0.4033497,0.03294085,0.2081239
1.418663,-0.2316452,0.07978569,0.3968488,-0.06101113,0.06194824,-0.1752664,0.4271168,0.3219014
1.392833,-0.2250308,0.0776336,0.3712826,-0.05455322,0.0596643,0.04592424,0.5334199,0.2007463
1.329814,-0.1801635,0.07000987,0.3085311,-0.009866859,0.05187855,-0.005666215,0.2237662,0.1848313
1.506384,-0.2112482,0.05191714,0.4853525,-0.04115286,0.0335935,-0.1129609,0.09164953,0.3980835
1.611858,-0.2443461,0.05568974,0.5910392,-0.07446853,0.03714393,0.04484004,0.7611699,0.5426879
1.420049,-0.3467099,0.06695343,0.3993834,-0.1770613,0.04815636,0.1812552,1.387331,0.2836352
0.9734652,-0.5604726,0.06773252,-0.0471271,-0.3910551,0.04865571,0.3007892,0.9926333,-0.1549112
0.4858745,-0.560049,0.08131043,-0.5347247,-0.39085,0.06192572,0.4620309,0.1815585,-0.3040956
0.5833793,-0.390969,0.0630881,-0.4372899,-0.2219584,0.0433675,0.4401232,-0.3685937,-0.1928342
0.8646366,-0.2611963,-0.0005481955,-0.1561409,-0.09233075,-0.02063195,0.2316074,-0.5347414,-0.08234071
0.8170347,-0.1706982,-0.04967336,-0.20387,-0.001928431,-0.07014494,-0.10878,-0.2786593,0.01456588
1.058611,-0.2468128,-0.06045853,0.03757123,-0.07808916,-0.08133776,-0.1790524,-0.1965256,0.1665636
1.188659,-0.3719076,-0.03814016,0.1674807,-0.2031804,-0.05944086,0.1908655,-0.2385508,0.1794443
0.9642488,-0.3931175,-0.02640187,-0.0570727,-0.224334,-0.04813221,0.4872809,-0.001310236,-0.09342674
0.9953469,-0.3714063,-0.02986454,-0.02612488,-0.2025072,-0.05202797,0.6090731,-0.1419129,-0.4407526
0.8719818,-0.2429161,-0.0196851,-0.1496445,-0.07383712,-0.04228106,0.5839609,-0.3940009,-0.5510366
0.7521581,-0.07833502,-0.02322506,-0.2696208,0.09098943,-0.04624939,0.4363951,-0.3707554,-0.3054411
0.9139974,0.006535378,-0.02955606,-0.1079228,0.1761652,-0.05300135,0.3050184,-0.4819141,0.0125556
0.8986132,0.01525325,-0.03351376,-0.1234284,0.1852373,-0.05736942,0.07811524,-0.2637501,0.1787266
0.9896094,-0.04839465,-0.04377508,-0.03252856,0.1219795,-0.06802729,-0.001283389,0.108914,0.2429356
1.062867,-0.09537009,-0.0236348,0.0406597,0.07541892,-0.04826658,0.09351329,0.1279744,0.1660955
0.9370027,-0.1139413,0.004350361,-0.08524716,0.05727899,-0.02064145,0.1133513,0.0858125,0.1031467
0.9610079,-0.1065723,0.009015084,-0.0612585,0.06508945,-0.01631576,0.1843286,0.01338842,0.1401474
0.94592,-0.06095971,0.001071019,-0.07633562,0.1111482,-0.02457729,0.2074413,0.009270416,0.1413131
0.9595065,-0.02944573,-0.00865112,-0.06270934,0.1431069,-0.03459487,0.1923104,0.05595886,0.1565586
1.030864,0.01039688,-0.009602217,0.008717514,0.183385,-0.03581868,0.2411755,0.1241426,0.07508196
0.994001,0.01423038,0.001859838,-0.0280466,0.187636,-0.02460585,0.2686074,0.2623176,-0.09536026
1.011029,-0.02254555,0.04510068,-0.01089231,0.1512507,0.01840951,0.3202928,0.2083746,-0.1260836
1.00412,-0.02279153,0.08772326,-0.01764924,0.1513607,0.0608292,0.3248364,-0.01222351,-0.1054452
0.9902581,0.02915761,0.07467313,-0.03133382,0.2036242,0.04759603,0.259215,-0.3337601,-0.07892139
1.019759,0.1582918,0.05343027,-0.001632459,0.3330235,0.02618662,0.04547308,-0.5407359,0.0318102
1.067516,0.1904705,0.0569501,0.0463466,0.3654069,0.02955365,-0.3528261,-0.4974433,0.1507479
1.246904,-0.03422204,0.04051516,0.2259741,0.1408469,0.01297761,-0.485385,-0.5134508,0.1056648
1.355387,-0.3047975,-0.006955924,0.3347043,-0.1296743,-0.03462411,-0.2473821,-0.5228146,-0.1372893
1.240315,-0.4173384,-0.0695846,0.2198745,-0.242235,-0.09737249,-0.05683844,-0.4703844,-0.3434557
1.122372,-0.4740417,-0.1167104,0.1021538,-0.2990182,-0.1446041,-0.04502297,-0.3753346,-0.4032343
1.128585,-0.5244031,-0.1109869,0.1085626,-0.3495016,-0.1389675,-0.1702798,-0.2321094,-0.4521206
1.111158,-0.4667507,-0.06886923,0.09129949,-0.2919938,-0.09691221,-0.2814178,-0.3194018,-0.5294331
1.089655,-0.4402812,-0.02778071,0.06992448,-0.2656735,-0.05585724,-0.01410803,-0.382177,-0.4832591
1.220463,-0.4258701,-0.03714728,0.2008238,-0.2514009,-0.06522629,0.4037422,-0.05856573,-0.3158744
1.292322,-0.276879,-0.07860399,0.2727306,-0.1025253,-0.106653,0.4156821,0.3999924,-0.1844152
1.196222,-0.1590898,-0.0704728,0.1766274,0.01517858,-0.09845742,0.08758956,0.7234701,-0.08932151
1.067864,-0.065313,-0.0376903,0.04820914,0.1089008,-0.06557405,-0.3645758,0.8056444,-0.01461255
0.9605369,-0.05184505,0.01324701,-0.05923745,0.1223403,-0.01449833,-0.7093787,0.7595803,0.108554
0.9136662,-0.1796628,0.06434338,-0.1062818,-0.005486196,0.03677282,-0.7136816,0.744742,0.202042
0.8549358,-0.2266633,0.06604965,-0.1652318,-0.05247961,0.03868688,-0.4920829,0.6625893,0.1654789
0.7905756,-0.2326649,0.09464415,-0.2298466,-0.05845883,0.0675174,-0.1939007,0.4711389,0.2214633
0.7764492,-0.1930093,0.1144527,-0.2442494,-0.01876451,0.08758469,-0.06683288,0.260865,0.2489353
0.7824646,-0.1087451,0.09157836,-0.2385182,0.065555,0.06498565,-0.2046021,0.1149173,0.1604234
0.8173187,-0.08891468,0.09792126,-0.2039426,0.08545478,0.07161474,-0.3353142,0.06804976,0.1460565
0.8394419,-0.058237,0.09388002,-0.1820803,0.1162112,0.06786531,-0.4054515,0.001532353,0.1342569
0.8599552,-0.07923971,0.1022134,-0.161801,0.09529071,0.07649132,-0.3899562,-0.144909,0.1802345
0.8740697,-0.09307105,0.1326269,-0.1478859,0.08153944,0.1071934,-0.23081,-0.2540624,0.222128
0.8533563,-0.03627369,0.1365979,-0.168758,0.1384096,0.1114438,-0.09360125,-0.2874485,0.1428952
0.8507063,-0.002948545,0.1457926,-0.1715201,0.1717946,0.120903,-0.07962856,-0.3139306,0.05335805
0.8612252,0.04368127,0.1396939,-0.161061,0.2184642,0.1150485,-0.2293601,-0.3689295,-0.05919161
0.9181393,0.01380325,0.102549,-0.1041502,0.1885975,0.07812238,-0.4938845,-0.4455045,-0.1153616
1.037924,-0.08226154,0.04871674,0.01568996,0.09250815,0.02448012,-0.7050551,-0.4520678,-0.07785542
1.176958,-0.1731003,0.01201918,0.1548358,0.001604697,-0.01205735,-0.7339759,-0.2437811,0.04931222
1.295661,-0.2570677,0.04301125,0.273697,-0.08246707,0.0190658,-0.4078279,0.129783,0.2005389
1.324249,-0.223465,0.08883526,0.3024772,-0.04900379,0.06499289,0.1728795,0.4434966,0.1102314
1.259515,-0.1447139,0.1135393,0.2379512,0.02957812,0.08977169,0.4359657,0.4906002,-0.04319221
1.206343,-0.05112864,0.116369,0.1849887,0.122967,0.09264587,0.1267962,0.2089328,0.0248846
1.301824,-0.0005349588,0.07188285,0.2806676,0.173336,0.04817176,-0.1689735,0.07593204,0.2623285
1.40651,-0.1984624,0.02559884,0.3855283,-0.0248475,0.001866424,-0.073319,0.6373004,0.4929353
1.289678,-0.4902631,0.01680428,0.2688312,-0.3169344,-0.006981918,0.01041885,1.196217,0.3473288
0.9868138,-0.620467,0.03603347,-0.03394774,-0.4474432,0.01216326,0.1746935,0.8126429,-0.02517891
0.6453753,-0.5307146,0.04924367,-0.375353,-0.3579951,0.02526136,0.5655745,0.09524741,-0.1603191
0.6174863,-0.3546611,0.008734265,-0.4032479,-0.1822254,-0.01538646,0.5469788,-0.2124687,-0.2236939
0.8740629,-0.2393598,-0.03993879,-0.1466973,-0.06717451,-0.06422181,0.1808775,-0.2450522,-0.2570897
0.970378,-0.184566,-0.04454789,-0.05041344,-0.01259235,-0.06901309,-0.08905278,-0.1812438,-0.1342689
1.037808,-0.2922985,-0.03866928,0.01698668,-0.1204962,-0.0633315,-0.177768,-0.2956708,0.03864079
1.103813,-0.4264469,-0.04603345,0.08296469,-0.2547738,-0.0709025,0.1532678,-0.3516216,0.1907692
1.012474,-0.4085761,-0.06197318,-0.008400402,-0.2369835,-0.08705398,0.5437766,-0.189901,-0.02453407
0.9914094,-0.3803223,-0.06430564,-0.02949123,-0.2087535,-0.08959813,0.5935013,-0.2728006,-0.4394885
0.9333807,-0.2350735,-0.04971098,-0.08754604,-0.06346506,-0.07521014,0.5817359,-0.283493,-0.4682483
0.8291906,-0.01940647,-0.03304814,-0.1917581,0.1523063,-0.05874465,0.5218044,-0.2657499,-0.2646342
0.8873719,0.003966743,-0.01798667,-0.1335885,0.1758418,-0.04386788,0.3514117,-0.4143967,0.02384287
0.931135,-0.02895019,-0.02242096,-0.08982023,0.1431337,-0.04847185,0.1922964,-0.2579437,0.2685737
0.9534855,-0.03327327,-0.02562784,-0.06744266,0.1390541,-0.0518315,0.1104451,-0.1151909,0.2705783
1.016845,-0.07763924,-0.010654,-0.004031977,0.09495568,-0.0369919,0.1140268,-0.01846498,0.2275062
1.004094,-0.09796866,-0.004962381,-0.01670825,0.07490956,-0.0314147,0.1020149,0.1238059,0.1866378
0.9505217,-0.06573291,-0.001907488,-0.07018146,0.1074375,-0.0284537,0.07998355,0.04633091,0.1723228
0.9379299,-0.04549564,0.001531011,-0.08265067,0.1279696,-0.02508826,0.05709014,0.07819725,0.2119282
0.9447529,-0.03029337,-0.009663933,-0.07567986,0.1434622,-0.03633525,0.01276411,0.1234318,0.2029185
0.9475577,-0.007416523,-0.03647249,-0.0727002,0.1666174,-0.06317444,0.02683712,0.1305227,0.116577
0.9751722,-0.03901016,-0.05070239,-0.04488253,0.1352826,-0.07741245,0.1273843,0.2506795,-0.04941155
0.993071,-0.07302182,-0.01399131,-0.02675192,0.1015036,-0.04068536,0.3158914,0.2292982,-0.1255395
0.9993429,-0.08900554,0.02648067,-0.02022044,0.08572134,-0.0001723451,0.4953442,0.06803021,-0.1490947
0.9918059,-0.07455003,0.02179624,-0.02747122,0.1003437,-0.004791327,0.5078288,-0.1941567,-0.2143664
0.9688292,0.04316974,0.03126833,-0.05013646,0.2181921,0.004769014,0.260795,-0.3822912,-0.1181866
1.069314,0.1224496,0.08559359,0.05068361,0.2975561,0.05920303,-0.1850957,-0.4450105,0.06097121
1.243161,0.04092142,0.1092238,0.2248862,0.2160586,0.08295903,-0.5175204,-0.5402873,0.1117105
1.312967,-0.1280197,0.03044416,0.295057,0.04708695,0.004317695,-0.5615544,-0.5305381,-0.008556581
1.243573,-0.2925387,-0.09408846,0.2260268,-0.1175257,-0.1200666,-0.3622641,-0.4867246,-0.1687555
1.159797,-0.4353869,-0.1456858,0.1425971,-0.2605241,-0.1715039,-0.1610374,-0.3607849,-0.2161162
1.147143,-0.5149604,-0.1401374,0.130263,-0.3402906,-0.1657784,-0.2778264,-0.06310664,-0.3036311
1.043663,-0.4989963,-0.106733,0.02707246,-0.3245443,-0.1321733,-0.3525561,0.02291013,-0.416215
0.9667907,-0.4996294,-0.02510567,-0.0495454,-0.3254008,-0.05031689,-0.023639,-0.1826316,-0.4399083
1.102535,-0.4285227,-0.007064284,0.08642052,-0.2545057,-0.03201584,0.3681864,-0.3050367,-0.45304
1.237042,-0.2339277,-0.05887118,0.2211152,-0.06009713,-0.08353245,0.5391326,-0.09073644,-0.3274053
1.281215,-0.1034301,-0.06955598,0.2654378,0.07024568,-0.09389619,0.2367903,0.331663,-0.1469413
1.222527,-0.01178314,-0.06849989,0.2068509,0.161768,-0.09248714,-0.403062,0.7408381,-0.09340036
1.095564,0.0173836,-0.04426457,0.07993283,0.190833,-0.06786567,-0.8126562,0.9756957,0.005290843
1.043364,-0.05747274,-0.002527532,0.02771894,0.1158886,-0.02570886,-0.915403,0.934437,0.08406431
0.969125,-0.1332814,0.01521371,-0.04659274,0.03999735,-0.007515381,-0.781923,0.8805257,0.08867412
0.8404764,-0.2108377,0.06334789,-0.1753664,-0.03764015,0.04110073,-0.5688634,0.8102028,0.1663539
0.7542451,-0.228581,0.09877489,-0.2617654,-0.05546349,0.07703489,-0.3785527,0.5030515,0.2355303
0.7197499,-0.1901068,0.09424924,-0.2964568,-0.01706658,0.07303571,-0.2144531,0.2565598,0.255652
0.7479423,-0.1777426,0.09591306,-0.2684729,-0.004775027,0.07523881,-0.3392154,0.1222362,0.2288652
0.7896774,-0.1485594,0.08590239,-0.2269429,0.02434053,0.06577403,-0.41017,-0.03166257,0.1579081
0.8424613,-0.128977,0.08627913,-0.174348,0.04385959,0.06669765,-0.2783788,-0.08605,0.128957
0.8978368,-0.1468524,0.1038531,-0.1191354,0.0259236,0.08481437,-0.2095856,-0.1349139,0.1221128
0.8892268,-0.1406222,0.122238,-0.127876,0.03209409,0.1037326,0.06490757,-0.2022755,0.07639566
0.8725846,-0.08020128,0.1573992,-0.1446116,0.09245444,0.139412,0.2086998,-0.262067,-0.03679755
0.8680688,0.004926129,0.1752795,-0.1491789,0.1775168,0.1577888,0.04366082,-0.389449,-0.1433626
0.8770981,0.03914232,0.1567386,-0.1401548,0.2116573,0.1397156,-0.07413109,-0.5202308,-0.1746219
0.9570288,-0.001585791,0.1064063,-0.06017938,0.1708344,0.08981565,-0.3331533,-0.5768787,-0.1415006
1.128199,-0.1020685,0.02817213,0.1110861,0.07023062,0.0119745,-0.5040048,-0.3831719,0.04902802
1.372006,-0.2690982,0.004831178,0.3550322,-0.09694959,-0.01101388,-0.3301761,0.06943319,0.2945035
1.481327,-0.3565132,0.06876227,0.4645206,-0.1845415,0.05323038,0.1351816,0.4635276,0.2604422
1.324944,-0.2153995,0.1156699,0.3083125,-0.04362341,0.1004122,0.7254426,0.5603516,-0.06066407
1.16672,-0.03313015,0.1068085,0.150253,0.1384377,0.0917847,0.6457596,0.2963863,-0.238506
1.210726,0.02267203,0.09688617,0.1943988,0.1940186,0.08205359,0.1088578,0.1218248,0.08184489
1.378735,-0.04027925,0.07806237,0.3625128,0.1308276,0.06337649,-0.02814657,0.4952706,0.5564496
1.464687,-0.2933045,0.03380064,0.4485242,-0.1224602,0.01921625,-0.05977143,0.9397978,0.5747744
1.187476,-0.585638,0.01516234,0.1713106,-0.4150756,0.0006351124,-0.06054273,0.9165339,0.2255349
0.7622937,-0.6010048,0.02576024,-0.2539428,-0.4307289,0.01124804,0.223663,0.480335,-0.1075383
0.7261035,-0.3938816,0.009452279,-0.2902682,-0.2238772,-0.005084338,0.4580717,-0.06054512,-0.2938569
0.8380826,-0.2246442,-0.01991942,-0.1784725,-0.05488096,-0.03451687,0.3198469,-0.2812989,-0.2821712
0.8392766,-0.1705726,-0.02156007,-0.1774941,-0.001013597,-0.03625101,-0.0849161,-0.2740319,-0.1892759
1.030067,-0.2481993,-0.01985125,0.01305968,-0.07880656,-0.03466411,-0.2120753,-0.3694256,-0.03717237
1.168374,-0.3723932,-0.02893383,0.1511162,-0.2031279,-0.04389275,0.01320953,-0.3016125,0.1212799
1.049317,-0.3526367,-0.03143049,0.03179202,-0.1834558,-0.04655539,0.2916449,-0.09826822,-0.01401013
0.9569088,-0.3004489,-0.03270623,-0.06090034,-0.1313035,-0.04801286,0.5379212,-0.1262425,-0.2752212
0.8709007,-0.2644985,-0.03066129,-0.1472067,-0.09533513,-0.04616135,0.5253207,-0.2251555,-0.3813543
0.8175309,-0.1234464,-0.02159854,-0.2008823,0.0457899,-0.03729999,0.446858,-0.3408556,-0.3276742
0.8600439,-0.04083099,-0.02107206,-0.1586729,0.1285298,-0.03697954,0.4149534,-0.4521875,-0.0879656
0.9087258,-0.04105356,-0.02353269,-0.1102832,0.1284757,-0.03964799,0.2821921,-0.330424,0.140279
1.014841,-0.04205673,-0.02238242,-0.004442798,0.1276752,-0.03870461,0.2292268,-0.1321917,0.2162468
1.058417,-0.05452638,-0.02097939,0.03887929,0.1154328,-0.03750509,0.1628846,0.03786384,0.1856469
0.9711816,-0.02768862,-0.007706039,-0.04858969,0.1425137,-0.02442963,0.1175025,0.1197403,0.1651466
0.935042,-0.01781228,0.006305883,-0.0849435,0.1526403,-0.01060835,0.1109278,0.01618549,0.2521908
0.9398296,-0.009975146,9.294103e-05,-0.0803481,0.1607262,-0.01700366,0.01229861,-0.0003794696,0.3042239
0.9496226,-0.01229609,-0.01290048,-0.07072267,0.1586438,-0.03017038,-0.0146454,0.0775963,0.3364123
0.982808,-0.06030758,-0.03079936,-0.03767756,0.110853,-0.04823238,0.003902002,0.1120836,0.3091884
0.9816652,-0.07595955,-0.04532842,-0.03893225,0.09539768,-0.06291266,0.1281083,0.1894235,0.1280462
0.988787,-0.1252231,0.001100382,-0.03189357,0.04630253,-0.01662115,0.3658579,0.1942504,-0.04298945
1.00946,-0.1530035,0.06255524,-0.01127473,0.01866037,0.04471125,0.5352127,0.03589438,-0.2009896
0.9865668,-0.03820398,0.03977806,-0.03419457,0.1335671,0.02182544,0.5858047,-0.2394908,-0.2624406
0.9947182,0.1350519,0.02514291,-0.02604217,0.3068957,0.007093541,0.3910792,-0.5052604,-0.1748755
1.120379,0.2366574,0.07088611,0.09964586,0.4085307,0.0527501,0.02681512,-0.6104631,-0.04334138
1.316895,0.1647989,0.06567437,0.2962092,0.3366444,0.04745973,-0.2287807,-0.6027403,0.1058439
1.374023,-0.03530519,0.005669702,0.3533944,0.1364424,-0.01261785,-0.178299,-0.483413,0.06418248
1.220289,-0.2554595,-0.06360947,0.1997119,-0.08388598,-0.08196491,-0.04446,-0.3512681,-0.09068243
1.089489,-0.3474056,-0.1105412,0.06894378,-0.1760783,-0.1289573,-0.1430724,-0.3707992,-0.1412512
1.050277,-0.3375267,-0.1156236,0.02973988,-0.1665067,-0.1340885,-0.3310926,-0.2979881,-0.1614454
0.9730656,-0.4547488,-0.1002689,-0.0474907,-0.2840828,-0.1187651,-0.5556343,-0.1032393,-0.1914872
0.9310811,-0.5304423,-0.05367879,-0.08951765,-0.3601604,-0.07218368,-0.5531012,-0.133202,-0.3228118
1.03171,-0.474071,-0.03131401,0.01104909,-0.3041847,-0.04980181,-0.128641,-0.2790517,-0.4377682
1.141468,-0.4566829,-0.03707992,0.1207283,-0.2871851,-0.05552326,0.2671078,-0.2690732,-0.3916947
1.143084,-0.3330485,-0.03262736,0.1222472,-0.163917,-0.05099815,0.427536,-0.04405141,-0.3604863
1.106473,-0.1295626,-0.06410076,0.08551745,0.03923495,-0.08237022,0.2480389,0.3963887,-0.3382756
1.059337,-0.02639486,-0.04144329,0.03823716,0.1421029,-0.05958169,-0.1003749,0.6862018,-0.2381992
0.9806778,-0.01963504,0.02303193,-0.04059204,0.148592,0.005054851,-0.3246923,0.6536777,-0.06113709
0.9129876,-0.06135691,0.04097542,-0.1084754,0.1066205,0.02318871,-0.5998189,0.639669,0.1563768
0.8821896,-0.07016147,0.08090779,-0.139484,0.09758007,0.0633373,-0.6565078,0.5847171,0.3074441
0.875387,-0.137181,0.09195317,-0.1465069,0.03033304,0.0746201,-0.5396736,0.3884599,0.3914842
0.8848961,-0.2147688,0.08507443,-0.1372193,-0.04747673,0.06799453,-0.5571098,0.2829424,0.3919503
0.9129812,-0.1952201,0.09458125,-0.1093491,-0.02814452,0.07776475,-0.4627203,0.2775306,0.278661
0.9337302,-0.2245681,0.06516356,-0.08880213,-0.05770151,0.04861563,-0.4890862,0.3154153,0.1387049
0.9250918,-0.2206947,0.07874273,-0.09762453,-0.05402735,0.06246412,-0.553117,0.3155681,0.07060547
0.8980046,-0.1631849,0.1218289,-0.1248734,0.003295156,0.1058162,-0.3437561,0.164119,0.09129006
0.8608165,-0.1319423,0.1470887,-0.1621963,0.0343631,0.1313337,-0.1422183,-0.04450528,0.0957192
0.84338,-0.04359986,0.1499977,-0.1797347,0.122542,0.1344862,0.03462683,-0.1891195,0.07226033
0.848353,0.02370163,0.1077951,-0.1748245,0.1896864,0.09250678,0.08357259,-0.308497,0.07719787
0.8508179,0.05809646,0.09600921,-0.1723768,0.2239229,0.08091883,-0.05307007,-0.4157795,0.06911267
0.8766622,0.05174512,0.08958084,-0.1464986,0.2174022,0.07465983,-0.2126959,-0.3940513,0.07453388
0.9523972,-0.03836356,0.07356856,-0.07067457,0.1271039,0.05878592,-0.3899141,-0.3331425,0.07634055
1.052523,-0.1226219,0.06817608,0.02959594,0.04262922,0.05349925,-0.4152311,-0.3274947,0.006504391
1.126097,-0.181922,0.02840499,0.1033676,-0.01691599,0.01380074,-0.3325744,-0.2438793,-0.04423006
1.211546,-0.1507286,0.03703351,0.1890595,0.01400499,0.02246899,-0.2171193,-0.09030703,-4.045657e-05
1.324922,-0.09446937,0.06453871,0.302711,0.06996638,0.04998199,0.01982444,0.08666706,0.02850719
1.317105,-0.1015137,0.04389789,0.2951875,0.06259966,0.02931764,0.1377856,0.164778,-0.08541031
1.290334,-0.08924763,0.03956858,0.2687112,0.07451829,0.02493398,-0.01694325,0.09861671,-0.1387834
1.472452,-0.1247179,0.02096427,0.4511078,0.03867496,0.006245464,-0.1450692,0.1881264,0.1368856
1.615465,-0.2064322,0.01682701,0.594366,-0.04343752,0.00199575,-0.022054,0.5533194,0.4618268
1.492363,-0.4026104,0.03959658,0.4714508,-0.2400349,0.02462649,0.1184142,0.9777103,0.4167014
1.202135,-0.6955421,0.03767143,0.1813299,-0.5333954,0.02253773,0.2630201,1.00612,0.08833874
0.812516,-0.6770882,0.05850242,-0.2082694,-0.5153595,0.04318137,0.506423,0.5799776,-0.2653173
0.5247086,-0.462362,0.05689603,-0.4961391,-0.3010164,0.04136443,0.5072065,0.1606624,-0.5021502
0.4604217,-0.3876869,0.0288547,-0.5605477,-0.2266703,0.01308974,0.3746183,-0.2961232,-0.4418602
0.5565387,-0.33717,0.03394476,-0.4645823,-0.1764164,0.0179245,0.4363375,-0.6765124,-0.1440458
0.8640849,-0.3559902,0.01192259,-0.157191,-0.195427,-0.004373482,0.6957806,-0.5817313,0.07063122
1.186562,-0.4822862,-0.03610387,0.1651434,-0.3218346,-0.05269402,1.211331,-0.241569,0.004939279
1.233836,-0.5530933,-0.08483266,0.212287,-0.3926663,-0.1017314,1.644076,0.01999571,-0.2797453
1.061279,-0.5150777,-0.09804442,0.03960637,-0.3545771,-0.1152605,1.755098,-0.07781815,-0.4885239
0.89075,-0.3510451,-0.04862419,-0.1310464,-0.1903625,-0.06616007,1.841205,-0.3669878,-0.505623
0.8822078,-0.1600015,-0.03182812,-0.1397098,0.0009765527,-0.04968057,1.832255,-0.4137129,-0.3347088
0.9266594,-0.03254029,-0.03962085,-0.09537146,0.1288424,-0.0577827,1.62763,-0.4022918,-0.02034664
0.9469584,0.01287736,-0.03361884,-0.07517201,0.1747627,-0.05207974,1.376318,-0.304175,0.1831052
1.003528,-0.02485577,-0.04158231,-0.01868475,0.1376148,-0.06032901,1.148923,-0.1547757,0.2868826
1.014611,-0.03513112,-0.02834156,-0.007665379,0.127992,-0.04735814,1.108039,-0.1904354,0.3010785
1.005904,-0.06107072,-0.01835332,-0.01641776,0.1027587,-0.03762161,1.155429,-0.1337811,0.2192873
1.020238,-0.1047284,-0.02380841,-0.002110832,0.05984946,-0.04330856,1.136745,-0.05959956,0.1782341
1.012665,-0.08048722,-0.01525607,-0.009693208,0.08487155,-0.03496695,1.173235,-0.09063806,0.06798825
1.015599,-0.07167118,-0.01360044,-0.006752844,0.09449249,-0.03349988,1.186367,-0.03894356,0.02681631
1.013052,-0.04350389,-0.008104148,-0.009278031,0.12348,-0.02816929,1.195693,0.02942172,0.07358326
1.006186,-0.0242187,-0.0007610474,-0.0161073,0.1435917,-0.0209687,1.301207,0.06790302,0.005395359
1.001892,-0.06394983,0.003896793,-0.02034933,0.1046842,-0.01643019,1.343476,0.02170163,-0.01767083
0.982101,-0.05714618,-0.003618277,-0.04007532,0.1123003,-0.02404171,1.290652,-0.1085602,-0.02452282
0.9838387,-0.02024623,-0.03862168,-0.03825771,0.1499938,-0.05911876,1.129517,-0.2724962,-0.04562498
1.02887,0.04518202,-0.05296561,0.006868388,0.216189,-0.07351284,0.8237247,-0.3667843,-0.01670714
1.111973,0.0848941,-0.03775864,0.09007942,0.2566317,-0.05833095,0.5652245,-0.2388932,0.02469397
1.163851,0.03357668,-0.0139612,0.1420759,0.2059977,-0.03453214,0.5198685,-0.1680917,0.1054779
1.150399,-0.06107784,0.01149213,0.128746,0.1119699,-0.009050578,0.6012822,-0.263867,0.09207016
1.127456,-0.2011847,0.02502231,0.1059215,-0.02757214,0.004533858,0.7093797,-0.3213866,0.02590979
1.08867,-0.2572331,0.02487388,0.06724374,-0.08311698,0.004463944,0.8804468,-0.3785437,0.006141512
1.002032,-0.2076849,0.01285435,-0.01929835,-0.03312204,-0.007454832,0.9492132,-0.3969155,-0.06688529
0.890915,-0.2110768,0.01947603,-0.1303329,-0.03611826,-0.0007120478,0.8704716,-0.3719885,-0.1205711
0.8119163,-0.1926443,0.06118356,-0.209258,-0.01733649,0.04113501,0.8920916,-0.3997442,-0.149125
0.7992013,-0.1162352,0.1376742,-0.2218996,0.05937852,0.1177804,0.8754823,-0.4572618,-0.1788306
0.9195603,-0.06690137,0.2058971,-0.1014577,0.1089761,0.1861674,0.6504278,-0.4864964,-0.1269266
1.18781,-0.01996622,0.1886688,0.1668904,0.1561311,0.1691043,0.3045119,-0.2952646,-0.05294251
1.337863,-0.003581194,0.1349939,0.3170529,0.1726878,0.1155867,-0.04896028,0.1489881,0.001697179
1.237564,-0.04438584,0.1084202,0.2168639,0.1320019,0.08915526,-0.1644409,0.4514725,0.09914846
1.115607,-0.08607024,0.1139159,0.09500599,0.09037941,0.09477329,-0.1243403,0.4057516,0.206595
1.020949,-0.1154133,0.1364588,0.0004273112,0.06103944,0.1174145,-0.1305787,0.3349941,0.2293203
0.9109109,-0.1241441,0.127034,-0.1095519,0.05225313,0.1080602,-0.0638116,0.3711684,0.2128752
0.8700843,-0.117332,0.1290446,-0.1503366,0.05895233,0.1101096,0.02770847,0.2681513,0.2047535
0.8553087,-0.1151167,0.1457927,-0.16508,0.06099894,0.1268613,0.03991218,0.1300217,0.1556462
0.8997406,-0.1066251,0.1329761,-0.1206173,0.0692674,0.1140094,-0.02305109,0.1468109,0.1142406
1.018812,-0.09257914,0.1425953,-0.001509501,0.08303692,0.1235514,-0.14826,0.1882329,0.09752459
1.031208,-0.07459172,0.1497132,0.01092996,0.1006952,0.1305469,-0.2272029,0.2231667,0.07953085
0.9977991,-0.06735628,0.1421673,-0.02242691,0.1075489,0.1228309,-0.2083691,0.228879,0.09041245
0.9905814,-0.07118713,0.1548599,-0.02958496,0.1032834,0.1353028,-0.09234185,0.1534438,0.0926399
0.9379337,-0.0498592,0.1537643,-0.08216449,0.1241231,0.1339336,0.04766301,0.09477223,0.07141635
0.9306772,-0.002372504,0.1516929,-0.08934225,0.1710671,0.1315333,0.08319902,0.09115689,0.03355931
0.9526334,0.04755913,0.1468597,-0.06729386,0.2203992,0.1263143,-0.03210754,0.1010576,-0.03741357
0.9575322,0.06067764,0.1322525,-0.06228663,0.2328572,0.1112627,-0.2724326,0.07700579,-0.1095838
1.015917,0.01085377,0.1336167,-0.003775165,0.1823071,0.1121233,-0.4945891,0.06890506,-0.1584064
1.090168,-0.06964133,0.1304854,0.07061928,0.1010167,0.1084292,-0.5454066,0.1293717,-0.1631365
1.117029,-0.111776,0.1306168,0.09763846,0.05801733,0.1079385,-0.3898736,0.1590946,-0.1518099
1.075919,-0.05398619,0.1361774,0.05669597,0.1148757,0.1128182,-0.1604755,0.09762159,-0.1954692
1.028937,0.1022132,0.1328062,0.009885557,0.2700784,0.1087077,-0.0565297,-0.03317913,-0.2734056
1.04174,0.2954789,0.1333394,0.02286244,0.4622788,0.108444,-0.2574468,-0.09671762,-0.3096992
1.131691,0.354611,0.127472,0.1129869,0.5202669,0.1017225,-0.8143323,0.009478126,-0.2219827
1.337956,0.1141448,0.1142114,0.3194192,0.2785638,0.08755207,-1.341319,0.19663,0.01108325
1.457791,-0.2862352,0.09669031,0.4394038,-0.1231531,0.069067,-1.380267,0.3791125,0.222144
1.233544,-0.5598434,0.06588912,0.2152743,-0.3981913,0.03725038,-0.8491085,0.4348699,0.2015008
0.8560357,-0.5912143,0.03385478,-0.162162,-0.4310634,0.004153013,-0.1472126,0.289454,-0.004345675
0.7022424,-0.4511394,0.02479023,-0.3159266,-0.292533,-0.006017012,0.1304179,-0.001502248,-0.1785103
0.8280764,-0.1836408,0.03352007,-0.1900953,-0.02659798,0.001570821,-0.02884775,-0.2812504,-0.2204482
0.9939127,0.1375021,0.02602498,-0.02427971,0.2929749,-0.007096944,-0.4434359,-0.3024605,-0.1102146
1.092135,0.1319876,0.007791985,0.07391056,0.2858836,-0.02652752,-1.095642,-0.2064669,0.1014311
1.154874,-0.1198827,-0.01804046,0.1366074,0.03242326,-0.05357638,-1.489648,-0.1909165,0.2320217
1.068161,-0.1473951,-0.052862,0.04983808,0.00330496,-0.08962629,-1.294438,-0.02221654,0.1651763
0.9345457,-0.1657005,-0.04579379,-0.08385015,-0.01661914,-0.0837907,-1.060481,0.1056329,0.03515619
0.927457,-0.1976563,-0.01600942,-0.09102648,-0.05020072,-0.05523545,-1.006433,-0.07247436,0.0434734
0.809206,-0.0868676,-0.004821377,-0.2093739,0.05896089,-0.04526635,-0.8964186,-0.1579734,0.1145525
0.6894948,-0.09749697,0.02053126,-0.3291812,0.04670741,-0.02111727,-0.9761316,-0.09985696,0.1674609
0.8327471,-0.08154703,0.03088714,-0.1860122,0.06103833,-0.01194566,-1.048883,-0.1114596,0.2177259
0.9480451,-0.05165901,0.0127574,-0.07077343,0.08931341,-0.0312374,-0.8802116,-0.09712194,0.1534657
0.9921387,-0.08151681,0.005102516,-0.02670942,0.05784916,-0.04002924,-0.807257,-0.07626988,0.1013949
1.050059,0.03717709,-0.02517266,0.03121218,0.1749426,-0.07141309,-0.7295177,-0.04894708,0.1395316
1.003901,0.1046125,-0.06112052,-0.01491655,0.2407809,-0.1084373,-0.8311024,0.002434875,0.1496068
0.9893229,0.1193616,-0.07187676,-0.02943864,0.2539305,-0.1202325,-1.093642,0.02621444,0.1859571
1.014963,0.07850187,-0.08387892,-0.003716719,0.211461,-0.1332303,-1.024634,0.06475202,0.1524788
1.014532,-0.0697773,-0.07560627,-0.004043248,0.06155615,-0.125904,-0.8653639,0.1254433,0.04288262
1.055672,-0.1237702,-0.06922326,0.03722471,0.005920371,-0.1204125,-0.6291141,0.1158503,-0.04964696
1.069672,-0.1405288,-0.09026873,0.05137078,-0.01249521,-0.1422896,-0.3788602,-0.131628,-0.1868206
1.077093,0.007955525,-0.08737251,0.05895349,0.1343224,-0.1401603,-0.4625696,-0.4388014,-0.2131558
1.181316,0.2181891,-0.04231612,0.1633475,0.3428803,-0.09580204,-0.7545015,-0.4200592,-0.04050924
1.361211,0.1386219,0.001172502,0.3434163,0.2616228,-0.05293991,-1.117585,-0.2436434,0.1535005
1.450518,-0.08128275,-0.03700999,0.4328866,0.0400061,-0.09167639,-1.112146,-0.1972088,0.1785784
1.323495,-0.3356311,-0.125836,0.3059965,-0.2160765,-0.1809831,-0.7298311,-0.1899176,0.0993026
1.14458,-0.4707312,-0.1637657,0.1271703,-0.3529225,-0.219317,-0.515941,-0.1615878,0.09931978
1.008357,-0.4407468,-0.1509709,-0.009016947,-0.3246774,-0.2068449,-0.5048145,-0.08366876,0.03799423
0.8757666,-0.4858781,-0.08879301,-0.1416235,-0.3715202,-0.1449028,-0.7964863,-0.0289642,-0.1359419
0.8813436,-0.4958914,-0.03270891,-0.1361087,-0.3831961,-0.08896441,-1.055491,-0.3010039,-0.3040453
1.04495,-0.4187096,-0.05819871,0.02739907,-0.3076084,-0.1145094,-0.7355889,-0.5560558,-0.3526724
1.208161,-0.3651649,-0.09074166,0.1904783,-0.2555727,-0.1470177,-0.2841559,-0.181417,-0.169377
1.242512,-0.2534742,-0.09073967,0.2246641,-0.1452934,-0.1468912,-0.09722103,0.3630859,0.006955891
1.128354,-0.1365354,-0.07935043,0.110301,-0.02966167,-0.1352871,-0.1466678,0.578345,0.07659492
1.012309,-0.08716639,-0.04034717,-0.005993614,0.01850536,-0.09597882,-0.4108842,0.7703867,0.1283551
0.9116396,-0.05089184,0.006492336,-0.1069564,0.05367956,-0.04874577,-0.7770152,0.9642378,0.1060845
0.7873658,-0.06362448,0.04936278,-0.2315598,0.03994238,-0.005397028,-1.089756,0.9296515,0.1350392
0.7415884,-0.09247549,0.08117863,-0.277691,0.01017641,0.02697588,-1.106146,0.7270697,0.1984832
0.7474523,-0.1045939,0.07838898,-0.2721905,-0.002772665,0.02481456,-0.97461,0.3829531,0.2401194
0.7949707,-0.1385551,0.07239074,-0.2250295,-0.03748424,0.0195079,-0.9657673,0.07793072,0.2888352
0.8749364,-0.1339149,0.07982392,-0.1454025,-0.03351698,0.02768825,-0.8871707,0.08206792,0.2478042
0.8693461,-0.1314021,0.07838417,-0.1513032,-0.03160184,0.0270439,-0.7649022,0.1215531,0.2175471
0.8432518,-0.1383642,0.0878728,-0.1776725,-0.03908849,0.03736908,-0.6431853,-0.005669439,0.1882835
0.8333744,-0.08150009,0.1221424,-0.1877827,0.01732195,0.07250916,-0.340511,-0.1192389,0.1312393
0.7970558,-0.04935283,0.1541837,-0.2242851,0.04908268,0.1054472,-0.07806898,-0.3036992,0.1288902
0.8116073,-0.0606867,0.1542018,-0.2098607,0.03742437,0.1063793,-0.05122428,-0.5008343,0.04818186
0.89232,-0.0709644,0.1235833,-0.1292119,0.02687874,0.07668346,-0.1697901,-0.4718037,-0.02022231
1.053397,-0.1077203,0.06573511,0.03186811,-0.01009341,0.01975893,-0.3513902,-0.3275148,0.03010567
1.275828,-0.2236606,-0.01927168,0.2543653,-0.1262012,-0.06432781,-0.4214563,-0.08808279,0.1106447
1.357453,-0.3437994,-0.02779775,0.3361078,-0.246458,-0.07193892,-0.2728038,0.2228588,0.1727544
1.277548,-0.262631,0.05180071,0.2563553,-0.1653525,0.00856973,0.08000503,0.416055,0.04183965
1.224019,-0.0533324,0.09286425,0.2029958,0.04394242,0.05053785,0.3696681,0.5637851,-0.235964
1.195276,0.07763686,0.116187,0.1744248,0.1749661,0.07475634,0.09620274,0.5975589,-0.2694254
1.218253,0.06617733,0.1110367,0.1975664,0.1636103,0.07048823,-0.466193,0.4463744,0.2079691
1.400329,-0.0457474,0.05989673,0.3797893,0.05182763,0.02021219,-0.6718861,0.4413089,0.7423288
1.501091,-0.2478223,0.05047223,0.4806641,-0.1500743,0.01162997,-0.607631,0.6694842,0.5423321
1.21149,-0.6366172,0.04027365,0.191126,-0.5386639,0.002250223,-0.3437174,0.7385678,-0.1453462
0.7058996,-0.801567,0.02943395,-0.314462,-0.7033612,-0.007794977,-0.008664071,0.1614633,-0.580516
0.527585,-0.5196999,0.03392602,-0.4928271,-0.4211709,-0.002533097,0.1556939,-0.555136,-0.5410249
0.8120008,-0.3797222,0.003448631,-0.2084953,-0.2807784,-0.03226529,0.3607548,-0.4407098,-0.1285792
1.068325,-0.3832843,-0.01062926,0.04772928,-0.2838219,-0.04562185,0.4349543,-0.2140761,0.2719607
1.076134,-0.3504704,-0.001699588,0.0554307,-0.2503791,-0.03599317,0.4251354,-0.4162846,0.448075
1.01765,-0.4068035,0.003108484,-0.003169579,-0.3059687,-0.03050673,0.5579548,-0.3181534,0.1638253
0.9188873,-0.3280179,-0.03335308,-0.1020557,-0.2263213,-0.06630893,0.5235389,-0.286912,-0.4942576
0.7910578,-0.2133504,-0.09919076,-0.2300125,-0.1106722,-0.1315037,0.4959728,-0.4851234,-0.6655726
0.7542391,-0.1415411,-0.1034586,-0.2669533,-0.03776379,-0.1351408,0.3985525,-0.4614013,-0.4659964
0.8144567,-0.05037019,-0.09369428,-0.2068412,0.05461584,-0.1247523,0.2192037,-0.4692757,-0.2373509
0.9006049,-0.1303719,-0.08944877,-0.1207712,-0.02407811,-0.1198837,0.3571185,-0.2050946,0.1425903
0.9866331,-0.1732488,-0.04829308,-0.03478759,-0.06555887,-0.07810168,0.4503147,0.1621718,0.1308833
0.9707262,-0.1349038,-0.004473059,-0.05070287,-0.02573809,-0.03364909,0.5030029,0.02862908,-0.04952059
0.8765724,-0.1408152,0.01638923,-0.1448284,-0.03010183,-0.01214717,0.5741223,-0.03483079,0.01921197
0.8865078,-0.04339165,0.01540411,-0.1348256,0.06893295,-0.01248639,0.4607155,0.02524478,0.06227107
0.9239593,0.05818357,0.005830372,-0.09726437,0.1721722,-0.02140936,0.4043699,-0.07325294,0.1589602
0.9504551,0.0833427,-0.03407838,-0.07061409,0.199034,-0.06066348,0.2932188,0.01139773,0.1596443
1.007122,0.05662144,-0.04573501,-0.0137472,0.1740379,-0.07166156,0.1826122,0.1926233,0.01723618
1.002666,0.007304203,0.0101317,-0.01795958,0.1264527,-0.01513167,0.233472,0.1978417,-0.08632206
1.009688,-0.02739034,0.03159494,-0.01065242,0.09348421,0.00699926,0.2555848,0.007444966,-0.2181573
1.018796,-0.05355848,0.02532003,-0.0012213,0.069026,0.001394998,0.2550941,-0.2923753,-0.2538267
1.012422,0.06006038,0.02710737,-0.007238144,0.18433,0.003853794,0.1393537,-0.4866267,-0.1685189
1.120044,0.1675021,0.04987154,0.100773,0.2934219,0.02728803,-0.1842053,-0.5304379,0.009104724
1.276075,0.03046619,0.06963873,0.2572162,0.1579884,0.04772123,-0.5332933,-0.5996895,0.181949
1.360317,-0.2218733,-0.009016203,0.3418837,-0.09280662,-0.03027456,-0.6163452,-0.6334943,0.1252199
1.287362,-0.4737742,-0.1122499,0.26935,-0.3432218,-0.1328569,-0.4515117,-0.5532503,-0.003667957
1.18102,-0.6149002,-0.1360911,0.1634091,-0.4829104,-0.156052,-0.3945008,-0.5003802,-0.1104868
1.182255,-0.5831165,-0.106915,0.1650158,-0.4497184,-0.1262297,-0.4274669,-0.4191542,-0.3736838
1.169781,-0.5252542,-0.08171978,0.1528734,-0.3904559,-0.1003832,-0.3578117,-0.2992117,-0.6288365
1.230483,-0.4565507,-0.07559657,0.2138636,-0.3203419,-0.09359953,-0.1547921,-0.1806079,-0.5642614
1.310647,-0.3010107,-0.06703498,0.2942622,-0.1633682,-0.0843658,0.1508663,0.0947612,-0.2363185
1.194703,-0.1403742,-0.07425248,0.1784912,-0.001268544,-0.09089748,0.2315158,0.4863399,0.09010871
1.058264,-0.0555939,-0.05825629,0.04215632,0.085003,-0.07420017,-0.1516107,0.6841802,0.1645149
0.9919625,-0.0647798,-0.01411194,-0.02411017,0.07732927,-0.02933851,-0.6327484,0.6389034,0.02742176
0.9257923,-0.147725,0.01128245,-0.09031111,-0.004091632,-0.003211143,-0.7963545,0.6941681,-0.0186608
0.854082,-0.2068627,0.04284574,-0.16211,-0.06169958,0.02909857,-0.7105907,0.7683454,-0.008939013
0.761074,-0.2071485,0.05967691,-0.2552532,-0.0604535,0.04668597,-0.5726877,0.6989192,0.02176848
0.6956762,-0.1718484,0.07717784,-0.3208185,-0.0236212,0.06494829,-0.4019536,0.5970744,0.1839549
0.6925595,-0.1410673,0.1006694,-0.3241177,0.008690131,0.08920105,-0.2655778,0.2779484,0.23114
0.7397015,-0.148516,0.09194121,-0.2771559,0.0027662,0.08122789,-0.2763778,0.01584756,0.1627341
0.7857603,-0.1489345,0.0826612,-0.2312594,0.003863336,0.07269104,-0.2878512,-0.002566061,0.1769855
0.8132799,-0.1510225,0.0594098,-0.2038717,0.003278036,0.05016584,-0.195396,-0.07959321,0.1708992
0.8383015,-0.1494639,0.05791101,-0.1789422,0.006323037,0.04937231,-0.09769718,-0.09540618,0.1601012
0.8128094,-0.1059792,0.1107843,-0.204479,0.05127447,0.1029265,0.05524402,-0.1874979,0.1548337
0.7931275,-0.06006751,0.1423819,-0.2241513,0.09862873,0.1351763,0.1667509,-0.3901136,0.09370442
0.8621165,-0.01288333,0.1296465,-0.155092,0.1472254,0.1230591,0.10767,-0.4557363,-0.02337346
0.9676178,0.02323101,0.08343682,-0.04945516,0.184714,0.07742803,-0.04513702,-0.4648925,-0.1909621
1.082218,-0.02749763,0.03148536,0.06534555,0.1353126,0.02601218,-0.3435717,-0.3164835,-0.2054047
1.243333,-0.1766614,0.001174078,0.2267196,-0.01257819,-0.003807702,-0.5379394,-0.06133136,0.004187471
1.384738,-0.2636041,0.02368678,0.368431,-0.09830477,0.01915302,-0.3338989,0.1381284,0.2251389
1.370895,-0.1707478,0.08658129,0.3549211,-0.004287096,0.08245309,0.07480393,0.2864422,0.2434646
1.274223,-0.03582261,0.1051409,0.2585909,0.1317468,0.1013751,0.3924599,0.3446699,0.01716982
1.287756,0.009628731,0.09729196,0.2724558,0.178252,0.09384348,0.2505172,0.3139154,-0.08937683
1.485959,-0.1068066,0.06823007,0.470965,0.06281034,0.06505128,-0.06644286,0.2857269,0.2047152
1.700605,-0.3738074,-0.0173104,0.6858719,-0.2032596,-0.02026793,-0.009598477,0.6194296,0.4804618
1.58232,-0.5407893,-0.08917182,0.5677777,-0.3693673,-0.09195449,0.04583749,1.056459,0.2756223
1.136088,-0.478205,-0.06397632,0.1216423,-0.3059512,-0.06662545,0.16052,0.9007975,-0.1184594
0.6358883,-0.4193876,0.02581132,-0.3785626,-0.2463277,0.02326008,0.4134753,0.2849114,-0.3399821
0.4096487,-0.4567961,0.04714639,-0.6048976,-0.2829411,0.04466087,0.2941788,-0.364343,-0.4043915
0.7553578,-0.3810751,0.01518789,-0.259347,-0.2064238,0.0127371,0.2003023,-0.5486951,-0.2743228
1.145919,-0.2926219,0.0008170638,0.1310159,-0.1171638,-0.00162909,0.1638604,-0.3281941,-0.1044764
1.133658,-0.3520717,-0.006760458,0.1185252,-0.1757898,-0.009230322,0.1304604,-0.3758311,0.00482876
1.081114,-0.384076,-0.01082195,0.06572159,-0.2069485,-0.01334154,0.5289243,-0.3917634,0.005179553
0.9775354,-0.3822201,-0.05317049,-0.03815082,-0.2042198,-0.05576299,0.7703404,-0.2112681,-0.2438199
0.8449123,-0.3361215,-0.05974352,-0.1710968,-0.1572152,-0.06242843,0.8261547,-0.2795009,-0.3729924
0.7941516,-0.1831606,-0.02783245,-0.222202,-0.003311737,-0.03062504,0.9097553,-0.3728809,-0.3102079
0.6982875,-0.09135483,-0.03996159,-0.3184198,0.08947172,-0.04287326,0.8336353,-0.4729462,-0.1500299
0.7579851,-0.06564876,-0.02115105,-0.2590701,0.116184,-0.0241901,0.8886903,-0.5624293,0.1826219
0.8961384,-0.04454873,-0.0258564,-0.1212451,0.1383091,-0.02902848,0.775101,-0.2631811,0.239851
0.9877943,-0.03239086,-0.04745686,-0.02988877,0.1515003,-0.0507652,0.563816,0.1195882,0.1381587
1.026667,0.01276144,-0.01291747,0.008716713,0.197683,-0.0163629,0.4274079,0.2237462,0.1640991
0.9134564,0.04382606,0.0001496987,-0.1047294,0.2297634,-0.00343171,0.1163269,0.1161129,0.1314424
0.9204575,0.05807857,0.01361329,-0.09793039,0.2450045,0.009897961,8.019335e-05,0.02602002,0.2093231
0.9896143,0.05426164,0.008348718,-0.02894018,0.2421363,0.004501694,-0.01078656,0.09023076,0.3545092
1.00473,0.01587349,-0.02296546,-0.01395394,0.204645,-0.02694183,0.007141236,0.1490734,0.39044
1.065997,-0.005107669,-0.02385377,0.04721793,0.1844988,-0.02795642,0.144385,0.254985,0.3082787
1.038053,-0.04782829,-0.02051867,0.01921201,0.1425433,-0.02474321,0.2993674,0.3052302,0.1534479
1.04236,-0.1154741,0.01864648,0.0234861,0.07558763,0.01430556,0.5463832,0.1062827,0.04641953
1.044919,-0.1299624,0.05557014,0.02603705,0.0617124,0.05111831,0.5218377,-0.1329222,-0.09257713
1.001497,-0.04487567,0.0482615,-0.01736859,0.1473343,0.04370277,0.2825914,-0.4222342,-0.1334686
1.088817,0.06700141,0.07549408,0.06998699,0.2596668,0.07083005,0.00336398,-0.7119732,0.04155831
1.201476,0.02063283,0.1025826,0.182698,0.2136687,0.09781192,-0.4263328,-0.8253394,0.1564063
1.315535,-0.1434417,0.0204712,0.2968174,0.04987448,0.01558916,-0.6131086,-0.827234,0.01781701
1.313531,-0.3350747,-0.1269805,0.2948707,-0.1415685,-0.1319797,-0.4984795,-0.7187963,-0.1691203
1.22955,-0.5293075,-0.2017435,0.2109287,-0.335693,-0.206862,-0.3956335,-0.4196501,-0.1623702
1.237971,-0.5523902,-0.2071729,0.2193587,-0.3587323,-0.2124044,-0.4747494,0.0742598,-0.2529238
1.113469,-0.5069052,-0.1566344,0.09482744,-0.3132476,-0.1619628,-0.4746899,0.2763675,-0.4454064
1.034611,-0.5182354,-0.05989946,0.01589613,-0.3246016,-0.06530067,-0.1404978,0.07488982,-0.3593933
1.137602,-0.4238118,-0.04590401,0.1187702,-0.2302072,-0.0513493,0.21072,0.1237979,-0.1523691
1.125858,-0.2896422,-0.06198385,0.1068658,-0.09605854,-0.06744272,0.3542004,0.2670746,-0.009157741
1.073456,-0.1896956,-0.03896533,0.05425664,0.003883388,-0.04440646,0.1084023,0.3022696,0.005431298
1.032937,-0.1306788,-0.03925768,0.01348495,0.06291337,-0.04464929,-0.2433831,0.5251331,-0.09520919
0.9873753,-0.1617924,-0.007273546,-0.03237344,0.03182868,-0.01258407,-0.3452501,0.7047002,-0.08629753
0.9474474,-0.1596039,0.03667495,-0.0726367,0.03405845,0.03147578,-0.4654804,0.7945471,-0.046835
0.8227765,-0.1363406,0.05080448,-0.1976751,0.05737236,0.04574404,-0.4535748,0.8184319,-0.007813862
0.7269945,-0.1438768,0.07603619,-0.293846,0.04989298,0.07113763,-0.357027,0.6476489,0.1109097
0.6895981,-0.1321406,0.08363218,-0.331638,0.06168898,0.07891352,-0.3462037,0.4542054,0.1347487
0.697187,-0.1362012,0.08804099,-0.3244343,0.05768773,0.08351475,-0.2434234,0.1580003,0.1144283
0.7745438,-0.1249531,0.09333523,-0.247436,0.06899155,0.08900829,-0.2314916,-0.1728792,0.1314415
0.7935794,-0.09790169,0.09569191,-0.2287182,0.09609183,0.09156568,-0.1780129,-0.2143849,0.1159651
0.7970918,-0.08396586,0.1124821,-0.2254724,0.1100657,0.1085526,-0.04290624,-0.2038389,0.153618
0.8458954,-0.05708639,0.1047998,-0.1768757,0.1369676,0.1010577,-0.01330387,-0.3470714,0.1853287
0.8903594,-0.03406106,0.1183312,-0.1325523,0.1599946,0.114762,0.03513123,-0.3404437,0.1019329
0.9448122,-0.009562008,0.1346981,-0.07817049,0.1844683,0.131282,-0.04882265,-0.2553994,-0.04127752
1.005216,-0.02251031,0.07881875,-0.0177679,0.1714611,0.07553117,-0.2838545,-0.3051737,-0.2114473
1.101442,-0.1046444,0.0320182,0.0785243,0.08922851,0.02883109,-0.5598082,-0.1928204,-0.2751767
1.23204,-0.2143457,0.02949069,0.2092488,-0.0206138,0.0263747,-0.6499674,-0.0482587,-0.05920688
1.34251,-0.2734784,0.05386321,0.3198937,-0.07992842,0.05078903,-0.2146072,-0.04086431,0.2612324
1.393984,-0.2006852,0.07688866,0.3715727,-0.007353076,0.07382685,0.3228785,0.1352149,0.3274153
1.440865,-0.1458714,0.05660422,0.4186698,0.04721149,0.05352451,0.4639319,0.2927653,0.2615953
1.647126,-0.2262263,0.03508564,0.6251349,-0.03342111,0.03195701,0.2742206,0.4163249,0.3731941
1.759193,-0.3547372,0.01794603,0.737366,-0.1622343,0.01473762,0.01988964,0.9623026,0.4718802
1.27947,-0.5407028,0.02629008,0.25774,-0.3485187,0.0229721,-0.1271416,1.591299,0.2962103
0.5356145,-0.6334161,0.08514396,-0.4861016,-0.4415522,0.0816876,-0.1260205,1.3165,-0.1535207
0.3162361,-0.4986392,0.1146034,-0.7055389,-0.3070774,0.1109795,0.1515755,0.2229503,-0.5409287
0.4925341,-0.383984,0.08465851,-0.5293424,-0.192689,0.0808361,0.4535711,-0.7771378,-0.4213787
0.5644492,-0.3713468,0.03106723,-0.457538,-0.1802713,0.02701369,0.4775621,-1.16604,-0.1445084
0.8590627,-0.3421974,-0.02850883,-0.1630188,-0.1512868,-0.03282569,0.3816212,-0.6096792,-0.05136431
1.34237,-0.3191818,-0.09463512,0.3202228,-0.1283765,-0.09924422,0.2687827,-0.03435755,0.1760236
1.256978,-0.3195251,-0.0940095,0.2347906,-0.1287621,-0.09893381,0.238258,-0.08663898,0.1993152
0.8988249,-0.3244449,-0.02839679,-0.1233873,-0.133659,-0.03365252,0.3295339,0.03656203,-0.1891376
0.8146691,-0.3018491,-0.03115326,-0.2075576,-0.1109731,-0.03675106,0.47146,-0.1542205,-0.4567846
0.7301362,-0.2550586,-0.03222501,-0.2920882,-0.06402442,-0.03817159,0.5805306,-0.5745853,-0.5399764
0.7663272,-0.1906049,-0.01605584,-0.255867,0.000654251,-0.02235465,0.5634004,-0.5164665,-0.3174415
0.9454874,-0.07696615,-0.05880538,-0.07663843,0.1145806,-0.06545682,0.4777774,-0.438051,0.05143405
0.9954972,-0.03891606,-0.06152301,-0.02651675,0.1529727,-0.06852412,0.3038813,-0.08984374,0.1067125
1.047384,-0.08912589,-0.04962819,0.02552609,0.1031486,-0.05697213,0.1789115,0.25913,0.1429796
0.9474345,-0.07108374,-0.01179574,-0.07422729,0.1216095,-0.01947228,0.2215181,0.2170266,0.1452585
0.8179375,-0.05808555,0.06254228,-0.2034878,0.1350498,0.05454514,0.2178608,0.1549287,0.09389109
0.8866732,-0.07509178,0.04338904,-0.134473,0.1184995,0.03508273,0.1937869,-0.001120099,0.1940381
0.9022246,-0.04240275,0.01089357,-0.1185962,0.1516496,0.00228794,0.2009746,0.001990785,0.2229821
0.9797124,-0.02836587,-0.007157346,-0.04073428,0.1661437,-0.01605333,0.2361066,0.08897551,0.2563233
1.021246,-0.04448252,-0.0317613,0.001221176,0.1504717,-0.04093821,0.3786596,0.1487799,0.1829136
0.9564702,-0.08717081,0.02115641,-0.06308696,0.1082072,0.0117091,0.5405918,0.2411153,-0.01182781
1.003845,-0.1411638,0.06568315,-0.01520232,0.05461124,0.05597625,0.6463081,0.02730052,-0.0446987
0.9840168,-0.1000976,0.04591934,-0.03448134,0.09604379,0.03596229,0.6095409,-0.2509868,-0.09918096
0.9838148,0.02475937,0.04313824,-0.03409723,0.2212326,0.03293842,0.2884346,-0.5119702,-0.08804284
1.072734,0.1353289,0.07994957,0.05544196,0.3320924,0.06951235,-0.2805238,-0.7439638,0.02741295
1.206619,0.1081652,0.08431822,0.1899739,0.3051663,0.07364655,-0.6081856,-0.7856451,0.0447812
1.414722,-0.1212317,-0.001466314,0.3987424,0.07594329,-0.01237198,-0.3715618,-0.7477967,0.003895771
1.429207,-0.4073858,-0.1183166,0.4138914,-0.2101047,-0.129456,-0.03969368,-0.5314167,-0.1037733
1.33018,-0.5514595,-0.1692068,0.3155074,-0.3541323,-0.1805756,0.06012755,-0.2197507,-0.2109351
1.209753,-0.5109278,-0.1402471,0.1956847,-0.3135982,-0.1518336,-0.2083361,0.05238256,-0.3964938
0.9808156,-0.4628992,-0.08929886,-0.03269962,-0.2655914,-0.1010837,-0.6176786,-0.03373263,-0.5842753
0.9382228,-0.4776612,-0.03117675,-0.0747921,-0.2803824,-0.04313503,-0.3634416,-0.330572,-0.4885496
1.147086,-0.4346407,-0.02103277,0.1345209,-0.2373835,-0.03313704,0.09481478,-0.138103,-0.3125216
1.293607,-0.3847284,-0.06384653,0.2814405,-0.1874728,-0.07606826,0.1374159,0.1815149,-0.1292216
1.233279,-0.3033183,-0.04639382,0.2214539,-0.106035,-0.05870347,0.1783729,0.5001944,0.02573216
1.099631,-0.1423659,-0.02540451,0.08808222,0.05497898,-0.03777137,-0.06229549,0.7938424,-0.04204516
0.997208,-0.09175531,-0.01710105,-0.01413346,0.1056839,-0.02949395,-0.42923,0.7133877,-0.07830276
0.8957196,-0.1459028,0.02601057,-0.1154813,0.05165822,0.01362221,-0.4079611,0.797031,-0.04524762
0.7941724,-0.1645818,0.04729695,-0.2169469,0.03312241,0.03494181,-0.3786747,0.7871893,-0.03982367
0.6925051,-0.1320285,0.08878241,-0.3185787,0.06583568,0.07648574,-0.317124,0.4567476,0.1206451
0.663373,-0.09852734,0.1083776,-0.347705,0.09950896,0.09615976,-0.2159511,0.2420445,0.2869651
0.7104197,-0.09724794,0.08915822,-0.3006637,0.1009673,0.07703393,-0.1972972,-0.09426206,0.3174797
0.7430451,-0.08623966,0.109406,-0.2680379,0.1121553,0.09738409,-0.1927653,-0.1755398,0.2696148
0.8095243,-0.09124867,0.1027558,-0.2015382,0.1073208,0.09083954,-0.2697419,-0.07770171,0.196473
0.8734635,-0.09448134,0.1077469,-0.1375481,0.1042517,0.09593433,-0.1703366,-0.2270127,0.2028695
0.880619,-0.06889346,0.1458899,-0.1303044,0.129987,0.1341739,-0.0006086659,-0.1892599,0.1686943
0.8836771,-0.06254667,0.1484282,-0.1271166,0.1364596,0.1367958,0.06482307,-0.2248745,0.0617376
0.8796082,-0.03401662,0.1489424,-0.1310107,0.1650882,0.1373749,0.05955388,-0.3571544,-0.05543159
0.9159066,-0.01049294,0.1276739,-0.09449005,0.1886771,0.1161464,-0.1551965,-0.3573803,-0.239728
1.021754,-0.04290927,0.0786198,0.01162808,0.1562861,0.06710323,-0.3474199,-0.354767,-0.2610213
1.192647,-0.137189,0.04044201,0.1828377,0.06198643,0.02890466,-0.4275648,-0.05539144,-0.01142498
1.371794,-0.2497673,0.05638039,0.3623375,-0.05065884,0.04479,-0.1994263,0.2416033,0.1646841
1.380605,-0.235745,0.1125828,0.3715201,-0.03674783,0.1009071,0.3257845,0.2767094,0.04440309
1.278179,-0.1553113,0.1068964,0.2694664,0.04353474,0.09510204,0.4685624,0.3427418,-0.01118383
1.308404,-0.1499122,0.06298352,0.3000453,0.04874602,0.0510356,0.25038,0.3554406,0.3912564
1.58769,-0.2220306,-0.004980966,0.5796507,-0.02359505,-0.01711789,-0.01214432,0.4837198,0.7767423
1.786531,-0.3833814,-0.06487317,0.7787538,-0.1851998,-0.07723217,-0.126012,1.182038,0.6084431
1.279893,-0.5916661,-0.02165903,0.2722956,-0.3937605,-0.03426845,-0.006239106,1.800554,0.05320996
0.5671451,-0.7041667,0.03159044,-0.4403726,-0.5065423,0.01870714,0.1490915,0.9113243,-0.486852
0.6023903,-0.5625588,0.04807972,-0.4051386,-0.3651985,0.03490211,0.3859,-0.588252,-0.5467507
0.8493551,-0.2817728,0.0178215,-0.158254,-0.08464018,0.004330599,0.4330748,-0.7735352,-0.2207772
0.8771086,-0.1789891,-0.07012384,-0.13063,0.0179622,-0.08394512,0.1494122,-0.4497463,0.01430556
1.099524,-0.2344352,-0.07863845,0.09161866,-0.03761791,-0.09280314,0.0094105,-0.4402254,0.3022961
1.183323,-0.3056406,-0.05626395,0.1752165,-0.1089114,-0.07077933,0.1275508,-0.2366835,0.4756873
1.018867,-0.3688287,-0.0746823,0.01052444,-0.172141,-0.08954988,0.2862829,-0.0805543,0.08433234
0.9676223,-0.3443441,-0.05819719,-0.04099189,-0.1476479,-0.07341325,0.3970931,-0.09612649,-0.3619035
0.8653472,-0.2660595,-0.04975044,-0.143571,-0.06930111,-0.06530652,0.5571601,-0.1103073,-0.4422709
0.7893881,-0.1791845,-0.04499346,-0.2198582,0.01769093,-0.06087714,0.5728859,-0.1655155,-0.2892593
0.8263963,-0.08182416,-0.02284382,-0.1831909,0.11522,-0.03903951,0.4421177,-0.2097843,-0.03404984
0.8440402,-0.04472364,-0.0288488,-0.1658893,0.1525336,-0.04533855,0.505041,-0.1915624,0.09391846
0.9365852,-0.02929128,-0.02788571,-0.07367825,0.1682133,-0.04464975,0.4217304,-0.0494443,0.1587333
0.9728351,-0.01849686,-0.007147452,-0.03774743,0.1792779,-0.02416454,0.2322495,0.09892917,0.1963426
0.9138161,-0.03889729,0.01539852,-0.09706711,0.1591595,-0.001849595,0.2212473,0.1672606,0.1399307
0.8828494,-0.03602319,0.0265051,-0.1283127,0.1623171,0.009047749,0.1212561,0.1639881,0.1365757
0.8325381,-0.02737915,0.01521737,-0.1788761,0.1712368,-0.002428407,0.1243789,0.0663422,0.1298609
0.8337057,-0.02892012,-0.002244383,-0.1779273,0.1699548,-0.02005875,0.2133368,-0.0354526,0.1642676
0.9163321,-0.04101075,-0.0241001,-0.09547995,0.1580983,-0.04206356,0.2906309,-0.09348831,0.2213758
1.035345,-0.09212868,-0.02489957,0.02339768,0.1071827,-0.04299214,0.5446257,-0.003095731,0.1221322
1.114594,-0.1239699,-0.01034747,0.1025537,0.07550704,-0.02854829,0.6658896,0.1034364,-0.06408835
1.079641,-0.06075121,-0.006970379,0.06754605,0.1388512,-0.02525801,0.6037928,0.03530994,-0.3002731
1.059921,0.09064685,0.02922787,0.04780264,0.2903307,0.01087481,0.3410835,-0.0748479,-0.3739582
1.101677,0.1900723,0.08772833,0.08956028,0.389785,0.06932987,-0.1731051,-0.3389452,-0.1645466
1.180915,0.07365706,0.1003998,0.1688201,0.2733341,0.08197276,-0.3800828,-0.6859584,0.04973977
1.29138,-0.1762671,0.01286029,0.2793171,0.02329966,-0.005582754,-0.2066661,-0.7888314,0.1357791
1.281821,-0.3462555,-0.1462346,0.2697893,-0.1468752,-0.1646827,-0.1534444,-0.7355126,0.1130481
1.207124,-0.3905447,-0.2094884,0.1951103,-0.1914193,-0.2279271,-0.3155634,-0.6235257,0.05740745
1.221872,-0.4236291,-0.1558599,0.2098508,-0.2248134,-0.1742671,-0.5539499,-0.2799507,-0.08767771
1.217231,-0.5496126,-0.1134616,0.2051679,-0.3511454,-0.1318073,-0.8220733,0.2308162,-0.417942
1.197531,-0.6790755,-0.06076988,0.1853849,-0.480976,-0.07901847,-0.7556598,0.3796834,-0.68147
1.204096,-0.6530892,-0.006060831,0.1918173,-0.4553541,-0.02417411,-0.1636882,0.2015677,-0.6558449
1.121255,-0.4902031,-0.02346727,0.1087892,-0.2928061,-0.04140712,0.4367788,0.1961977,-0.4277463
1.032344,-0.2982818,-0.03848961,0.01963429,-0.1011789,-0.05621901,0.6510052,0.1627935,-0.2225893
1.030612,-0.1895144,-0.02359576,0.01760268,0.007346102,-0.04107866,0.3728067,0.1206842,-0.1513645
1.042905,-0.1509349,-0.02608447,0.02954329,0.04573544,-0.04328565,-0.04659458,0.3683015,-0.1459515
1.0158,-0.1165892,-0.008448939,0.002036873,0.07993897,-0.02533439,-0.2972477,0.6601746,-0.1693678
0.9204667,-0.142131,0.02144967,-0.09374301,0.05429707,0.004912222,-0.5527469,0.860406,-0.1709069
0.7770661,-0.1381718,0.05410385,-0.2376266,0.05819215,0.03794379,-0.5415447,0.828173,-0.06834571
0.6621827,-0.08931696,0.1080307,-0.3530173,0.1070132,0.09227297,-0.458114,0.531266,0.1095599
0.6691034,-0.1123323,0.1220766,-0.3466107,0.08398803,0.10674,-0.5536151,0.214517,0.2219245
0.7406184,-0.11133,0.1106655,-0.2755978,0.08499816,0.09576166,-0.4574278,-0.0717925,0.211689
0.7889289,-0.1079136,0.1202059,-0.2277612,0.08843426,0.1057392,-0.4280827,-0.138855,0.1845435
0.8319673,-0.1205516,0.1180771,-0.185156,0.07582249,0.1040451,-0.3936897,-0.09716041,0.1758475
0.824214,-0.0785668,0.1110891,-0.1932926,0.117835,0.09748294,-0.2318552,-0.1701192,0.1856198
0.8307884,-0.06025155,0.1150003,-0.1870441,0.1361741,0.1018056,-0.1966855,-0.1908812,0.2028054
0.8730077,-0.01990756,0.1380136,-0.1450872,0.1765318,0.1252103,-0.1244455,-0.3327929,0.1396303
0.8885336,0.02993845,0.1528751,-0.1297555,0.2263737,0.1404378,-0.1631859,-0.5134083,-0.009146696
0.9578427,-0.01119516,0.09097556,-0.06056996,0.1852096,0.07887341,-0.3541726,-0.4656231,-0.1802305
1.060838,-0.1321263,0.02420561,0.0423721,0.06421408,0.0124038,-0.6726942,-0.3597077,-0.1726778
1.233767,-0.3107829,0.05167037,0.2153131,-0.1145436,0.04013292,-0.8658376,-0.193013,0.1428119
1.405699,-0.369143,0.08882963,0.3873098,-0.1730377,0.07752043,-0.2747682,-0.0016513,0.3912193
1.371333,-0.2251077,0.06955941,0.3530439,-0.02916128,0.05844162,0.6148733,0.2121188,0.2265941
1.347997,-0.08755956,0.03166073,0.3298216,0.1082093,0.02069664,0.8842534,0.4315966,-0.02994225
1.460793,-0.07791124,-0.01563069,0.4427263,0.1176621,-0.02647836,0.2808542,0.3565179,0.02512613
1.590329,-0.147242,-0.01629516,0.5723445,0.04811517,-0.02706137,-0.3777239,0.3639945,0.3052076
1.700844,-0.2800332,0.006389057,0.6828913,-0.08491402,-0.004327406,-0.2546139,0.9970634,0.5202072
1.516353,-0.4281799,-0.02157632,0.4983543,-0.233317,-0.03227161,-0.1415941,1.476245,0.2870297
0.8528029,-0.467103,0.01596069,-0.1653401,-0.272505,0.005260883,-0.007419333,0.7597651,-0.2651454
0.2471386,-0.4848864,0.07131839,-0.771244,-0.2905481,0.06059041,0.596854,-0.4729973,-0.4560934
0.4524722,-0.4963068,0.02781458,-0.5662196,-0.3022087,0.01703538,0.5925463,-0.8398399,-0.3734717
1.057582,-0.3346176,-0.006346982,0.03854372,-0.1407265,-0.01720006,0.2175116,-0.4101075,-0.2474753
1.200313,-0.2143439,-0.03143777,0.1809091,-0.02061813,-0.04238565,0.2225797,-0.1211926,0.05702903
1.150144,-0.278753,-0.03886398,0.1303563,-0.08514769,-0.04992443,0.2013642,-0.2002001,0.1987365
1.075409,-0.3180403,-0.01486229,0.05521445,-0.1245097,-0.02604943,0.3835862,-0.2120189,-0.01741715
0.8860897,-0.319542,-0.04429104,-0.1345348,-0.1260385,-0.0556155,0.7062006,-0.1583011,-0.3285182
0.8378288,-0.3072198,-0.05366345,-0.1832451,-0.1136932,-0.0651324,0.745723,-0.3282344,-0.3882185
0.7895737,-0.2083227,-0.03597811,-0.2319586,-0.01472082,-0.04759497,0.7291231,-0.4919648,-0.2106253
0.8006763,-0.07161116,-0.03731617,-0.2213114,0.1221167,-0.04908088,0.6134752,-0.5183438,-0.05182638
0.8878749,-0.02079614,-0.01972151,-0.134553,0.1731018,-0.03163111,0.4332701,-0.3821877,0.132465
0.9417226,-0.0585855,-0.02719434,-0.08112164,0.1355166,-0.03924355,0.3290334,-0.03274581,0.1622562
1.042849,-0.06195852,-0.03429047,0.01961727,0.1323711,-0.04647202,0.2800089,0.1629884,0.03546879
0.9550797,-0.05496762,-0.001803371,-0.06850893,0.1396033,-0.01410822,0.3108814,0.1408437,0.01011932
0.9055037,-0.06687913,0.01981817,-0.1184105,0.1279383,0.007400133,0.2588781,0.05052819,0.01937591
0.9304371,-0.0385156,0.02241422,-0.09376875,0.1565455,0.009893043,0.2295409,-0.0345142,0.1327755
0.8685128,-0.02568017,0.0101956,-0.1559466,0.1696138,-0.002419339,0.2793961,0.03061863,0.2798162
0.9700655,-0.02593538,-0.007744869,-0.05460569,0.1695725,-0.02044468,0.3215434,0.08533484,0.298267
0.9630301,-0.01438606,-0.02353211,-0.0618084,0.1813088,-0.0363077,0.500576,0.1167783,0.198345
0.9444306,-0.02830272,-0.01810795,-0.08052968,0.1675447,-0.03094938,0.7008699,0.1350304,0.02916323
1.010583,-0.0327539,0.01122018,-0.01445381,0.1632049,-0.001676231,0.7519186,-0.01000856,-0.06732981
0.9366534,0.01662658,0.03196076,-0.08841375,0.2126493,0.01902034,0.4834474,-0.1766205,-0.1511768
0.9720303,0.1639683,0.07455697,-0.05302257,0.3600001,0.06158227,-0.1028954,-0.3692413,-0.1594335
1.038675,0.276855,0.1268635,0.01368141,0.4728297,0.1138614,-0.60802,-0.7012498,-0.04174287
1.201819,0.07719589,0.1292889,0.176925,0.273033,0.1162616,-0.7718907,-0.9515973,-0.01060668
1.417989,-0.3055835,0.02490369,0.3932276,-0.1099742,0.01184821,-0.5600814,-0.8381097,-0.04797426
1.339803,-0.5288745,-0.1609672,0.3151898,-0.33358,-0.1740555,-0.2733962,-0.6090351,-0.1198988
1.241443,-0.592328,-0.1961001,0.2169767,-0.397419,-0.2092216,-0.1653003,-0.473372,-0.2819932
1.195864,-0.5778326,-0.1171118,0.1715288,-0.383356,-0.1302588,-0.1818463,-0.2255478,-0.6128073
1.151794,-0.5039032,-0.1159043,0.1275646,-0.3098822,-0.1290609,-0.2131789,-0.1742062,-0.8510861
1.236824,-0.4277257,-0.06200206,0.2126671,-0.2341631,-0.07514669,0.0270566,-0.1889514,-0.5563074
1.282992,-0.3181176,-0.01333255,0.2588695,-0.1250009,-0.02644029,0.2971563,0.1818783,-0.1481307
1.199496,-0.1962524,-0.05586959,0.1753587,-0.003559764,-0.06891415,0.1917458,0.4441174,-0.02420627
1.078119,-0.1058003,-0.03163717,0.05391359,0.08649309,-0.04459176,-0.07976866,0.5636426,0.02037647
0.9911981,-0.06208565,-0.001476157,-0.03313266,0.129831,-0.01431369,-0.4549641,0.7104417,-0.00663549
0.9193363,-0.1159346,0.0131321,-0.1051722,0.07562247,0.0004379869,-0.7688872,0.7245536,0.003198995
0.8338881,-0.149059,0.06178248,-0.1908429,0.04215068,0.0492561,-0.7839221,0.8004371,0.09881805
0.7494036,-0.1323601,0.0759344,-0.2755832,0.05851088,0.06359653,-0.7173943,0.7219454,0.1532279
0.7011295,-0.1491775,0.09364992,-0.3241314,0.04136119,0.08151662,-0.6505531,0.4181259,0.2393311
0.7310713,-0.150484,0.1040475,-0.2944651,0.03972664,0.09212941,-0.5624872,0.1138773,0.2611293
0.7802469,-0.1685568,0.0825839,-0.2455504,0.02132859,0.07088601,-0.4809613,-0.1374616,0.2014049
0.8357995,-0.1805848,0.08384261,-0.1902305,0.008977329,0.07236482,-0.3834767,-0.08411515,0.1832396
0.8699286,-0.1442721,0.0959841,-0.1562962,0.04496836,0.08472182,-0.2808869,-0.03431228,0.1624015
0.8405882,-0.1208789,0.1166334,-0.1857859,0.06804063,0.1055776,-0.1239098,-0.188462,0.1736228
0.8460233,-0.1012579,0.134776,-0.1804488,0.08733943,0.1239128,0.02656825,-0.2541502,0.1617142
0.8672086,-0.08931851,0.1417161,-0.1593043,0.09895243,0.1310262,0.05137577,-0.3505463,0.05917764
0.8683735,-0.02620738,0.1542916,-0.1581185,0.1617291,0.1437502,-0.108649,-0.403105,-0.07849946
0.9034771,0.0645309,0.1288225,-0.1229284,0.252119,0.1183992,-0.4314152,-0.394677,-0.1923341
0.9668376,0.007928608,0.06506022,-0.05941418,0.1951467,0.05472025,-0.6987051,-0.3922845,-0.1063448
1.124168,-0.1452089,0.02677812,0.09813616,0.04160986,0.01648467,-0.6937446,-0.1413596,0.1881827
1.360843,-0.2974738,0.03264858,0.3350887,-0.1110857,0.0223651,-0.2398257,0.2026106,0.4019123
1.450923,-0.3688164,0.06952371,0.4254891,-0.1828856,0.05921475,0.4225082,0.3864852,0.2238094
1.327645,-0.2382288,0.1001251,0.3025532,-0.05277323,0.0897556,0.5983269,0.3797129,-0.008474189
1.260509,-0.1197083,0.07182644,0.2357604,0.06526184,0.06136066,0.3628968,0.3389142,0.2812865
1.407122,-0.2059615,-0.001577434,0.3827013,-0.02148397,-0.01217563,0.2423354,0.5433017,0.558997
1.474407,-0.3584687,-0.05077873,0.4502819,-0.1744885,-0.06154364,0.1659052,0.9788169,0.3755423
1.205166,-0.5142773,-0.03209876,0.1812865,-0.3307918,-0.04306039,0.2127068,1.234703,-0.02315736
0.7663602,-0.5401062,0.03293453,-0.257333,-0.3570995,0.02175082,0.4658857,0.5386717,-0.4560604
0.5559242,-0.3674784,0.06065072,-0.4676369,-0.1849188,0.04922254,0.5090981,-0.5588104,-0.3387445
0.7772792,-0.2358885,0.008498182,-0.2461858,-0.05373238,-0.003195656,0.2828679,-0.6203297,0.008754844
1.073107,-0.1970147,-0.06573073,0.04971949,-0.01521344,-0.07770967,0.01649918,-0.28658,-0.01666503
1.139492,-0.2634046,-0.0854937,0.1161709,-0.08190915,-0.09777312,-0.01643506,-0.3126819,0.2272319
1.123746,-0.4017309,-0.06664585,0.1004778,-0.2204913,-0.07923526,0.2646425,-0.1436327,0.3324717
1.034306,-0.3958435,-0.07230925,0.01107333,-0.2148052,-0.08521214,0.4652203,-0.02693401,-0.1102154
0.8882214,-0.3366323,-0.06828418,-0.1349924,-0.1557345,-0.08149858,0.5515717,-0.1332536,-0.3415176
0.803234,-0.2573433,-0.03669145,-0.2199747,-0.07651997,-0.05021064,0.5754321,-0.214471,-0.390199
0.7578869,-0.1095214,-0.02410004,-0.2653205,0.07129427,-0.0379136,0.5131646,-0.4226959,-0.2083257
0.8082014,-0.05451778,-0.02515074,-0.2149966,0.1263526,-0.0392457,0.5299233,-0.5209144,0.1246997
0.9041955,-0.03860378,-0.03558754,-0.1189742,0.1423747,-0.04994897,0.4346789,-0.3281398,0.2014707
0.9691755,-0.01715483,-0.03994218,-0.05393989,0.1639741,-0.0545532,0.3052673,-0.07553069,0.2453721
1.010289,-0.01612166,-0.02961277,-0.01274325,0.165189,-0.04445447,0.2270202,0.1409498,0.1779671
0.9567655,0.004603788,-0.01978177,-0.06615481,0.1861161,-0.0348335,0.03665593,0.2082036,0.124227
0.9048815,-0.002292548,0.001773392,-0.1178976,0.1794303,-0.01346669,-0.02231798,0.08663821,0.2020808
0.8947999,-9.631798e-05,0.008380918,-0.1278068,0.1818355,-0.00702562,-0.003513613,0.009128647,0.1614432
0.9049266,0.00295503,-0.008259188,-0.1174734,0.1850843,-0.02381065,0.01154092,0.0887151,0.1794013
0.9760238,-0.02092458,-0.01878066,-0.04613234,0.1613816,-0.03445578,0.1417062,0.1434788,0.1031999
0.9931375,-0.02695533,-0.01748513,-0.02873696,0.1554995,-0.03326244,0.2912251,0.1489405,-0.0676338
1.000782,-0.05125385,-0.0009251204,-0.02077427,0.1313147,-0.01678288,0.4161083,0.1656395,-0.1131083
1.024138,-0.0357527,0.02407803,0.002934957,0.1468894,0.008161352,0.3434279,0.05105464,-0.1658697
0.997448,0.08813228,0.05614611,-0.02337054,0.2708023,0.04019077,-0.005417206,-0.1892465,-0.09701871
1.057074,0.1904714,0.0867875,0.03666856,0.3731157,0.07081108,-0.5144148,-0.4318109,0.09024186
1.187529,0.07144767,0.09823254,0.1675604,0.2540013,0.0822487,-0.8067963,-0.5588476,0.2683253
1.281632,-0.2489971,0.03326405,0.2621164,-0.06660745,0.01728213,-0.5187337,-0.5022124,0.256462
1.26464,-0.5381861,-0.1105237,0.2455802,-0.3560315,-0.1264967,-0.07492211,-0.4408567,-0.09939582
1.165999,-0.6392585,-0.1786176,0.147385,-0.4573951,-0.1945721,0.1630282,-0.3784149,-0.4775179
1.11237,-0.5211407,-0.1540939,0.09418093,-0.3396011,-0.1700142,0.04819831,-0.2554378,-0.6695679
1.038243,-0.3895588,-0.104564,0.0204522,-0.2083535,-0.1204267,-0.3354048,-0.354985,-0.6752333
1.068628,-0.3719014,-0.03233364,0.05120579,-0.1910243,-0.04811023,-0.3130529,-0.4993916,-0.5698083
1.247553,-0.3248929,-0.04577449,0.230468,-0.1443266,-0.0614339,-0.06343749,-0.243594,-0.4071482
1.305901,-0.2858906,-0.09956086,0.2891158,-0.1056096,-0.115071,0.005932488,0.2080876,-0.207539
1.259115,-0.204334,-0.08083857,0.2425807,-0.02430772,-0.09616569,-0.003419469,0.6304266,-0.1774092
1.124819,-0.06496912,-0.04956184,0.1084793,0.1148342,-0.06467029,-0.2700264,0.8518922,-0.1758047
0.9629674,-0.07164445,0.01551126,-0.05324055,0.1079644,0.0006578181,-0.5558941,0.7410615,-0.06325479
0.9093681,-0.1104605,0.07102588,-0.1067679,0.06897601,0.05646193,-0.7282332,0.7201811,-0.002551305
0.859918,-0.1322772,0.06840273,-0.1561984,0.04700362,0.05415844,-0.7998897,0.7788822,0.06420048
0.8064403,-0.1717891,0.09416492,-0.2096984,0.007348821,0.0802647,-0.6421413,0.652548,0.1476439
0.7565491,-0.1421687,0.1071331,-0.2596412,0.03683694,0.09359509,-0.6029711,0.4983701,0.2144259
0.7532768,-0.141369,0.1045066,-0.2629804,0.03751307,0.09134235,-0.5314445,0.2165843,0.2651357
0.8106962,-0.1506576,0.1100347,-0.205629,0.0281077,0.09724919,-0.4347341,-0.02409052,0.2485343
0.8177977,-0.1370124,0.09367115,-0.1985844,0.04164102,0.08126307,-0.511913,-0.02513521,0.2195227
0.8481077,-0.1442004,0.1111606,-0.1683102,0.03434407,0.09912314,-0.3706586,-0.08662757,0.2074423
0.8628561,-0.1202777,0.1291339,-0.1535686,0.05815888,0.1174548,-0.2045424,-0.1628384,0.2186965
0.8433876,-0.09351568,0.1295925,-0.1730082,0.0848117,0.1182539,-0.09465748,-0.246905,0.2281846
0.8664739,-0.02990791,0.1537564,-0.1498518,0.1483053,0.1427348,0.008750437,-0.3932866,0.1773715
0.8726053,0.05772997,0.1641408,-0.1436039,0.2358185,0.1534065,-0.1171526,-0.4183348,0.05973675
0.9037546,0.05254896,0.1544024,-0.1122881,0.2304937,0.1439199,-0.3001104,-0.4541376,-0.1158565
0.9393761,0.007084841,0.102224,-0.07644755,0.1848574,0.09195239,-0.5422121,-0.4930041,-0.1983677
1.019294,-0.04190418,0.02767777,0.003741642,0.13566,0.01757273,-0.6628418,-0.3110835,-0.03030418
1.20565,-0.1668536,0.009145755,0.1904185,0.01046122,-0.0008372452,-0.496554,0.006678623,0.2363704
1.316294,-0.2708641,0.03426138,0.3014223,-0.09383919,0.02435772,-0.1500737,0.2615156,0.3056173
1.306392,-0.2160052,0.04414957,0.2919037,-0.03930609,0.03428463,0.279012,0.3106727,0.1492302
1.287533,-0.1689147,0.01277863,0.2734358,0.007428731,0.002913497,0.2189606,0.1634866,0.07362151
1.368001,-0.2156395,-0.006088754,0.3542847,-0.03967714,-0.01599095,0.01257293,0.1531182,0.2956607
1.520163,-0.2798515,0.001437387,0.5067991,-0.104291,-0.00853587,0.2315145,0.6622697,0.4836799
1.517788,-0.4826741,0.0005449544,0.5047297,-0.307529,-0.009530183,0.2549311,1.234658,0.228499
1.128476,-0.6483938,0.01615228,0.1156543,-0.4736643,0.005947373,0.2621406,1.019667,-0.2089727
0.5460826,-0.5040606,0.0431428,-0.4665791,-0.3297277,0.03278253,0.4052555,0.2507014,-0.4666054
0.4503631,-0.3281739,0.05100176,-0.562202,-0.1542003,0.04046187,0.2061458,-0.433796,-0.4957499
0.7672093,-0.2607746,0.01575581,-0.2452981,-0.08711193,0.005012797,0.0732379,-0.7655883,-0.2974261
0.9308822,-0.1707345,-0.03459489,-0.08158435,0.002669735,-0.04556304,0.03926079,-0.6471372,-0.02158189
1.073567,-0.2316665,-0.05009614,0.06113446,-0.05846815,-0.06130834,0.1276977,-0.4633573,0.2294162
1.179005,-0.4191421,-0.07572082,0.1666024,-0.2460973,-0.08719131,0.5141389,-0.22791,0.2550347
1.116919,-0.451062,-0.1073581,0.104537,-0.2781139,-0.1190955,0.6001096,0.1184559,-0.08233946
1.030097,-0.3583353,-0.0791918,0.01772023,-0.1854194,-0.09119829,0.5701764,0.04691149,-0.380619
0.8408172,-0.1976903,-0.02171534,-0.1715692,-0.02473583,-0.03398745,0.5904542,-0.1603878,-0.4149949
0.7478837,-0.05036189,0.004548488,-0.2645231,0.1227017,-0.00798201,0.4332869,-0.2903537,-0.2057445
0.9857174,-0.02984482,-0.02093756,-0.03291589,0.1700198,-0.04303893,-0.3069402,0.1806385,0.1067367
0.9861851,-0.06016117,-0.01317403,-0.0324893,0.1399491,-0.03494215,-0.2368453,0.2862904,0.007196548
0.971391,-0.1325933,0.01270359,-0.04729053,0.06772438,-0.008736801,-0.1014354,0.2051676,-0.1004822
0.9823186,-0.1427881,0.02199019,-0.03633635,0.05769568,0.000872609,0.1056611,0.05948064,-0.1718619
0.9919112,-0.04462576,0.0289782,-0.02668415,0.155981,0.008178318,0.1588147,-0.1606499,-0.1950914
1.034032,0.1254234,0.04554017,0.01552803,0.326106,0.0250521,-0.01656113,-0.422995,-0.1733258
1.10756,0.1978572,0.07460296,0.08917658,0.3985595,0.05441938,-0.3194179,-0.4081904,-0.06096372
1.165147,0.1247677,0.07587403,0.1469085,0.3254206,0.05598537,-0.5447596,-0.4675179,0.1012642
1.267582,-0.01567138,0.04576021,0.2495038,0.1848506,0.02615431,-0.5155195,-0.5161291,0.1428194
1.308621,-0.2078027,-0.007218254,0.2907069,-0.007499058,-0.0265552,-0.4617245,-0.5082116,-0.02494916
1.245264,-0.341456,-0.1118796,0.2275047,-0.1414559,-0.1309607,-0.5487655,-0.5762993,-0.194025
1.216115,-0.3835357,-0.156157,0.1984876,-0.1839145,-0.1749909,-0.7011715,-0.2483216,-0.2178491
1.161098,-0.4558937,-0.1251828,0.1435706,-0.2567121,-0.1437714,-0.8899293,0.1349663,-0.3115662
1.054229,-0.5199753,-0.1081949,0.03676377,-0.3212768,-0.1265328,-0.8616541,0.04142512,-0.4597717
1.032817,-0.5035326,-0.0378235,0.01537178,-0.3053423,-0.05589954,-0.5089096,-0.133513,-0.4205938
1.077919,-0.4675168,0.002029296,0.06045522,-0.2698405,-0.01577073,-0.1336655,-0.1210253,-0.2959005
1.117124,-0.3755149,-0.04867839,0.09960174,-0.1783427,-0.0661874,-0.008430345,-0.01348837,-0.1451659
1.155364,-0.2336194,-0.05791053,0.1377426,-0.03692953,-0.07511298,-0.2748666,0.2201114,0.03241988
1.148672,-0.1756893,-0.05879011,0.1309074,0.02054533,-0.07566909,-0.6533219,0.5439823,0.02377147
1.100699,-0.1881536,-0.05336606,0.0827463,0.007653699,-0.069903,-0.8204764,0.7759673,-0.09093896
1.031232,-0.2138471,-0.008739014,0.01304402,-0.01844035,-0.02491415,-0.8312318,0.8880681,-0.1169924
0.8921312,-0.2262293,0.01813092,-0.1263377,-0.03119679,0.002337236,-0.657088,0.8380615,-0.06056149
0.7425482,-0.1970729,0.06029821,-0.2762389,-0.002388398,0.04490374,-0.4734278,0.6293786,0.08766062
0.659812,-0.160298,0.09400248,-0.3593173,0.0340644,0.07902135,-0.4390916,0.3290631,0.1886953
0.648385,-0.1383742,0.09249285,-0.3710923,0.05569017,0.07793411,-0.4324694,0.02380349,0.1677691
0.7207966,-0.1156253,0.09981164,-0.2990152,0.07816207,0.08567865,-0.4783738,-0.02264214,0.1593324
0.8252124,-0.08889002,0.09245579,-0.194904,0.104637,0.07874631,-0.5211531,-0.01837038,0.1664166
0.8942836,-0.10325,0.09217722,-0.126096,0.09002847,0.07888382,-0.5460506,-0.1526616,0.1465634
0.9145362,-0.1254859,0.1232076,-0.1060587,0.06755083,0.110318,-0.4038243,-0.1757915,0.09872036
0.9044112,-0.08985966,0.1441327,-0.1163474,0.1029379,0.1316292,-0.09068106,-0.2093096,0.04519668
0.9095994,-0.04078822,0.1546021,-0.111269,0.1517684,0.1424613,-0.04064973,-0.2919738,0.003757583
0.940375,0.0154022,0.1449544,-0.08054696,0.2077103,0.1331467,-0.1140623,-0.3741362,-0.03677704
1.021959,0.02866916,0.07415655,0.001039955,0.2207131,0.0626469,-0.2888288,-0.4535488,-0.06684636
1.195157,-0.07025478,-0.01335564,0.1742949,0.1215014,-0.02460501,-0.733095,-0.2982159,-0.06461145
1.394013,-0.2065023,-0.01866063,0.3732517,-0.015063,-0.0296869,-0.8652892,0.0103229,0.09428851
1.469533,-0.2763402,0.03319749,0.4488995,-0.08524673,0.02235974,-0.5017339,0.3018514,0.267683
1.357311,-0.2031052,0.06456855,0.3368107,-0.0123824,0.05388668,-0.03963231,0.4392104,0.1237807
1.249374,-0.1235743,0.0891204,0.2289938,0.06675753,0.07856193,0.2160605,0.3222513,0.01136573
1.306603,-0.1880047,0.07574766,0.2863138,0.001917868,0.06527899,0.1030366,0.3013623,0.3195653
1.40805,-0.2855916,-0.00245548,0.3878093,-0.09609484,-0.01286879,-0.1370532,0.5750547,0.6416702
1.417458,-0.4451894,-0.0463889,0.3972091,-0.2561295,-0.0567801,-0.1915694,0.9131534,0.6005984
1.147759,-0.625302,-0.01903165,0.1274329,-0.4366785,-0.02943052,0.01926413,0.9623591,0.2233836
0.7007063,-0.5895169,0.01045421,-0.3197722,-0.4013114,2.18046e-05,0.3696584,0.4327352,-0.2162632
0.6313115,-0.4110825,-0.005986056,-0.3893851,-0.2232576,-0.01647482,0.5615196,-0.2541445,-0.281382
0.8380716,-0.2451679,-0.02871095,-0.1828893,-0.05767257,-0.03927633,0.4561369,-0.3708082,-0.1299039
0.904849,-0.1953816,-0.03444892,-0.1164044,-0.008159562,-0.04510813,0.1548119,-0.196079,-0.0923917
0.9920114,-0.2628884,-0.06760801,-0.02955145,-0.07588351,-0.07837451,-0.03446374,-0.2564533,0.1144233
1.034334,-0.2810708,-0.0745818,0.01245123,-0.09422767,-0.08546459,0.06884339,-0.2619032,0.31661
0.933224,-0.3199531,-0.05733062,-0.08898691,-0.1332159,-0.06833381,0.2009015,-0.166996,0.1146472
0.8894076,-0.3424982,-0.066105,-0.1331347,-0.1558087,-0.0772281,0.278733,-0.2155457,-0.1519905
0.8330346,-0.2446642,-0.04266495,-0.189836,-0.05796204,-0.05390346,0.3750896,-0.2579492,-0.2933844
0.8076363,-0.1957721,-0.02449999,-0.2155508,-0.008996051,-0.03584621,0.3840198,-0.3457812,-0.2928732
0.8691577,-0.1430246,-0.02988008,-0.1543241,0.04388391,-0.04132407,0.4318676,-0.4463781,-0.09172139
0.8923438,-0.09815124,-0.02549358,-0.1314027,0.08894271,-0.03702378,0.5150061,-0.3417289,0.07608245
0.9493483,-0.1290172,-0.03148969,-0.07462682,0.05830802,-0.04309311,0.4742025,-0.1862885,0.201199
0.9758045,-0.09414169,-0.01699213,-0.04835986,0.09345296,-0.02865453,0.4584517,-0.01439429,0.2427591
0.9183647,-0.07581897,0.006047428,-0.1059481,0.1120755,-0.005658907,0.4408108,0.1118844,0.1589669
0.9051546,-0.06690542,0.02067912,-0.1192639,0.121311,0.008943795,0.3017426,0.042137,0.1828043
0.9129934,-0.01599742,0.02558643,-0.1114857,0.1725545,0.0138361,0.2007834,-0.01157709,0.1820536
0.9225552,-0.005238763,0.01804493,-0.1019366,0.1836525,0.006292136,0.1957691,-0.01599921,0.1504853
0.9385643,0.005303724,0.02289911,-0.08589033,0.1945283,0.011155,0.2123614,0.001812623,0.1745343
0.9817929,-0.01277198,-0.001251213,-0.04257372,0.1767697,-0.01297669,0.2262224,0.1107291,0.03453255
1.050415,-0.01637009,-0.02693407,0.02618572,0.1734633,-0.03863149,0.22854,0.1220202,-0.1554755
1.066214,0.01423892,-0.01308957,0.04216907,0.2043303,-0.02474918,0.2047878,0.04598886,-0.2753425
1.08332,0.04342939,0.001543217,0.0595006,0.2337368,-0.01006826,0.02863628,-0.007027924,-0.2997789
1.115651,0.1229621,0.05581985,0.09209212,0.3134345,0.04426657,-0.3672428,-0.130558,-0.1358493
1.177368,0.07770213,0.1110904,0.154097,0.2682781,0.09960338,-0.7658621,-0.3752979,0.1307411
1.344246,-0.1781667,0.03783901,0.3212798,0.01244264,0.02642259,-0.8770028,-0.6247539,0.3159327
1.417945,-0.498653,-0.1074653,0.395286,-0.3080809,-0.1188092,-0.6373708,-0.6414272,0.1773159
1.300779,-0.6547333,-0.1812888,0.2784128,-0.4642568,-0.1925562,-0.3208626,-0.5373948,-0.09019526
1.185662,-0.5529135,-0.1836728,0.1635588,-0.3625692,-0.1948531,-0.2140255,-0.3535876,-0.3411655
1.091937,-0.4954691,-0.1333116,0.07005507,-0.3052707,-0.144386,-0.2858568,0.05822653,-0.7390294
1.036987,-0.4552622,-0.06106031,0.01528216,-0.2652044,-0.07200356,-0.3087925,0.157896,-0.8153922
1.099942,-0.2837541,-0.06863257,0.07836853,-0.0938177,-0.07941545,-0.1554777,-0.01538175,-0.5036505
1.13316,-0.1762578,-0.09353831,0.1116732,0.01358446,-0.1041297,0.004916623,0.1642625,-0.1693459
1.085232,-0.08556481,-0.07244453,0.06378472,0.1042112,-0.08281152,-0.02203273,0.3391989,0.2243723
1.069172,-0.06004688,-0.05431999,0.0477171,0.1296865,-0.06442816,-0.2923389,0.4247693,0.2064681
1.064066,-0.1604593,-0.01239926,0.04255575,0.02924861,-0.02221372,-0.7155545,0.6610408,-0.1082165
1.027836,-0.183758,0.009501961,0.006226201,0.005936753,1.497143e-05,-0.9278134,0.8533235,-0.1180232
0.915538,-0.1692566,0.01904271,-0.1062152,0.02043469,0.009914387,-0.8740332,1.051617,-0.204145
0.7430519,-0.145839,0.0902418,-0.2788801,0.0438568,0.08149952,-0.8647521,1.069072,-0.1860469
0.6917784,-0.1225811,0.1265437,-0.3303555,0.06712504,0.1182093,-0.8709438,0.83626,0.09893186
0.7192387,-0.1441498,0.1189974,-0.3031035,0.04556938,0.1110852,-0.7888301,0.5757484,0.1543556
0.6485747,-0.1343695,0.1412939,-0.3739648,0.05536249,0.1338104,-0.6470693,0.205074,0.2372225
0.6358103,-0.1376757,0.141434,-0.3868979,0.05206589,0.1343777,-0.5003505,-0.02348106,0.287814
0.7679558,-0.1405035,0.1131775,-0.2548758,0.04924221,0.1065391,-0.5064215,0.004471633,0.2013452
0.8420508,-0.1295038,0.1077676,-0.180846,0.06023808,0.1015311,-0.4893128,-0.06196303,0.2297282
0.8255175,-0.1323999,0.1158571,-0.1973779,0.0573281,0.1100012,-0.279067,-0.253937,0.1503219
0.8359165,-0.08288472,0.1313477,-0.1869058,0.1068168,0.1258458,-0.1754606,-0.3542291,0.07473109
0.9020318,-0.02682784,0.1566209,-0.1206417,0.1628309,0.1514412,-0.1789663,-0.3647841,-0.02593579
0.9531719,0.01609797,0.1486128,-0.0692751,0.205692,0.143718,-0.250708,-0.3852147,-0.2112709
0.993906,0.03461511,0.0927896,-0.02823822,0.2241152,0.08813724,-0.6014339,-0.2179255,-0.1523374
1.134934,-0.04496109,0.04231513,0.1131646,0.1444076,0.03785938,-0.8419115,0.06483431,0.08218075
1.341365,-0.2161923,0.04719598,0.320032,-0.02699735,0.04289019,-0.571292,0.1743089,0.331107
1.478168,-0.3469324,0.06617549,0.4573186,-0.157953,0.06197346,-0.05325689,0.1835004,0.3107215
1.442209,-0.2998284,0.04195339,0.4218641,-0.111099,0.03780947,0.3385098,0.184784,0.2328819
1.414612,-0.2738364,0.01870534,0.3947702,-0.08538276,0.01457474,0.5128396,0.3704963,0.4602159
1.611716,-0.4000625,-0.002665714,0.5923504,-0.2119012,-0.006825951,0.5835311,0.8895862,0.4277471
1.651708,-0.4934682,-0.007899583,0.6327677,-0.3056056,-0.01212952,0.3128082,1.386422,-0.007418141
1.213929,-0.5197256,0.06632106,0.1953382,-0.3321539,0.06198434,-0.1581589,1.155225,-0.4644168
0.6326655,-0.4447424,0.1127973,-0.3856657,-0.2574383,0.1083181,-0.09873885,0.2884359,-0.5337149
0.487184,-0.2930718,0.09257676,-0.5309675,-0.1059989,0.08791848,-0.03700313,-0.3167001,-0.2117113
0.7638259,-0.2500552,0.06732364,-0.2542029,-0.06316949,0.06244834,-0.3644017,-0.5507821,-0.0414627
0.8964534,-0.3004923,-0.003458737,-0.1214872,-0.1137469,-0.008589241,-0.2549678,-0.5252467,0.2010455
0.9809941,-0.4049903,-0.05083589,-0.03687961,-0.2183355,-0.05625757,-0.01460172,-0.3853235,0.3306618
1.072589,-0.5200401,-0.04300824,0.05476625,-0.3334209,-0.04875247,0.1361335,-0.3429808,-0.09291611
0.8835299,-0.4951076,-0.06287744,-0.1342549,-0.3084595,-0.06896991,0.5552239,-0.164362,-0.4161886
0.7357458,-0.3610063,-0.06793218,-0.2820101,-0.1742543,-0.07439265,0.6614202,-0.282083,-0.4931712
0.6986959,-0.2259879,-0.05039584,-0.3190296,-0.03905135,-0.05723815,0.6519299,-0.5587121,-0.3696883
0.727123,-0.1333192,-0.04650344,-0.2905565,0.05388221,-0.05373605,0.7644402,-0.4848174,-0.03234762
0.8916704,-0.1133505,-0.03974531,-0.1259344,0.07418989,-0.04737207,0.6025179,-0.4574834,0.1604922
0.9470058,-0.1062784,-0.03810521,-0.07048721,0.08166584,-0.04612597,0.5082925,-0.2720972,0.2318877
0.9652035,-0.0770516,-0.0213733,-0.05213758,0.1113516,-0.02978451,0.4325991,-0.07646103,0.1539161
0.9573478,-0.06221184,0.008648547,-0.05980102,0.1266951,-0.0001469658,0.3479031,-0.1473354,0.1298532
0.9119734,-0.02837155,0.01383121,-0.104943,0.161073,0.004658989,0.3839432,-0.1461508,0.1987753
0.956032,0.02296538,0.005164137,-0.06061144,0.21297,-0.00437658,0.2285672,-0.2038232,0.1492416
0.9703365,0.02884073,-0.006284165,-0.04599318,0.2194152,-0.01618466,0.1154658,-0.1433829,0.2578956
1.041011,-0.0008852227,-0.01166532,0.02503482,0.1902559,-0.021916,0.1373626,-0.003685907,0.2576256
1.100899,-0.04428532,0.01148889,0.0853112,0.1474078,0.0008986232,0.2649233,-0.009781149,0.06848233
1.052861,-0.07274789,0.03804525,0.0376927,0.1194732,0.02712649,0.5297574,-0.009591303,-0.09237453
1.029636,-0.03094963,0.0194602,0.01491087,0.1617685,0.008223704,0.5504444,-0.1734148,-0.319859
0.9716677,0.1014794,0.001225129,-0.04259371,0.2946561,-0.0103189,0.2870599,-0.4054595,-0.2802339
1.048002,0.2173105,0.03166682,0.03422145,0.4108965,0.01982529,-0.2536618,-0.6238468,-0.1109756
1.275055,0.085728,0.03294695,0.2617682,0.2796601,0.0208177,-0.8051853,-0.7825261,0.03026493
1.369808,-0.2503492,-0.03594635,0.3570175,-0.05614541,-0.0483539,-0.7595563,-0.6855663,0.1903701
1.312139,-0.5199391,-0.1152995,0.2998325,-0.3255384,-0.1279746,-0.5066415,-0.5630119,-0.01740786
1.185569,-0.6415166,-0.1431546,0.1737176,-0.4469802,-0.1560823,-0.5394933,-0.4381271,-0.2600737
1.125897,-0.6233097,-0.1218118,0.1144613,-0.4286769,-0.1349709,-0.5391498,-0.2782407,-0.405686
1.116429,-0.5756907,-0.08817485,0.1053624,-0.3809766,-0.1015377,-0.4647395,-0.2660323,-0.7630607
1.155208,-0.5593251,-0.04539863,0.1444598,-0.3645229,-0.05893338,-0.3088817,-0.2690315,-0.8023585
1.268161,-0.444208,-0.05401388,0.2576764,-0.249293,-0.06768593,0.1243662,-0.02366988,-0.4010451
1.247468,-0.3041389,-0.08978407,0.2371862,-0.1090734,-0.1035572,0.3539028,0.4337286,-0.1242707
1.140735,-0.2182781,-0.0508938,0.1305864,-0.02301814,-0.06473012,0.1807828,0.701274,-0.06851876
0.9984238,-0.1308488,-0.0151574,-0.01166497,0.06464973,-0.02901763,-0.00759583,0.6325666,-0.08740368
0.8521015,-0.08499776,0.005164827,-0.1579979,0.1107786,-0.008680296,-0.2575641,0.6008084,-0.09414955
0.8451804,-0.08244834,0.03752887,-0.1649915,0.1136376,0.02373598,-0.4718691,0.7559575,-0.03947129
0.745539,-0.0899583,0.04742975,-0.2647548,0.1064603,0.03372306,-0.521224,0.7920921,0.03333833
0.6033073,-0.07227606,0.09056256,-0.4071419,0.1244901,0.07697178,-0.6147007,0.605469,0.2013184
0.6600245,-0.07490076,0.102971,-0.3505943,0.1222197,0.08952046,-0.6473424,0.3104717,0.3801901
0.7177333,-0.130966,0.08564478,-0.2930495,0.06650812,0.07235285,-0.5668643,0.01461018,0.3471754
0.7580273,-0.149014,0.1106194,-0.2528974,0.04880748,0.09749834,-0.543282,-0.05605364,0.2229381
0.8324973,-0.1572813,0.09459175,-0.1785342,0.04087754,0.08164807,-0.5163119,-0.0007463333,0.1175918
0.8238161,-0.1217023,0.09806754,-0.1872779,0.07678087,0.08530233,-0.3660722,-0.04337573,0.09364487
0.812758,-0.04522617,0.1373658,-0.1983474,0.153565,0.124775,-0.1755925,-0.1463032,0.1381288
0.8510952,-0.03871044,0.1420677,-0.1599645,0.1603668,0.1296414,-0.1267126,-0.3048165,0.09082479
0.8765064,-0.03157124,0.1384756,-0.1344455,0.1677633,0.1261981,-0.1389216,-0.4169457,0.02158526
0.9405573,-0.03513095,0.07384085,-0.07022249,0.1644253,0.06169092,-0.1040983,-0.4111039,-0.09528735
1.055083,-0.083632,0.01428024,0.04453928,0.1161039,0.002233389,-0.235127,-0.3207494,-0.1560415
1.205869,-0.199209,0.02945245,0.1956209,0.0006606506,0.01748352,-0.3423577,-0.1335656,0.0842446
1.412409,-0.3455024,0.03147946,0.4025024,-0.1455443,0.019564,0.0240015,0.10192,0.2394066
1.466599,-0.2656196,0.0344195,0.4570627,-0.06561284,0.02253381,0.5314415,0.2832863,0.008714525
1.310262,-0.07393905,0.06020147,0.3011009,0.1260825,0.04832222,0.6092904,0.2720608,-0.1424945
1.295164,-0.02911631,0.07262474,0.2863615,0.1708874,0.06072843,0.2434407,0.239413,0.1965786
1.48357,-0.08006898,0.04840679,0.4750941,0.1198805,0.03646916,-0.2370732,0.5309326,0.6025829
1.570436,-0.2805921,0.008112064,0.5622355,-0.08073632,-0.003891432,-0.4208555,1.110611,0.4981462
1.289903,-0.5887951,0.01564738,0.2819048,-0.3890688,0.003554383,-0.1461311,1.387838,-0.008593427
0.7279915,-0.7067045,0.06241688,-0.2798889,-0.5071289,0.05021216,0.2968472,0.5556154,-0.4267541
0.4891691,-0.5384888,0.07177684,-0.5186737,-0.339063,0.0594387,0.5514769,-0.7096161,-0.3011841
0.7794034,-0.3399742,0.01132102,-0.2284606,-0.1406772,-0.001172448,0.4702201,-0.8394034,-0.02099133
1.082435,-0.3090478,-0.05762708,0.07451113,-0.1098466,-0.07029676,0.1977453,-0.2839739,-0.0547366
1.123834,-0.3258675,-0.07037761,0.1158196,-0.1267233,-0.08324084,0.1780468,-0.1688161,0.1191897
1.014464,-0.3485082,-0.04801333,0.006329456,-0.1493784,-0.0610823,0.363444,-0.3072683,0.2305902
0.8952803,-0.3781065,-0.05220751,-0.1130043,-0.1789445,-0.06548928,0.4432419,-0.3785895,-0.09215992
0.8443154,-0.3182409,-0.06658331,-0.1641439,-0.1189955,-0.08008035,0.5075376,-0.2863008,-0.2594879
0.8089631,-0.2394472,-0.05443731,-0.1996867,-0.04006406,-0.06814766,0.4643186,-0.2315156,-0.3280111
0.7656307,-0.1788894,-0.04409722,-0.2432143,0.02068543,-0.05801482,0.444788,-0.3768761,-0.2530276
0.7958174,-0.1345824,-0.02272104,-0.2132158,0.06523432,-0.03683651,0.5412426,-0.3965427,-0.01312765
0.870654,-0.1192953,-0.01386724,-0.1385493,0.08080752,-0.02816887,0.5053594,-0.2768862,0.01109055
0.9018408,-0.07165149,-0.0252385,-0.1075062,0.1287736,-0.03971304,0.5175349,-0.09789353,0.06015567
0.9076733,-0.03391502,-0.005942035,-0.101786,0.1668596,-0.02057504,0.4737239,0.007656864,0.05866727
0.8995674,0.0004105947,-0.006044086,-0.1099687,0.2015514,-0.02082024,0.3320901,-0.08992871,0.03706484
0.9381479,0.05300767,-0.01461181,-0.07142699,0.2545196,-0.02951528,0.2704363,-0.07350417,0.1986539
1.040396,0.07337509,-0.020205,0.03082184,0.27525,-0.0352194,0.1482003,0.08129256,0.2485322
1.078062,0.06871649,-0.04888321,0.06852583,0.2709325,-0.06399125,0.1479309,0.2488693,0.2650456
1.034322,0.01825671,-0.03198813,0.02485808,0.2207791,-0.04717111,0.2164145,0.3347499,0.1828962
0.9773608,-0.05202767,-0.005590823,-0.03200293,0.1507556,-0.02082868,0.2701192,0.1857474,0.03656385
0.9774034,-0.08277013,-0.004746045,-0.03183366,0.1202214,-0.02001816,0.4068698,-0.08326361,0.03505689
0.999623,-0.01947787,0.01135135,-0.009462071,0.1836649,-0.003934685,0.3279363,-0.4034588,-0.04698189
1.029958,0.09032369,0.0260271,0.02104907,0.2935555,0.01074657,0.01081275,-0.6244647,-0.03407021
1.20345,0.06078723,0.03460056,0.1947366,0.2640384,0.01934341,-0.3367259,-0.7752584,0.1068827
1.391661,-0.1146014,-0.01813569,0.3831556,0.08859209,-0.0333533,-0.4243088,-0.9115301,0.1368151
1.413035,-0.343653,-0.1283903,0.4047342,-0.1405965,-0.1435524,-0.2926187,-0.7430926,0.1119952
1.335879,-0.4690821,-0.1665118,0.3277591,-0.2662346,-0.1815992,-0.3756427,-0.5451622,0.04849218
1.227548,-0.4301879,-0.1369489,0.2195705,-0.2276069,-0.1519364,-0.5471181,-0.2827212,0.03284427
1.089144,-0.4626489,-0.09819376,0.08125864,-0.2603749,-0.1130504,-0.8150101,0.204687,-0.06559394
1.006597,-0.5370267,-0.04248298,-0.001252884,-0.3350829,-0.05717367,-1.039079,0.1537797,-0.2772776
1.137535,-0.5421786,-0.01850924,0.129667,-0.3405706,-0.03299732,-0.565616,-0.04194877,-0.2583918
1.250989,-0.5306664,-0.0374609,0.2430464,-0.3293816,-0.05171015,0.132933,0.2282009,-0.07739662
1.110994,-0.372615,-0.03512914,0.1029172,-0.1716245,-0.04910431,0.2808986,0.3344112,0.01851639
1.001779,-0.1664211,-0.02832202,-0.006493375,0.03431443,-0.04198874,0.07939105,0.4473551,-0.02783839
0.9995278,-0.1415466,-0.0303839,-0.009000625,0.05897536,-0.04370874,-0.1601248,0.671239,-0.1154267
0.9200769,-0.1842317,0.005737344,-0.08876284,0.016115,-0.007213554,-0.3439475,0.6903144,-0.1316581
0.7939232,-0.1590406,0.04549647,-0.2152748,0.04116482,0.03294929,-0.4591,0.819058,-0.1709984
0.7336499,-0.1300473,0.04546313,-0.2759411,0.07004683,0.03334573,-0.4700702,0.8237405,-0.1231956
0.7141414,-0.14217,0.0529025,-0.295862,0.05783841,0.04123637,-0.4146944,0.6203249,0.06584909
0.6022222,-0.1144293,0.1015928,-0.408195,0.08551392,0.09039439,-0.3963349,0.4934206,0.159016
0.539095,-0.09412686,0.1389251,-0.4717181,0.1057666,0.1282049,-0.3067351,0.2655566,0.1875546
0.6681478,-0.1138049,0.1208254,-0.343022,0.08604849,0.1105864,-0.1744295,-0.001220379,0.1573884
0.7660787,-0.077361,0.1041218,-0.2453908,0.1224565,0.09435982,-0.1205746,-0.318899,0.06595003
0.772788,-0.05461994,0.1163774,-0.2389114,0.1451598,0.1070817,-0.09284177,-0.5078041,0.04413718
0.8284854,-0.04464648,0.1348405,-0.1833657,0.1550873,0.1259944,0.00126899,-0.4303882,-0.05370532
0.9290644,-0.006695369,0.165737,-0.08285533,0.1929771,0.1573178,0.1011441,-0.5093663,-0.2127265
1.007334,-0.01114724,0.1494726,-0.004569916,0.1884409,0.1414508,-0.1009317,-0.4456427,-0.3410213
1.071505,-0.03027328,0.05990249,0.0596961,0.1691999,0.05224281,-0.529246,-0.09934227,-0.3604232
1.212874,-0.1013604,0.00470565,0.2012341,0.09796114,-0.002630352,-0.6817334,0.1201425,0.0231179
1.416115,-0.2279542,0.05918849,0.4047025,-0.02882435,0.0521374,-0.2262549,0.2480397,0.3785129
1.526542,-0.2456479,0.1435855,0.5153955,-0.04674838,0.1367804,0.5493056,0.3462756,0.2077461
1.4487,-0.1397068,0.1346455,0.4378325,0.05892775,0.1280452,0.7581867,0.4994563,0.04694899
1.362334,-0.07123069,0.08638148,0.3517337,0.1271064,0.07994118,0.2994257,0.4423474,0.2024208
1.44699,-0.1322855,0.05065128,0.4366245,0.0657212,0.04432383,-0.08319091,0.3878927,0.4818647
1.451068,-0.3497025,0.001096309,0.440885,-0.1520589,-0.00516551,-0.07410664,1.050354,0.664926
1.218923,-0.6800091,0.01846405,0.2088522,-0.482754,0.01222252,0.1534967,1.460531,0.1495725
0.8381952,-0.7987444,0.04930385,-0.171842,-0.6018847,0.04303981,0.3629806,0.6101022,-0.6275982
0.5450081,-0.551241,0.02562683,-0.4650696,-0.3547575,0.0192995,0.5312302,-0.5402677,-0.4933749
0.7512613,-0.2931749,0.01390479,-0.2589127,-0.09702664,0.007475163,0.4324905,-0.6919408,-0.19859
1.071711,-0.2043109,-0.02874214,0.06140365,-0.008446398,-0.0353105,0.05396802,-0.2240317,-0.221313
1.045183,-0.2035728,-0.05180016,0.03471527,-0.007938924,-0.05853988,-0.0117146,-0.193824,0.2191536
1.00456,-0.2846666,-0.02998101,-0.006092664,-0.08921207,-0.03691988,0.1214555,-0.2716227,0.3455577
0.9259107,-0.3500541,-0.06058975,-0.08495073,-0.154728,-0.06775047,0.2207892,-0.2278555,-0.06059305
0.8079675,-0.3410043,-0.07326614,-0.2031202,-0.1457531,-0.08066623,0.4625128,-0.2801373,-0.2111213
0.8046589,-0.2842318,-0.05318194,-0.2066641,-0.08899899,-0.0608335,0.6087299,-0.2862775,-0.3051201
0.7643402,-0.1788758,-0.04272148,-0.2472158,0.01639666,-0.05063153,0.6849546,-0.3760966,-0.145211
0.8237134,-0.1069306,-0.02788862,-0.1880615,0.08843709,-0.03606007,0.7518526,-0.347297,0.1253918
0.9102678,-0.07805212,-0.03102482,-0.101702,0.1174597,-0.03945731,0.6747523,-0.1860668,0.1159136
0.899657,-0.03718455,-0.01998915,-0.1124768,0.1585114,-0.02867967,0.6210672,-0.05674115,0.1945774
0.9279888,-0.00815476,-0.0007048749,-0.08427413,0.1877546,-0.009648291,0.5372605,0.09491698,0.2207287
0.8967053,0.007745538,0.002447564,-0.1156487,0.2038863,-0.006742278,0.4057905,0.00928073,0.2203199
0.8948131,0.02316551,0.008819478,-0.1175914,0.2195436,-0.0006096015,0.3531089,-0.03207893,0.3326728
0.9516992,0.03893602,0.004554466,-0.06071213,0.2355454,-0.005106291,0.33126,0.06572913,0.3371244
0.981794,0.01857582,0.009023741,-0.03057962,0.2153987,-0.0008608905,0.3724548,0.05422492,0.2998042
1.051882,-0.05101298,0.02985352,0.03958928,0.1459952,0.01975285,0.4690025,0.1192816,0.1414279
1.061472,-0.1080166,0.04637814,0.04930121,0.08914123,0.03606875,0.5761742,0.04528126,-0.08147401
1.038592,-0.08489218,0.05052839,0.02657784,0.1123751,0.04001627,0.5684164,-0.2029337,-0.1874071
1.037659,0.08485212,0.05039456,0.02583178,0.2821846,0.03968399,0.2330836,-0.4246662,-0.169387
1.107217,0.2200136,0.07343269,0.09560214,0.4173592,0.06252599,-0.2489337,-0.6850931,-0.002177616
1.316198,0.02859714,0.06860584,0.3048141,0.2258917,0.0575031,-0.4220986,-0.7871307,0.1643097
1.420238,-0.3080541,-0.03269465,0.409092,-0.1108833,-0.04399512,-0.3022232,-0.6937631,0.2027426
1.319642,-0.4548289,-0.1711974,0.3087222,-0.2578524,-0.1826961,-0.2949925,-0.5541189,0.01646104
1.182062,-0.4717624,-0.2037849,0.1713403,-0.2750375,-0.2154763,-0.4347235,-0.2985783,-0.2281286
1.098782,-0.5008495,-0.1310399,0.08821865,-0.3044158,-0.1429095,-0.6619328,-0.03258887,-0.3225427
1.040352,-0.5415016,-0.07661296,0.02990408,-0.3453798,-0.08863819,-0.8820006,-0.08155044,-0.4431927
1.083343,-0.5583461,-0.0364244,0.07296446,-0.3625379,-0.04857758,-0.5926396,-0.2347376,-0.3831408
1.259694,-0.4776178,-0.04479791,0.2493393,-0.2821064,-0.05704914,0.04755297,-0.09973123,-0.0644877
1.294372,-0.3371002,-0.1077363,0.2839911,-0.1418536,-0.1200542,0.2797082,0.09650114,0.09862183
1.202883,-0.2286604,-0.09019363,0.1924156,-0.03363744,-0.1025445,0.08989544,0.3882047,0.072131
1.096883,-0.1671938,-0.05396815,0.08626314,0.02764933,-0.06631552,-0.198318,0.7705339,-0.02756676
0.9454801,-0.1579056,-0.02657876,-0.06536013,0.03679961,-0.03888456,-0.5018611,0.9155513,-0.1181583
0.8626143,-0.1510648,0.04080667,-0.1485089,0.0435404,0.02858016,-0.6840281,1.044242,-0.1510635
0.7316821,-0.1469413,0.07043475,-0.2797762,0.04759733,0.05832254,-0.6768827,1.022995,-0.126464
0.5814453,-0.1390683,0.1092674,-0.430384,0.05543266,0.09729955,-0.5980776,0.6987118,0.01745111
0.5589372,-0.1148937,0.1598049,-0.4532779,0.07959348,0.1480048,-0.4742031,0.3008328,0.1446095
0.5541771,-0.1312059,0.179816,-0.4584144,0.06328664,0.1681987,-0.2862358,-0.1035092,0.1704412
0.6325804,-0.1204415,0.1743702,-0.380355,0.07407039,0.1629413,-0.202455,-0.2514672,0.1368829
0.7687907,-0.09017513,0.1042583,-0.2444367,0.1043651,0.09301449,-0.2222927,-0.4492849,0.1079669
0.8413541,-0.06107195,0.07848312,-0.1721004,0.1335004,0.06741438,-0.1270946,-0.6131271,0.169191
0.8985569,-0.002334693,0.115358,-0.1150523,0.1922666,0.1044497,-0.03820536,-0.3950256,0.1766944
0.9697656,-0.01475558,0.1439077,-0.04392362,0.1798637,0.1331411,-0.09875879,-0.4472915,0.06460583
1.026226,-0.02913492,0.1586232,0.01253084,0.1654829,0.1479746,-0.1457896,-0.4496076,-0.1665543
1.042748,-0.02789218,0.07033061,0.02911555,0.1666972,0.05977104,-0.3040704,-0.2868834,-0.372241
1.150789,-0.1232176,-0.01635793,0.1372831,0.07131024,-0.02686018,-0.6579932,-0.3302649,-0.1594991
1.292244,-0.2011011,0.01681974,0.2789163,-0.006670847,0.006343588,-0.7033808,0.005911837,0.2755734
1.347213,-0.2112061,0.03477779,0.3341028,-0.01690883,0.02429858,-0.2537901,0.2899439,0.4866974
1.461679,-0.2647541,-0.001162502,0.4488047,-0.07062178,-0.01167215,0.2029271,0.3366891,0.4494098
1.494945,-0.3790203,-0.0251498,0.4823044,-0.1850793,-0.03571527,0.366206,0.5151452,0.3995089
1.45985,-0.4378553,-0.04267485,0.4474168,-0.2441229,-0.05331839,0.5194885,0.6479475,0.5327672
1.553692,-0.4517819,-0.04708749,0.5414156,-0.2582631,-0.05782738,0.6926419,1.269691,0.4415104
1.426183,-0.5438266,-0.002531122,0.413993,-0.3505122,-0.01338156,0.474978,1.813215,-0.2228153
0.9521816,-0.6028902,0.05738718,-0.06000974,-0.4097552,0.04641474,0.2861282,1.146389,-0.8635962
0.485968,-0.4819566,0.1068585,-0.5263124,-0.288959,0.09575286,0.4325108,-0.02066622,-0.7593981
0.4214482,-0.2585623,0.09834298,-0.5909901,-0.06564677,0.08709097,0.3311169,-0.6493495,-0.3255589
0.8081362,-0.1331199,0.00323952,-0.2044999,0.05977448,-0.008174518,0.04530757,-0.6289974,-0.1781982
1.087997,-0.1722392,-0.06819167,0.07514459,0.02069237,-0.07978344,-0.1324999,-0.3901246,0.1455896
1.126391,-0.2759591,-0.09967231,0.1133117,-0.08293703,-0.111454,-0.06092741,-0.1266048,0.3382657
1.088489,-0.3959028,-0.09410398,0.07517101,-0.2027389,-0.106082,0.2695503,0.05780567,-0.08005048
0.8966045,-0.4235578,-0.07214908,-0.116967,-0.2301979,-0.08432349,0.4459808,0.04560442,-0.3277771
0.7441587,-0.3206816,-0.08224441,-0.2696763,-0.1270664,-0.09460976,0.6015138,-0.1210462,-0.4162695
0.6743363,-0.2109242,-0.03236237,-0.3397621,-0.01699083,-0.04490863,0.8088066,-0.4684003,-0.3381648
0.7198903,-0.1119195,-0.003223032,-0.2944562,0.08239303,-0.01593705,0.8720101,-0.6742478,0.032647
0.8733186,-0.0497584,-0.02712844,-0.1412461,0.1449874,-0.03999553,0.8831562,-0.5917545,0.1242331
0.9294039,-0.02656258,-0.007164682,-0.08533953,0.1686602,-0.0201693,0.7335618,-0.3812291,0.1781199
1.00021,0.009296383,-0.01643143,-0.01466916,0.2050274,-0.02955732,0.5611374,-0.09748862,0.1637981
0.9554075,0.01586556,-0.01512199,-0.05956268,0.2121229,-0.02835234,0.4242828,0.005771536,0.08067808
