accx,accy,accz,body_accx,body_accy,body_accz,body_gyrox,body_gyroy,body_gyroz
1.198963,-0.2153853,-0.695907,0.2682163,-0.004660643,-0.3171111,0.475949,-0.3176812,-0.1485712
1.236123,-0.2666467,-0.6950822,0.3059354,-0.05471669,-0.316565,0.50908,0.04448931,-0.1710413
1.107556,-0.2338858,-0.7036879,0.1778796,-0.02084688,-0.3253659,0.5443959,0.5713511,-0.2081579
0.8740545,-0.2318044,-0.7899783,-0.05516767,-0.01774758,-0.4117563,0.2953974,1.013196,-0.1976295
0.779382,-0.334502,-0.7330895,-0.1494429,-0.1195125,-0.3548606,-0.137993,1.140099,-0.1540869
0.8443663,-0.4070352,-0.6023476,-0.08411202,-0.1911905,-0.2239941,-0.2830039,1.320524,-0.100834
0.8756986,-0.3639121,-0.5391899,-0.0524759,-0.1472796,-0.1605883,-0.3134717,1.571308,-0.07612751
0.8431964,-0.2927369,-0.4468626,-0.08471073,-0.07537304,-0.06788859,-0.502444,1.443921,-0.07633593
0.8744308,-0.2466944,-0.4586226,-0.0532397,-0.02864813,-0.07915581,-0.5812707,1.203008,-0.01332032
0.9079138,-0.229695,-0.5125915,-0.01954631,-0.01101046,-0.1325167,-0.4756525,1.156503,0.09863205
0.8717858,-0.2254959,-0.4501991,-0.0554865,-0.006214419,-0.06940625,-0.4433573,1.127597,0.2017935
0.8374574,-0.225144,-0.4468246,-0.08964601,-0.005305036,-0.06520877,-0.4639478,1.130349,0.3087816
0.7735457,-0.2771163,-0.4112616,-0.1534031,-0.05675737,-0.02872401,-0.4459681,0.9784641,0.4092134
0.7216107,-0.3794229,-0.3099768,-0.2051906,-0.1585778,0.07357344,-0.4343531,0.6493732,0.4824934
0.745374,-0.4095493,-0.2796293,-0.1812782,-0.1882455,0.1050138,-0.3776648,0.4958492,0.489323
0.7530441,-0.3742647,-0.2308462,-0.1734483,-0.1525206,0.1549571,-0.2722532,0.4402641,0.4932789
0.7761297,-0.3739878,-0.2125071,-0.1501843,-0.1518132,0.1745089,-0.1400353,0.4250894,0.5098668
0.8195768,-0.3539985,-0.2192767,-0.106534,-0.1313958,0.1689894,-0.001424569,0.4172792,0.4424349
0.8189009,-0.322294,-0.2172812,-0.1069773,-0.09925945,0.1722572,0.03138949,0.3441695,0.3678903
0.8289317,-0.3169594,-0.264166,-0.09668165,-0.09348457,0.1266536,0.02447833,0.3105902,0.2970765
0.8189222,-0.3086391,-0.2486307,-0.1063917,-0.08471228,0.1434668,0.06351958,0.1814043,0.2182184
0.7701757,-0.321707,-0.2021633,-0.154802,-0.09731391,0.191198,0.05932508,-0.06285453,0.1725885
0.7573483,-0.3087274,-0.1599471,-0.1672532,-0.08385142,0.2346527,0.03990955,-0.286262,0.09233889
0.7663132,-0.2832961,-0.09248529,-0.1578681,-0.05791861,0.3033151,0.04666649,-0.4357928,0.0346408
0.7888002,-0.2892255,-0.08556434,-0.1349131,-0.06332698,0.3113844,0.02977305,-0.5513066,0.0006861471
0.8468636,-0.272601,-0.09416971,-0.07633141,-0.04616142,0.3038605,0.007465859,-0.6916829,-0.06121661
0.9215682,-0.2730389,-0.1271726,-0.001058153,-0.04603838,0.2718586,-0.0233725,-0.6817672,-0.07983908
1.015916,-0.28973,-0.2166744,0.09390563,-0.06214927,0.1832657,-0.04902707,-0.5714782,-0.07666137
1.105271,-0.2952641,-0.2907018,0.1839153,-0.06708381,0.1100483,0.003995535,-0.4251738,-0.05729946
1.142099,-0.3108281,-0.3214236,0.2214252,-0.08202866,0.08003419,0.0958809,-0.2136736,-0.007879002
1.181744,-0.2933682,-0.2582291,0.2617669,-0.06392957,0.143834,0.1700075,-0.1314909,0.02603504
1.236732,-0.2542428,-0.1664869,0.3174499,-0.02414459,0.2360785,0.1822587,-0.06741974,0.01511528
1.238749,-0.2371542,-0.1269237,0.3201438,-0.006377073,0.2760371,0.02176116,0.1022009,-0.01038498
1.218005,-0.2882143,-0.1209529,0.3000418,-0.05674082,0.2822906,-0.1537758,0.2486742,0.003413399
1.162581,-0.380994,-0.1847077,0.2452099,-0.1488076,0.2186994,-0.07998906,0.2024102,-0.004904604
1.043949,-0.4124806,-0.2616664,0.127109,-0.1795627,0.1417811,0.04318742,-0.08977923,-0.01729604
0.987328,-0.4766577,-0.3010327,0.0709523,-0.2429847,0.1023313,0.1026408,-0.3748206,0.02498783
1.014366,-0.6086438,-0.4024379,0.09838449,-0.3741844,0.0007218307,0.3654273,-0.5258444,0.0258041
0.9880616,-0.632511,-0.5849609,0.07240283,-0.3972226,-0.1821186,0.6678543,-0.5040132,-0.05784319
0.8913345,-0.5229676,-0.6940374,-0.02407095,-0.2867946,-0.2916119,0.685102,-0.3220346,-0.1963939
0.8133463,-0.375159,-0.6428301,-0.1018724,-0.1380359,-0.2409018,0.5235604,-0.08564954,-0.2817531
0.7517444,-0.2411396,-0.5591553,-0.1633467,-0.002997247,-0.1577847,0.3196747,0.03851309,-0.2644956
0.679546,-0.1147216,-0.4845425,-0.2354658,0.1245051,-0.08377424,0.09135767,-0.2501092,-0.2720521
0.6743061,-0.05371966,-0.3789359,-0.2406617,0.1866461,0.02119658,-0.1190059,-0.6780285,-0.3106351
0.7457188,-0.1369174,-0.3511965,-0.1692263,0.1046283,0.04827267,-0.2390705,-0.9546463,-0.3697658
0.8314218,-0.2308851,-0.3937559,-0.08351048,0.0118687,0.005025473,-0.2527562,-1.160518,-0.5054692
0.9138364,-0.2863849,-0.418492,-0.001085891,-0.04240329,-0.0204203,-0.1653128,-1.102805,-0.6770388
0.9246197,-0.3403768,-0.4654963,0.009707614,-0.09515199,-0.06815217,-0.01491647,-0.9130804,-0.8333647
0.8870502,-0.3000501,-0.4862576,-0.0278512,-0.05356837,-0.08965332,0.05662311,-0.6514366,-0.889239
0.8926801,-0.2443341,-0.4427912,-0.02220948,0.003417233,-0.04693282,0.185028,-0.2336136,-0.8282848
0.8779095,-0.212441,-0.4145235,-0.03696622,0.03658923,-0.01941123,0.4416168,-0.07117363,-0.73121
0.8303518,-0.1538733,-0.3903178,-0.08450632,0.09644014,0.004051984,0.5436757,-0.1491631,-0.5521896
0.8004075,-0.160551,-0.3513648,-0.1144264,0.09104282,0.04226827,0.5591514,-0.3006878,-0.35245
0.7884528,-0.1647261,-0.3313102,-0.1263458,0.08813764,0.06159223,0.6339069,-0.5906319,-0.3199279
0.8205584,-0.1217635,-0.3577523,-0.09418906,0.1323519,0.03442507,0.6777775,-0.6855567,-0.3410061
0.8478337,-0.092107,-0.4162395,-0.06684241,0.163234,-0.02478224,0.6871416,-0.5603006,-0.2954813
0.8492071,-0.02679751,-0.4289847,-0.06537501,0.2297336,-0.03824107,0.649071,-0.5455817,-0.2781555
0.863536,0.02388841,-0.4198448,-0.0509277,0.2815632,-0.02980587,0.5843626,-0.5359075,-0.1912272
0.8645992,0.02277192,-0.4374025,-0.0497208,0.2815316,-0.04805619,0.5017563,-0.461157,0.009264346
0.8927603,-0.003123913,-0.4362285,-0.02139041,0.2566489,-0.04755961,0.3888154,-0.4086803,0.151944
0.9654484,-0.06222002,-0.4076627,0.05149146,0.1984833,-0.01965317,0.3578282,-0.3114512,0.1804175
1.036903,-0.09723009,-0.38844,0.1231616,0.1643127,-0.001069538,0.4186864,-0.2822711,0.08452235
1.104086,-0.09113243,-0.4460371,0.1905738,0.1711534,-0.05928418,0.4594659,-0.35697,-0.06945043
1.144606,-0.06484908,-0.551292,0.2313286,0.1980793,-0.1651326,0.4321252,-0.3570238,-0.1800057
1.164019,-0.001473096,-0.602208,0.2509695,0.261993,-0.2166124,0.3096013,-0.3025155,-0.2020006
1.176574,0.06975042,-0.6500913,0.2637342,0.3336433,-0.265021,0.1010231,-0.2333972,-0.1262236
1.184836,0.04781759,-0.7028005,0.2721739,0.3120185,-0.3182059,-0.007909132,-0.136591,-0.08748554
1.171669,-0.05921574,-0.7023777,0.2591416,0.2051666,-0.3181966,0.05460404,0.05885771,-0.08812466
1.073095,-0.1402036,-0.7483518,0.1606489,0.1242294,-0.3645092,0.01185822,0.4174632,-0.06382638
0.9395242,-0.2425367,-0.8150522,0.02709895,0.02181688,-0.4314595,-0.2607193,0.777377,-0.06837903
0.8670469,-0.3970921,-0.711655,-0.04541772,-0.1329415,-0.3282098,-0.5655406,1.065774,-0.039009
0.8512027,-0.5279772,-0.5351548,-0.06135774,-0.2641407,-0.1517436,-0.6638538,1.257733,0.03365352
0.87472,-0.5622548,-0.4703695,-0.03798603,-0.298825,-0.08687444,-0.5523501,1.354422,0.10202
0.9304346,-0.4681633,-0.4266111,0.01753914,-0.2052119,-0.04291601,-0.4619981,1.536113,0.1627336
0.9956609,-0.3677078,-0.3748298,0.08253615,-0.1052879,0.009175881,-0.3167249,1.661257,0.2265565
1.031414,-0.2706032,-0.3761005,0.1180212,-0.008754495,0.00831871,-0.07872151,1.548454,0.3134538
1.000285,-0.1787602,-0.4109429,0.08658414,0.08248497,-0.02601591,-0.04164725,1.377207,0.3166172
0.9247856,-0.1755026,-0.4603622,0.01073669,0.08510933,-0.07484037,-0.198359,1.107807,0.2699256
0.815195,-0.1713443,-0.4130854,-0.09924088,0.08860503,-0.02688785,-0.4467287,0.6741895,0.2849293
0.6609484,-0.1919419,-0.315105,-0.2539066,0.06731497,0.0718433,-0.6226614,0.3293648,0.349918
0.6265317,-0.2258629,-0.3090056,-0.2887622,0.03267189,0.07876001,-0.5671709,0.1173666,0.5421484
0.7159261,-0.2383327,-0.276954,-0.1998117,0.0194519,0.1116849,-0.4923452,0.001000894,0.7774491
0.7151756,-0.3172669,-0.202345,-0.2009969,-0.06025751,0.1872115,-0.408914,0.09786069,0.8756141
0.7481477,-0.3296206,-0.173651,-0.1684392,-0.07340641,0.2168539,-0.2938488,0.2225195,0.8687432
0.8179532,-0.3035892,-0.1695844,-0.0990189,-0.04818392,0.2218848,-0.248124,0.2346568,0.7945623
0.7931355,-0.3534763,-0.165297,-0.1241866,-0.098887,0.2271377,-0.182713,0.2632224,0.6264115
0.8109421,-0.3990662,-0.1347171,-0.1066902,-0.1452929,0.2586696,-0.1207607,0.1595552,0.3592045
0.7727148,-0.4331094,-0.1052257,-0.1451839,-0.1801437,0.2890851,-0.04529123,-0.1498485,0.06166164
0.7114312,-0.3915932,-0.06388009,-0.2066855,-0.1394173,0.3313124,-0.005538196,-0.4238063,-0.1513277
0.7595777,-0.3111237,-0.0418572,-0.158703,-0.05971135,0.3541592,-0.1034233,-0.4889441,-0.2280445
0.7710767,-0.277166,-0.09739999,-0.1473087,-0.02648564,0.2993674,-0.2120321,-0.3500658,-0.2447052
0.834289,-0.240708,-0.1388589,-0.08413781,0.009274121,0.2585733,-0.3073578,-0.22808,-0.2580074
0.9298075,-0.2278718,-0.1818335,0.01140354,0.02144591,0.2161675,-0.3292009,-0.2457101,-0.1900496
0.9711116,-0.2068132,-0.2409861,0.05279192,0.04187266,0.1574806,-0.2422125,-0.4362176,-0.07390302
1.077125,-0.1867966,-0.2593967,0.158945,0.06128749,0.1394294,-0.142122,-0.7231693,0.02287329
1.211494,-0.2373298,-0.2464471,0.2934972,0.01018011,0.1526305,-0.04763027,-0.6937118,0.1092385
1.311459,-0.2710099,-0.2034841,0.3936752,-0.02404878,0.1957363,-0.05674239,-0.3411241,0.1259204
1.295671,-0.276125,-0.2107609,0.3781111,-0.0296873,0.1884923,-0.1198624,0.1487099,0.1514788
1.246769,-0.3576967,-0.2601197,0.3294206,-0.1117559,0.1390548,-0.1171334,0.6410714,0.2684922
1.238431,-0.4704533,-0.3279571,0.3212669,-0.2249792,0.07102758,-0.06951542,0.4775448,0.3413927
1.100195,-0.4702049,-0.4256297,0.1831708,-0.2251599,-0.02694254,0.08412016,-0.3082789,0.3402372
1.004987,-0.4839978,-0.4236338,0.08805008,-0.2393349,-0.02534476,0.3124417,-0.8463173,0.3428943
1.058384,-0.6753382,-0.4631722,0.1414773,-0.4309996,-0.06537259,0.5584134,-0.7757561,0.3298077
1.028737,-0.7712419,-0.6818232,0.1118,-0.5271552,-0.2845926,0.7289248,-0.4369146,0.2332851
0.9008683,-0.5842975,-0.7956973,-0.01615912,-0.3403727,-0.3990983,0.5699455,-0.2244864,0.03067091
0.7601762,-0.3350835,-0.6243413,-0.1569999,-0.09121642,-0.2284154,0.2981915,0.1260343,-0.1577323
0.6898588,-0.1948661,-0.3927017,-0.2275151,0.04905142,0.002528757,0.2450073,0.2876123,-0.266328
0.6776173,-0.1379984,-0.3676,-0.2399905,0.1060721,0.02692289,0.08268236,-0.1213346,-0.4581081
0.6429178,-0.1187252,-0.3511635,-0.2749447,0.1255897,0.0426431,-0.238933,-0.5329229,-0.6924921
0.6867124,-0.1598229,-0.2745844,-0.2314105,0.08481508,0.1184976,-0.3086371,-1.232988,-0.7480401
0.8178952,-0.2334964,-0.4114776,-0.1004807,0.01153202,-0.01912901,-0.1618593,-1.641316,-0.7248378
0.9127685,-0.2787489,-0.5481951,-0.005844611,-0.03327101,-0.1565873,-0.002041226,-1.127422,-0.7420324
0.9351476,-0.279138,-0.5448597,0.01631588,-0.03315724,-0.1539939,0.07395673,-0.8284627,-0.7510238
0.8998394,-0.2434979,-0.536725,-0.01919222,0.003035054,-0.1465932,0.1412071,-0.3568199,-0.7617327
0.881202,-0.2411181,-0.479234,-0.0380116,0.006012242,-0.08981932,0.3670603,0.1641409,-0.7049504
0.8689139,-0.2433044,-0.45452,-0.05046294,0.004463466,-0.06579884,0.5797031,-0.05927452,-0.5733302
0.8220118,-0.2112969,-0.4268918,-0.09750824,0.03714358,-0.03883617,0.6709879,-0.07268732,-0.4660204
0.8118486,-0.1911708,-0.3877563,-0.1077917,0.05797169,-0.0003358526,0.7033697,-0.1858487,-0.3640689
0.8021185,-0.1512503,-0.4216579,-0.1176155,0.09861713,-0.03484132,0.6618695,-0.5300891,-0.2711537
0.7827288,-0.1080954,-0.403379,-0.137068,0.142512,-0.01713455,0.5951598,-0.4369771,-0.2259855
0.80079,-0.06669937,-0.3921742,-0.1190345,0.1846537,-0.006469788,0.5392408,-0.4167261,-0.1948412
0.7982675,-0.01793885,-0.4002139,-0.1215455,0.2341546,-0.01501752,0.50198,-0.423617,-0.110057
0.8075049,0.005717182,-0.3749838,-0.1122541,0.2585335,0.009735968,0.4410856,-0.3745494,0.005760849
0.8248419,0.04844246,-0.3935255,-0.09481782,0.3019506,-0.009251605,0.3657281,-0.410894,0.08839027
0.8204935,0.03483365,-0.3890907,-0.09901995,0.2889889,-0.005232767,0.2940363,-0.3983511,0.2126335
0.8782682,-0.07026248,-0.3855918,-0.04105082,0.1844821,-0.002120822,0.2217145,-0.470643,0.336435
0.9776479,-0.142071,-0.4144958,0.05857011,0.1131961,-0.0313834,0.2584119,-0.4669374,0.3131677
1.081309,-0.1555412,-0.4556649,0.1625144,0.1001767,-0.0728825,0.286951,-0.3787817,0.22494
1.186004,-0.1142833,-0.5351384,0.2675257,0.1418113,-0.1526558,0.2101514,-0.2692326,0.1234433
1.234528,-0.08113445,-0.5748943,0.3163843,0.1752606,-0.1926767,0.141768,-0.1421654,-0.04354784
1.238283,-0.1143344,-0.6258043,0.3204755,0.142282,-0.24381,0.07920989,-0.2389629,-0.1190771
1.273221,-0.1810202,-0.7177027,0.3557347,0.07573582,-0.3358808,0.08308385,-0.28478,-0.02802994
1.300332,-0.2705338,-0.7580517,0.3831338,-0.01371938,-0.3763398,0.1507104,-0.01909768,0.009439841
1.240619,-0.2950705,-0.7795096,0.3236588,-0.03827517,-0.3978313,0.1575957,0.4415703,-0.05175866
1.151244,-0.2847088,-0.7705273,0.2344577,-0.02800367,-0.3887923,0.01640976,1.035184,-0.1019853
0.9548891,-0.3921644,-0.7120812,0.03820366,-0.1356128,-0.3301859,-0.312161,1.516135,-0.1247619
0.6936102,-0.5229356,-0.611992,-0.2230492,-0.266591,-0.2298229,-0.5432907,1.689548,-0.02869797
0.7401961,-0.515837,-0.4902195,-0.1765031,-0.2597384,-0.107658,-0.4702541,1.712041,0.1407687
0.9421888,-0.3911475,-0.4405805,0.025396,-0.1353187,-0.0575088,-0.4088943,1.74671,0.2082312
0.9867467,-0.2778849,-0.3789401,0.06981478,-0.02233758,0.00475436,-0.4483434,1.653473,0.2372075
1.031907,-0.2446649,-0.322155,0.1147926,0.01059533,0.06226639,-0.3460372,1.356642,0.2639865
1.001877,-0.2295365,-0.4094118,0.08453593,0.0254334,-0.02416981,-0.3023818,1.047692,0.2040099
0.8507061,-0.1915738,-0.4668162,-0.06690545,0.0631024,-0.08066921,-0.4929366,0.8304514,0.1431699
0.7744481,-0.191249,-0.4678252,-0.1434744,0.06312912,-0.08069526,-0.6319456,0.6782629,0.1544421
0.7104114,-0.2554736,-0.438317,-0.2078535,-0.001399479,-0.05013084,-0.6106953,0.5023359,0.2187558
0.6359986,-0.3041654,-0.2783,-0.2826283,-0.05040114,0.1110097,-0.5329156,0.3742169,0.376961
0.5945823,-0.3254905,-0.203267,-0.3244108,-0.07203959,0.1872237,-0.4545757,0.4021198,0.5914318
0.6266744,-0.3271069,-0.2134931,-0.2926732,-0.07396909,0.1782222,-0.3589265,0.4146081,0.756162
0.7062033,-0.3049545,-0.1614631,-0.2134716,-0.05212496,0.2315044,-0.2749541,0.3821037,0.794666
0.702406,-0.3226524,-0.1686914,-0.2175569,-0.07012261,0.22554,-0.284294,0.3197462,0.6763503
0.7274351,-0.3221775,-0.1848605,-0.192767,-0.06993541,0.2106308,-0.2730952,0.1189252,0.4998934
0.7428712,-0.3111903,-0.1521932,-0.1775138,-0.05922038,0.2445393,-0.2393493,-0.1195982,0.3273287
0.7040383,-0.3354129,-0.1088178,-0.2164669,-0.08369668,0.2891231,-0.2414855,-0.3549538,0.1024649
0.7491259,-0.3128135,-0.05549097,-0.1714311,-0.06132954,0.3436107,-0.2195132,-0.5744721,-0.1130918
0.780639,-0.3065901,-0.04730959,-0.1398965,-0.05531426,0.3528893,-0.2537538,-0.5916626,-0.1713733
0.8620083,-0.3180553,-0.09186455,-0.05843014,-0.06696135,0.3093523,-0.2752495,-0.4306735,-0.1290199
0.9797551,-0.2938457,-0.2117932,0.05948812,-0.04290591,0.1903492,-0.1961991,-0.3703388,-0.121793
1.02155,-0.2737837,-0.3669069,0.1015232,-0.02296915,0.03606041,-0.09956958,-0.5343903,-0.06630079
1.115621,-0.2425684,-0.3875691,0.1958931,0.008149583,0.0161212,-0.004087116,-0.6691716,0.02674225
1.22315,-0.2515723,-0.278952,0.3037683,-0.0009233981,0.1253618,0.02881683,-0.5167168,0.003417256
1.311314,-0.2767759,-0.2041961,0.3923056,-0.02617022,0.2006428,-0.04001624,-0.1322095,-0.01658939
1.33081,-0.27771,-0.1828799,0.4121837,-0.0271228,0.2223836,-0.1340389,0.4095467,0.04574422
1.276836,-0.3219877,-0.213925,0.3585793,-0.07139448,0.1916586,-0.1314811,0.771723,0.06844701
1.209834,-0.3541485,-0.3461975,0.2919135,-0.1035239,0.05959864,-0.08957592,0.3909741,0.09827465
1.051074,-0.3692985,-0.4386279,0.1334431,-0.1186145,-0.03272566,-0.0901317,-0.3583514,0.2196613
1.0176,-0.4841149,-0.4359509,0.1002015,-0.2333397,-0.03004311,0.07358181,-0.7455488,0.43056
1.08469,-0.6753041,-0.5233248,0.1674654,-0.4243981,-0.1175031,0.4159147,-0.7114512,0.5857514
0.9823468,-0.7058297,-0.6984004,0.06523298,-0.4547402,-0.2927445,0.5922933,-0.3052598,0.469922
0.8419421,-0.4966039,-0.6942931,-0.07512371,-0.2452622,-0.2888667,0.3235376,0.01745539,0.2240341
0.7265634,-0.3062436,-0.4870959,-0.1905126,-0.05457036,-0.08194473,-0.07373174,-0.008053496,-0.02885816
0.717999,-0.2545057,-0.3339022,-0.199135,-0.002419268,0.07094064,-0.1762035,0.0156971,-0.425613
0.7702406,-0.2780075,-0.2569652,-0.1469868,-0.02543054,0.1475406,-0.3186791,-0.2895611,-0.8612591
0.7006423,-0.3293878,-0.2449691,-0.2167016,-0.07624849,0.1591692,-0.4506574,-1.053025,-1.1575
0.7181693,-0.3665621,-0.3199005,-0.1993026,-0.1127927,0.08383624,-0.2216662,-1.461194,-1.204366
0.8094239,-0.3754626,-0.4164719,-0.1081766,-0.1209974,-0.01317297,-0.02663568,-1.360597,-1.070337
0.8480331,-0.3068468,-0.5487695,-0.06968845,-0.05162134,-0.1459421,0.09251735,-1.006519,-1.033149
0.8943564,-0.2186679,-0.565365,-0.02347406,0.03737927,-0.1630356,0.2755751,-0.4359308,-0.9905311
0.8493181,-0.1812514,-0.4856157,-0.06860661,0.0756727,-0.08380081,0.3328423,0.01265076,-0.8184229
0.812024,-0.1596235,-0.4623702,-0.1059783,0.09822401,-0.06107766,0.4102797,-0.02038911,-0.5805148
0.8308652,-0.161182,-0.4138924,-0.08719484,0.09762511,-0.01312411,0.543602,-0.2018537,-0.2655359
0.8053113,-0.1439214,-0.4200088,-0.1127832,0.1158714,-0.01976298,0.6194549,-0.2628879,-0.1275947
0.8211757,-0.1245749,-0.4449791,-0.09692612,0.1362193,-0.04525132,0.6597882,-0.3399512,-0.1600191
0.8151726,-0.1113442,-0.4078736,-0.1029063,0.1504568,-0.008656886,0.6249066,-0.321604,-0.1407058
0.776797,-0.03284124,-0.4046642,-0.1412254,0.2299609,-0.005949615,0.5468183,-0.3093032,-0.1509595
0.7730256,0.03494894,-0.3795528,-0.1449031,0.2987343,0.01866984,0.446939,-0.3931638,-0.1059995
0.7651738,0.05648606,-0.3871683,-0.1526196,0.3212219,0.01057297,0.3403055,-0.3939627,0.02622075
0.795247,0.07529056,-0.4373579,-0.1223655,0.3409283,-0.04008725,0.2372772,-0.3692175,0.1861228
0.8168644,0.07265851,-0.4222511,-0.1005186,0.3391336,-0.02543903,0.08894801,-0.3103475,0.3587674
0.854288,-0.002538835,-0.3947787,-0.06281526,0.2646946,0.001588212,0.03425814,-0.3009174,0.3886923
0.954699,-0.1110702,-0.3789643,0.03792502,0.1568313,0.01697186,0.1401148,-0.4303921,0.3266963
1.041346,-0.1289854,-0.4350037,0.1249466,0.1394873,-0.03948363,0.1822336,-0.4996839,0.2167306
1.177457,-0.1043556,-0.5313588,0.2614685,0.1645885,-0.136239,0.07046527,-0.4155007,0.04561423
1.314271,-0.1010637,-0.5331014,0.3987168,0.16825,-0.1383617,-0.0289878,-0.1957276,-0.02524471
1.342797,-0.1157507,-0.5535459,0.4276796,0.1538287,-0.1591602,-0.01586148,0.01104792,-0.01501509
1.319372,-0.1863951,-0.6340233,0.4046726,0.08334529,-0.2399579,0.03311639,0.1813814,-0.03068366
1.260975,-0.2430948,-0.6641299,0.346655,0.02670301,-0.2703427,0.1307634,0.4890277,-0.03723097
1.113397,-0.2367595,-0.713396,0.1994008,0.03299619,-0.319834,0.1922048,0.8672253,-0.004761563
0.8769265,-0.2536211,-0.7777441,-0.03681162,0.01599858,-0.384342,-0.1810454,1.178478,0.0616048
0.7749512,-0.3607425,-0.7198228,-0.1385952,-0.09134618,-0.3265023,-0.681023,1.414531,0.2066762
0.8687557,-0.4930288,-0.588202,-0.04465836,-0.2239333,-0.1948731,-0.6257287,1.674209,0.3299653
0.8931664,-0.5192157,-0.4760482,-0.02016681,-0.2504848,-0.08261431,-0.5129364,1.840171,0.2998547
0.8868524,-0.3871762,-0.4057642,-0.02644574,-0.1188572,-0.01212866,-0.6960214,1.63901,0.2880442
0.9817195,-0.2044873,-0.4215283,0.06841462,0.06338515,-0.02759859,-0.6770886,1.353208,0.3457062
1.023996,-0.1165317,-0.4623281,0.1106439,0.150865,-0.06801742,-0.6368645,1.28383,0.3894943
0.9402029,-0.08691877,-0.479553,0.02676394,0.1799718,-0.08477965,-0.7332126,1.145976,0.4454792
0.8005047,-0.1113086,-0.4933015,-0.1130613,0.1550413,-0.09798699,-0.7742198,0.9139839,0.4419782
0.7015284,-0.2409226,-0.4309204,-0.2121988,0.02484857,-0.03498943,-0.8721458,0.7722646,0.4409517
0.6686273,-0.3826022,-0.313136,-0.2452846,-0.1174476,0.08348232,-0.8131342,0.5836058,0.5435302
0.6400979,-0.4472187,-0.2035583,-0.2740087,-0.1827119,0.1938097,-0.5976077,0.4637483,0.6483355
0.6381185,-0.4061412,-0.1040922,-0.2761782,-0.1423029,0.2940741,-0.4096649,0.3866853,0.7241346
0.67376,-0.3574537,-0.07836421,-0.2407085,-0.09429352,0.3206312,-0.1064652,0.1353564,0.7535405
0.7218729,-0.345743,-0.1224555,-0.1927366,-0.08326187,0.2773804,0.04614767,0.02762092,0.6717391
0.7577199,-0.3229538,-0.1831826,-0.1569907,-0.06114589,0.2174873,-0.002964175,0.02115417,0.5148182
0.748143,-0.3444207,-0.2048429,-0.166622,-0.08327481,0.1966396,-0.01986964,-0.09852856,0.3068801
0.755344,-0.3339207,-0.151042,-0.1594233,-0.07342088,0.2512198,-0.06728852,-0.276892,0.07077365
0.78809,-0.2976872,-0.1020287,-0.1266233,-0.03781308,0.3009672,-0.05423151,-0.575494,-0.09362091
0.8224942,-0.3200846,-0.1051045,-0.09210566,-0.06081264,0.2985679,-0.04716341,-0.6442087,-0.1732886
0.9067413,-0.3208765,-0.143893,-0.007685097,-0.06218036,0.2603854,-0.1414898,-0.3922022,-0.185731
1.044098,-0.3333854,-0.1971431,0.1299024,-0.07523602,0.2076605,-0.1820651,-0.09965538,-0.1337451
1.146943,-0.3179229,-0.2400808,0.2330266,-0.06028844,0.1651593,-0.1363133,0.0865012,-0.1064555
1.124214,-0.2561423,-0.2351404,0.2106143,0.001011391,0.1704429,-0.02014383,-0.09339708,-0.1165057
1.145897,-0.2517533,-0.1498001,0.2326352,0.00495404,0.2560294,0.02398403,-0.2598819,-0.1128928
1.276761,-0.2521463,-0.0971769,0.3638441,0.0041482,0.308797,-0.0788721,-0.03905225,-0.08976411
1.285279,-0.3012916,-0.1969573,0.3726976,-0.0453778,0.2090526,-0.1563666,0.3190016,-0.00700825
1.202322,-0.3890687,-0.3507338,0.2900486,-0.133503,0.05519947,-0.110278,0.5721916,0.1400025
1.080188,-0.4167386,-0.3825768,0.1681796,-0.1614853,0.02316853,0.00817136,0.2050484,0.2452989
0.9607763,-0.4735945,-0.3260816,0.04898068,-0.2186123,0.07936947,0.1886831,-0.4670659,0.2785354
1.012426,-0.5661522,-0.3670529,0.1007878,-0.3113918,0.03800374,0.57022,-0.4696682,0.3125569
1.031848,-0.5991358,-0.5651825,0.1203117,-0.3445374,-0.1606136,0.8581265,-0.2743973,0.2125274
0.8723454,-0.4772973,-0.751384,-0.03914739,-0.2227894,-0.347384,0.5843999,-0.3294007,-0.0419251
0.7540416,-0.2604233,-0.6742323,-0.1574614,-0.005926314,-0.2708635,0.187683,-0.1586766,-0.179091
0.7528632,-0.1790115,-0.5312927,-0.1586964,0.0755546,-0.1285973,0.02771081,0.0570568,-0.3279287
0.7686296,-0.1590489,-0.5450395,-0.1430219,0.09565971,-0.143044,-0.3299411,-0.02121386,-0.6299058
0.7235903,-0.09922124,-0.3960713,-0.1881779,0.1556933,0.005208835,-0.6724289,-0.6155133,-0.8398155
0.7032248,-0.1689116,-0.2304538,-0.2086736,0.08626137,0.1701008,-0.5485885,-1.488458,-0.9214187
0.807299,-0.2776586,-0.3250361,-0.1047327,-0.02218465,0.07478256,-0.3425426,-1.596477,-0.9441807
0.9369411,-0.2775284,-0.4113056,0.0247808,-0.02171664,-0.01223502,-0.1720057,-1.070665,-1.012738
0.9773957,-0.277775,-0.5348679,0.0651139,-0.02159205,-0.1365563,-0.03399646,-0.5729285,-1.101905
0.9075767,-0.2632292,-0.6224313,-0.00482067,-0.006643847,-0.2248827,-0.02901111,0.01566073,-0.9572144
0.8098454,-0.2001654,-0.4734066,-0.1026624,0.05685027,-0.0766151,0.2219841,0.2257945,-0.705724
0.7538485,-0.1525413,-0.379099,-0.1587619,0.1049282,0.01694957,0.4784615,-0.141312,-0.456893
0.7309999,-0.1133544,-0.380946,-0.1816995,0.1445852,0.01437728,0.5323474,-0.4317775,-0.1766214
0.7615098,-0.09646257,-0.3790097,-0.1512572,0.1619547,0.01560655,0.7008464,-0.5779889,-0.0804809
0.8013091,-0.08861243,-0.4048398,-0.1114976,0.1702807,-0.01091259,0.6820846,-0.579102,-0.1058407
0.8383808,-0.04845869,-0.4056401,-0.07443261,0.2108985,-0.01238314,0.5605116,-0.3804868,-0.08734714
0.881629,0.01848281,-0.4234391,-0.03115598,0.2782816,-0.03083287,0.5453323,-0.348449,-0.03848641
0.859757,0.08679304,-0.4310186,-0.05296376,0.3469986,-0.03904185,0.3911452,-0.4028394,0.08049939
0.8560603,0.09894739,-0.4253008,-0.05656083,0.3595105,-0.03393061,0.2727154,-0.3848496,0.2273145
0.9044995,0.06755826,-0.4417545,-0.007986971,0.3284148,-0.05096586,0.1456269,-0.351958,0.3472193
0.9317809,0.02957821,-0.4202566,0.01946251,0.2906503,-0.03002278,-0.007694173,-0.2645879,0.3896596
0.9810047,-0.02248654,-0.4149548,0.06888477,0.2387127,-0.0252474,0.04116944,-0.3261396,0.3121442
1.038093,-0.04048984,-0.4286563,0.1261964,0.2207402,-0.03944601,0.04408147,-0.4056687,0.1832689
1.097356,-0.01015653,-0.4470411,0.1857008,0.2510026,-0.05829743,-0.02406847,-0.3426397,0.06003591
1.158315,0.0005224724,-0.5039339,0.2469086,0.2615042,-0.1156247,-0.0211236,-0.3288977,-0.0026097
1.182532,-0.04508915,-0.5534648,0.2713697,0.2156041,-0.1655541,-0.05472905,-0.2675533,-0.005609545
1.22227,-0.1337754,-0.6014858,0.3113331,0.1265156,-0.2139322,-0.04677596,-0.1892325,-0.009835278
1.230076,-0.2017788,-0.6490994,0.3193325,0.05799677,-0.2618535,0.02678762,0.03024591,-0.02094489
1.119762,-0.1923156,-0.7511357,0.2091662,0.06683559,-0.3641386,-0.01075795,0.6161836,-0.08599098
0.9618197,-0.2178404,-0.864439,0.05131631,0.04058366,-0.4776183,-0.3215552,1.178093,-0.1874723
0.8906418,-0.372665,-0.7483595,-0.01982829,-0.1150632,-0.3616278,-0.7695917,1.408666,-0.2004326
0.9203567,-0.5159623,-0.546275,0.009863419,-0.2592659,-0.1595309,-0.847501,1.422532,-0.1730149
0.93478,-0.5465769,-0.4859214,0.02421076,-0.2908518,-0.09905746,-0.6257941,1.522808,-0.1568806
0.9674101,-0.4379484,-0.434428,0.05671538,-0.1832404,-0.04733708,-0.5619061,1.657625,-0.0510173
1.054749,-0.2321658,-0.3835533,0.1438804,0.02149609,0.003867125,-0.4708666,1.523707,0.09399229
1.064804,-0.1180435,-0.3944742,0.1537124,0.1345524,-0.006628529,-0.3609045,1.374381,0.1998402
0.9602775,-0.07664219,-0.432867,0.0489118,0.1748693,-0.04450784,-0.4929569,1.224093,0.3510857
0.8088838,-0.04367092,-0.4682155,-0.1028075,0.2067344,-0.07926091,-0.6262612,0.8513428,0.5190599
0.7224552,-0.1140988,-0.423921,-0.189607,0.1351743,-0.03429402,-0.6869019,0.603514,0.5615554
0.711056,-0.2169491,-0.3413161,-0.2014115,0.03116255,0.04905499,-0.6835954,0.5177281,0.5808044
0.6638474,-0.270785,-0.2678651,-0.2490462,-0.02386294,0.123314,-0.5761156,0.3478568,0.7503667
0.6396552,-0.3020979,-0.182278,-0.2736711,-0.05638909,0.2097617,-0.5106998,0.2264465,0.9120338
0.7008365,-0.3246875,-0.1290668,-0.2129145,-0.08020853,0.2638715,-0.3795063,0.2254875,0.9283494
0.7698012,-0.3370886,-0.1060599,-0.1443541,-0.09384815,0.2877978,-0.2049124,0.2723811,0.848471
0.8135464,-0.3307312,-0.1131494,-0.1009838,-0.08872964,0.2816308,-0.1416023,0.2731688,0.6537319
0.8274336,-0.3632381,-0.1173626,-0.08743646,-0.1224675,0.2783259,-0.1121262,0.1096193,0.3607913
0.8235827,-0.40079,-0.07727242,-0.09158859,-0.161234,0.3192939,-0.07134246,-0.15772,0.03307665
0.8219687,-0.3635221,-0.05206236,-0.09346263,-0.1251552,0.3453355,0.03541371,-0.3580616,-0.1970538
0.8219737,-0.3058194,-0.0500477,-0.09367378,-0.06860803,0.3481197,0.08246616,-0.4611546,-0.249317
0.8603213,-0.2549926,-0.09935159,-0.05549664,-0.01889738,0.2995082,0.02424898,-0.5465622,-0.2313452
0.971275,-0.2232356,-0.207191,0.05533261,0.0117852,0.1922718,0.04084403,-0.5649067,-0.1582834
1.091761,-0.2287602,-0.2878403,0.1757371,0.005228601,0.1121284,0.04810957,-0.4493513,-0.02525624
1.156196,-0.2479938,-0.2841848,0.240124,-0.01499498,0.11619,0.08318885,-0.308136,0.07808842
1.251247,-0.2683775,-0.1414486,0.3351474,-0.03632679,0.2592311,0.2384059,-0.251192,0.1098991
1.362773,-0.2664846,-0.01296772,0.4466516,-0.03533916,0.3879116,0.2873655,-0.1673835,0.05287506
1.329822,-0.2674253,-0.1205684,0.4136625,-0.03714146,0.2803976,0.07954741,0.1539892,-0.03137257
1.227492,-0.3023054,-0.2859515,0.3112604,-0.07283795,0.1149806,-0.1427368,0.4780209,-0.01730206
1.123325,-0.3406384,-0.3173706,0.2069709,-0.1119402,0.08340539,-0.04174694,0.3596154,0.073931
1.032164,-0.4207246,-0.3429044,0.1156276,-0.1927448,0.05759629,0.1353375,-0.1933408,0.1717717
1.123655,-0.5535475,-0.4041267,0.2068713,-0.3262285,-0.00401433,0.2361567,-0.8525043,0.3080928
1.183813,-0.5849002,-0.4871927,0.2667142,-0.3581736,-0.08757349,0.5618262,-0.9985487,0.3734672
0.9701082,-0.4276758,-0.6611342,0.05262131,-0.2014608,-0.262101,0.7450245,-0.4757483,0.2390913
0.7803635,-0.24571,-0.7420087,-0.1375847,-0.01991723,-0.3436368,0.4145265,-0.1348206,0.06141573
0.7601406,-0.1870476,-0.5677876,-0.1583345,0.03841329,-0.1701318,0.01754938,-0.2058383,-0.02483749
0.760047,-0.152981,-0.3647342,-0.159008,0.07223318,0.03216805,-0.1885524,-0.2258294,-0.1849914
0.7319856,-0.1290383,-0.3002003,-0.1876886,0.09600638,0.09592016,-0.4509222,-0.4278392,-0.5174035
0.7464007,-0.225519,-0.2980222,-0.1739187,-0.0005754876,0.09729028,-0.6224102,-0.9697647,-0.7403972
0.8399694,-0.3184144,-0.3164634,-0.08100886,-0.09350997,0.0780146,-0.3388355,-1.296742,-0.782016
0.919319,-0.3219415,-0.4061124,-0.002322869,-0.09701676,-0.01249515,0.02587542,-1.108824,-0.8811774
0.9219394,-0.3020504,-0.5375279,-0.000365981,-0.07704599,-0.1447942,0.187487,-0.6590172,-0.9742434
0.8591807,-0.2425936,-0.5526778,-0.06378521,-0.01745075,-0.160843,0.2470969,-0.09247999,-0.9377273
0.8152972,-0.1701327,-0.4451571,-0.1083227,0.05520488,-0.0542265,0.2440945,0.3259062,-0.7665626
0.8110681,-0.101304,-0.3702398,-0.1131939,0.124279,0.01978909,0.4696026,0.2204633,-0.4958233
0.7911265,-0.0540672,-0.3536063,-0.1337594,0.171803,0.03552717,0.6396293,-0.03195096,-0.277642
0.8176192,-0.0455206,-0.3685009,-0.1078656,0.1806675,0.01974458,0.5964258,-0.2296653,-0.1488723
0.8429221,-0.006703988,-0.3992689,-0.08313106,0.2198207,-0.01190324,0.6868312,-0.4995369,-0.09739985
0.826697,0.01066388,-0.4020089,-0.09988932,0.237531,-0.01551337,0.577605,-0.5232504,-0.1237132
0.8340749,0.01352273,-0.3986831,-0.09300549,0.2407253,-0.0130459,0.3791111,-0.505567,-0.1239605
0.8300726,0.0715334,-0.3820275,-0.09745962,0.2990514,0.002765512,0.2871223,-0.6131508,-0.0718224
0.8305948,0.08558828,-0.3587264,-0.09734375,0.3133883,0.02523775,0.1331935,-0.6012018,0.01796542
0.8497303,0.05243856,-0.3703716,-0.07856641,0.2804736,0.01277964,0.1477042,-0.549132,0.1745109
0.9017545,0.01943655,-0.3637377,-0.0268506,0.2476473,0.01861693,0.1268249,-0.3793292,0.3076524
0.9686278,-0.02646987,-0.3507553,0.03976396,0.2018477,0.0308189,0.08671562,-0.226415,0.3625176
0.9695797,-0.01588981,-0.3733922,0.04050361,0.2124584,0.007417777,0.2013701,-0.2744513,0.3914839
1.015467,0.04167873,-0.4320033,0.08622018,0.2699755,-0.0519411,0.1811506,-0.3785273,0.3329496
1.116882,0.07489812,-0.5122865,0.1875003,0.3030549,-0.1329532,0.1071514,-0.4753899,0.2201234
1.136065,0.09288777,-0.5164825,0.2065751,0.3208083,-0.1378542,-0.01983338,-0.3841494,0.1634752
1.180892,0.06374236,-0.4722902,0.251308,0.2913224,-0.09433649,-0.1386622,-0.2754796,0.1268583
1.292211,0.008519788,-0.4907461,0.3625348,0.2356481,-0.113431,-0.0666389,-0.3056829,0.1299815
1.3033,-0.02394264,-0.5693147,0.3735182,0.2026185,-0.1925969,-0.01942598,-0.1111165,0.142144
1.27272,-0.09860101,-0.6777843,0.3428007,0.1272764,-0.3016154,-0.03758342,0.3005447,0.09541325
1.231872,-0.1430425,-0.7323968,0.3017698,0.08203636,-0.3567178,-0.1842816,0.6609022,0.05516552
1.018152,-0.1456298,-0.7106154,0.0878094,0.07854044,-0.335354,-0.5462255,0.859224,0.03256562
0.8232379,-0.2935757,-0.6689486,-0.1074074,-0.07041716,-0.2940195,-0.7843247,0.9671411,0.05460492
0.8449741,-0.4888916,-0.5683785,-0.08603158,-0.2668366,-0.1936859,-0.6792627,1.268153,0.1136589
0.8972058,-0.5150635,-0.479173,-0.03420937,-0.2941862,-0.1046151,-0.5035303,1.770511,0.1381702
0.9243783,-0.4144931,-0.4598414,-0.007487715,-0.1948465,-0.08531518,-0.4099829,1.925299,0.1915113
0.9906745,-0.3190874,-0.3753931,0.05832159,-0.1007055,-0.0007981133,-0.231081,1.554791,0.2603026
1.031756,-0.2306035,-0.3267892,0.09888297,-0.01350655,0.0479696,-0.1827641,1.281131,0.3055626
0.9612872,-0.1283782,-0.4386398,0.02786037,0.08742124,-0.06362939,-0.3604295,1.200226,0.3688382
0.8364325,-0.1156825,-0.4946147,-0.09757897,0.09881014,-0.119271,-0.4730684,0.9720417,0.375452
0.7789249,-0.183975,-0.4040528,-0.1556967,0.02920208,-0.02829735,-0.5351348,0.7015021,0.3598256
0.7301267,-0.2488567,-0.300273,-0.2051212,-0.03700273,0.07596847,-0.4961965,0.4604175,0.4487399
0.6624909,-0.2933204,-0.2346478,-0.273387,-0.08279259,0.1421461,-0.4217047,0.2676083,0.6228758
0.6573041,-0.3013015,-0.1715018,-0.2791934,-0.09209654,0.2058994,-0.4068909,0.13661,0.8190691
0.7108472,-0.3173738,-0.1227447,-0.2262452,-0.1094805,0.2553041,-0.2547635,0.1088745,0.89485
0.7841366,-0.3192191,-0.1309422,-0.1535137,-0.1126184,0.2477782,-0.1508374,0.1898147,0.8160124
0.8133394,-0.3060892,-0.1404863,-0.1248229,-0.1007544,0.2389138,-0.1187102,0.1515973,0.6853679
0.7958569,-0.3435579,-0.1235537,-0.1427656,-0.139455,0.2565187,-0.01838672,0.04940357,0.4257737
0.772568,-0.3554887,-0.1003023,-0.1664583,-0.1525765,0.280421,-0.01526877,-0.1661432,0.1271136
0.7455175,-0.3168576,-0.05294853,-0.193851,-0.1150874,0.3283898,-0.04189655,-0.5314801,-0.03060188
0.7705913,-0.2749955,-0.04085799,-0.1690525,-0.0743126,0.3410448,-0.0882258,-0.6498802,-0.1269646
0.8421367,-0.2567206,-0.08122446,-0.09771079,-0.05706628,0.3011777,-0.1537909,-0.5896513,-0.1136438
0.9228591,-0.2622287,-0.1271598,-0.01711855,-0.06354184,0.2556638,-0.121892,-0.4698812,-0.02798955
1.05876,-0.2412465,-0.2027791,0.1187228,-0.04346489,0.1803784,-0.04284469,-0.3198646,-0.022673
1.199277,-0.2333794,-0.2474728,0.2592446,-0.03644001,0.1359251,0.1048266,-0.4601405,-0.01329202
1.271682,-0.2497937,-0.1838075,0.3317017,-0.05363359,0.1997345,0.1688366,-0.554774,-0.002194514
1.348413,-0.2682463,-0.1288461,0.4085162,-0.07280241,0.254741,-0.005640643,-0.08767057,0.03313349
1.41373,-0.3313375,-0.1902274,0.4739266,-0.1365458,0.1933018,-0.1337928,0.6301777,0.08951583
1.302637,-0.3815834,-0.3020671,0.3629123,-0.1873772,0.08129854,-0.02761269,0.8361316,0.07196188
1.08073,-0.37589,-0.3792898,0.141052,-0.182198,0.003807674,0.0917394,0.14574,0.1623751
0.9948289,-0.412105,-0.3795574,0.05515446,-0.21885,0.003172678,0.1777878,-0.6070492,0.3690463
1.047622,-0.5388543,-0.3932318,0.1079043,-0.3459525,-0.01096069,0.4683575,-0.5373464,0.4980753
1.051699,-0.5953681,-0.5756785,0.111889,-0.402726,-0.1939486,0.6446503,-0.318341,0.4996983
0.9132675,-0.4442897,-0.7275072,-0.02668346,-0.2518024,-0.3463872,0.3603251,-0.4020427,0.3373993
0.7728697,-0.2544707,-0.6171558,-0.1672685,-0.06202516,-0.2366956,0.06633473,-0.2724204,0.1249639
0.7759689,-0.192777,-0.4656272,-0.1643949,-0.0002596429,-0.08585826,-0.07174654,-0.154702,-0.05647684
0.7983058,-0.2008696,-0.4063081,-0.1423109,-0.00817243,-0.02724899,-0.2955966,-0.254011,-0.352569
0.7732405,-0.2541896,-0.3163772,-0.1676459,-0.06121191,0.06196003,-0.4077352,-0.5650569,-0.7511842
0.7899341,-0.3583703,-0.2672873,-0.1512285,-0.1650171,0.1103181,-0.2494368,-1.230736,-0.9683128
0.843944,-0.390776,-0.3413624,-0.09749263,-0.1969546,0.03550071,-0.01461543,-1.389852,-0.9531737
0.8858301,-0.3300083,-0.4359311,-0.05587142,-0.1356256,-0.05982102,0.2035286,-0.8709679,-0.9784786
0.8591335,-0.2760778,-0.5090905,-0.08281911,-0.08104101,-0.1337407,0.3523127,-0.507995,-1.022584
0.7917664,-0.2055063,-0.5160766,-0.1504198,-0.009725751,-0.1414872,0.3543536,-0.2804422,-0.8876215
0.7733615,-0.1466722,-0.4349167,-0.1690352,0.04993566,-0.06107961,0.4283965,-0.2359491,-0.6323113
0.7802582,-0.141411,-0.3998235,-0.1623194,0.05609872,-0.02672427,0.643046,-0.3774191,-0.3979535
0.7975468,-0.1220153,-0.4141109,-0.1451753,0.07646043,-0.04173131,0.7470041,-0.4402838,-0.2473091
0.8360085,-0.1157455,-0.4252793,-0.1068164,0.08374984,-0.05359823,0.7713182,-0.5374652,-0.1920261
0.8569339,-0.1143152,-0.4428004,-0.08594819,0.08624242,-0.07179395,0.7685476,-0.5063998,-0.2290426
0.8664403,-0.07744142,-0.4203093,-0.0764515,0.1242106,-0.04995051,0.7041988,-0.400455,-0.2542673
0.8649361,-0.03143126,-0.4014025,-0.07791695,0.1713364,-0.0316615,0.6525591,-0.4121755,-0.2147013
0.8466298,0.03487896,-0.4017125,-0.0961354,0.2387709,-0.0325579,0.5551776,-0.3970812,-0.1757094
0.8446903,0.07122156,-0.3933975,-0.09793753,0.2762323,-0.02479668,0.4247518,-0.4335262,-0.06171535
0.8578562,0.05590983,-0.4023874,-0.08458364,0.2620184,-0.03430711,0.3247834,-0.4416797,0.1099296
0.8940366,0.01840362,-0.4016345,-0.04816451,0.2255742,-0.0340409,0.2246758,-0.3590943,0.2070604
0.9579413,-0.05059549,-0.4020187,0.01602846,0.1575886,-0.0348773,0.1911302,-0.3527131,0.2556766
1.0315,-0.07266196,-0.4252486,0.08992078,0.1364781,-0.05852439,0.2666064,-0.4254754,0.2469585
1.112436,-0.03008786,-0.4872381,0.1712294,0.1799438,-0.1208946,0.3226798,-0.5120499,0.1690474
1.171517,-0.01786024,-0.555684,0.2307117,0.1929925,-0.1896814,0.1645881,-0.4243753,0.06095337
1.213122,-0.04998055,-0.5465742,0.2727327,0.1616165,-0.180867,-0.04350115,-0.3029847,-0.07585334
1.246086,-0.09914853,-0.5673738,0.3061123,0.1131107,-0.2019099,-0.04383862,-0.3317659,-0.1337205
1.234444,-0.1529578,-0.6519725,0.2948701,0.0598789,-0.2866923,-0.01944738,-0.1555203,-0.1054193
1.192507,-0.1888873,-0.6664536,0.2533025,0.02444203,-0.301289,0.05816178,0.2007177,-0.1325747
1.119394,-0.1965055,-0.6972962,0.1805146,0.01723406,-0.3321685,0.1914005,0.4741683,-0.1782005
0.9783367,-0.2427536,-0.75349,0.03973146,-0.02868249,-0.3883099,-0.05687321,0.8246869,-0.1989876
0.8292935,-0.385228,-0.6389149,-0.1090915,-0.1708979,-0.2735818,-0.4564627,1.258602,-0.2127592
0.7810069,-0.4970776,-0.4889501,-0.1572072,-0.282551,-0.1233555,-0.5062375,1.489361,-0.1644524
0.8224126,-0.4420436,-0.4793007,-0.1156712,-0.2273687,-0.1133338,-0.4271689,1.542777,-0.07285432
0.8815656,-0.3222324,-0.427236,-0.05641956,-0.1074424,-0.06078822,-0.4110837,1.653751,0.04477906
0.9593115,-0.2430586,-0.3380109,0.02139958,-0.02817619,0.02902106,-0.3408202,1.614648,0.1971421
1.010205,-0.1433605,-0.3730523,0.07234383,0.07159662,-0.005340499,-0.2477454,1.351886,0.3103535
0.9588851,-0.07777491,-0.4393033,0.02105118,0.1372392,-0.07082459,-0.2800278,1.100094,0.3642148
0.8835628,-0.1078669,-0.4645283,-0.05426638,0.1071832,-0.09520203,-0.5178912,0.7585675,0.3782773
0.8516841,-0.1560456,-0.4403958,-0.08616088,0.05901519,-0.07014581,-0.7548299,0.5232279,0.3233955
0.816503,-0.2314121,-0.3676075,-0.1213734,-0.01636794,0.003638026,-0.716279,0.5321169,0.2759104
0.7800124,-0.297151,-0.3048704,-0.1579044,-0.08214994,0.06743588,-0.5830832,0.4916523,0.3953301
0.7390864,-0.3454305,-0.2083267,-0.1988717,-0.1304944,0.165096,-0.5316755,0.522185,0.6285476
0.7203229,-0.3840771,-0.1557286,-0.2176683,-0.1692209,0.2188531,-0.3674012,0.569808,0.7890178
0.7638638,-0.3102424,-0.1995968,-0.1741425,-0.09547266,0.1761713,-0.2289744,0.4722165,0.8132082
0.7747225,-0.2765509,-0.1619319,-0.1632723,-0.06186719,0.2150345,-0.2589603,0.4040184,0.7223668
0.765273,-0.3171405,-0.1388455,-0.1726765,-0.1025374,0.2393166,-0.2143659,0.2654612,0.5880871
0.7710528,-0.2914155,-0.1508945,-0.1668117,-0.07688341,0.2284461,-0.164167,-0.003831438,0.4099275
0.7381779,-0.2995698,-0.04049367,-0.1995558,-0.0850953,0.3399936,-0.1418054,-0.3537786,0.1430041
0.7426193,-0.3021473,-0.0002183366,-0.1949322,-0.08771328,0.3813681,-0.1011072,-0.6803654,-0.1047142
0.804883,-0.279526,-0.0633853,-0.1324296,-0.06511233,0.3192356,-0.1820693,-0.7536091,-0.2244454
0.934259,-0.289451,-0.1355425,-0.002755058,-0.07503484,0.2480326,-0.2305592,-0.6384851,-0.1872095
1.085401,-0.2717817,-0.2333217,0.1487428,-0.05733846,0.1511164,-0.2396647,-0.3915805,-0.05641752
1.113833,-0.2618486,-0.2418263,0.1775797,-0.04735203,0.1433769,-0.2642057,-0.1590541,0.04058838
1.158502,-0.2409551,-0.2390162,0.2226911,-0.02637835,0.1468511,-0.163771,-0.2388162,0.06954534
1.231888,-0.2342932,-0.2605618,0.2965406,-0.01960977,0.1258667,-0.09370753,-0.3509219,0.054026
1.226869,-0.2724402,-0.2044737,0.2919918,-0.05762421,0.1824116,-0.1412124,-0.1329523,0.06456145
1.32202,-0.3011957,-0.2003853,0.3876028,-0.08622135,0.1868506,-0.182115,0.2654925,0.09363348
1.37502,-0.3655993,-0.2689374,0.4410329,-0.1504391,0.118541,-0.1344322,0.5514051,0.1173292
1.187376,-0.4037902,-0.3294636,0.253771,-0.1884129,0.05814891,-0.04627007,0.3429635,0.2163284
1.035147,-0.4300914,-0.3626909,0.1018624,-0.2144604,0.02495006,0.0638865,-0.2699944,0.3340301
1.052361,-0.5284699,-0.370739,0.119328,-0.3125409,0.01682977,0.3643962,-0.6574853,0.4234932
1.070839,-0.5709306,-0.5169902,0.1379869,-0.3546499,-0.129587,0.6178656,-0.7542058,0.4400307
0.9584791,-0.4604481,-0.754913,0.02573457,-0.2437507,-0.3677573,0.4016076,-0.5512011,0.31301
0.7995562,-0.2492454,-0.7736372,-0.1331512,-0.03205858,-0.386792,-7.40015e-05,-0.1551676,0.1755386
0.741316,-0.1443271,-0.592056,-0.1914174,0.07342247,-0.2055623,-0.1499242,-0.06545043,0.03456684
0.7327494,-0.1943635,-0.4259799,-0.200061,0.02401594,-0.03986066,-0.3126583,-0.05574189,-0.2134375
0.7185746,-0.2694965,-0.301591,-0.2143503,-0.05042801,0.08414025,-0.4944116,-0.3485272,-0.5562972
0.7205893,-0.3930791,-0.2198301,-0.2124736,-0.1732675,0.1655011,-0.2471252,-1.086631,-0.8678507
0.7831242,-0.4678009,-0.2334271,-0.1500879,-0.2471923,0.1514884,0.1325731,-1.278471,-0.9985747
0.878212,-0.4490011,-0.3391424,-0.05515028,-0.2275377,0.04533705,0.3995774,-1.00266,-1.104562
0.8908707,-0.3974472,-0.4799668,-0.04263689,-0.1750664,-0.09594536,0.5642236,-0.6574714,-1.20522
0.8629012,-0.2596312,-0.5429356,-0.07074324,-0.03626769,-0.1593902,0.4933886,-0.1436538,-1.04502
0.8484697,-0.1772726,-0.4748921,-0.08530045,0.04713661,-0.09183305,0.5958865,0.1368659,-0.7639437
0.8299367,-0.1377696,-0.4007971,-0.1039444,0.08774122,-0.01822694,0.8248447,0.05274971,-0.562287
0.8179889,-0.03857955,-0.3892192,-0.1159843,0.1880782,-0.007135674,0.8427503,-0.1896657,-0.3746616
0.8168991,-0.03146897,-0.3813638,-0.1171429,0.1963677,0.0002375687,0.856245,-0.4452373,-0.2634667
0.8362942,-0.02550268,-0.3988498,-0.09778911,0.2035299,-0.01772487,0.7767037,-0.5854216,-0.2531817
0.8471858,0.02948,-0.4253742,-0.08690758,0.2597105,-0.04471826,0.6290851,-0.5485397,-0.2088002
0.8596508,0.01581178,-0.409694,-0.07441895,0.2472268,-0.02949765,0.5571618,-0.4389927,-0.1534999
0.8618967,0.03734832,-0.4010242,-0.07211394,0.2699195,-0.02127557,0.4103672,-0.3835783,-0.08266939
0.8395282,0.09045985,-0.3948689,-0.09438664,0.3241438,-0.01555451,0.2787604,-0.3940493,0.08521293
0.8548541,0.09701057,-0.3887419,-0.07892692,0.3317488,-0.009847133,0.2176033,-0.4834006,0.2450572
0.862746,0.06717259,-0.399973,-0.07086204,0.3028916,-0.02148224,0.1368162,-0.4628989,0.3493098
0.8702459,-0.009424576,-0.392403,-0.06314949,0.2271886,-0.01429999,0.09301533,-0.4459362,0.4184229
0.9177444,-0.07306963,-0.3994963,-0.01539873,0.1643414,-0.02176386,0.1194527,-0.5267723,0.3907356
0.9826458,-0.09089512,-0.442562,0.04979244,0.1472117,-0.06518207,0.1317972,-0.4662349,0.2950821
1.097885,-0.08601597,-0.5070737,0.1653542,0.1526817,-0.130026,0.101273,-0.4376271,0.1627363
1.186396,-0.08512034,-0.557093,0.2542109,0.1540614,-0.1803525,0.06895233,-0.3753133,0.01852874
1.223427,-0.1173651,-0.5469163,0.2915989,0.1221927,-0.1704516,0.01184775,-0.2458963,-0.03959098
1.271307,-0.156623,-0.5645186,0.3398315,0.08320268,-0.1882909,0.006519146,-0.1490583,-0.04942513
1.280114,-0.2033961,-0.610166,0.3489697,0.03659129,-0.2341291,0.0920745,0.09025622,-0.09134412
1.259206,-0.2432724,-0.6204973,0.3283542,-0.003225294,-0.244597,0.1412955,0.1769081,-0.1108534
1.174433,-0.2450855,-0.7245948,0.24382,-0.005074574,-0.3487676,0.1119406,0.2831468,-0.1125487
1.016012,-0.2802106,-0.8525203,0.08557487,-0.04032457,-0.4766912,-0.05600748,0.8449153,-0.1636897
0.9159596,-0.3760443,-0.7515614,-0.01437013,-0.1363633,-0.3756408,-0.3126796,1.450501,-0.2134479
0.8177273,-0.429873,-0.5612448,-0.1125606,-0.190466,-0.1851299,-0.4226365,1.765569,-0.1532347
0.7424727,-0.3784514,-0.4848006,-0.1878311,-0.1393743,-0.1083821,-0.3884564,1.946807,0.0001380942
0.8161965,-0.2855505,-0.4023426,-0.1141703,-0.04684651,-0.02551141,-0.3516131,2.107246,0.2079637
0.8643987,-0.1996653,-0.3129233,-0.06606739,0.038631,0.06442371,-0.305374,1.864556,0.4816119
0.894494,-0.1286865,-0.3018803,-0.03609987,0.1091716,0.07607633,-0.2881247,1.329188,0.5919963
0.9818424,-0.114796,-0.3238243,0.05109694,0.1225934,0.05482438,-0.4449653,1.050321,0.4700682
0.931878,-0.1302268,-0.3538487,0.0009595271,0.1066615,0.02556335,-0.7212547,0.7021357,0.381482
0.8516945,-0.1529629,-0.3318298,-0.07941671,0.08339,0.04840747,-0.8989007,0.3038345,0.276948
0.8181591,-0.2152897,-0.3002956,-0.1131607,0.02049267,0.08081964,-0.8966025,0.1758719,0.2249417
0.7402937,-0.2742555,-0.3079514,-0.1912438,-0.03907693,0.07408511,-0.7805621,0.1667184,0.4187548
0.7479569,-0.3136551,-0.2590008,-0.1837985,-0.07910932,0.1239905,-0.6727624,0.3828712,0.5989494
0.764663,-0.3363511,-0.1985713,-0.167301,-0.1024603,0.1853977,-0.6207917,0.5960248,0.6830528
0.7339126,-0.31528,-0.1592996,-0.1982414,-0.08205884,0.225658,-0.5848585,0.5746282,0.7159693
0.7418944,-0.3044529,-0.1354633,-0.1904223,-0.07190851,0.2504795,-0.5386458,0.4994338,0.6474602
0.7075471,-0.3349875,-0.1288938,-0.2248965,-0.1031204,0.2580166,-0.4495972,0.2804276,0.567955
0.6816848,-0.3653963,-0.06717845,-0.2508413,-0.1342002,0.3206671,-0.3017164,-0.1183317,0.3966281
0.7010466,-0.3861331,-0.02856247,-0.2315087,-0.1555944,0.3601705,-0.1511737,-0.5690287,0.1448177
0.7434276,-0.3961658,-0.03675226,-0.1890952,-0.1662626,0.3528042,-0.09565521,-0.8220808,-0.04364507
0.8503129,-0.3940796,-0.07145155,-0.08211009,-0.1647819,0.318849,-0.119278,-0.797132,-0.1292318
0.956024,-0.3778396,-0.1973819,0.02376963,-0.1491094,0.1935705,-0.1141926,-0.677352,-0.07064231
1.075408,-0.3189116,-0.306404,0.1433873,-0.09070433,0.08510025,-0.04616889,-0.5068015,-0.01688736
1.217586,-0.2492997,-0.3280184,0.2858531,-0.02156687,0.06393543,0.0961379,-0.4575756,0.02380502
1.280117,-0.2506605,-0.2950657,0.3487119,-0.02335251,0.09723697,0.2805414,-0.5629627,0.1054498
1.304781,-0.2764902,-0.2580528,0.3737231,-0.04955818,0.1344998,0.3242249,-0.5152797,0.07797031
1.361241,-0.2755132,-0.2744901,0.4305291,-0.04890871,0.1182142,0.08424528,0.01897048,0.03883481
1.339284,-0.3552304,-0.2692856,0.4088967,-0.128905,0.1234728,-0.1371707,0.8663165,0.02843893
1.143202,-0.4869033,-0.2507809,0.2130971,-0.2608058,0.1419345,0.01742343,1.023549,0.008975355
0.9428131,-0.5161701,-0.2764141,0.01293593,-0.2902425,0.1161614,0.2607986,0.1800069,0.06825573
0.9441585,-0.5000098,-0.3220091,0.0144514,-0.2741847,0.0703311,0.3657388,-0.71414,0.10118
1.017814,-0.5130751,-0.4125786,0.08822032,-0.2872753,-0.02056606,0.4951357,-0.9204482,0.09570099
0.9655441,-0.4702874,-0.5382459,0.03600805,-0.2444269,-0.1466465,0.5334319,-0.5903408,0.1000307
0.8708625,-0.3390091,-0.6502763,-0.05866927,-0.1129955,-0.2591639,0.4472386,-0.2718928,0.07241279
0.7645291,-0.185717,-0.6547951,-0.1650471,0.04054364,-0.2642268,0.285862,-0.1039056,0.04397728
0.6606725,-0.08852594,-0.5376159,-0.2689873,0.13807,-0.1476315,-0.07966451,-0.1109868,-0.04888951
0.694755,-0.07920726,-0.4356093,-0.2350143,0.1478013,-0.04623401,-0.3996944,-0.4626416,-0.2316855
0.7358061,-0.1309824,-0.3916486,-0.1940845,0.09650305,-0.002898631,-0.506976,-0.9098331,-0.4383791
0.8083898,-0.2641346,-0.4023279,-0.1216216,-0.03611937,-0.0142146,-0.5081089,-1.198491,-0.625382
0.9841728,-0.4362431,-0.4051241,0.05404857,-0.2076514,-0.01765554,-0.2519459,-1.205257,-0.7707786
0.9703205,-0.4477506,-0.3888159,0.04009345,-0.2185351,-0.00199718,0.1120598,-0.9080882,-0.9011865
0.8836748,-0.3460377,-0.4563217,-0.04664636,-0.116147,-0.07015484,0.2081112,-0.5282456,-0.9311902
0.8692063,-0.2879646,-0.4978607,-0.06120033,-0.05734461,-0.1123434,0.170972,-0.1119844,-0.8282727
0.792583,-0.1924099,-0.4687299,-0.1378981,0.03899188,-0.08385438,0.2946455,0.03993371,-0.6886959
0.7983772,-0.1574977,-0.4530058,-0.1321631,0.07473319,-0.06875821,0.4966486,-0.106454,-0.533449
0.8222178,-0.1788558,-0.4225152,-0.108361,0.05424357,-0.0388772,0.6054813,-0.1391108,-0.4171037
0.7706282,-0.08675309,-0.4131981,-0.1599631,0.1472451,-0.03014805,0.6645109,-0.3252389,-0.345595
0.7966281,-0.0809175,-0.4218226,-0.1339449,0.154,-0.03933695,0.6642007,-0.526878,-0.2661083
0.819465,-0.08226742,-0.4175818,-0.1110538,0.1535786,-0.03563518,0.6139546,-0.430204,-0.2129969
0.8106085,0.02605834,-0.4145673,-0.1198166,0.2628303,-0.03313293,0.5507894,-0.4215395,-0.1427959
0.8279049,0.003695366,-0.3994881,-0.102384,0.2413778,-0.01853803,0.4177147,-0.4358728,0.007588677
0.8170784,0.02050874,-0.3816489,-0.1130297,0.2590722,-0.001154644,0.3486933,-0.4233845,0.1638684
0.8226506,0.1063181,-0.3593223,-0.10723,0.3457194,0.02074425,0.3399403,-0.4804858,0.2960184
0.8436813,0.06106447,-0.3862236,-0.08592382,0.3012461,-0.006557652,0.2450383,-0.4603255,0.4442796
0.8641719,-0.001800296,-0.4632289,-0.06510892,0.2390903,-0.08393717,0.1847344,-0.4667849,0.5096147
0.9384049,-0.07814493,-0.500232,0.009496249,0.1633728,-0.1212865,0.1816096,-0.4666066,0.3896536
1.018759,-0.122061,-0.5082989,0.09026686,0.1199959,-0.129668,0.1440058,-0.3931302,0.1820929
1.107039,-0.1113518,-0.5219063,0.1790009,0.1311532,-0.1435532,0.0778074,-0.3375722,0.006194371
1.198039,-0.1578456,-0.5649353,0.2704815,0.08501534,-0.1868182,0.02056297,-0.2792604,-0.08109001
1.220279,-0.1996983,-0.6266678,0.2932137,0.0434271,-0.2487382,0.04775769,-0.1836585,-0.08766196
1.234676,-0.262277,-0.657956,0.3080986,-0.01897621,-0.2801573,0.15744,-0.001654736,-0.1334815
1.240312,-0.3185744,-0.6796574,0.3142017,-0.07518164,-0.3019235,0.2223609,0.2697725,-0.1990874
1.15665,-0.2763722,-0.7556249,0.2309716,-0.03296328,-0.3778788,0.09171655,0.6862927,-0.1938443
1.022858,-0.2828114,-0.818761,0.0975633,-0.0394544,-0.4409137,-0.1743183,1.211862,-0.2486538
0.8942802,-0.3880081,-0.6738948,-0.03068448,-0.144763,-0.2958442,-0.3421918,1.47514,-0.3228267
0.7849749,-0.488404,-0.4500951,-0.1397119,-0.245321,-0.0717299,-0.3332288,1.420528,-0.207597
0.764394,-0.50645,-0.4063078,-0.1600604,-0.2635655,-0.0275156,-0.168849,1.508834,-0.01858621
0.8646549,-0.4101099,-0.4031194,-0.05960366,-0.1674452,-0.02379309,0.07157216,1.690819,0.132231
0.9532602,-0.2966129,-0.3563662,0.02916803,-0.05417701,0.02359329,0.2285742,1.522577,0.2579561
0.9837433,-0.2039017,-0.3694415,0.0597909,0.03830341,0.01124155,0.2178266,1.220003,0.2507447
0.9771178,-0.1034075,-0.400093,0.05327853,0.1385661,-0.01860498,-0.02678497,0.9286805,0.1495191
0.9051136,-0.07458485,-0.4068549,-0.01863982,0.1671532,-0.02448852,-0.4199182,0.510581,0.05680091
0.8424,-0.1162632,-0.3719081,-0.08129366,0.125229,0.01140307,-0.5842927,0.2648472,0.002109973
0.7804224,-0.1534764,-0.3031294,-0.1432334,0.08775416,0.08118532,-0.4624025,0.2336123,0.1209315
0.7279742,-0.1858863,-0.2605711,-0.1956583,0.055063,0.1247965,-0.3918856,0.3032001,0.3897386
0.7308663,-0.2333408,-0.2148573,-0.1927482,0.007306254,0.171601,-0.3565033,0.4308167,0.6202199
0.7124713,-0.289852,-0.1598018,-0.2111204,-0.04952736,0.2277714,-0.281646,0.4355581,0.7463976
0.7316896,-0.3048349,-0.1388093,-0.1918646,-0.0648495,0.2498881,-0.3051627,0.4394704,0.7435915
0.7672934,-0.291922,-0.1194362,-0.1561996,-0.05228804,0.2703788,-0.2843416,0.4184516,0.6554132
0.7560619,-0.3034837,-0.09576008,-0.167339,-0.06420855,0.2951501,-0.2076563,0.2250812,0.5084593
0.7675569,-0.3161814,-0.07430918,-0.1557151,-0.07726775,0.3176576,-0.2110111,-0.130698,0.2684263
0.7717981,-0.341405,-0.0381794,-0.1513027,-0.1028506,0.3547894,-0.1665258,-0.5737189,0.0247134
0.8096858,-0.3790259,-0.03151984,-0.1131976,-0.1408229,0.3623804,-0.128808,-0.7692865,-0.1530528
0.8892445,-0.3624736,-0.08812149,-0.03337275,-0.1246077,0.3066243,-0.1305214,-0.7276843,-0.1856784
0.9804163,-0.316106,-0.21658,0.05811313,-0.07855666,0.178913,-0.04054858,-0.6021941,-0.06387183
1.103045,-0.2973355,-0.3478798,0.1810981,-0.06007768,0.04825495,0.1018252,-0.3857182,0.03195154
1.159838,-0.2882193,-0.3436442,0.2382805,-0.0512252,0.05302623,0.2669497,-0.2837243,0.0868297
1.236935,-0.2874184,-0.2562521,0.3157863,-0.05065836,0.1408501,0.2998757,-0.2044715,0.1104699
1.363753,-0.3003118,-0.2191459,0.4430129,-0.06375503,0.1782853,0.07267643,0.1955195,0.05041559
1.347039,-0.3294204,-0.2329061,0.42669,-0.09303462,0.1647503,-0.1089411,0.8661539,-0.0378239
1.244174,-0.3729509,-0.2529324,0.3241764,-0.1367014,0.1448438,0.03126667,1.071397,-0.195629
1.091299,-0.3731488,-0.254571,0.1715963,-0.1369974,0.1432189,0.1882919,0.3817846,-0.3233721
0.9345619,-0.3920495,-0.27798,0.01508919,-0.1559535,0.1197177,0.1245354,-0.412402,-0.1380277
1.003197,-0.5039901,-0.3475189,0.08388664,-0.2679015,0.04998248,0.2621875,-0.664009,0.1647961
1.069901,-0.5505483,-0.4659226,0.150687,-0.3144115,-0.06871753,0.4939351,-0.5396738,0.1744986
0.8918717,-0.4223602,-0.6173085,-0.02731384,-0.1861102,-0.2204907,0.3594674,-0.3745405,0.07543833
0.7552691,-0.2264194,-0.6233051,-0.1639514,0.01001511,-0.2269508,0.1739525,-0.3129148,0.09360529
0.737481,-0.1056566,-0.4863634,-0.1818297,0.1310325,-0.09053265,-0.0373308,-0.3110719,0.04016663
0.760181,-0.09585814,-0.3924295,-0.159263,0.1411475,0.0028312,-0.4065623,-0.4628108,-0.1335045
0.8162372,-0.1759819,-0.3054144,-0.1033714,0.06139122,0.08923712,-0.5489018,-0.798108,-0.4071458
0.8188766,-0.3131102,-0.2949532,-0.1009181,-0.07532784,0.0990527,-0.4886174,-1.228973,-0.6754833
0.8565971,-0.3910589,-0.4000741,-0.06339804,-0.1528292,-0.006749342,-0.3792819,-1.399735,-0.80627
0.8875387,-0.3825351,-0.4521309,-0.03266533,-0.143819,-0.05952046,-0.1404588,-1.051056,-0.9107211
0.8310898,-0.3331926,-0.5057665,-0.0893273,-0.09394836,-0.1138978,0.100022,-0.6460272,-0.9168465
0.816021,-0.2439029,-0.5214213,-0.1046092,-0.004087864,-0.1303134,0.1978977,-0.2664481,-0.8000531
0.795694,-0.1953367,-0.4385429,-0.1251438,0.04509,-0.04820609,0.2300585,0.07420152,-0.6423437
0.7797298,-0.1817499,-0.3875192,-0.1413041,0.0593238,0.002043348,0.3836229,0.02742425,-0.4117207
0.7973279,-0.1360869,-0.3476348,-0.1238842,0.1056624,0.04115406,0.5930993,-0.1461382,-0.2736303
0.7951689,-0.1003465,-0.3637457,-0.1261976,0.1420985,0.02427147,0.6369332,-0.3919643,-0.218862
0.8361488,-0.06097606,-0.4168641,-0.08534316,0.182175,-0.02961568,0.5723594,-0.6182644,-0.1641863
0.8577807,0.003425557,-0.4364611,-0.06380454,0.2472819,-0.04997652,0.4940454,-0.5560501,-0.1576771
0.8523452,0.05319246,-0.4805006,-0.06929877,0.2977403,-0.09477118,0.331001,-0.4986011,-0.09138953
0.8713626,0.07396585,-0.4529606,-0.05030455,0.3191766,-0.06797281,0.1490961,-0.4328676,0.02498371
0.8658264,0.06981875,-0.4170607,-0.05582791,0.3156487,-0.0327963,0.1180157,-0.368737,0.1747246
0.8778937,0.05253262,-0.4371895,-0.0437115,0.2989232,-0.0536266,0.1381395,-0.3778225,0.3403498
0.8909082,0.01406005,-0.4132541,-0.03061203,0.2609398,-0.03036824,0.0630375,-0.3161368,0.4234763
0.9149919,-0.05593313,-0.4287159,-0.006408374,0.1913542,-0.04648038,0.01830934,-0.4077277,0.4603082
1.011626,-0.108485,-0.4655067,0.09037802,0.1391215,-0.0838926,0.0607976,-0.5103193,0.4020948
1.10137,-0.1007102,-0.4868197,0.1803015,0.1471235,-0.1057952,0.0784406,-0.4480668,0.2654581
1.163925,-0.1050401,-0.5267458,0.243054,0.1429273,-0.1462747,0.008635415,-0.3948004,0.1398883
1.227562,-0.170181,-0.5717917,0.3068937,0.07782583,-0.1918324,-0.07518173,-0.2924704,0.02721936
1.270915,-0.2229062,-0.6602796,0.3504395,0.02504732,-0.2807829,-0.04424361,-0.1715541,0.01527106
1.284697,-0.2368449,-0.7061944,0.3643883,0.01096648,-0.3271014,0.0908853,0.06850443,-0.0152494
1.196859,-0.2127708,-0.6956849,0.2766744,0.03481493,-0.3169248,0.1858939,0.4961878,-0.159549
0.9489313,-0.1936627,-0.7100699,0.028817,0.05361909,-0.3315595,0.01819956,0.8573564,-0.2087386
0.7307042,-0.2982483,-0.6859221,-0.1893979,-0.05134346,-0.3075672,-0.3619529,1.040978,-0.1805343
0.7384818,-0.4702193,-0.5891529,-0.1816592,-0.2237571,-0.2108497,-0.5303418,1.164643,-0.1268298
0.829056,-0.5397106,-0.4499449,-0.09116357,-0.2937438,-0.07158446,-0.3895593,1.498176,-0.003679879
0.875579,-0.4659579,-0.3768365,-0.04474901,-0.2205222,0.001689422,-0.2533525,1.777715,0.03700012
0.9502761,-0.3395129,-0.3984317,0.02981594,-0.09462816,-0.01963746,-0.2334,1.621122,0.06442632
1.025549,-0.2286502,-0.4205305,0.1049355,0.01567473,-0.04137213,-0.1447385,1.418981,0.1587534
1.017069,-0.1268913,-0.4738456,0.09627932,0.1168692,-0.09423371,-0.05962616,1.213858,0.1382133
0.9512892,-0.1147657,-0.5139938,0.03029891,0.128425,-0.1338429,-0.2300279,0.8899815,0.1167395
0.8784796,-0.1827323,-0.4602762,-0.04273629,0.05987996,-0.07950334,-0.4878696,0.790022,0.1649974
0.7850018,-0.2173994,-0.3849479,-0.136462,0.02462329,-0.003473144,-0.6454111,0.6637782,0.1926306
0.7331048,-0.2443436,-0.3258655,-0.1886222,-0.002921674,0.05638548,-0.6780199,0.3857541,0.3216724
0.752903,-0.2566275,-0.2785605,-0.1690931,-0.01581551,0.1045323,-0.5479671,0.3887963,0.5022579
0.7343501,-0.2690278,-0.2161783,-0.1879107,-0.02883247,0.1678108,-0.3807572,0.4617102,0.7212374
0.7282804,-0.2910651,-0.1703215,-0.1942311,-0.0514896,0.2146048,-0.2509335,0.3884363,0.9551601
0.7789345,-0.2706554,-0.2028545,-0.1438045,-0.03169918,0.1830351,-0.2510992,0.3502678,0.9038618
0.8048562,-0.2951406,-0.2015397,-0.1180798,-0.05679926,0.1853249,-0.3050069,0.2639458,0.7048481
0.8328585,-0.3445687,-0.1507766,-0.09023854,-0.1068338,0.2370611,-0.223386,0.1706273,0.516785
0.8386186,-0.3514283,-0.1299421,-0.08460026,-0.1142861,0.2588533,-0.218667,0.06269207,0.1904714
0.8126428,-0.3434169,-0.09710308,-0.1106564,-0.1068479,0.2926203,-0.247744,-0.1926049,-0.02222183
0.8191844,-0.3084396,-0.1066776,-0.1041513,-0.0724185,0.2839298,-0.2072135,-0.3431679,-0.06835591
0.8310271,-0.3003003,-0.1460134,-0.09229927,-0.06479767,0.2454202,-0.2880037,-0.3681045,-0.1514878
0.8437555,-0.2995509,-0.1373935,-0.07951373,-0.06453421,0.2547968,-0.3580379,-0.4030271,-0.1185305
0.8735271,-0.2827729,-0.1575494,-0.04963669,-0.04820742,0.235318,-0.4030674,-0.259085,-0.02208696
0.9745077,-0.2867223,-0.2059051,0.05149664,-0.05257149,0.1875514,-0.4344616,-0.05198497,0.02113592
1.107473,-0.2664391,-0.2456764,0.1846574,-0.03266555,0.1482752,-0.2772097,-0.05179794,0.04911596
1.094118,-0.2838727,-0.2232511,0.1715313,-0.05043837,0.1710981,-0.04858797,-0.1804041,0.01653116
1.112528,-0.3290456,-0.1545862,0.1901934,-0.0959116,0.2400599,0.09681895,-0.2041257,0.0542219
1.291151,-0.331286,-0.1980928,0.369077,-0.09841185,0.196746,0.06168771,0.07152311,0.1434738
1.295039,-0.3665329,-0.2959467,0.37322,-0.1338753,0.09897748,0.004476048,0.3143073,0.1987552
1.116031,-0.4115374,-0.362044,0.1944427,-0.1790495,0.03285814,0.1103005,-0.04540978,0.2911984
0.9983833,-0.4449689,-0.3764795,0.07698965,-0.2125986,0.01829717,0.2283486,-0.6520688,0.3255877
0.9743842,-0.4866944,-0.367177,0.05314304,-0.2543831,0.02737695,0.4006116,-0.7934036,0.2985607
1.009609,-0.4923136,-0.4873656,0.08847692,-0.2599947,-0.09312465,0.5247037,-0.5417486,0.2135024
0.9536541,-0.4734531,-0.594264,0.03258599,-0.2410522,-0.2004164,0.498208,-0.2994545,0.07041486
0.8241609,-0.3834892,-0.6093763,-0.09688644,-0.150925,-0.2159885,0.4357493,-0.2654328,-0.05579249
0.7635503,-0.2059721,-0.6356254,-0.1575148,0.0268393,-0.2427476,0.1429418,-0.3395507,-0.188375
0.7450276,-0.09064282,-0.5675139,-0.1760853,0.1424959,-0.1751801,-0.1997473,-0.3720938,-0.3020899
0.7770524,-0.08283287,-0.4805591,-0.1441279,0.1507034,-0.088789,-0.3988922,-0.5534852,-0.4725181
0.8010682,-0.1097103,-0.4340485,-0.1201895,0.1242808,-0.042852,-0.5195485,-0.8885661,-0.5641359
0.8388436,-0.1734596,-0.4003457,-0.08249386,0.06103178,-0.009726789,-0.3724486,-1.03462,-0.5112815
0.9211812,-0.256987,-0.4473452,-0.0002330119,-0.0219592,-0.05730387,-0.2447242,-0.8628811,-0.6254196
0.8985607,-0.2894087,-0.4796967,-0.02292483,-0.05381344,-0.09022935,-0.1894562,-0.5665203,-0.693984
0.8539401,-0.2718313,-0.4960886,-0.06761009,-0.0356403,-0.1071866,0.02378431,-0.3473156,-0.5898828
0.827656,-0.2362297,-0.5032803,-0.09395012,0.0005837387,-0.1149291,0.1273713,-0.1936655,-0.4893953
0.7945752,-0.1921733,-0.463831,-0.1270746,0.04528625,-0.07601042,0.2273366,-0.1264814,-0.284484
0.8259705,-0.1543749,-0.4388587,-0.0957059,0.08374978,-0.05154372,0.3445575,-0.1294576,-0.1250609
0.820985,-0.1339506,-0.3853692,-0.1006967,0.1048519,0.001467864,0.3487413,-0.2304535,-0.104221
0.8146374,-0.124941,-0.3784775,-0.1070247,0.1145444,0.007910154,0.3820318,-0.4864728,-0.1076944
0.8555331,-0.109385,-0.4340085,-0.06608096,0.1307806,-0.04804216,0.3477057,-0.537816,-0.1314745
0.8752087,-0.07980293,-0.4370104,-0.04632704,0.1610321,-0.05143715,0.3154132,-0.3904342,-0.1255355
0.8903911,-0.04223769,-0.4487023,-0.03103522,0.1992472,-0.06349246,0.2814013,-0.3417319,-0.09637719
0.8610886,-0.001848396,-0.4480803,-0.06019754,0.2402571,-0.06320258,0.1987625,-0.3049112,-0.01459403
0.826487,0.03515419,-0.427051,-0.09462799,0.2778401,-0.04247224,0.2249952,-0.3192219,0.09804729
0.8254264,0.04008248,-0.4270255,-0.09548562,0.2832967,-0.04271154,0.1969855,-0.3247216,0.171631
0.8270502,0.008956972,-0.400742,-0.09362505,0.2526359,-0.01665817,0.1611945,-0.2630269,0.2628078
0.8539959,-0.0218301,-0.3967462,-0.06640729,0.2222396,-0.01285826,0.2152531,-0.2794432,0.3470178
0.8809056,-0.04210883,-0.4291093,-0.03918948,0.2022696,-0.04538381,0.2098811,-0.3382089,0.3921638
0.947366,-0.03510442,-0.4866365,0.02761406,0.2094947,-0.1030401,0.1913759,-0.4053601,0.3815727
1.064777,-0.00569451,-0.5687967,0.1453995,0.2390321,-0.185294,0.09332158,-0.3667111,0.2740577
1.144712,0.00224958,-0.5985512,0.2257325,0.2470052,-0.2151017,-0.09385761,-0.2812966,0.1186932
1.175752,-0.03508772,-0.5967139,0.2571817,0.2095936,-0.2132703,-0.1832666,-0.302896,0.02917171
1.190577,-0.1226118,-0.6425231,0.2724133,0.1218883,-0.2590303,-0.1593163,-0.2263228,0.05560288
1.231765,-0.2092587,-0.7126997,0.313992,0.0349532,-0.3290941,-0.1136497,-0.02570177,0.06681104
1.236182,-0.2576563,-0.725645,0.3187667,-0.0138351,-0.3418529,-0.05898532,0.2675101,0.04313695
1.106196,-0.2819409,-0.751747,0.1890929,-0.0386054,-0.3676834,-0.01806645,0.7038604,0.06643419
0.9250771,-0.3221837,-0.8179175,0.008230266,-0.07941949,-0.4334861,-0.2231994,1.140377,0.05472411
0.8208506,-0.411995,-0.7130792,-0.09579672,-0.1698763,-0.3281714,-0.5406689,1.512581,0.04776457
0.8123803,-0.4666863,-0.5393764,-0.10412,-0.2252736,-0.153875,-0.5730639,1.75348,0.1123336
0.843609,-0.4438161,-0.5017957,-0.07278899,-0.2031544,-0.1155805,-0.5323058,1.904256,0.199307
0.892447,-0.3842431,-0.4659518,-0.02388642,-0.1443613,-0.07890568,-0.530113,1.987812,0.3063075
0.9443422,-0.2931151,-0.4242242,0.02804078,-0.05402964,-0.03623568,-0.3870573,1.795613,0.3319221
0.9552751,-0.2217474,-0.4273105,0.03897528,0.01653376,-0.03827554,-0.3335334,1.51385,0.2514063
0.9142056,-0.1918681,-0.4194351,-0.002121754,0.04560487,-0.02925815,-0.4128081,1.289041,0.1918309
0.8202577,-0.1964128,-0.3957414,-0.09612457,0.04024969,-0.004335216,-0.4327381,0.936429,0.1875553
0.7369074,-0.2241917,-0.3343698,-0.179552,0.01165834,0.05834368,-0.4446522,0.5553794,0.24349
0.7107497,-0.2481526,-0.2702852,-0.2058008,-0.01311577,0.1238027,-0.4305451,0.227991,0.352657
0.6986657,-0.29027,-0.2293712,-0.2179789,-0.05604457,0.166145,-0.3887758,0.09029702,0.5196364
0.7216381,-0.3040735,-0.2041,-0.1950927,-0.07065414,0.1928834,-0.3776904,0.2180452,0.6866756
0.7859125,-0.2907627,-0.1978302,-0.1308866,-0.05813904,0.2006433,-0.3246794,0.3042803,0.7081444
0.8211279,-0.3023142,-0.1763383,-0.09571439,-0.07047139,0.2236324,-0.2765738,0.334621,0.6063463
0.8030006,-0.2891208,-0.1811779,-0.1138553,-0.05803942,0.2202817,-0.296605,0.3244717,0.4739006
0.7788171,-0.2935873,-0.185169,-0.1380188,-0.06324413,0.2177562,-0.2980831,0.177618,0.3109611
0.7631292,-0.316789,-0.1241046,-0.1536495,-0.08715702,0.2802491,-0.2607163,-0.000224241,0.1134924
0.7234752,-0.2941991,-0.07138878,-0.1932041,-0.06524767,0.3343417,-0.2455169,-0.297722,-0.01829271
0.72086,-0.2945089,-0.05993362,-0.1956721,-0.06620394,0.3471065,-0.2721218,-0.5836658,-0.003850223
0.8008081,-0.3119553,-0.09745358,-0.1155238,-0.08425973,0.3108132,-0.2874094,-0.6543409,0.01346911
0.9190532,-0.3140156,-0.1697658,0.00297742,-0.08688948,0.239631,-0.2399248,-0.7347772,-0.02094844
1.050014,-0.3214749,-0.2676332,0.1342481,-0.09487543,0.142787,-0.1424263,-0.7865532,-0.02334819
1.154723,-0.3198296,-0.385563,0.2393125,-0.09371077,0.02576945,-0.0400152,-0.6434588,-0.05199628
1.220782,-0.3209504,-0.3865412,0.3057586,-0.09526347,0.02559277,0.01901238,-0.356648,-0.1326947
1.244454,-0.2972878,-0.2950592,0.3298337,-0.0719817,0.1177689,-0.001348026,0.05441284,-0.2361695
1.230032,-0.2869725,-0.2205838,0.3158111,-0.06199455,0.1928328,-0.0872299,0.4722291,-0.287591
1.221087,-0.3940603,-0.16438,0.307246,-0.1693565,0.2495176,-0.1120988,0.7123798,-0.2007052
1.15217,-0.5021642,-0.2310002,0.2386726,-0.2776768,0.1832669,0.0742868,0.629704,-0.1335149
1.021591,-0.485598,-0.3496239,0.1083896,-0.2612624,0.06489825,0.335088,0.2106442,-0.1535555
0.9833702,-0.4882549,-0.4002397,0.07041159,-0.2639973,0.01442425,0.4073924,-0.3511729,-0.04679686
1.024571,-0.5657437,-0.5225324,0.1117986,-0.3414814,-0.1078342,0.4558802,-0.6231222,0.2245251
1.004293,-0.5318866,-0.6498063,0.09164936,-0.3075276,-0.2351707,0.5696386,-0.3349212,0.3977925
0.8906438,-0.3730274,-0.6211754,-0.02192866,-0.1484712,-0.2066842,0.4699143,-0.08625615,0.2849441
0.7788146,-0.2156772,-0.513485,-0.133742,0.009179535,-0.09920379,0.2846417,-0.1693874,0.1067371
0.7748631,-0.1548073,-0.3869624,-0.1377256,0.07044951,0.02705588,0.08691897,-0.1251963,-0.03042206
0.8132585,-0.2211087,-0.288562,-0.09940049,0.004638538,0.1251468,-0.2179917,-0.2144521,-0.365318
0.7937108,-0.2683339,-0.2785766,-0.1190476,-0.0420148,0.1347774,-0.2833599,-0.6716197,-0.7109452
0.8008945,-0.3286208,-0.3207414,-0.1119841,-0.1016552,0.09221073,-0.1563995,-1.231606,-0.8587727
0.8419666,-0.3986425,-0.3879778,-0.0710457,-0.1709589,0.02452469,-0.06615821,-1.561479,-0.9671318
0.8285574,-0.3114095,-0.481759,-0.08459586,-0.08293752,-0.06975193,0.1416057,-1.199994,-0.9788666
0.8201385,-0.2684063,-0.5454174,-0.09315764,-0.03907709,-0.1339458,0.3425075,-0.6442476,-0.9407012
0.8193199,-0.2953957,-0.5141934,-0.09411617,-0.06514384,-0.1032883,0.4628671,-0.3267098,-0.938236
0.8056813,-0.258138,-0.4559584,-0.1078865,-0.02690264,-0.04564191,0.6412031,-0.07679269,-0.8511984
0.8209739,-0.2620269,-0.4269686,-0.09271274,-0.029752,-0.01725551,0.8440974,-0.2273398,-0.7356091
0.8225268,-0.2391422,-0.3563876,-0.09126119,-0.005777039,0.05271139,1.031857,-0.4019275,-0.6151425
0.8326879,-0.206242,-0.3404993,-0.08118023,0.02825801,0.06797652,1.125996,-0.3654551,-0.5348484
0.8648337,-0.1738673,-0.4222689,-0.04909046,0.06180524,-0.01442504,1.069048,-0.4195978,-0.5603284
0.8774873,-0.05767663,-0.4282934,-0.03646696,0.1791973,-0.0210891,0.9452511,-0.2679601,-0.5579174
0.8808261,-0.009812076,-0.4121748,-0.03313186,0.2282803,-0.005615256,0.829409,-0.2369101,-0.4897459
0.8587633,-0.003087498,-0.4116979,-0.05517164,0.2362262,-0.005785321,0.7167206,-0.336381,-0.3713151
0.8355245,0.07133423,-0.3563506,-0.07836037,0.3118563,0.04891476,0.5941892,-0.2704094,-0.2099136
0.8154198,0.1035463,-0.3353179,-0.09838675,0.3452471,0.0693004,0.490245,-0.4265211,-0.03579343
0.8021103,0.05318854,-0.3437863,-0.1115872,0.2960212,0.06018428,0.4453598,-0.5590014,0.1279593
0.817858,0.0008341657,-0.3533923,-0.09569719,0.2447361,0.04992862,0.4572779,-0.6233527,0.2136893
0.8298601,-0.04075717,-0.3709489,-0.08351714,0.2041392,0.03171947,0.4552675,-0.7167185,0.2297113
0.9080956,-0.1043141,-0.3894769,-0.005066912,0.1414929,0.01253613,0.4514689,-0.6444306,0.1730591
1.031733,-0.1331844,-0.4513608,0.1188199,0.1134441,-0.05000495,0.447652,-0.6138281,0.05121137
1.108399,-0.1398139,-0.5040675,0.1957647,0.1075442,-0.1033673,0.3469522,-0.4676917,-0.0344645
1.193589,-0.1646959,-0.5171163,0.2812525,0.08329888,-0.1170652,0.244862,-0.2974262,-0.07138165
1.251715,-0.1718045,-0.5146824,0.3396787,0.07673415,-0.1152671,0.2604225,-0.2496766,-0.08600016
1.253648,-0.1883756,-0.5346224,0.3419005,0.06061508,-0.1358226,0.3197094,-0.0491705,-0.09722244
1.271939,-0.2185732,-0.5823111,0.360449,0.03077982,-0.1840997,0.4174073,0.1426755,-0.1300937
1.265524,-0.2438615,-0.6081025,0.3542464,0.005767414,-0.2104445,0.5186793,0.3048729,-0.1447215
1.125887,-0.244839,-0.7172566,0.2147598,0.004983557,-0.3201072,0.356477,0.4133695,-0.124544
0.9394728,-0.2538442,-0.8316052,0.02842547,-0.00390496,-0.4349074,0.01254056,0.5643676,-0.1029258
0.9025344,-0.3607063,-0.6991603,-0.008505644,-0.1107216,-0.302842,-0.1225285,1.083191,-0.05762022
0.9110938,-0.4519823,-0.4672659,-8.122086e-06,-0.2020146,-0.07124237,-0.1271386,1.607556,0.0654745
0.9139547,-0.412962,-0.3812528,0.002726828,-0.1630624,0.01456516,-0.03423318,1.933698,0.2238679
1.000727,-0.3337192,-0.3836066,0.08931405,-0.08392622,0.01209215,0.1701655,2.087634,0.2673011
0.9672657,-0.2731817,-0.3841106,0.05560982,-0.02352471,0.01154927,0.1656555,1.878909,0.1872035
0.870075,-0.2246731,-0.3858955,-0.04187797,0.02482403,0.009799408,0.08793388,1.516694,0.1133388
0.8694221,-0.1967038,-0.3610573,-0.04287835,0.05261196,0.0347404,0.006852864,1.164037,0.02124416
0.8011262,-0.1932961,-0.3330157,-0.1115656,0.05581717,0.06294593,-0.2480093,0.8194599,-0.027169
0.7387045,-0.2141145,-0.30971,-0.1744139,0.03477465,0.08646942,-0.3428184,0.6319477,0.06975212
0.7050361,-0.249509,-0.2638813,-0.2085332,-0.0008654008,0.1325613,-0.2518272,0.5026703,0.1843362
0.6473719,-0.2585266,-0.2419218,-0.2666596,-0.01014881,0.1548196,-0.2350892,0.2812303,0.3793441
0.6806209,-0.2664612,-0.1950893,-0.2338705,-0.018367,0.2019757,-0.1803382,0.134643,0.6131305
0.7106819,-0.2983015,-0.137144,-0.2042535,-0.0505059,0.2602574,-0.08118532,0.1676504,0.6416335
0.7562062,-0.3021991,-0.1453651,-0.1591459,-0.05471334,0.2523719,-0.07583985,0.2214959,0.5957625
0.8048706,-0.3249827,-0.1452899,-0.1108626,-0.07781377,0.2527684,-0.08440402,0.1810266,0.498071
0.7536774,-0.3721657,-0.125677,-0.1623953,-0.1253154,0.272675,-0.0199459,-0.003280113,0.2514594
0.7611227,-0.3816327,-0.09469007,-0.1552426,-0.1350968,0.3039157,0.01800038,-0.3342481,0.01173596
0.7712003,-0.3955527,-0.05155753,-0.1454056,-0.1493198,0.347249,0.03904043,-0.5425886,-0.1294332
0.7584767,-0.417423,-0.05757405,-0.1583128,-0.1714744,0.3413672,0.08068088,-0.5127775,-0.1563678
0.8352611,-0.4162575,-0.1104743,-0.08165142,-0.1705668,0.2885228,0.080021,-0.4789249,-0.1234734
0.9263559,-0.3755365,-0.1817768,0.009382462,-0.1300701,0.217187,0.108652,-0.4201701,-0.06703534
1.037657,-0.319372,-0.2105088,0.120682,-0.07409075,0.1883259,0.197387,-0.3758233,0.01485662
1.153919,-0.3092824,-0.1776584,0.2369942,-0.0641441,0.2209478,0.3578723,-0.5800584,0.03972312
1.327599,-0.3036073,-0.1706418,0.4107622,-0.05856837,0.2276331,0.4476251,-0.6478277,0.00438712
1.486259,-0.2908964,-0.205241,0.5695277,-0.04591301,0.1925975,0.1011753,-0.02659039,-0.06359394
1.379668,-0.3073378,-0.2301349,0.4630365,-0.06236653,0.16716,-0.3053573,0.7703151,-0.1600663
1.161653,-0.3189067,-0.2363654,0.2450893,-0.07390404,0.1602787,-0.1841063,0.7012162,-0.2103541
0.9736475,-0.366109,-0.2454616,0.05710506,-0.1210311,0.1504253,0.01476123,-0.06322656,-0.03615106
0.9248031,-0.4837715,-0.2875235,0.008229793,-0.2385722,0.1075019,0.05225709,-0.7354504,0.2713185
1.031653,-0.5525869,-0.4097826,0.1149971,-0.3072142,-0.01571883,0.2941169,-1.043569,0.329848
0.9472757,-0.4820481,-0.5872798,0.0304857,-0.2364415,-0.1942697,0.417326,-0.8260168,0.2081951
0.8204177,-0.3353779,-0.6499971,-0.09655528,-0.08946919,-0.2581178,0.2504402,-0.6138123,0.101754
0.8011707,-0.2008703,-0.5740981,-0.1160289,0.0454108,-0.1834081,0.116613,-0.6669043,-0.04892442
0.7522307,-0.1135221,-0.5237981,-0.1652306,0.1331972,-0.1343378,-0.09187192,-0.4850422,-0.1837756
0.8010185,-0.1288212,-0.4620265,-0.1167293,0.1183925,-0.07382167,-0.3023435,-0.5136255,-0.3609575
0.8051521,-0.2287362,-0.3696659,-0.1128976,0.0190173,0.01726822,-0.3398833,-0.7947103,-0.6090829
0.8227561,-0.3097307,-0.3573853,-0.09560266,-0.0613999,0.02826906,-0.2844818,-0.9219374,-0.7135605
0.9394471,-0.3424863,-0.354453,0.02077788,-0.09354435,0.02991619,-0.09390552,-0.985064,-0.7163828
0.9050178,-0.3197564,-0.3852239,-0.01395996,-0.07017019,-0.002142597,0.1145361,-0.6782943,-0.8081953
0.9107472,-0.2893434,-0.4768441,-0.00853579,-0.03908019,-0.09504987,0.198482,-0.36675,-0.8647628
0.8982213,-0.2445471,-0.5065571,-0.02136285,0.006424348,-0.126043,0.1833769,-0.3553191,-0.6774952
0.7850044,-0.1254185,-0.5158888,-0.1348745,0.1262883,-0.1366398,0.1837242,-0.2629303,-0.387277
0.8281918,-0.07970913,-0.4866556,-0.09197154,0.172753,-0.108648,0.2697877,-0.2213454,-0.213293
0.8368206,-0.09942396,-0.4159607,-0.08361186,0.1538029,-0.03916305,0.326526,-0.256791,-0.1052059
0.7906686,-0.08482878,-0.4023864,-0.1300128,0.1691613,-0.02676256,0.3646524,-0.4113264,-0.04365585
0.8063242,-0.1218307,-0.4022954,-0.1145813,0.1329109,-0.02780634,0.3810523,-0.5307511,-0.06826687
0.7995099,-0.1347881,-0.4197761,-0.12159,0.1206844,-0.04638102,0.3706369,-0.4112758,-0.09770303
0.8147864,-0.09348448,-0.4328024,-0.1064737,0.1626909,-0.06045829,0.3662253,-0.3691244,-0.1126375
0.8132135,-0.05436376,-0.4053929,-0.1081689,0.2024788,-0.03405472,0.3093185,-0.3508436,-0.06225911
0.81072,0.01280423,-0.3954253,-0.1107435,0.2702695,-0.02504619,0.3062855,-0.3366994,0.09819748
0.8446203,0.0383195,-0.3966433,-0.07688039,0.2963525,-0.02717544,0.2945794,-0.3314962,0.2471032
0.8681645,0.01114426,-0.4063319,-0.05332796,0.2696783,-0.03772688,0.1962568,-0.2621841,0.3710621
0.9144728,-0.04031843,-0.4073972,-0.006966062,0.2186394,-0.03960627,0.155901,-0.3047937,0.4250843
0.9742035,-0.08816921,-0.4144561,0.05286154,0.1711271,-0.04742968,0.1598632,-0.367147,0.3257016
1.06249,-0.06233266,-0.4688742,0.1412831,0.1972116,-0.1025617,0.1671376,-0.4212161,0.1896886
1.187492,-0.03772068,-0.5249161,0.2664501,0.2219769,-0.1592645,0.04885127,-0.413732,0.04403242
1.279308,-0.07879698,-0.5881475,0.358448,0.1809553,-0.223099,-0.1771307,-0.3051597,-0.06350937
1.312292,-0.1402158,-0.6937546,0.3916137,0.1194897,-0.3292437,-0.248877,-0.1477978,-0.07635556
1.291492,-0.1948316,-0.7785846,0.3709756,0.06472567,-0.4145347,-0.1611935,0.1855707,-0.1555598
1.19214,-0.2207014,-0.7769839,0.2717474,0.03860877,-0.4133042,-0.1190194,0.4828827,-0.2544288
1.007928,-0.2585782,-0.7657771,0.08760818,0.0003911496,-0.4023617,-0.3151993,0.8555809,-0.241196
0.8781017,-0.3948653,-0.6951148,-0.04220064,-0.136323,-0.3318441,-0.5272773,1.376336,-0.200514
0.8535891,-0.5211435,-0.5072669,-0.06675054,-0.263103,-0.1440118,-0.4764348,1.448798,-0.1013433
0.8319348,-0.4886076,-0.4630929,-0.08849032,-0.2311276,-0.09972119,-0.3609259,1.467767,0.09190643
0.8748923,-0.410502,-0.4637311,-0.04565927,-0.153624,-0.100113,-0.2424176,1.763188,0.2516005
0.9902115,-0.3393896,-0.3343396,0.06949839,-0.08314085,0.02964915,-0.09569171,1.587541,0.3720004
1.046907,-0.2477686,-0.3463666,0.126,0.007833558,0.01810905,-0.005833231,1.301951,0.4715761
1.015331,-0.2148627,-0.4321488,0.09419523,0.04008057,-0.06707972,0.02623965,1.370434,0.4647805
0.9310256,-0.1785395,-0.4463441,0.009626234,0.07573459,-0.08058312,-0.1095139,1.221276,0.369436
0.8566642,-0.1570549,-0.436582,-0.06503372,0.09653921,-0.07003654,-0.3738397,1.024198,0.258092
0.7681833,-0.2074878,-0.3573187,-0.1538431,0.04541439,0.0100982,-0.5304573,0.8789534,0.2281393
0.6667262,-0.1937367,-0.3070717,-0.2556497,0.05846079,0.06129631,-0.5733901,0.530997,0.3906108
0.6521365,-0.1913847,-0.261272,-0.2705973,0.0600951,0.1081167,-0.5886274,0.3809395,0.6476674
0.6888264,-0.245403,-0.1804597,-0.2342596,0.005346341,0.1900068,-0.573152,0.3615791,0.8151748
0.7299048,-0.2475842,-0.1518106,-0.1935142,0.002423334,0.2197762,-0.5401293,0.3118017,0.8319099
0.7624393,-0.2799453,-0.1175636,-0.1612832,-0.03068851,0.2551696,-0.4897191,0.3213809,0.7299587
0.762567,-0.3235347,-0.1013718,-0.1614212,-0.07503386,0.2725167,-0.4540039,0.1458401,0.5683747
0.7594314,-0.3486886,-0.08787022,-0.1647783,-0.1009439,0.287165,-0.4233383,-0.09850396,0.32916
0.7604479,-0.3783133,-0.05297685,-0.1639331,-0.1313181,0.3231796,-0.3470559,-0.3193394,0.04514992
0.7801905,-0.3518261,-0.0541253,-0.1443066,-0.1055668,0.32311,-0.3434578,-0.5076189,-0.1516559
0.8159086,-0.3519934,-0.05279895,-0.1086453,-0.1064494,0.3254564,-0.3825922,-0.5349622,-0.274958
0.8814874,-0.3580125,-0.1314654,-0.04306196,-0.113157,0.2477365,-0.3716365,-0.532067,-0.3313628
1.013088,-0.3199103,-0.2663213,0.08860311,-0.0757112,0.1137425,-0.3829642,-0.3409208,-0.2214013
1.125784,-0.3134374,-0.2750671,0.2014179,-0.0698582,0.1057679,-0.2872029,-0.1164838,-0.06302918
1.166536,-0.2984171,-0.1625664,0.2423321,-0.05541852,0.2189464,-0.05285561,-0.265159,0.008578724
1.244192,-0.314708,-0.07603119,0.3201782,-0.07224858,0.3060619,0.09934537,-0.3570257,0.06288718
1.360907,-0.3957605,-0.1802775,0.4370939,-0.1537964,0.2022917,0.09612994,-0.07268325,0.06752567
1.323637,-0.4625603,-0.3546412,0.4000158,-0.2210433,0.02829472,0.09488002,0.3837949,0.03374222
1.136998,-0.4765341,-0.3989211,0.2135388,-0.2354091,-0.01572718,0.2169677,0.5799396,0.07192713
1.001281,-0.464349,-0.3895358,0.07794141,-0.2235526,-0.006186963,0.3182133,-0.03513808,0.1271367
1.021626,-0.5010761,-0.4296147,0.09835761,-0.2605364,-0.0462063,0.3945602,-0.7303754,0.1998739
1.091293,-0.5117242,-0.550838,0.168045,-0.2713613,-0.1674566,0.4954669,-0.4526142,0.2474309
1.005334,-0.4516966,-0.6246433,0.08205252,-0.2114229,-0.2413634,0.4851439,-0.1524962,0.181868
0.8688814,-0.3175431,-0.5675631,-0.05448869,-0.07726557,-0.1844439,0.2869058,-0.337886,0.111457
0.7809381,-0.1072105,-0.5223532,-0.1425717,0.1331638,-0.1394391,-0.1155057,-0.1967923,-0.04504679
0.7545257,-0.08580574,-0.4856726,-0.1691666,0.1547503,-0.1029957,-0.3867582,-0.2301502,-0.2902038
0.8282107,-0.1978835,-0.4167873,-0.09569622,0.0429273,-0.03437065,-0.4282284,-0.6418239,-0.4706655
0.7884152,-0.2187617,-0.3511714,-0.1357288,0.02236607,0.03096772,-0.5584024,-0.9801321,-0.7616073
0.8155148,-0.3243919,-0.3216726,-0.10888,-0.08289198,0.06017415,-0.4361151,-1.27037,-0.974058
0.9451921,-0.4013211,-0.4082135,0.02053954,-0.1593971,-0.02667344,-0.03003194,-1.012866,-0.9038458
0.852647,-0.3080696,-0.4978678,-0.07226584,-0.0656695,-0.1166471,0.07858772,-0.5374699,-0.9474244
0.8085181,-0.2492105,-0.484765,-0.1166544,-0.006282407,-0.1038714,0.1179043,-0.2270706,-0.9174741
0.7868648,-0.1832681,-0.4603912,-0.1385615,0.06023678,-0.07982606,0.3286432,0.07298803,-0.5828963
0.7154125,-0.1111727,-0.4257239,-0.2102548,0.132951,-0.04548302,0.4214382,-0.09561095,-0.3609142
0.7911347,-0.1088089,-0.3845431,-0.1347526,0.1359664,-0.004618481,0.446328,-0.2617142,-0.2334053
0.7850508,-0.0746031,-0.3789452,-0.141028,0.1708457,0.0006728892,0.4637558,-0.4128511,-0.1440186
0.79012,-0.06242006,-0.4038312,-0.1361158,0.1837127,-0.02450916,0.4067531,-0.8216721,-0.1573634
0.8685279,-0.07341358,-0.4501115,-0.05782593,0.1734022,-0.07107426,0.3492864,-0.7802124,-0.1275906
0.8741433,-0.03518672,-0.4653935,-0.05228691,0.2123,-0.08662723,0.2818117,-0.6256318,-0.1388719
0.903568,-0.00589385,-0.4482757,-0.02289665,0.2422403,-0.06976318,0.2137697,-0.4679866,-0.09734238
0.8845832,0.02952661,-0.4317259,-0.04187494,0.2782732,-0.05344681,0.1633907,-0.2538095,0.04455445
0.8663087,0.04911452,-0.4164149,-0.06010287,0.2984258,-0.03834639,0.139936,-0.3307743,0.1652206
0.8854796,0.01186516,-0.41624,-0.04084598,0.2616811,-0.03835794,0.1253456,-0.2879132,0.3551399
0.8982159,-0.03652752,-0.4200156,-0.02798503,0.2137219,-0.04229491,0.05839607,-0.2817559,0.4895584
0.9952357,-0.07932074,-0.4294983,0.06919628,0.1712827,-0.05191327,0.06229571,-0.3672969,0.5066691
1.076778,-0.07785105,-0.4648212,0.1509318,0.1730216,-0.08734481,0.1087457,-0.3460568,0.4130432
1.129283,-0.05542931,-0.4986088,0.2036545,0.1956238,-0.121212,0.08406276,-0.4233594,0.1848657
1.190413,-0.07140992,-0.5107603,0.2650153,0.1797314,-0.1334108,0.03599556,-0.4265387,0.01925906
1.206655,-0.1096376,-0.5738917,0.2814866,0.1414969,-0.1965525,-0.04240707,-0.412371,-0.04672597
1.245719,-0.1905323,-0.6750973,0.3207641,0.06049942,-0.2977252,-0.0270583,-0.1972492,-0.0466049
1.295829,-0.2555618,-0.6593418,0.3710578,-0.00472665,-0.2818843,0.09349958,0.2862989,-0.06308726
1.24715,-0.2216867,-0.6381765,0.3225156,0.02886326,-0.2605712,0.1001762,0.5910331,-0.1167388
1.063716,-0.1893931,-0.7641604,0.1391592,0.06078906,-0.3863348,-0.1240255,0.9280013,-0.1066114
0.8809188,-0.2356028,-0.8049961,-0.04362666,0.01413408,-0.4268665,-0.4682498,1.25444,-0.1487338
0.8080018,-0.3892959,-0.6250381,-0.1165974,-0.1400755,-0.2465088,-0.5509706,1.296574,-0.1506129
0.7537213,-0.5661198,-0.4501652,-0.1709884,-0.3174766,-0.07113234,-0.4354366,1.371389,-0.0258251
0.7786195,-0.4948798,-0.4551552,-0.1462462,-0.2468582,-0.0755147,-0.4205318,1.599173,0.1030846
0.9485463,-0.3234066,-0.4420667,0.02348955,-0.07603352,-0.06171867,-0.2900453,1.659584,0.2660107
1.032891,-0.3136787,-0.3334355,0.1076136,-0.06696877,0.04771341,-0.102442,1.465101,0.3515302
1.008235,-0.2465097,-0.3857201,0.08270954,-0.000470174,-0.003684984,-0.1050761,1.254542,0.3394288
1.010137,-0.1508527,-0.4557699,0.08433258,0.09451251,-0.07277202,-0.2594684,1.019625,0.3168194
0.9456551,-0.165483,-0.4212286,0.01953999,0.07920442,-0.03719812,-0.5169568,0.8551072,0.2455767
0.8464845,-0.1792626,-0.4097981,-0.07997112,0.06474166,-0.02467082,-0.5998435,0.8130846,0.2390714
0.7709778,-0.2317624,-0.3108947,-0.1558438,0.01155239,0.07538721,-0.5130874,0.6531815,0.3524031
0.6964047,-0.2481715,-0.2667794,-0.2307996,-0.005552319,0.120706,-0.4953567,0.5222285,0.5607489
0.6863144,-0.2508062,-0.2618463,-0.2412774,-0.008886703,0.1268803,-0.3950498,0.4699272,0.7542252
0.6861166,-0.3169932,-0.137327,-0.2418545,-0.07577475,0.2526652,-0.3101651,0.3957289,0.7635235
0.7124167,-0.2885126,-0.1240733,-0.2159127,-0.04799249,0.267194,-0.3300288,0.3063272,0.7136499
0.7553834,-0.2939276,-0.1203902,-0.1732725,-0.05409847,0.2721449,-0.2773182,0.1456678,0.6532615
0.7414194,-0.3578656,-0.0786641,-0.1875221,-0.1187157,0.3151143,-0.2172248,-0.02087596,0.4574476
0.7542786,-0.3687765,-0.08244119,-0.1749004,-0.1302885,0.3125394,-0.1349012,-0.3370271,0.184711
0.7582394,-0.4012449,-0.004076063,-0.1711225,-0.1633946,0.3920488,-0.05996592,-0.6495139,-0.05592246
0.7875082,-0.3745748,-0.0001592404,-0.1419768,-0.1373309,0.3970349,-0.08274764,-0.6072834,-0.195368
0.881819,-0.337305,-0.05196591,-0.04772578,-0.1006293,0.3462055,-0.08201705,-0.5220117,-0.2108917
0.9732628,-0.3135916,-0.1179591,0.04372179,-0.07744099,0.2810828,-0.1023898,-0.4982896,-0.1341831
1.109054,-0.2515932,-0.3005459,0.1795751,-0.01592188,0.09924972,-0.1456826,-0.3877792,-0.029361
1.228412,-0.2746357,-0.3470638,0.299044,-0.0393971,0.05336527,-0.06030178,-0.3118045,0.03357368
1.328249,-0.294831,-0.2100725,0.399024,-0.05997886,0.1908708,0.04526143,-0.2505926,0.06526996
1.406082,-0.2906174,-0.1155851,0.4770119,-0.05610543,0.2857532,0.02505408,-0.02542628,0.05631123
1.355864,-0.340616,-0.1441742,0.4269376,-0.106397,0.2574363,-0.04683042,0.4897777,0.002987675
1.224951,-0.3595299,-0.2158052,0.2961354,-0.1255551,0.1859497,-0.09849554,0.8165442,0.01621361
1.03362,-0.3921382,-0.2550872,0.1048677,-0.1583557,0.1466821,-0.07220199,0.276338,0.09016315
0.9049077,-0.4592906,-0.3322155,-0.02383752,-0.2256441,0.06943878,0.102999,-0.5871378,0.1602729
0.9558771,-0.5064852,-0.4165653,0.02708426,-0.2729123,-0.01515084,0.2621932,-0.8519846,0.2460639
0.9728583,-0.5186922,-0.5015795,0.04396601,-0.2851222,-0.1005213,0.3493966,-0.6952068,0.2620019
0.8775784,-0.4323781,-0.6310534,-0.05146219,-0.1987318,-0.2304553,0.4714048,-0.5496494,0.2154381
0.7970582,-0.2888773,-0.6792216,-0.1321746,-0.05507009,-0.2791702,0.3399754,-0.4436323,0.1793437
0.7458697,-0.1954435,-0.5929283,-0.1835911,0.03860915,-0.1934907,0.003596258,-0.4217121,0.03335285
0.7691024,-0.1793634,-0.474821,-0.1606115,0.05501368,-0.0760468,-0.1109881,-0.4869405,-0.2220765
0.8375767,-0.2196729,-0.4288378,-0.09240482,0.01509946,-0.03076364,-0.2125009,-0.606105,-0.493548
0.8565776,-0.2771125,-0.4017747,-0.07367765,-0.04188161,-0.004429577,-0.3083552,-0.7754353,-0.7299072
0.9174306,-0.3330874,-0.3643331,-0.01309898,-0.09733983,0.03225923,-0.1089574,-0.856827,-0.8465891
0.9458897,-0.3503742,-0.4158159,0.01508816,-0.1140541,-0.01999666,0.1118644,-0.7549278,-0.9272429
0.8645002,-0.312247,-0.4734696,-0.06656953,-0.07529909,-0.07843977,0.2349092,-0.5708775,-0.990603
0.8137236,-0.255887,-0.4656915,-0.1176081,-0.01825765,-0.07146196,0.2880428,-0.3820415,-0.894877
0.7528339,-0.1703815,-0.4569229,-0.1787489,0.06797952,-0.06349809,0.2935157,-0.252336,-0.6579351
0.7393052,-0.09862096,-0.4445793,-0.1925104,0.1405148,-0.05195758,0.4374106,-0.2077539,-0.3738951
0.8038367,-0.09441683,-0.4138983,-0.1281853,0.1455267,-0.02207329,0.5134042,-0.1601826,-0.2059958
0.8014259,-0.08139899,-0.3818283,-0.1307692,0.1593737,0.009209963,0.4997498,-0.3100117,-0.175946
0.8275563,-0.06443018,-0.3907021,-0.1047737,0.1771812,-0.000438564,0.5396377,-0.5855186,-0.1043625
0.8830232,-0.05989464,-0.4201177,-0.0494002,0.1825535,-0.03061552,0.4713581,-0.5651904,-0.08926446
0.8981761,-0.01246616,-0.4320279,-0.03429792,0.2308051,-0.04327176,0.4069787,-0.5180926,-0.1381375
0.8986667,0.01358746,-0.4441467,-0.03381554,0.2576561,-0.05611853,0.3629529,-0.5764183,-0.08035586
0.8707704,0.02633195,-0.4410444,-0.06167873,0.2711596,-0.05372294,0.2786289,-0.5195965,-0.02156791
0.8716211,0.05912774,-0.4289709,-0.06075425,0.3046629,-0.04233191,0.2299422,-0.4651494,0.06822237
0.863481,0.02713823,-0.4066557,-0.06877991,0.2733169,-0.02067245,0.1238097,-0.3742536,0.236417
0.8585487,-0.02841829,-0.3715632,-0.07355712,0.2183282,0.01379248,0.07626435,-0.303887,0.3366053
0.9211937,-0.07976219,-0.3676752,-0.0107165,0.1674679,0.01708087,0.1416031,-0.3485456,0.3774355
0.9887954,-0.1428727,-0.3894248,0.05711956,0.1047516,-0.005241118,0.2040987,-0.3890486,0.3423989
1.060229,-0.1403153,-0.4258464,0.1288213,0.107612,-0.04220828,0.252443,-0.4308169,0.2512304
1.108979,-0.0993324,-0.4896378,0.1778663,0.1488061,-0.1065175,0.1837657,-0.3569978,0.1352987
1.188471,-0.08023357,-0.5702879,0.2576679,0.1680239,-0.1876541,0.05272479,-0.1809578,-0.03853721
1.277041,-0.1039519,-0.6173599,0.3465508,0.1443308,-0.2351746,0.0004356921,-0.06829081,-0.1240322
1.213146,-0.1644473,-0.6374441,0.2829542,0.08376622,-0.2556605,0.01501553,0.09290426,-0.144518
1.118893,-0.1824755,-0.6952487,0.1889705,0.06557541,-0.3138096,0.04030405,0.3252141,-0.1956528
1.023766,-0.1973955,-0.7304039,0.09407485,0.05040254,-0.3492403,-0.01229307,0.5491613,-0.2055495
0.9111188,-0.3199356,-0.696278,-0.0183861,-0.07247583,-0.3153088,-0.1933357,0.9461335,-0.2319884
0.8865474,-0.5163522,-0.5899643,-0.04281483,-0.2693071,-0.2090974,-0.3902477,1.502392,-0.2779861
0.8262103,-0.5864144,-0.4441246,-0.103049,-0.3398455,-0.0632616,-0.3470244,1.715162,-0.2142821
0.7951038,-0.4635592,-0.4250649,-0.134086,-0.2175082,-0.04410692,-0.1827078,1.643016,-0.03471759
0.8645531,-0.3863652,-0.4482154,-0.06459313,-0.1408561,-0.06706721,-0.1651128,1.761039,0.1589233
0.9010941,-0.3520476,-0.3726408,-0.02802806,-0.1070915,0.008788083,-0.1133788,1.676167,0.3290376
0.9910303,-0.206838,-0.3476733,0.06191643,0.03756249,0.03412041,-0.06391021,1.258009,0.4357443
1.026436,-0.1206282,-0.3839812,0.09731524,0.1232172,-0.001745868,-0.2108446,0.9651249,0.434737
0.9149639,-0.1326842,-0.3986585,-0.01418174,0.1106049,-0.01591215,-0.4778628,0.6454344,0.4129548
0.8540205,-0.1343446,-0.3807149,-0.07516709,0.1083831,0.002605377,-0.7497164,0.42524,0.3878988
0.7922408,-0.1750919,-0.3247963,-0.1370028,0.06706592,0.05915484,-0.7532498,0.4314055,0.4022634
0.7225777,-0.2244021,-0.2871461,-0.2067293,0.01717521,0.09748493,-0.6072253,0.3335155,0.5409311
0.7176019,-0.2488504,-0.2627276,-0.2117667,-0.007864224,0.1226233,-0.6018357,0.373109,0.7299764
0.7095122,-0.2842973,-0.2281531,-0.2199057,-0.04391065,0.1579471,-0.539243,0.4599137,0.862701
0.7304656,-0.2961038,-0.1690971,-0.198979,-0.05632171,0.2177702,-0.4833857,0.3314228,0.8400653
0.7479229,-0.3108396,-0.1040295,-0.1815169,-0.07166252,0.2836093,-0.4640497,0.278524,0.7244432
0.7447391,-0.3704401,-0.1081654,-0.1846566,-0.1318633,0.2802345,-0.3103451,0.1566366,0.5452006
0.7545919,-0.4310672,-0.09641982,-0.174714,-0.1930791,0.292715,-0.1724513,-0.1710069,0.2518442
0.743618,-0.4704143,-0.03913617,-0.1855465,-0.2329941,0.3506923,-0.04360306,-0.49249,0.007075413
0.777304,-0.4650798,-0.04824212,-0.1516626,-0.2281962,0.3422233,0.04730613,-0.624523,-0.1523062
0.8497212,-0.4317826,-0.09492182,-0.07898738,-0.1953938,0.296109,0.04668093,-0.5256844,-0.2251459
0.9322774,-0.4065322,-0.1573767,0.003887439,-0.1705871,0.2341354,0.07378831,-0.4672066,-0.1875801
1.033837,-0.3345635,-0.2287442,0.1058224,-0.09900436,0.1631565,0.02475447,-0.4322289,-0.1470446
1.109936,-0.2465166,-0.2330744,0.1823469,-0.01128227,0.1591173,-0.01292162,-0.3200648,-0.1017413
1.202174,-0.2068122,-0.2357449,0.2750466,0.02815796,0.1566374,0.08959093,-0.2069238,-0.107141
1.251472,-0.1973437,-0.2700584,0.3248277,0.03741936,0.1224133,0.1289344,-0.04141758,-0.127134
1.226238,-0.2338077,-0.2121561,0.3000809,0.0008004866,0.1803031,0.01917906,0.09320679,-0.03715932
1.244095,-0.3009172,-0.1587086,0.3184112,-0.06641548,0.2336353,-0.09861042,0.3740767,0.05479302
1.222964,-0.3759351,-0.2543876,0.2977245,-0.1414927,0.1377362,-0.05181239,0.6548063,0.09065188
1.098555,-0.4167301,-0.3268416,0.1737147,-0.182298,0.06495684,0.03919922,0.1983666,0.08300691
1.012901,-0.4316204,-0.2860105,0.08840609,-0.1971451,0.1053598,0.1306316,-0.4942997,0.1148827
1.034948,-0.5331782,-0.3181697,0.1107407,-0.2986,0.07267357,0.4465908,-0.5748854,0.2397219
1.036098,-0.5842374,-0.5273972,0.1121173,-0.3494882,-0.1371741,0.6620097,-0.478233,0.2784849
0.8922404,-0.4607196,-0.7125277,-0.0315748,-0.2257216,-0.3230069,0.4349978,-0.4620124,0.2064355
0.7392505,-0.3126385,-0.6395211,-0.1844581,-0.07730642,-0.2507668,0.1518608,-0.3094898,0.1060394
0.7200928,-0.2238042,-0.4998614,-0.203559,0.01194807,-0.1119183,0.04773059,-0.1569506,-0.06632842
0.7470756,-0.2068434,-0.4677643,-0.1765571,0.0294103,-0.08066203,-0.1195874,-0.1131209,-0.3114919
0.7473744,-0.22061,-0.3690924,-0.1762644,0.01621863,0.01714919,-0.2853425,-0.4139923,-0.5491709
0.788919,-0.2609823,-0.3007789,-0.1347402,-0.02351293,0.08458728,-0.2014074,-0.9940105,-0.690272
0.9044193,-0.328684,-0.3613373,-0.0192662,-0.09051397,0.0231407,-0.008557685,-1.126471,-0.7904869
0.968827,-0.3229902,-0.4027602,0.04511349,-0.08406333,-0.01918196,0.1671239,-0.9031866,-0.9182156
0.9276075,-0.2884187,-0.4898068,0.003864895,-0.04868111,-0.1071366,0.2245371,-0.7499394,-0.9594365
0.8756339,-0.2544511,-0.5266484,-0.04813925,-0.0138518,-0.144888,0.157168,-0.408911,-0.8407885
0.8339156,-0.1909019,-0.4602853,-0.08988811,0.05060552,-0.07942834,0.2740495,-0.1298168,-0.6386762
0.8067358,-0.1538796,-0.4880375,-0.1170952,0.08857547,-0.1080701,0.4184395,-0.1822929,-0.4372795
0.8080329,-0.1314716,-0.4795441,-0.115817,0.1119619,-0.1004455,0.4225066,-0.2151371,-0.265804
0.8101893,-0.1201256,-0.4314908,-0.1136661,0.1243072,-0.05323471,0.5032114,-0.2790612,-0.1536491
0.8256749,-0.117204,-0.4385129,-0.0981675,0.1282387,-0.06106832,0.5458334,-0.4234385,-0.1059466
0.8541354,-0.09163727,-0.4073088,-0.06967176,0.1548158,-0.03064188,0.4878069,-0.4453485,-0.1214008
0.8731545,-0.06671194,-0.4115393,-0.05059237,0.1807417,-0.03561405,0.3828141,-0.4762414,-0.159085
0.8658069,-0.03818937,-0.4146469,-0.05785345,0.2102443,-0.03942613,0.2481805,-0.5219129,-0.09986472
0.8375762,0.003983713,-0.3980968,-0.08597037,0.2533656,-0.02354213,0.1766976,-0.4569176,-0.004991388
0.8339719,0.04305792,-0.4097683,-0.08943231,0.2933438,-0.03584065,0.1069017,-0.3915491,0.08328464
0.8338015,0.05181768,-0.3802885,-0.08942979,0.3029502,-0.006948642,0.02150684,-0.3395713,0.2420176
0.8303264,0.0004067148,-0.3665804,-0.09269954,0.2523156,0.006210791,-0.02018515,-0.3294989,0.3571263
0.872405,-0.07174425,-0.3541985,-0.05038167,0.1808598,0.01808192,0.07229871,-0.4082506,0.4026277
0.9439819,-0.1004065,-0.3713915,0.02146862,0.1528043,0.0004140743,0.2204157,-0.4373758,0.4009696
1.038978,-0.09601538,-0.4760652,0.1167694,0.1577093,-0.1046993,0.1948555,-0.4368544,0.3083332
1.114514,-0.08401338,-0.5313506,0.1926346,0.1701295,-0.1603878,0.08525123,-0.385119,0.1833276
1.132529,-0.06507597,-0.5236519,0.2109926,0.1893865,-0.1530511,-0.02834244,-0.2751878,0.02438791
1.168184,-0.07932377,-0.5146425,0.2469934,0.1753571,-0.1443568,-0.08943591,-0.2920766,-0.05459784
1.214801,-0.1592027,-0.5489907,0.2939456,0.0955931,-0.1789677,-0.0200785,-0.2273806,-0.001604219
1.238923,-0.2446088,-0.5998692,0.3183774,0.01019933,-0.2300511,0.09322137,0.03726371,-0.00641036
1.205465,-0.2496591,-0.620658,0.2851894,0.005062764,-0.2509801,0.2296443,0.2956212,-0.04252884
1.044973,-0.2261063,-0.7131719,0.1249164,0.02843721,-0.343561,0.1727006,0.5386725,-0.05438708
0.8815046,-0.2922946,-0.7829188,-0.03839063,-0.03801488,-0.4132914,-0.1097935,0.7658177,-0.08860032
0.8315481,-0.4023342,-0.6708478,-0.08824339,-0.1483958,-0.3011081,-0.308376,1.170587,-0.09184021
0.8166267,-0.4521089,-0.5126701,-0.1031122,-0.1985779,-0.1427125,-0.3732383,1.715028,-0.05213542
0.8045808,-0.408937,-0.4477084,-0.1151482,-0.1558658,-0.07742413,-0.3175599,1.901513,0.001180666
0.8479548,-0.3046752,-0.4006016,-0.07179899,-0.05210276,-0.02988419,-0.2997827,1.794605,0.07653157
0.9283687,-0.2189854,-0.3365413,0.008562561,0.03305849,0.03470982,-0.3286182,1.645554,0.1845173
0.9617902,-0.1468136,-0.3547751,0.04190776,0.1046762,0.01710148,-0.2475582,1.41167,0.2559732
0.9413723,-0.1142177,-0.3900523,0.02139108,0.1366927,-0.01746729,-0.3226921,1.153969,0.2652089
0.9086594,-0.1578743,-0.3866151,-0.01144242,0.0924295,-0.01324698,-0.5147218,0.8926311,0.3088663
0.8622011,-0.2121599,-0.3799572,-0.0580414,0.03750803,-0.005738189,-0.633167,0.687705,0.3404809
0.7930853,-0.2767751,-0.3238131,-0.1273141,-0.02777142,0.05131737,-0.6854397,0.598973,0.3392509
0.7568024,-0.2898166,-0.2859323,-0.1637636,-0.0415022,0.09016187,-0.572833,0.5282264,0.4479482
0.7787898,-0.2570793,-0.2578759,-0.1419446,-0.009474424,0.1192245,-0.4983076,0.4986446,0.6059452
0.7733224,-0.2917081,-0.1979791,-0.1475738,-0.04482807,0.1801586,-0.4895043,0.5008207,0.6722346
0.7681896,-0.3077143,-0.1947272,-0.1528544,-0.06156961,0.1844661,-0.4810233,0.4265753,0.6538005
0.7880612,-0.3356244,-0.1761552,-0.1331093,-0.09022009,0.2040988,-0.5408058,0.3081158,0.5829235
0.7639316,-0.4085154,-0.123589,-0.1573381,-0.16385,0.2577169,-0.4197635,0.1201819,0.4740599
0.7517214,-0.3908048,-0.1158955,-0.169614,-0.1468683,0.2664398,-0.2479574,-0.1474616,0.3053329
0.7484919,-0.3650139,-0.1032667,-0.1728697,-0.1217879,0.2800608,-0.2105451,-0.3318923,0.1229878
0.7408959,-0.3650756,-0.08031467,-0.1804465,-0.1225341,0.3039536,-0.196789,-0.459899,0.0009030608
0.780259,-0.3260479,-0.09125055,-0.1410132,-0.08415837,0.2938934,-0.247032,-0.5858767,-0.05984491
0.8429322,-0.304391,-0.1249079,-0.07821487,-0.06311663,0.2610339,-0.2600338,-0.5880595,-0.04572251
0.9572002,-0.27008,-0.1619781,0.03623402,-0.02938096,0.224673,-0.2772238,-0.5482558,-0.02469577
1.093927,-0.2279867,-0.1931185,0.1731935,0.01217761,0.1941453,-0.2997856,-0.5698,-0.04141177
1.153579,-0.2384654,-0.1964041,0.2331208,0.001204251,0.19137,-0.1382476,-0.5697686,-0.08283271
1.165961,-0.2502167,-0.1940891,0.2458069,-0.01100328,0.194089,0.0473643,-0.545272,-0.16429
1.223652,-0.2691671,-0.2199706,0.3038155,-0.03037273,0.1685018,0.08598956,-0.4316127,-0.1571351
1.279661,-0.3183115,-0.2609313,0.3601388,-0.07989933,0.127724,0.009722048,-0.04015204,-0.03189118
1.226326,-0.3395773,-0.3248385,0.3070989,-0.1015091,0.06388826,-0.07262747,0.4389058,0.06451615
1.155308,-0.354713,-0.3649563,0.2363404,-0.116948,0.02373359,-0.1213266,0.5185629,0.1103236
1.108745,-0.3956109,-0.347694,0.189989,-0.1581046,0.0408558,-0.09645095,0.187507,0.1803902
1.046102,-0.4438077,-0.3803855,0.1275013,-0.206511,0.007927119,0.04629202,-0.2351574,0.2951564
1.004085,-0.5161047,-0.5156107,0.085579,-0.2789617,-0.1276248,0.1801161,-0.5702859,0.363386
0.9397276,-0.5112638,-0.6248974,0.02125532,-0.2742102,-0.2373169,0.2871215,-0.5459356,0.3738167
0.8646685,-0.3334134,-0.5826091,-0.05383057,-0.09637644,-0.1954975,0.1842261,-0.2081206,0.3415574
0.7731549,-0.1517991,-0.5042008,-0.1454256,0.08529698,-0.1176057,-0.1456948,0.00530624,0.2287374
0.7183025,-0.1282247,-0.4898335,-0.2004048,0.1090019,-0.1037895,-0.3721703,0.003785607,0.07353807
0.7608097,-0.1893168,-0.4202003,-0.158058,0.04810265,-0.03473226,-0.5991988,-0.2920792,-0.1680805
0.7115047,-0.2247235,-0.3253201,-0.207545,0.01294267,0.05955373,-0.7073768,-0.8736434,-0.3985623
0.7076621,-0.2841641,-0.3194777,-0.2115794,-0.04620384,0.06478639,-0.5610946,-1.322686,-0.50963
0.8534034,-0.4034384,-0.3720521,-0.06602883,-0.1651393,0.01158713,-0.3329821,-1.400409,-0.6773743
0.9160124,-0.4831279,-0.4518651,-0.00360238,-0.2444438,-0.0688643,0.06846223,-1.04124,-0.8333606
0.9338455,-0.4694935,-0.5101289,0.01405884,-0.2303732,-0.1277761,0.3243541,-0.4758282,-0.8646327
0.8994121,-0.3881879,-0.5051672,-0.02053561,-0.1485735,-0.1234646,0.4213523,-0.04894904,-0.8606092
0.8694315,-0.3327183,-0.4756015,-0.05066633,-0.09254822,-0.09454387,0.712764,0.237741,-0.7987308
0.9026423,-0.2885524,-0.4618038,-0.01759382,-0.04776456,-0.08137858,0.8587035,0.2979579,-0.6820242
0.8425171,-0.1799496,-0.4514097,-0.07784383,0.0615152,-0.07159912,0.8335526,0.0450464,-0.5469235
0.8023437,-0.115686,-0.4365855,-0.1181263,0.1265083,-0.05736733,0.8036681,-0.3817708,-0.4230994
0.799085,-0.07984023,-0.4560769,-0.1214746,0.1631259,-0.07742534,0.7048348,-0.6041714,-0.3334803
0.8121838,-0.02484219,-0.4782592,-0.1084412,0.2189256,-0.1001451,0.648147,-0.4960724,-0.2915329
0.8783665,-0.009945215,-0.4741913,-0.04229569,0.2346399,-0.0965819,0.5467506,-0.4371252,-0.2826934
0.8604812,0.005587442,-0.4704283,-0.060188,0.2509907,-0.0932866,0.4274428,-0.3948786,-0.1984765
0.8469353,0.0008809913,-0.4424593,-0.07370958,0.2470885,-0.06574518,0.3828817,-0.3033035,-0.08810571
0.8456378,-0.002537709,-0.4056823,-0.07495051,0.2444463,-0.02935344,0.3019718,-0.3070817,0.01792256
0.8083574,0.006059049,-0.3847428,-0.1121406,0.2537789,-0.008756392,0.2158545,-0.2812023,0.1988175
0.8304167,-0.03899983,-0.3657739,-0.08995524,0.2094035,0.009911752,0.1759319,-0.3177667,0.35158
0.8679815,-0.08685271,-0.3642254,-0.05222689,0.1621721,0.01119916,0.2464821,-0.4274238,0.4097822
0.9325488,-0.1193829,-0.3895219,0.01254177,0.1301946,-0.01432128,0.3305917,-0.4581478,0.3832595
0.9806351,-0.1125094,-0.4238601,0.06086472,0.1375475,-0.04884794,0.2893676,-0.453411,0.2918474
1.010192,-0.09130768,-0.4596374,0.09068925,0.1591522,-0.08477868,0.2632169,-0.3643667,0.1701119
1.093712,-0.1106292,-0.5085668,0.1744992,0.140154,-0.1338251,0.2117588,-0.2598589,0.04459347
1.105868,-0.1288188,-0.5231682,0.186961,0.1222057,-0.1485038,0.1067725,-0.2656579,0.006895632
1.117968,-0.1973237,-0.5233488,0.1993689,0.0538587,-0.1487178,0.1136015,-0.2592732,-0.01343119
1.19713,-0.2586293,-0.5925505,0.2788315,-0.007370807,-0.2179039,0.1745256,-0.162678,-0.0682858
1.165166,-0.2200688,-0.6657875,0.2471476,0.03118764,-0.2910701,0.2128526,0.04532405,-0.06131828
1.047388,-0.2156356,-0.7358261,0.1296175,0.03554538,-0.3609738,0.2009876,0.4370929,-0.07568149
0.935167,-0.3091364,-0.7744228,0.01760489,-0.05809963,-0.3993599,0.03695913,0.8636213,-0.1525572
0.878614,-0.4550009,-0.6497899,-0.03878089,-0.2041701,-0.2744284,-0.1696326,1.208064,-0.1892311
0.9117129,-0.5695874,-0.5048208,-0.005553967,-0.3190125,-0.1290637,-0.1742939,1.578618,-0.1476357
0.9090608,-0.5507262,-0.4796252,-0.008114045,-0.3004403,-0.1033724,-0.0818885,1.835405,-0.1000508
0.900049,-0.2576223,-0.7319291,-0.02135952,-0.05075941,-0.3280372,0.07886015,1.574893,-0.4860352
0.6823894,-0.3355218,-0.6397157,-0.2387496,-0.1273163,-0.2362031,-0.2160927,1.246187,-0.2737818
0.6656641,-0.4304158,-0.5067722,-0.2552957,-0.2209077,-0.1035348,-0.3170665,1.26217,0.05288543
0.8464902,-0.5075925,-0.4316195,-0.07436455,-0.2968133,-0.02855139,-0.06888606,1.488362,0.09774285
0.9377835,-0.4068191,-0.3379995,0.01697245,-0.1947895,0.0650018,0.2200309,1.522279,0.09149294
0.993528,-0.2371269,-0.3293319,0.07270621,-0.02385849,0.0736972,0.2788378,1.30817,0.2413827
1.02304,-0.1861838,-0.4187693,0.1021549,0.02831531,-0.01562707,0.2949754,0.901294,0.1971158
0.9069961,-0.1434198,-0.4962284,-0.01400444,0.07229992,-0.09289506,0.1599935,0.6964499,0.07692733
0.8379711,-0.1274287,-0.5348013,-0.0831942,0.08949643,-0.1312028,-0.1496299,0.6784444,0.08851055
0.7235222,-0.1480106,-0.4389034,-0.1978509,0.07009884,-0.03496696,-0.2792208,0.6414441,0.1633431
0.6059569,-0.1630365,-0.324756,-0.3156557,0.05623044,0.07958823,-0.2774963,0.6732959,0.4049552
0.6300828,-0.2110038,-0.2865036,-0.2917856,0.009389679,0.1183112,-0.3137595,0.6528181,0.6338134
0.6183993,-0.2676533,-0.2065142,-0.3037245,-0.0461667,0.1988233,-0.2811771,0.5989758,0.7099506
0.63572,-0.3229518,-0.1209649,-0.2866426,-0.1004049,0.2849337,-0.1834395,0.487208,0.7310652
0.6778552,-0.3267311,-0.05720216,-0.2447153,-0.1031539,0.3492793,-0.1096006,0.164232,0.5942657
0.6830094,-0.3122308,-0.02978736,-0.2397259,-0.08764903,0.3772794,-0.0898766,-0.1177151,0.3881165
0.6993522,-0.3492639,-0.03590526,-0.2234949,-0.1236991,0.3717293,-0.09880901,-0.3261139,0.1807424
0.7004087,-0.3459752,-0.01543104,-0.2224888,-0.1194446,0.3927342,-0.08492121,-0.5270668,-0.06201616
0.7579065,-0.3286734,-0.002475983,-0.164973,-0.1011895,0.4061642,-0.09276377,-0.630971,-0.2217935
0.8362056,-0.3343476,-0.02583757,-0.08658304,-0.1059191,0.3832042,-0.1193757,-0.7278328,-0.2973456
0.9682993,-0.3051687,-0.1341626,0.04567493,-0.07580072,0.2751922,-0.0741956,-0.7095956,-0.3113608
1.183648,-0.281828,-0.3044883,0.2612558,-0.05152357,0.1050803,0.07120363,-0.5289189,-0.3307241
1.325963,-0.2720247,-0.3790102,0.4038564,-0.04078564,0.03066963,0.2877044,-0.3439821,-0.2766032
1.385113,-0.2729166,-0.2694699,0.4633259,-0.0407447,0.1402205,0.3815435,-0.1941977,-0.1331131
1.310505,-0.3270893,-0.1589638,0.3890466,-0.09398623,0.2506381,0.2801126,0.03524955,-0.1780698
1.206216,-0.4635013,-0.2414584,0.2850723,-0.2294669,0.1679546,0.2423789,0.4373448,-0.1925018
1.217824,-0.612995,-0.293905,0.2969638,-0.3780225,0.1152167,0.2989871,0.5820392,-0.0583211
1.122763,-0.6152327,-0.2895603,0.2021423,-0.3793038,0.119168,0.3986632,0.1560454,-0.03248811
0.9842608,-0.6077188,-0.4254196,0.06382449,-0.3708004,-0.01718373,0.6748752,-0.6090872,0.04458972
1.025187,-0.6762054,-0.5864445,0.1048766,-0.43825,-0.1787931,0.9939208,-1.150847,0.1756823
1.041901,-0.5516727,-0.7911068,0.1216571,-0.3126187,-0.3841181,1.081553,-0.7680386,0.2062788
0.9290712,-0.3661316,-0.8928357,0.008832711,-0.1259072,-0.4865664,0.8281056,-0.2019689,0.1332175
0.8612738,-0.2899912,-0.6150788,-0.0590182,-0.04852145,-0.2095601,0.4942226,-0.3304181,-0.07777224
0.8570203,-0.1875955,-0.3469252,-0.06337924,0.05519063,0.05783164,0.3647405,-0.3531941,-0.3907797
0.8570613,-0.2133974,-0.3538161,-0.06349291,0.03076809,0.0501762,0.1792028,-0.4279227,-0.872106
0.8523613,-0.3086762,-0.3479699,-0.0683875,-0.06307779,0.05525647,-0.003938186,-1.012224,-1.303739
0.8267826,-0.2962923,-0.3156719,-0.09419378,-0.04921469,0.0867863,0.08127321,-1.21803,-1.426425
0.8041543,-0.315969,-0.3927446,-0.1170754,-0.06737079,0.008942365,0.1475491,-1.093999,-1.457125
0.7285689,-0.2580327,-0.4576584,-0.1929313,-0.007877027,-0.05674532,0.2145175,-1.06356,-1.314713
0.6334238,-0.1311149,-0.466658,-0.2883538,0.1206292,-0.06651823,0.3690344,-0.8807119,-0.9548929
0.6732711,-0.1350714,-0.4450638,-0.2487778,0.1182829,-0.0456922,0.4767773,-0.5372993,-0.5940827
0.7270794,-0.156533,-0.3717822,-0.1952215,0.09844225,0.02683056,0.724813,-0.2745725,-0.2334325
0.7207676,-0.1534954,-0.3494776,-0.201755,0.1031005,0.04838752,0.9868703,-0.3678331,-0.0831193
0.7663246,-0.1589694,-0.3615353,-0.1563807,0.09923723,0.03559322,1.024859,-0.5366601,-0.1042418
0.7934067,-0.1468013,-0.3503323,-0.1294355,0.1129972,0.04606977,0.9477782,-0.6286603,-0.05903359
0.7951198,-0.1213216,-0.3729438,-0.1278088,0.1400412,0.02274113,0.8471401,-0.7811496,-0.07391176
0.846651,-0.03498507,-0.3842158,-0.07631057,0.2279051,0.01076108,0.7861756,-0.6985367,-0.05080873
0.8730084,0.05696694,-0.4086106,-0.04993138,0.3213362,-0.01433236,0.6455097,-0.5951782,0.04708238
0.8792197,0.06355693,-0.4432488,-0.04364384,0.3293428,-0.04965831,0.4660213,-0.5767245,0.1041393
0.9480638,-0.004844904,-0.4356414,0.0253287,0.26228,-0.04272517,0.455803,-0.4272043,0.1944668
1.05142,-0.09169403,-0.4635689,0.1288609,0.1766796,-0.07131026,0.4659308,-0.3848758,0.1956996
1.144842,-0.1117217,-0.4995341,0.2225,0.157802,-0.1079127,0.4196673,-0.3836557,0.06405125
1.230516,-0.06904791,-0.5210966,0.3084177,0.2015215,-0.1300869,0.3078532,-0.3858745,-0.06583262
1.283317,-0.03436185,-0.5577156,0.3614738,0.2371441,-0.1672864,0.09351078,-0.4386159,-0.1189439
1.284626,-0.06348505,-0.6297453,0.3630309,0.2088428,-0.2398581,-0.02435282,-0.3840384,-0.07212782
1.298203,-0.1667218,-0.7362432,0.376831,0.1063089,-0.3468497,0.029699,-0.2350764,-0.03440188
1.321666,-0.2401263,-0.7505505,0.4004725,0.03348677,-0.3615897,0.1945705,0.1181173,-0.02211047
1.255492,-0.2127238,-0.7410822,0.3344173,0.06135409,-0.3524791,0.2975133,0.6660962,-0.07698674
1.050354,-0.227916,-0.751601,0.129324,0.0465136,-0.3632663,-0.02443551,1.223411,-0.1824131
0.7711815,-0.4104569,-0.6301715,-0.1498823,-0.135783,-0.2420043,-0.505448,1.559296,-0.1025058
0.6917031,-0.5635372,-0.51948,-0.2294685,-0.2887159,-0.1313712,-0.4930431,1.563163,0.07151123
0.808254,-0.5182774,-0.4967092,-0.1130863,-0.2433897,-0.1085472,-0.2814405,1.671421,0.2151013
0.8122597,-0.4512487,-0.4051649,-0.1092968,-0.1763574,-0.01683998,-0.2592085,1.862122,0.33748
0.8986778,-0.4052954,-0.3282401,-0.02313236,-0.1304481,0.06035179,-0.1569095,1.692422,0.3010847
1.077845,-0.2364182,-0.3725759,0.1557492,0.03834853,0.01637851,-0.09602044,1.378746,0.2049697
0.9965263,-0.1283048,-0.4436866,0.07411367,0.1463495,-0.0542831,-0.241874,1.066849,0.090874
0.8710097,-0.1744504,-0.4723102,-0.05175166,0.100059,-0.08237753,-0.4862856,0.6741544,-0.05075877
0.7803048,-0.168167,-0.4273968,-0.1428345,0.1061618,-0.03685955,-0.7398062,0.3891681,0.001773093
0.6483685,-0.2078794,-0.2998792,-0.2751696,0.06623119,0.09133303,-0.7280113,0.2945532,0.176745
0.6613962,-0.3043322,-0.2170186,-0.2625491,-0.03047818,0.1749305,-0.5607382,0.3782947,0.4046785
0.6659303,-0.2898373,-0.2007829,-0.2584157,-0.01627583,0.1919522,-0.4622844,0.5231616,0.6619089
0.6391448,-0.2911675,-0.1535334,-0.2855811,-0.01793065,0.2400218,-0.3692312,0.5292523,0.740315
0.6909514,-0.302428,-0.1124197,-0.2341203,-0.02954349,0.2819739,-0.3785759,0.4321607,0.7366496
0.6812364,-0.2897145,-0.08275195,-0.2441353,-0.01720599,0.3124812,-0.3939994,0.2843613,0.6780761
0.6801329,-0.3242064,-0.06043003,-0.2454829,-0.05209337,0.3356262,-0.3122114,0.1041042,0.4818791
0.6993467,-0.3392741,-0.02765168,-0.226448,-0.0675717,0.3691934,-0.2492918,-0.2143242,0.2653059
0.6932891,-0.3538014,0.02791069,-0.2326114,-0.08251945,0.4254924,-0.1993724,-0.631291,0.002233186
0.7851415,-0.3711337,-0.01269032,-0.1407856,-0.1002764,0.3855573,-0.2000029,-0.6750486,-0.2122794
0.9586246,-0.376091,-0.1006281,0.03275328,-0.1056564,0.2981983,-0.1606798,-0.5136376,-0.2721235
1.140729,-0.3652503,-0.2027236,0.2149917,-0.09523012,0.1965818,-0.0125047,-0.468311,-0.2881727
1.236459,-0.2901712,-0.2982548,0.3109217,-0.02055219,0.1014229,0.05667564,-0.3261624,-0.2288977
1.253073,-0.2111103,-0.2150973,0.3277845,0.05812353,0.1848442,0.01671746,-0.2845461,-0.1180054
1.28552,-0.2154232,-0.1676209,0.3605087,0.05344087,0.2324745,-0.1780419,-0.1653887,0.01870987
1.263022,-0.3995338,-0.3547942,0.3382954,-0.1310252,0.04534374,-0.4024816,0.2873553,0.1868846
1.181144,-0.6136873,-0.5094084,0.2566908,-0.3455168,-0.1093371,-0.2104178,0.3491037,0.2103942
1.032238,-0.5943082,-0.5137315,0.1080342,-0.3264477,-0.1138276,0.2345548,-0.1293587,0.2102544
0.890458,-0.5389406,-0.5336849,-0.03353046,-0.2713475,-0.1340363,0.4688188,-0.5364371,0.3671329
0.9454858,-0.5514171,-0.6470951,0.02167831,-0.2840357,-0.2477756,0.5040998,-0.5512539,0.4628832
0.9682183,-0.3863802,-0.7124357,0.04455843,-0.1191445,-0.3135026,0.4360359,-0.3081804,0.444957
0.8419484,-0.1636145,-0.6388481,-0.08159568,0.1035459,-0.2403402,0.2271588,-0.2333689,0.3505991
0.8149433,-0.1534496,-0.5207187,-0.1085136,0.1137025,-0.122658,-0.1580127,-0.3005503,0.1085593
0.8545024,-0.2490166,-0.4168671,-0.06889017,0.01818565,-0.01926323,-0.4384971,-0.3421707,-0.2156462
0.8695409,-0.3171504,-0.3406204,-0.05380448,-0.0498467,0.05652273,-0.4506023,-0.5264427,-0.6940447
0.8483048,-0.4025208,-0.3117005,-0.07500584,-0.1350676,0.08497893,-0.4556174,-0.8449939,-1.185101
0.7925123,-0.4547791,-0.3467463,-0.1307714,-0.1871277,0.0494653,-0.277472,-1.056987,-1.32329
0.7661124,-0.3833681,-0.4114381,-0.1571463,-0.1154665,-0.01569998,0.08558851,-0.8869741,-1.246132
0.712035,-0.261895,-0.435762,-0.2111933,0.006311097,-0.04050215,0.2793739,-0.4965902,-1.093957
0.6576021,-0.1887385,-0.426767,-0.2655811,0.07982436,-0.03198764,0.4247761,-0.2284352,-0.8096763
0.6598027,-0.1267397,-0.3814902,-0.2633099,0.1422255,0.01280943,0.5309635,-0.1597337,-0.5146798
0.6880242,-0.08012701,-0.3333939,-0.2349813,0.1892762,0.06042817,0.6302951,-0.4449011,-0.2735838
0.7688022,-0.08492709,-0.3564084,-0.1540503,0.1849379,0.03693809,0.7582309,-0.7487769,-0.1410502
0.8057683,-0.07775203,-0.3904456,-0.1168791,0.1925861,0.00242646,0.7417697,-0.7526719,-0.1630422
0.7972244,-0.05547158,-0.423744,-0.1251624,0.2153391,-0.03134512,0.6834596,-0.7730125,-0.1789267
0.8340013,-0.02130434,-0.4879112,-0.08806809,0.2499662,-0.09598189,0.5720047,-0.6568235,-0.1127232
0.8257996,0.02372422,-0.4723616,-0.09589495,0.2954294,-0.08089441,0.4430775,-0.3658449,-0.08615274
0.7952083,0.04569854,-0.3818322,-0.126054,0.3178,0.009184697,0.3697135,-0.3010711,-0.02076914
0.7941923,0.09066211,-0.3468869,-0.1265802,0.3631073,0.04369363,0.2472549,-0.3658203,0.1750598
0.7996476,0.09678186,-0.3613189,-0.1205764,0.3695035,0.02883863,0.1392876,-0.4024852,0.3447571
0.87434,0.00233742,-0.3896778,-0.04527706,0.2752544,6.886992e-05,0.07770586,-0.4668766,0.4329934
1.003156,-0.1256772,-0.4211939,0.08420222,0.1473438,-0.03184638,0.1619333,-0.5784852,0.4063691
1.093744,-0.216503,-0.4385689,0.175502,0.05652578,-0.04960784,0.2540696,-0.6857598,0.2396499
1.16313,-0.1407818,-0.4658097,0.2456377,0.1321591,-0.07722016,0.08956047,-0.7029321,0.0354732
1.284496,-0.04526548,-0.5314194,0.3677747,0.2274931,-0.143183,-0.03994261,-0.6611508,-0.07963382
1.36702,-0.1429359,-0.6776378,0.4510726,0.1295448,-0.2897299,0.002117396,-0.5246068,-0.05671884
1.385259,-0.2261881,-0.8000888,0.4700638,0.04591918,-0.4124743,0.05044692,-0.1131779,-0.09237635
1.419579,-0.238774,-0.7800735,0.5050907,0.03286693,-0.3927019,0.1083057,0.4384563,-0.1499249
1.265087,-0.2561299,-0.821895,0.3512382,0.0149574,-0.4346985,0.09089948,0.8576421,-0.1374888
0.9904523,-0.2427523,-0.921872,0.07715928,0.02770057,-0.5347652,-0.2114287,1.307056,-0.2263847
0.8786692,-0.339186,-0.7517311,-0.03415964,-0.06944135,-0.364611,-0.6163051,1.601328,-0.1798448
0.7631289,-0.4697731,-0.4716889,-0.1493239,-0.2008011,-0.08443896,-0.6310319,1.469621,0.05303047
0.7290847,-0.4508608,-0.4103578,-0.1830703,-0.182713,-0.0228583,-0.4607884,1.52545,0.2231004
0.9197358,-0.3523452,-0.3883689,0.007811553,-0.08505869,-0.0005049317,-0.4787626,1.685034,0.3789463
1.029513,-0.2348049,-0.3232363,0.1177606,0.03159465,0.06509827,-0.4090744,1.424071,0.4159019
1.035373,-0.1709156,-0.3768713,0.1237351,0.09457713,0.01202975,-0.3363321,1.184298,0.3560092
1.021856,-0.1406988,-0.4622206,0.1102737,0.1238685,-0.07266653,-0.5438878,1.081519,0.2641763
0.9383654,-0.1209456,-0.4827086,0.02677793,0.1426762,-0.09242196,-0.7895251,0.9318038,0.09397448
0.8130748,-0.1866836,-0.4306072,-0.09857616,0.07597042,-0.03951262,-0.8598458,0.7980589,0.09200858
0.6714043,-0.2480152,-0.3196538,-0.2403622,0.01364789,0.07231887,-0.7738711,0.6908859,0.2502367
0.6206139,-0.2864633,-0.2413541,-0.2913077,-0.02581234,0.1515582,-0.6901999,0.7090333,0.4751172
0.6250337,-0.3137572,-0.18838,-0.2870666,-0.05413515,0.2055212,-0.646342,0.6317643,0.7528173
0.6241037,-0.2963473,-0.1327034,-0.2881821,-0.03776534,0.2622205,-0.5204278,0.4412976,0.8583372
0.6787942,-0.3070697,-0.100447,-0.2336683,-0.04953291,0.2955162,-0.4116983,0.3510698,0.8368399
0.6969976,-0.3068714,-0.09143371,-0.2156197,-0.05037935,0.3055674,-0.354099,0.1806295,0.7695013
0.6891039,-0.3094267,-0.08083899,-0.2236353,-0.05397361,0.3171803,-0.3046366,-0.02250255,0.5742802
0.7024132,-0.3478349,-0.0387567,-0.210406,-0.09340959,0.3602436,-0.2721398,-0.2946257,0.3008651
0.7213906,-0.3434272,0.003840436,-0.1914582,-0.09001287,0.4037667,-0.2125824,-0.62663,-0.01867082
0.8097928,-0.3529737,0.007714844,-0.103029,-0.1005472,0.4084942,-0.2216461,-0.6478482,-0.2701061
0.9465848,-0.3664689,-0.07919992,0.03384929,-0.1150013,0.3223425,-0.2299885,-0.4810992,-0.2998344
1.078092,-0.3374794,-0.2667,0.165499,-0.08693565,0.1355021,-0.1156177,-0.3021893,-0.2220859
1.143906,-0.3276221,-0.3710471,0.2315026,-0.07796223,0.03170537,0.005710636,-0.1756439,-0.1396434
1.252697,-0.3440331,-0.2833206,0.3405165,-0.09521319,0.1198734,0.09772168,-0.2834359,0.02447953
1.478004,-0.4036019,-0.2321758,0.5660603,-0.1555739,0.1713525,0.1453772,-0.2340291,0.1534482
1.533098,-0.4608246,-0.3908238,0.6213802,-0.213535,0.01293248,0.1945099,0.3946153,0.1231664
1.39384,-0.4480679,-0.4990308,0.4823103,-0.2014561,-0.09514921,0.231355,0.9102467,0.005497226
1.184588,-0.4558587,-0.3958698,0.2731825,-0.2098562,0.008041699,0.2714887,0.3485678,-0.07778499
0.9619923,-0.5463978,-0.3567085,0.05063335,-0.3009281,0.04714574,0.5012369,-0.5224737,0.1567936
0.9677521,-0.5912122,-0.5049821,0.05635783,-0.3461895,-0.1012656,0.6435731,-0.4957243,0.4452354
0.9870157,-0.467185,-0.6585467,0.07550567,-0.2225131,-0.2550395,0.5267108,-0.1984887,0.2563175
0.7957339,-0.2886965,-0.6726486,-0.1159682,-0.04427228,-0.2694082,0.3635049,-0.1631648,0.0695145
0.7538108,-0.1920528,-0.5623247,-0.1581522,0.05222743,-0.1593919,0.09909812,-0.1383519,0.1024199
0.808081,-0.1601816,-0.4312425,-0.1042004,0.0840518,-0.02864407,-0.1417816,-0.2874726,-0.1418011
0.7525109,-0.2036258,-0.3377817,-0.1601347,0.04064837,0.06446324,-0.2782655,-0.6337931,-0.5235948
0.7583313,-0.3098601,-0.3102647,-0.1547126,-0.06546631,0.09160994,-0.387614,-1.252197,-0.8466519
0.8042365,-0.3845703,-0.3324359,-0.109229,-0.1399834,0.06905035,-0.3012103,-1.605544,-1.074585
0.8422817,-0.3918118,-0.3679611,-0.07161922,-0.1469592,0.03311751,-0.1272367,-1.134203,-1.063679
0.8437864,-0.3220926,-0.4227974,-0.07055644,-0.07690147,-0.02214564,0.05235015,-0.7593415,-1.018379
0.7798356,-0.2158137,-0.4529491,-0.1349498,0.02978762,-0.05274124,0.2741976,-0.5477848,-0.9592711
0.7631922,-0.174703,-0.4352632,-0.1520296,0.07137535,-0.0355122,0.3029984,-0.1666839,-0.7360605
0.7476185,-0.1464398,-0.4075145,-0.1680258,0.1001741,-0.008229447,0.3032552,-0.2239364,-0.4773127
0.7562341,-0.07683696,-0.3737006,-0.1598105,0.1703606,0.02511258,0.4459603,-0.4385268,-0.2878886
0.8020101,-0.05387676,-0.3595986,-0.1144051,0.1939407,0.03873796,0.4717097,-0.5826946,-0.184849
0.8025149,-0.06486626,-0.3831817,-0.1142352,0.183594,0.01467406,0.4673036,-0.7675561,-0.09888349
0.8395785,-0.05386772,-0.4004539,-0.07746654,0.1952452,-0.003082813,0.4696734,-0.6256365,-0.02403653
0.8531969,-0.0148791,-0.4068847,-0.06410028,0.2348837,-0.0100009,0.3696286,-0.4385507,0.03611335
0.8566881,0.03495032,-0.4045301,-0.06081702,0.2853473,-0.008134417,0.3484806,-0.4413619,0.1629199
0.9025618,0.05603052,-0.3842671,-0.0151067,0.3070322,0.01164125,0.2880946,-0.3341206,0.2549737
0.88359,0.04872428,-0.3854235,-0.03419785,0.3002865,0.009999482,0.1191226,-0.2868788,0.3146947
0.9072448,-0.01765026,-0.3936821,-0.01062005,0.2344152,0.001258308,0.06308192,-0.3900463,0.3923131
0.9750076,-0.1221855,-0.3943662,0.05710591,0.1303152,9.537054e-05,0.07627414,-0.4393234,0.3653422
1.011592,-0.1509064,-0.4243757,0.09368985,0.1019559,-0.03038824,0.09639766,-0.5501668,0.2629222
1.145338,-0.1156727,-0.4840814,0.227464,0.1374749,-0.09056112,0.07500386,-0.6316666,0.1313861
1.307125,-0.1210264,-0.5678343,0.3892968,0.1323285,-0.17477,-0.006921467,-0.5525237,0.009787693
1.315825,-0.1795718,-0.6269732,0.3980449,0.07391145,-0.2343465,-0.06814714,-0.4842074,-0.02890215
1.272707,-0.2136127,-0.6692816,0.3549566,0.03991993,-0.2770639,-0.04850028,-0.2071052,-0.07241819
1.288177,-0.1881384,-0.7323153,0.37042,0.06536687,-0.3404657,0.1234642,0.2986863,-0.1201958
1.156848,-0.1751766,-0.7461569,0.239033,0.07822719,-0.3546208,0.200978,0.6839801,-0.1091539
0.9317129,-0.2728363,-0.7310295,0.01377752,-0.01960536,-0.3397379,-0.08895539,1.018238,-0.1088982
0.8701766,-0.4289707,-0.6216375,-0.04794291,-0.1759788,-0.2305087,-0.495187,1.271694,-0.1260528
0.8306224,-0.4803948,-0.4168395,-0.08774057,-0.2276978,-0.02578366,-0.599677,1.334405,-0.1171448
0.8071277,-0.4202379,-0.4112617,-0.1115297,-0.1678779,-0.02018822,-0.4739223,1.44005,-0.04828636
0.8652038,-0.3658201,-0.4629586,-0.05379005,-0.1138256,-0.07178044,-0.4654793,1.607589,0.09960657
0.8662403,-0.333041,-0.3856458,-0.05312391,-0.08143006,0.00571927,-0.426206,1.630457,0.2461384
0.9138031,-0.2137218,-0.4278362,-0.005959034,0.03749455,-0.03620686,-0.2911294,1.500184,0.3400922
0.9887828,-0.04726238,-0.48933,0.06859932,0.2035505,-0.09736365,-0.3204029,1.277017,0.3860815
0.9425807,-0.04122292,-0.474622,0.02195417,0.2091739,-0.08224911,-0.5133423,1.026173,0.3800949
0.8534616,-0.1515616,-0.4714786,-0.06762809,0.09839975,-0.0786314,-0.7896435,0.7873053,0.3563588
0.7507026,-0.2276315,-0.3704818,-0.1708661,0.02187007,0.02290465,-0.8648171,0.5452405,0.3563112
0.6861717,-0.2856107,-0.2921148,-0.2358833,-0.03659358,0.1018708,-0.7123884,0.4116513,0.4572872
0.6944194,-0.3029004,-0.2756517,-0.2281177,-0.05438927,0.1189841,-0.6520659,0.3774772,0.6515605
0.6677892,-0.3196201,-0.1979123,-0.255213,-0.07163143,0.1974137,-0.5543998,0.3695938,0.7715353
0.6620536,-0.3750133,-0.160037,-0.261384,-0.1275575,0.236006,-0.432059,0.4062706,0.7727662
0.7292516,-0.3564554,-0.1361693,-0.1945802,-0.1095358,0.2606029,-0.4002101,0.3471344,0.6967782
0.7512493,-0.3417011,-0.09935344,-0.1729256,-0.09531351,0.2981442,-0.3003477,0.187878,0.5243724
0.7492598,-0.3897044,-0.1141861,-0.1751999,-0.1438378,0.2840176,-0.1952425,-0.06653491,0.2794846
0.7598358,-0.3783375,-0.09871467,-0.164845,-0.1329741,0.3001602,-0.114177,-0.4125321,-0.008635972
0.7550876,-0.3502318,-0.0483773,-0.1697456,-0.1053471,0.3511191,-0.0601459,-0.5622217,-0.2398736
0.7992616,-0.3219532,-0.04362679,-0.1256516,-0.07751704,0.3564265,-0.0899316,-0.5195221,-0.2681802
0.8823778,-0.2936907,-0.0904873,-0.04254103,-0.04966921,0.310044,-0.07928237,-0.4030776,-0.196486
0.9833285,-0.2947919,-0.1948414,0.05847706,-0.05114913,0.2060768,-0.0171466,-0.2475069,-0.1695426
1.068868,-0.2584909,-0.3049968,0.1441511,-0.01518974,0.09620987,0.07119922,-0.2531146,-0.1021268
1.110664,-0.2581086,-0.2729874,0.1861386,-0.01511214,0.1284071,0.2085498,-0.3512192,-0.01153044
1.246019,-0.2759425,-0.1524865,0.3217291,-0.03321455,0.2489946,0.260059,-0.3313468,-0.02023612
1.37057,-0.2572382,-0.1267565,0.4465414,-0.01474329,0.2747073,0.1223863,-0.0436565,-0.0468334
1.308251,-0.3043921,-0.2073206,0.3844877,-0.06209532,0.1940175,-0.06078008,0.484206,-0.01765617
1.186786,-0.3428596,-0.3161897,0.2632726,-0.1007256,0.08491123,-0.02121216,0.6323985,0.04900438
1.066347,-0.371652,-0.3293945,0.1430523,-0.1296435,0.07135893,0.1529845,0.0001830818,0.1680975
1.023205,-0.4774077,-0.319211,0.1000871,-0.2354834,0.08108883,0.2141272,-0.694925,0.2969297
1.083851,-0.5428772,-0.4650659,0.1608638,-0.300989,-0.06532009,0.3773174,-0.6896618,0.3692567
1.043013,-0.4713769,-0.6611178,0.1201065,-0.2294673,-0.2620165,0.575964,-0.3697179,0.2813419
0.906799,-0.2976403,-0.7547099,-0.01607854,-0.05564395,-0.3563272,0.3165308,-0.2549811,0.116579
0.7933724,-0.1382552,-0.6220296,-0.1295275,0.1038952,-0.2244184,-0.11055,-0.1757056,0.08635945
0.7547265,-0.09908898,-0.3801714,-0.1682399,0.1432769,0.01663403,-0.3374006,-0.1612086,-0.05869154
0.7867468,-0.1939926,-0.285833,-0.13632,0.04864052,0.1101429,-0.6146626,-0.4560652,-0.4434644
0.7600217,-0.3092849,-0.2165557,-0.1631688,-0.06634121,0.1785686,-0.6803779,-0.9880779,-0.7338285
0.7919788,-0.3703995,-0.205323,-0.1313491,-0.1271058,0.1889247,-0.3240243,-1.353669,-0.876285
0.9421643,-0.4110796,-0.3470231,0.01869325,-0.1673957,0.04631917,0.05219836,-1.16513,-1.00503
0.9812538,-0.3894631,-0.4518558,0.05763744,-0.1453456,-0.05944866,0.3393688,-0.6532965,-1.148369
0.8941437,-0.3234876,-0.4779177,-0.02962002,-0.07889029,-0.08647098,0.4353883,-0.1367586,-1.168557
0.746086,-0.2233999,-0.418715,-0.1778261,0.02172418,-0.0282469,0.4091557,0.1069982,-0.9421236
0.6776392,-0.1117114,-0.3667357,-0.2464164,0.1339827,0.02274207,0.5770679,-0.1489831,-0.6216185
0.7398537,-0.07530688,-0.371909,-0.1843312,0.1709923,0.01657092,0.7274897,-0.3082071,-0.3341849
0.7569789,-0.02896385,-0.3484014,-0.1673109,0.2179636,0.03907544,0.7744878,-0.3092957,-0.1315191
0.7969229,-0.003977469,-0.3716813,-0.1274398,0.2435883,0.01478913,0.8182299,-0.5572459,-0.0259868
