accx,accy,accz,body_accx,body_accy,body_accz,body_gyrox,body_gyroy,body_gyroz
0.9205844,-0.3370832,-0.04280155,-0.08695303,-0.1002863,0.04456243,-0.3822182,0.2225238,0.01758911
0.9177687,-0.3270948,-0.02366342,-0.08982175,-0.08970228,0.06456283,-0.3577278,0.1648755,0.01697044
0.9177607,-0.2871915,-0.02014831,-0.08987122,-0.04919001,0.06895467,-0.3250529,0.06632727,0.02104879
0.9044856,-0.2775289,-0.02677534,-0.1031721,-0.03890444,0.06321208,-0.239558,0.01631881,0.05874447
0.9065326,-0.2385521,-0.01535912,-0.1011316,0.0007091286,0.07551403,-0.1841388,-0.06214042,0.1048468
0.9283839,-0.2449008,-0.0156042,-0.0792635,-0.004990839,0.07614982,-0.1387253,-0.04199519,0.1013114
0.9537066,-0.2528243,-0.005956072,-0.05389808,-0.01225586,0.086668,-0.1113991,-0.01060857,0.06222384
0.9554253,-0.2003173,0.0281968,-0.05210928,0.04091699,0.1216741,-0.1108012,-0.04722618,0.01555262
0.9295528,-0.1610009,0.03830128,-0.0778832,0.08090324,0.1326084,-0.09890099,-0.04864082,-0.001476983
0.9082529,-0.1150096,0.04742757,-0.09905505,0.1275631,0.1425343,-0.1182454,-0.1164263,-0.01166931
0.8918631,-0.09673261,0.05881041,-0.1152852,0.1465004,0.1546793,-0.1104217,-0.1737138,-0.03940709
0.8872788,-0.08422988,0.04862737,-0.1196757,0.1596471,0.1452141,-0.1038763,-0.225808,-0.08045886
0.8987884,-0.05009221,0.03251047,-0.1079351,0.1944038,0.1297644,-0.1491898,-0.3071202,-0.1391282
0.9231964,-0.0637743,0.01915986,-0.08325678,0.181307,0.1170251,-0.2259186,-0.2666536,-0.1693152
0.9778622,-0.08525383,0.01134131,-0.02828003,0.1603705,0.109758,-0.3743026,-0.2296555,-0.122495
1.036761,-0.1212337,0.006613329,0.03096955,0.1248844,0.1055185,-0.4364806,-0.2356544,-0.03023831
1.067639,-0.1451407,0.0003240752,0.06223304,0.1014166,0.09965241,-0.3590564,-0.2292539,0.02147098
1.090454,-0.1177399,-0.01030286,0.08546422,0.1291988,0.08938168,-0.3406216,-0.2558816,0.02665883
1.125224,-0.1094661,-0.003796465,0.1206721,0.1377929,0.09617625,-0.4251782,-0.2354061,0.03532213
1.193174,-0.09161916,-0.003221789,0.1890747,0.155896,0.09697036,-0.5538045,-0.2112627,0.09403009
1.339783,-0.08529442,-0.08081235,0.3361393,0.1624091,0.01953043,-0.6472843,-0.1978096,0.2582887
1.476066,-0.1776574,-0.1766625,0.4728662,0.07016353,-0.0762357,-0.6031311,-0.02261772,0.4466407
1.435075,-0.3669885,-0.1916691,0.432287,-0.119121,-0.09121915,-0.3434572,0.2741237,0.4731504
1.298526,-0.5145984,-0.145539,0.2960962,-0.2667486,-0.04511914,0.01101547,0.4484334,0.3255919
1.132689,-0.4410532,-0.05332752,0.1305509,-0.1932722,0.04701586,0.09343554,0.4054344,0.1581722
0.923827,-0.3094408,0.04103411,-0.07809444,-0.06176593,0.1412579,-0.1527919,0.2233989,-0.0004963914
0.891655,-0.2825,-0.02000234,-0.1101212,-0.03495859,0.08005819,-0.378544,-0.05413019,-0.0791227
0.9375024,-0.2538661,-0.1792165,-0.06419213,-0.006479994,-0.07936323,-0.4311009,-0.2912599,0.06986885
0.8690783,-0.2929287,-0.2474284,-0.1325891,-0.04571621,-0.1478226,-0.3704941,-0.3157579,0.2563595
0.9327161,-0.4061246,-0.3103154,-0.06896973,-0.1591,-0.2109886,-0.2665403,-0.1468767,0.3036226
1.023469,-0.4801297,-0.3403608,0.02172639,-0.2333003,-0.2413323,-0.1707335,0.1016569,0.2287147
0.973612,-0.5128234,-0.2458255,-0.02822012,-0.2661856,-0.1471016,0.012984,0.1805462,-0.001827176
0.94089,-0.4251542,-0.1806268,-0.06106151,-0.1786926,-0.08220342,0.1878532,0.05803166,-0.2697853
0.8649684,-0.2963143,-0.1405348,-0.1371271,-0.05000336,-0.04240092,0.2166832,-0.08161478,-0.3736853
0.8192016,-0.2299994,-0.1352049,-0.1830552,0.01619076,-0.03734584,0.2895264,-0.305778,-0.2578797
0.8611882,-0.1773669,-0.1945875,-0.1412378,0.06873197,-0.09698625,0.3331066,-0.4146097,-0.09656054
0.8652812,-0.1833627,-0.2145653,-0.1373131,0.06267084,-0.1172018,0.245139,-0.283807,0.03052911
0.9045558,-0.1779202,-0.2422388,-0.09819814,0.06806899,-0.1450884,0.1587766,-0.2234107,0.1731109
0.925096,-0.1493425,-0.241156,-0.07780314,0.09661844,-0.1441886,0.01140913,-0.1502972,0.1734552
0.8977675,-0.1552323,-0.2152272,-0.1052581,0.09071128,-0.1184073,-0.1507665,-0.07526446,0.1563283
0.9093882,-0.1379934,-0.2346003,-0.09374151,0.1079381,-0.1378878,-0.2394874,-0.1455016,0.2430576
0.9089602,-0.1702009,-0.2117547,-0.0942474,0.07571847,-0.1151053,-0.2661858,-0.1528109,0.2558623
0.9381756,-0.2238123,-0.1999725,-0.06508067,0.0220908,-0.1033386,-0.2017925,-0.1583595,0.275603
1.00029,-0.2398594,-0.1985203,-0.002984531,0.006020867,-0.1018521,-0.09953026,-0.1636481,0.2487787
1.009492,-0.2452239,-0.1670705,0.006230207,0.0006264186,-0.07031666,0.03377233,-0.06315255,0.1448832
0.983206,-0.1900533,-0.1582316,-0.02001384,0.05576009,-0.06134034,0.1183012,-0.05146409,0.118345
0.9682297,-0.1331781,-0.1241162,-0.03492144,0.1125901,-0.02703643,0.1215505,-0.0753223,0.09866703
0.9792535,-0.1092266,-0.1000391,-0.02380279,0.1364847,-0.002721919,0.1783089,-0.05721026,0.1232392
0.9815698,-0.1102646,-0.09234818,-0.0213663,0.135373,0.005252116,0.2440728,-0.04932472,0.155909
0.9753346,-0.1318703,-0.07498861,-0.02745683,0.1136714,0.02293642,0.3378893,-0.006452925,0.1327579
0.9777426,-0.1287274,-0.1083504,-0.02488055,0.1166918,-0.01006342,0.4944413,-0.002892597,0.1597465
0.9747574,-0.1444785,-0.147936,-0.02767477,0.1007879,-0.04925352,0.5528799,-0.01168518,0.1636727
0.9868739,-0.1618072,-0.1638345,-0.01534547,0.08327326,-0.0647251,0.5153385,0.004229212,0.1265178
1.006827,-0.1647237,-0.1711799,0.004840876,0.08013554,-0.07161279,0.4501192,-0.01194139,0.07831804
1.040121,-0.1694532,-0.1610248,0.03838765,0.07514864,-0.06096939,0.3452329,0.004190221,-0.00365783
1.146839,-0.1493734,-0.1299862,0.1453721,0.09493389,-0.02941229,0.2925393,0.05801102,-0.109972
1.261392,-0.1488051,-0.08721873,0.2602001,0.09516961,0.01390246,0.4060196,0.1499922,-0.2291847
1.274357,-0.1603969,-0.07437564,0.2734369,0.08320617,0.02731844,0.6129198,0.2482185,-0.2547166
1.303575,-0.1895406,-0.05403916,0.3029092,0.05365126,0.04824913,0.6702576,0.2545139,-0.2571439
1.379343,-0.2351059,-0.0351655,0.3789003,0.007635841,0.06773314,0.3730361,0.138631,-0.2976334
1.265222,-0.2250043,-0.1517832,0.2649546,0.01725055,-0.04826307,-0.1958788,-0.09874471,-0.215917
1.080316,-0.2361869,-0.3214915,0.0801653,0.005547604,-0.2173404,-0.5958129,-0.2098446,-0.155359
1.092908,-0.3419925,-0.33062,0.09280982,-0.1008079,-0.2258249,-0.5594047,0.02623846,-0.3332444
1.133244,-0.4916953,-0.2642533,0.133133,-0.2510831,-0.1587938,-0.2495586,0.3918912,-0.5641172
1.102351,-0.572322,-0.2391807,0.1021595,-0.3322927,-0.1330299,0.1599663,0.6287973,-0.5864868
1.056578,-0.5150905,-0.1379795,0.05623958,-0.2756384,-0.0311074,0.4183871,0.652797,-0.4289951
0.9434551,-0.415187,-0.03113636,-0.05709596,-0.1762907,0.07648686,0.3347616,0.454255,-0.240554
0.8665646,-0.2746319,-0.04881974,-0.1342588,-0.03625906,0.05957973,0.1004941,0.1447805,-0.05552383
0.8895067,-0.1244744,-0.09848355,-0.1116399,0.1134118,0.01071087,-0.1876837,-0.0395496,0.07137413
0.9293073,-0.1409487,-0.1514045,-0.07220294,0.09648511,-0.04140158,-0.4574538,0.02825368,0.1001494
0.9592845,-0.2239999,-0.1738839,-0.04262133,0.01301085,-0.0630615,-0.4684959,0.1567828,0.100204
0.9196982,-0.2808968,-0.1289786,-0.0826282,-0.04428354,-0.01732675,-0.3505023,0.2096418,0.1130879
0.8418571,-0.3676328,-0.09570396,-0.160908,-0.1313912,0.01678614,-0.2965651,0.2723864,0.1299229
0.8306759,-0.3544226,-0.0702343,-0.1725375,-0.1185237,0.04309994,-0.2685791,0.2820558,0.1232398
0.8476542,-0.28433,-0.04475737,-0.1560069,-0.04874066,0.0694227,-0.3370318,0.2080852,0.1139764
0.8537955,-0.2692062,-0.03988022,-0.1503035,-0.03389038,0.07514217,-0.4054214,0.1317369,0.1266149
0.8608848,-0.2389927,-0.01631243,-0.1436336,-0.003913858,0.099543,-0.3595349,0.01438012,0.1264453
0.8593178,-0.2365135,0.01377025,-0.1455942,-0.001636184,0.1304431,-0.3088793,-0.08861844,0.1300148
0.859691,-0.2197939,0.01637134,-0.1455819,0.01491575,0.1338392,-0.238218,-0.1594617,0.1340346
0.864192,-0.1594223,0.01484176,-0.1414032,0.07515064,0.133075,-0.1940665,-0.2452664,0.1029053
0.8625872,-0.146491,0.02637071,-0.1432862,0.0879722,0.1453328,-0.2159095,-0.2825478,0.05570728
0.8633876,-0.1136153,0.02148978,-0.1427149,0.1207593,0.1411377,-0.2051167,-0.310679,0.008276682
0.8823814,-0.07619433,0.0003069832,-0.1238967,0.1581059,0.1205918,-0.2323146,-0.2947418,-0.01481457
0.9429235,-0.07901698,-0.01035153,-0.06347383,0.1552155,0.1105163,-0.315827,-0.1973594,-0.001269949
1.029118,-0.09925283,-0.02122662,0.02265839,0.1349105,0.1001666,-0.3666636,-0.1203437,0.04267656
1.075935,-0.1722799,-0.05336968,0.06946733,0.06180602,0.06848882,-0.3822855,-0.08971038,0.08995809
1.076796,-0.2233627,-0.09462158,0.07036988,0.01063347,0.02764099,-0.3245576,-0.1633159,0.07406087
1.0918,-0.1883284,-0.07491963,0.08545589,0.04556441,0.04768635,-0.2380011,-0.2336565,0.03428294
1.157479,-0.06772267,-0.01593534,0.151251,0.1660518,0.1069542,-0.2952924,-0.1664682,0.03729907
1.262927,0.07877669,-0.02610092,0.2568394,0.312413,0.09701223,-0.4937871,-0.1331323,0.09105368
1.371995,0.08005015,-0.1198844,0.3660587,0.3135188,0.003391788,-0.6460027,-0.1327897,0.2661577
1.451426,-0.08506695,-0.2634867,0.4456364,0.148193,-0.1401059,-0.5875288,0.03272486,0.4875987
1.407869,-0.339,-0.3098881,0.4021994,-0.1059965,-0.1864537,-0.3211871,0.326494,0.566004
1.189282,-0.5967135,-0.1899257,0.183689,-0.3640106,-0.06647871,0.04109331,0.5048849,0.5385478
0.9513245,-0.6670755,-0.0802819,-0.05424767,-0.4347023,0.0431453,0.2930158,0.5254122,0.3873588
0.8310591,-0.5448058,-0.0357232,-0.1745469,-0.3127702,0.0876553,0.1055743,0.540104,0.02224216
0.8383518,-0.4185771,-0.05027267,-0.1673347,-0.1868676,0.07302788,-0.215622,0.3457108,-0.1930159
0.8545886,-0.2993002,-0.1018497,-0.1512135,-0.06789213,0.0213424,-0.2232595,-0.1504093,-0.01489335
0.8203149,-0.242787,-0.1135881,-0.1856265,-0.01164983,0.009465214,-0.2698178,-0.3953707,0.1002556
0.9380341,-0.3679225,-0.1798284,-0.06806009,-0.1370235,-0.05694236,-0.2124991,-0.1998901,-0.01567477
1.071626,-0.4853872,-0.2511966,0.06537223,-0.2546903,-0.1285022,0.139234,-0.08665513,-0.07177804
0.9911822,-0.4730524,-0.1938885,-0.01523562,-0.2425145,-0.07140388,0.3401699,-0.1968438,-0.1646281
0.9100944,-0.3855547,-0.1498684,-0.09649097,-0.1551238,-0.02760529,0.4527751,-0.2277455,-0.2808482
0.8459917,-0.2407657,-0.1947136,-0.1607613,-0.01038395,-0.07267914,0.3894253,-0.2346693,-0.2025503
0.7774453,-0.1730797,-0.2215273,-0.2294685,0.05731118,-0.09972442,0.1903342,-0.277012,-0.1133111
0.80632,-0.1793105,-0.213183,-0.2007381,0.05114314,-0.09160963,0.1686235,-0.2381549,0.00495833
0.8208207,-0.1678469,-0.239525,-0.1863557,0.06271675,-0.1181737,0.06323542,-0.2584349,0.2318801
0.8449519,-0.1896338,-0.2625744,-0.1623081,0.04108057,-0.141432,-0.0128364,-0.2606218,0.2938648
0.9174627,-0.217687,-0.2410711,-0.08984007,0.01321295,-0.1201185,-0.02783082,-0.1131411,0.2413323
0.9285489,-0.2269196,-0.2162282,-0.07875202,0.004196246,-0.09544066,-0.09044575,0.006378731,0.1976161
0.9083411,-0.2143749,-0.1627916,-0.09891156,0.01698364,-0.04214044,0.03198886,0.05220846,0.1316665
0.9126247,-0.1697289,-0.126114,-0.09453222,0.0618957,-0.005568651,0.1049827,-0.01015833,0.1435986
0.9177213,-0.1398735,-0.1398722,-0.08929138,0.09203589,-0.01940258,0.1108302,-0.06413623,0.1997964
0.9326208,-0.1137479,-0.1281326,-0.07419818,0.1184591,-0.007709559,0.1367078,-0.01132321,0.2418858
0.9622827,-0.1013579,-0.1159384,-0.04429332,0.1311523,0.004465635,0.07573113,-0.008918149,0.2516647
0.960618,-0.1254109,-0.1148283,-0.04566677,0.1074009,0.005582589,0.1023159,0.03315356,0.19206
0.9444039,-0.1576046,-0.1082224,-0.06154321,0.07550055,0.01221892,0.2011938,0.06875418,0.1149732
0.9595238,-0.1953444,-0.1178947,-0.04604068,0.03804104,0.002598591,0.397138,0.03186267,0.05945751
1.005542,-0.2214829,-0.1319708,0.0004032048,0.01216699,-0.011406,0.585206,0.07220653,0.06201004
1.07029,-0.2256133,-0.1475694,0.06561635,0.008284054,-0.02691488,0.5513933,0.08317984,0.04162835
1.101567,-0.1890982,-0.1407313,0.09739153,0.04502937,-0.01996962,0.4374705,0.05505032,-0.08474316
1.130525,-0.1040555,-0.1131868,0.1268746,0.1302835,0.007698831,0.2568695,0.04003587,-0.1947726
1.245708,-0.06857896,-0.09214153,0.2425989,0.1659492,0.02888365,0.1607876,0.0415682,-0.2218523
1.398004,-0.1530016,-0.06579192,0.3954394,0.08168783,0.05538582,0.2419596,0.1559186,-0.2026184
1.478237,-0.3056082,-0.08068529,0.476202,-0.07078893,0.04065478,0.1802417,0.2776916,-0.2141182
1.386905,-0.4150616,-0.1778659,0.3853643,-0.1801421,-0.05635662,-0.161664,0.1939061,-0.2532932
1.166071,-0.422511,-0.3002437,0.1649692,-0.1875134,-0.1785581,-0.6357088,-0.2163242,-0.2342534
1.038075,-0.4083467,-0.357876,0.03734595,-0.1732832,-0.2360023,-0.7817395,-0.5460182,-0.2425356
1.089129,-0.4377445,-0.3298287,0.08870363,-0.2026171,-0.2077466,-0.4885042,-0.196693,-0.3188511
1.137639,-0.4521051,-0.2588557,0.1374468,-0.2169059,-0.1365364,-0.2125849,0.3320212,-0.3758258
1.008526,-0.4346869,-0.1619118,0.008498629,-0.1993981,-0.03932087,0.01775945,0.4545585,-0.3563464
0.8458116,-0.4050971,-0.1155261,-0.1541197,-0.1696922,0.007372465,0.1539812,0.6463654,-0.1983571
0.7858323,-0.3301572,-0.1109624,-0.2140621,-0.09460283,0.01227766,-0.03153943,0.7802369,-0.01088836
0.7526987,-0.2629462,-0.04322541,-0.2472056,-0.02720505,0.08038602,-0.2163972,0.4522235,0.0213222
0.77348,-0.2544034,-0.03262227,-0.2264661,-0.01843798,0.09138481,-0.2708132,0.2081847,-0.06789976
0.7903309,-0.2635735,-0.07991999,-0.2096747,-0.02734777,0.04450044,-0.3205429,0.04668734,-0.1051907
0.7985371,-0.3087767,-0.06605936,-0.2015326,-0.07225661,0.0587862,-0.2148736,-0.1340954,-0.0463056
0.8940608,-0.3619454,-0.09037584,-0.1060673,-0.1250973,0.03490178,-0.06299531,-0.04786555,-0.003973132
0.9253761,-0.3538709,-0.1040603,-0.07479705,-0.1166597,0.02165238,-0.01889513,-0.007034538,0.01125115
0.8974585,-0.3011662,-0.06122225,-0.1027419,-0.06355471,0.06492524,-0.02330137,0.03809054,0.009184674
0.8812961,-0.2311342,-0.03917888,-0.1189097,0.006915078,0.08739947,-0.05793869,0.07534907,-0.01135617
0.8466511,-0.1840537,9.200586e-05,-0.1535343,0.05446848,0.1270925,-0.04523881,-0.09750044,0.01043406
0.8708426,-0.1706409,0.0055622,-0.1292919,0.06838429,0.1329701,-0.01977177,-0.1576827,0.02728061
0.8897042,-0.1541256,-0.01009622,-0.110344,0.08542609,0.1176981,-0.002490382,-0.1833127,0.04773726
0.8696038,-0.1351035,0.01316615,-0.1303192,0.1049911,0.1413196,0.03548309,-0.1869653,0.09835567
0.8681704,-0.1235584,0.02030168,-0.1315854,0.1170879,0.1487813,0.0256457,-0.1743206,0.1085333
0.8560909,-0.08540399,0.04611431,-0.1434523,0.1557949,0.174881,0.03054087,-0.2929479,0.104068
0.8586118,-0.03242287,0.07136588,-0.1406704,0.2093205,0.2003743,-0.02100341,-0.2921172,0.1010191
0.919025,-0.05614959,0.03885642,-0.07994496,0.1861202,0.1680543,-0.2368077,-0.2636597,0.09973361
1.011294,-0.1179076,-0.005929084,0.01268803,0.1248611,0.1234005,-0.4436609,-0.2216154,0.1131591
1.0809,-0.1843523,-0.05558367,0.08270605,0.05888051,0.07381602,-0.4808591,-0.1295163,0.1134947
1.158928,-0.3034025,-0.1104756,0.1611884,-0.0597433,0.01893199,-0.3807229,-0.1700119,0.09465839
1.208991,-0.2892892,-0.1110819,0.2117366,-0.04524046,0.01827317,-0.2856996,-0.1644998,0.03130515
1.25887,-0.1036768,-0.09291427,0.2621188,0.1407272,0.03633094,-0.2307335,-0.1128124,-0.005151713
1.51867,0.0008702091,-0.1738792,0.5224234,0.2455935,-0.04479761,-0.3308338,-0.05355274,0.09734088
1.715337,-0.02978175,-0.2433063,0.7195753,0.215218,-0.114437,-0.5147252,0.1248912,0.244753
1.539617,-0.2035609,-0.1943893,0.5442894,0.04166482,-0.0657735,-0.3769674,0.4258827,0.3069023
1.229522,-0.5070779,-0.1438345,0.2345515,-0.2616785,-0.01550581,-0.1228338,0.7096222,0.2901439
0.9543688,-0.6820407,-0.09836637,-0.04033583,-0.4365109,0.02964681,-0.05239692,0.6603786,0.1396782
0.8344824,-0.5348209,-0.05025246,-0.1600485,-0.2891862,0.07741948,-0.1324245,0.5220787,-0.1813513
0.7975421,-0.2942364,-0.02854755,-0.1968973,-0.04850455,0.09875758,-0.4028092,0.3822141,-0.3471327
0.7204848,-0.2302103,-0.04791757,-0.2739306,0.01562038,0.07899395,-0.503078,-0.1560785,-0.1576232
0.8671189,-0.2155135,-0.1718262,-0.1273241,0.03041967,-0.04533577,-0.369939,-0.4605994,0.09261246
1.035668,-0.2984358,-0.3082059,0.04115789,-0.0523972,-0.1821609,-0.2613792,-0.1747526,0.1776779
1.03203,-0.5235836,-0.342085,0.03742049,-0.2774352,-0.2165015,-0.02134889,-0.04395536,-0.00896853
1.073377,-0.5734238,-0.262561,0.07863648,-0.3271534,-0.1374439,0.2698608,-0.06977681,-0.366926
0.9782643,-0.497416,-0.1590653,-0.01663864,-0.2509989,-0.03440948,0.5034539,-0.09032871,-0.5002293
0.848327,-0.3824321,-0.1673421,-0.1467672,-0.1358322,-0.04313657,0.6111975,-0.2838892,-0.4375335
0.8248445,-0.2079402,-0.2030112,-0.1704636,0.03888504,-0.07924163,0.476326,-0.3682083,-0.3532258
0.771624,-0.1572239,-0.2168837,-0.2239107,0.08986836,-0.09353242,0.3471055,-0.3733594,-0.1571388
0.8293516,-0.1788251,-0.2515917,-0.1664111,0.06857015,-0.1286368,0.2985915,-0.4207965,-0.009518194
0.8776508,-0.1931906,-0.2538683,-0.1183313,0.05453627,-0.1312825,0.2704828,-0.3374808,0.02538226
0.8828246,-0.1983238,-0.2602564,-0.1133606,0.04975733,-0.1380072,0.2751214,-0.2461822,0.09931022
0.8994309,-0.1736251,-0.2562722,-0.09693542,0.07482715,-0.1343214,0.2442695,-0.1812477,0.1404089
0.8351746,-0.1527301,-0.2174945,-0.1613463,0.09610458,-0.09579912,0.2338002,-0.1688552,0.1454076
0.8642603,-0.1356697,-0.2120245,-0.1323834,0.1135525,-0.09053811,0.2532171,-0.18229,0.1833783
0.9059459,-0.1429752,-0.1990847,-0.09078388,0.106633,-0.07775871,0.271362,-0.03429211,0.2212898
0.9285631,-0.1097342,-0.1640617,-0.0682128,0.1402517,-0.04284642,0.2877205,0.04171084,0.2437075
0.9924515,-0.0439608,-0.1377181,-0.004329279,0.2063871,-0.0165641,0.2297994,0.01201516,0.2380995
0.9712997,-0.01272453,-0.123957,-0.02544558,0.2379611,-0.002816606,0.120041,0.093025,0.2025293
0.9891612,-0.004228887,-0.123276,-0.007510144,0.2467598,-0.002104441,0.09214138,0.1482453,0.137881
0.9946189,-0.0618184,-0.105409,-0.001942455,0.1894285,0.01583552,0.1923204,0.113577,0.09091212
0.9636726,-0.1203622,-0.1074161,-0.03274489,0.1310897,0.01393935,0.2825546,0.07844489,0.09465022
1.02286,-0.1472416,-0.1445869,0.02661736,0.104357,-0.0230859,0.2592568,0.1173889,0.07312019
1.068858,-0.1703787,-0.1729401,0.07281975,0.08130595,-0.0512614,0.1814679,0.1703805,0.001740133
1.12453,-0.1662578,-0.1778281,0.1287183,0.0854512,-0.05594084,0.08823035,0.1735116,-0.1017822
1.177325,-0.1780898,-0.1253979,0.1817554,0.07358189,-0.003271494,0.07601408,0.2065043,-0.2510443
1.218138,-0.2247498,-0.04040459,0.2228165,0.02682394,0.08198932,0.3473864,0.1980146,-0.3735619
1.321847,-0.3430411,-0.003369302,0.326768,-0.09162337,0.1193159,0.6768595,0.1354498,-0.4274145
1.352558,-0.4307608,-0.07277131,0.3577016,-0.1795504,0.05022228,0.5448599,0.006670334,-0.5217436
1.233914,-0.344948,-0.2535539,0.2392433,-0.09398653,-0.13024,-0.015876,-0.2749992,-0.5989904
1.059951,-0.2496407,-0.4407579,0.06541915,0.001040133,-0.3171106,-0.6394743,-0.4484187,-0.533883
1.023257,-0.2511355,-0.4913743,0.02881119,-0.0007612014,-0.3673717,-0.8420136,-0.2871606,-0.4923159
1.176694,-0.2986818,-0.371734,0.1822795,-0.04863624,-0.247341,-0.3638361,0.1166812,-0.5194364
1.274597,-0.3916951,-0.2413852,0.2801586,-0.1419961,-0.1165557,0.03826353,0.6227228,-0.4350297
1.16313,-0.4340745,-0.1805137,0.1686042,-0.1847327,-0.05519643,0.009416686,0.9380098,-0.2315764
0.9096428,-0.2973122,-0.08686896,-0.08503718,-0.04832963,0.03898704,0.04830617,0.8185638,0.005883332
0.704467,-0.08336449,-0.009131801,-0.2904303,0.1652624,0.117309,-0.07722887,0.461702,0.1689408
0.7171144,-0.01092359,-0.03446208,-0.2780504,0.2373492,0.09260143,-0.511051,0.03048435,0.2132176
0.8534199,-0.08875563,-0.1253133,-0.1420455,0.1591571,0.002402024,-0.7970027,-0.1999828,0.2514805
0.9050522,-0.2146878,-0.1895645,-0.09073334,0.03285128,-0.06117451,-0.7945837,0.1367631,0.3074493
0.8892269,-0.3408243,-0.1423547,-0.106889,-0.0936751,-0.01326986,-0.5976355,0.3992647,0.3551995
0.881706,-0.3625712,-0.07626377,-0.1147432,-0.1158249,0.05353376,-0.4272596,0.2555061,0.3838867
0.844535,-0.2864663,-0.06701872,-0.1522436,-0.04012983,0.06350524,-0.3515459,0.2102748,0.3232041
0.8294725,-0.2571914,-0.04915542,-0.1676239,-0.01126631,0.08210303,-0.3292672,0.08210028,0.2476799
0.8371561,-0.2152719,-0.02803748,-0.1602387,0.03024295,0.1039571,-0.3590356,-0.1114996,0.2322234
0.8352912,-0.134358,-0.02625315,-0.1623746,0.110748,0.1064724,-0.3036242,-0.1500213,0.2107777
0.8617287,-0.1350512,-0.02221128,-0.1361739,0.1096452,0.1112331,-0.2283292,-0.2075736,0.2034083
0.8634154,-0.1364962,-0.004079232,-0.134684,0.1077855,0.130065,-0.1486917,-0.2340932,0.2028327
0.8669018,-0.1192216,0.02469173,-0.1313494,0.1246364,0.1595099,-0.0313485,-0.2899771,0.1606163
0.8895944,-0.1279722,0.03554933,-0.1087599,0.1154488,0.1710083,-0.02131237,-0.3109267,0.08092408
0.9151728,-0.1034264,0.01371887,-0.08323315,0.1395403,0.1497777,-0.08826982,-0.2392628,-0.01824666
1.008549,-0.1142282,-0.01495973,0.01014355,0.1282627,0.1216515,-0.2302936,-0.2342345,-0.03300925
1.115024,-0.1483079,-0.04333896,0.1166693,0.09368219,0.0937722,-0.3594743,-0.1763557,0.04151236
1.184444,-0.1670346,-0.06557699,0.1861841,0.07442709,0.07197835,-0.3298859,-0.1351037,0.07568753
1.208843,-0.1927347,-0.05846289,0.2107094,0.04817002,0.07947928,-0.2752908,-0.1285137,0.02505059
1.214789,-0.1303964,-0.05807001,0.2168012,0.1099228,0.08020067,-0.2769763,-0.02948817,-0.03456825
1.296996,-0.03679651,-0.0995624,0.2991617,0.2029074,0.038978,-0.3611096,0.02490936,0.0001215346
1.436942,-0.06628804,-0.2145349,0.4392521,0.1727672,-0.07578241,-0.4656734,0.03914776,0.14002
1.521692,-0.3145011,-0.3975277,0.5241189,-0.07613125,-0.2586151,-0.3710509,0.09530303,0.4015028
1.433288,-0.6833603,-0.4497588,0.4357834,-0.4457084,-0.3107268,-0.01718252,0.3359639,0.5893956
1.171054,-0.7571202,-0.2654305,0.1735496,-0.5202019,-0.1263046,0.3646738,0.7202895,0.3516108
0.8373536,-0.4840969,-0.06500068,-0.1602285,-0.2479041,0.07420471,0.3621071,0.8103593,-0.0971226
0.646863,-0.2473446,-0.03669405,-0.3508689,-0.01184992,0.1025797,-0.02809071,0.5190519,-0.3391779
0.7318614,-0.1506561,-0.1078335,-0.2660764,0.08417564,0.03149516,-0.2808807,0.004220238,-0.2709662
0.8508017,-0.1643481,-0.1831162,-0.1473797,0.06985479,-0.04374784,-0.1799616,-0.4711879,0.05216205
0.9560036,-0.3278557,-0.2648176,-0.04244497,-0.0942506,-0.1254236,0.0295593,-0.4367028,0.2939965
1.057904,-0.4939102,-0.2777956,0.05917168,-0.2608708,-0.138385,0.2633075,-0.1685058,0.2293237
0.9805681,-0.4981454,-0.2079605,-0.01846091,-0.2656322,-0.06853578,0.5395763,-0.1926018,-0.03069867
0.9401625,-0.4015144,-0.1925822,-0.05917536,-0.1694776,-0.05314081,0.6160891,-0.2276897,-0.2978222
0.9129419,-0.2456414,-0.215461,-0.08671323,-0.01402314,-0.07599666,0.4481544,-0.203963,-0.326829
0.7619948,-0.03880264,-0.2153646,-0.2379801,0.1924558,-0.07586815,0.2695458,-0.2813588,-0.1524002
0.7845924,-0.02857568,-0.2233277,-0.2156957,0.2023748,-0.08378695,0.08607796,-0.2758055,0.03168128
0.8609555,-0.1677625,-0.2267058,-0.1396287,0.06292094,-0.08710549,-0.01284976,-0.2771827,0.1779295
0.8839494,-0.1634081,-0.239487,-0.1169048,0.06704007,-0.09980859,0.05466852,-0.239493,0.2243787
0.9790825,-0.2049267,-0.2454253,-0.02201038,0.02531256,-0.105647,0.06556118,-0.08317287,0.2107918
0.9493621,-0.2471703,-0.2208113,-0.05193596,-0.01711719,-0.08090814,0.06423848,-0.0234281,0.1969695
0.8800283,-0.1606521,-0.2083919,-0.1214402,0.0692355,-0.06833631,0.1227474,0.01155652,0.1554697
0.9047175,-0.196105,-0.1932349,-0.0968846,0.03363525,-0.05299798,0.1293913,-0.0001625873,0.1397318
0.9041093,-0.168869,-0.1756826,-0.09758678,0.06073888,-0.0352347,0.1827651,-0.02433319,0.1711371
0.9454767,-0.09595225,-0.1626115,-0.05627142,0.1335344,-0.02192365,0.2459213,0.043686,0.1805474
0.9834377,-0.136324,-0.1410711,-0.01831973,0.09304761,-0.000115481,0.23239,0.04721462,0.1663691
0.9356525,-0.08165102,-0.1214024,-0.06607202,0.1476057,0.01984652,0.2691745,0.04968788,0.1727497
0.9141135,-0.07892405,-0.09053457,-0.08753654,0.1502118,0.05103,0.3839411,0.03486608,0.2007354
0.9305759,-0.1187909,-0.0945315,-0.07095777,0.1102119,0.04736684,0.5209737,0.000892648,0.2213763
0.969393,-0.1346623,-0.1476562,-0.03198202,0.0941897,-0.005410156,0.5848282,0.0587297,0.1761318
1.031001,-0.2045494,-0.1811665,0.02982567,0.02413082,-0.03856171,0.5137828,0.1053183,0.1145345
1.069134,-0.1575633,-0.1861174,0.06819653,0.07092269,-0.04314377,0.37908,0.1361354,0.09186628
1.110826,-0.1123512,-0.1726197,0.1101578,0.1159171,-0.02926705,0.2363927,0.0988601,-0.05358011
1.173883,-0.1212952,-0.1331341,0.1735074,0.1067296,0.01060762,0.2339733,0.02124099,-0.2926168
1.235007,-0.1466563,-0.05598213,0.2349394,0.08109679,0.0881568,0.4702826,-0.005615859,-0.367688
1.317055,-0.265976,-0.01700843,0.3172965,-0.03852452,0.1275318,0.5833504,-0.09938008,-0.3411945
1.376833,-0.3029708,-0.1205608,0.377369,-0.07584859,0.02437888,0.1413655,-0.1876231,-0.3661207
1.301355,-0.3050556,-0.3007187,0.3021556,-0.07828541,-0.1553847,-0.6557769,-0.2111761,-0.3036882
1.142127,-0.3588537,-0.4475379,0.1431481,-0.1324515,-0.3018119,-1.035616,-0.1854825,-0.1995851
1.070577,-0.3813167,-0.4658099,0.07176343,-0.1552907,-0.3196844,-0.7094403,0.03853427,-0.3105201
1.117407,-0.4325277,-0.3317547,0.1187017,-0.2068772,-0.1852095,-0.3051649,0.4240706,-0.4855291
1.147057,-0.4717525,-0.1795703,0.1484019,-0.2464662,-0.03257599,-0.08920508,0.7338383,-0.4799891
1.035568,-0.435114,-0.07731735,0.03690125,-0.2101693,0.0701581,0.1056079,0.8037573,-0.2955427
0.8764598,-0.339578,-0.04904448,-0.1222777,-0.1149423,0.09894017,0.07140069,0.5422225,0.007923061
0.8134848,-0.2048709,-0.09337998,-0.1853771,0.01949496,0.05513514,-0.1063942,0.07530697,0.1633503
0.829121,-0.1381184,-0.1280362,-0.1699078,0.08601701,0.02102404,-0.3007146,-0.124513,0.1047201
0.8879901,-0.210714,-0.1735995,-0.1112361,0.013227,-0.02398386,-0.5703823,0.02865249,0.0916526
0.9235578,-0.3085234,-0.2033088,-0.07588625,-0.08474454,-0.05312991,-0.5704503,0.1820741,0.1056122
0.8964966,-0.3606047,-0.1516582,-0.1031785,-0.1369559,-0.0009087916,-0.3645777,0.3663486,0.1349835
0.8466139,-0.3976791,-0.09451744,-0.1532986,-0.1741248,0.05680845,-0.2429238,0.4918409,0.1980236
0.7920661,-0.3451818,-0.04944852,-0.2080822,-0.1216814,0.1024564,-0.1955727,0.3412809,0.1350334
0.7900677,-0.2643677,-0.01139854,-0.2103053,-0.04087673,0.1410821,-0.2729485,0.1548439,0.07202548
0.8243062,-0.2325364,-0.005794768,-0.1762704,-0.009009066,0.1472511,-0.2746297,-0.005046503,0.1210518
0.8415184,-0.1866675,-0.007183766,-0.1592319,0.03693999,0.1464088,-0.2050581,-0.1373319,0.12579
0.8573333,-0.1770313,-0.009289548,-0.1435534,0.04669617,0.1448234,-0.1855321,-0.1327022,0.09271946
0.8494235,-0.1515913,0.005480342,-0.1515571,0.07229073,0.1600803,-0.07623485,-0.1957542,0.08808727
0.8400417,-0.1042619,0.0285145,-0.1609849,0.1198031,0.1835612,-0.0101971,-0.2954107,0.07220265
0.8541931,-0.1037379,0.02865354,-0.1468273,0.1205309,0.1840996,0.02831216,-0.2771831,0.005026772
0.8762169,-0.06137567,0.026081,-0.1247412,0.1631098,0.1818721,0.01601765,-0.2526901,-0.1207235
0.9337325,-0.03858298,0.008694219,-0.0671046,0.1861228,0.1647696,-0.2215457,-0.1979744,-0.1851478
1.020182,-0.08361974,-0.03530821,0.01952461,0.1413009,0.1209858,-0.4516504,-0.1730289,-0.04967494
1.102797,-0.1638754,-0.07476349,0.1023744,0.06124644,0.0816803,-0.4616773,-0.2517183,0.1563472
1.169799,-0.270861,-0.07616115,0.1696574,-0.04555583,0.08036272,-0.233105,-0.2712559,0.2030955
1.218894,-0.2676422,-0.02678275,0.219071,-0.04217186,0.1297516,-0.02693425,-0.1756775,0.1039407
1.264149,-0.1189045,-0.0001395751,0.2646671,0.1067145,0.156335,-0.1206064,0.01073597,0.05339613
1.333047,0.06780472,-0.08992297,0.333914,0.2935537,0.06642047,-0.4729123,0.176852,0.1651148
1.441295,0.09018142,-0.2527038,0.4425005,0.3160332,-0.09656187,-0.8296234,0.2344236,0.3142427
1.489421,-0.2126108,-0.3427417,0.4909355,0.01330566,-0.1868654,-0.677663,0.3027538,0.4218087
1.322377,-0.6034125,-0.2995564,0.3241497,-0.3774726,-0.1439981,-0.139363,0.4889281,0.5311593
0.9988296,-0.704435,-0.1603153,0.0007940879,-0.478502,-0.005115973,0.1876556,0.699425,0.4159355
0.766596,-0.5283575,-0.02468485,-0.2313178,-0.3024409,0.1301219,0.1536747,0.6749229,0.02479197
0.7665058,-0.3726183,-0.04459192,-0.2313479,-0.1467085,0.1097899,-0.1908951,0.4412185,-0.2754181
0.8738079,-0.285284,-0.1558459,-0.1240332,-0.05936002,-0.00192242,-0.4572096,0.09717816,-0.3063777
0.9371625,-0.2488961,-0.2119795,-0.06070121,-0.02293216,-0.05854673,-0.4379413,-0.2825414,-0.1097929
1.020511,-0.38864,-0.2577366,0.02259724,-0.1626089,-0.1048218,-0.2507866,-0.287888,0.0495215
1.062393,-0.5424204,-0.2428733,0.06440437,-0.3162911,-0.09049694,0.1383172,-0.1275688,-0.04132005
0.9703083,-0.5459444,-0.1745532,-0.02777903,-0.3196768,-0.02272819,0.480553,-0.2004358,-0.201827
0.9003525,-0.4425393,-0.1777154,-0.09785517,-0.216082,-0.02644934,0.6930366,-0.2121811,-0.3568813
0.8329901,-0.2744382,-0.1797438,-0.1653546,-0.0477311,-0.02904047,0.7366796,-0.2450182,-0.390992
0.7609721,-0.1858629,-0.1900872,-0.2375182,0.04115581,-0.039947,0.5502828,-0.3757047,-0.2001049
0.7896032,-0.1744298,-0.2272422,-0.2090303,0.05295815,-0.07766197,0.4822193,-0.3756936,-0.03946806
0.8319779,-0.1598568,-0.2352859,-0.1667854,0.06795088,-0.08625816,0.4319809,-0.3819138,0.06580293
0.9028081,-0.1741016,-0.267887,-0.09606289,0.05416864,-0.1193992,0.3093889,-0.3357434,0.1664047
0.9528439,-0.1718376,-0.2605822,-0.04610715,0.05693045,-0.1126159,0.2575826,-0.1694129,0.1830347
0.8877178,-0.1662187,-0.2239706,-0.1112829,0.06307562,-0.07650172,0.1915963,-0.05801172,0.1908855
0.8614543,-0.1688286,-0.2102873,-0.1375634,0.06101372,-0.06328739,0.2185134,-0.04595439,0.2032541
0.9079155,-0.1520672,-0.1646932,-0.09108277,0.07833866,-0.01813106,0.2465092,-0.09111104,0.2277177
0.9552342,-0.1407099,-0.1555327,-0.04370585,0.09026849,-0.009375977,0.2551998,-0.05236319,0.2516962
0.9804065,-0.1050631,-0.1408998,-0.01843569,0.1264903,0.00488347,0.3122203,0.01338109,0.240011
0.9706251,-0.07635142,-0.0896684,-0.02808087,0.1557719,0.05577203,0.2485005,0.04990348,0.2411873
0.9615357,-0.08900711,-0.0731805,-0.03699737,0.1436729,0.0719447,0.2333036,0.1264948,0.2106914
0.9503513,-0.1140807,-0.05753985,-0.04797361,0.1191349,0.08729359,0.3216157,0.1122189,0.1468264
0.9355095,-0.1571159,-0.08070225,-0.062573,0.0766076,0.06385813,0.4555026,0.05742519,0.1095359
0.9440204,-0.1826367,-0.1169405,-0.05378577,0.0515625,0.02736133,0.6392134,0.03466622,0.117229
0.9927236,-0.1841203,-0.1247596,-0.00477293,0.05052004,0.01929548,0.6570023,0.03816075,0.1216975
1.081447,-0.1995022,-0.1625975,0.08429106,0.03554325,-0.01877895,0.5168306,0.0992308,0.02192565
1.153115,-0.1969734,-0.1616059,0.1563248,0.03844025,-0.01801355,0.3175819,0.08698405,-0.1425219
1.177204,-0.1594483,-0.09540724,0.1807971,0.07629626,0.04796913,0.2118317,0.06511343,-0.2810755
1.239682,-0.1464638,-0.03725194,0.2436643,0.08957306,0.1059175,0.3634156,0.06477285,-0.3102449
1.336373,-0.2126547,-0.03144652,0.340738,0.02363428,0.1115214,0.4569814,0.04149386,-0.2787339
1.336059,-0.3482827,-0.106426,0.3407843,-0.1117815,0.0363412,0.1687328,0.05375483,-0.3506455
1.277866,-0.431666,-0.2250022,0.2829128,-0.1949878,-0.08243749,-0.3533863,-0.09882805,-0.4087835
1.160813,-0.3665411,-0.3453571,0.1661303,-0.1297126,-0.2029945,-0.7434078,-0.3109144,-0.3576644
1.01247,-0.3158655,-0.4138351,0.01799869,-0.07890402,-0.2716666,-0.7271912,-0.2473702,-0.356287
1.104341,-0.3886457,-0.3615534,0.1100183,-0.1515616,-0.21956,-0.349852,0.1447605,-0.4797122
1.261166,-0.4397351,-0.256456,0.26693,-0.2025317,-0.1146078,0.01457402,0.7236583,-0.5740559
1.187011,-0.4457263,-0.1614022,0.1927936,-0.2083983,-0.01966306,0.09782836,0.8930562,-0.4243688
1.029409,-0.4237246,-0.05826555,0.03513775,-0.1862573,0.08340204,0.002548025,0.600491,-0.1837345
0.8164937,-0.2997417,-0.02739113,-0.1779036,-0.06211246,0.1142386,-0.1563703,0.3936077,-0.08428843
0.6930982,-0.14351,-0.0641139,-0.3014878,0.09430725,0.07750514,-0.4023464,0.06191992,-0.01224481
0.788755,-0.09536581,-0.07668796,-0.2060671,0.1426628,0.06494091,-0.5735968,-0.2626655,0.05919986
0.8327087,-0.2080611,-0.1037462,-0.1623809,0.03019558,0.0379078,-0.4848229,-0.1408628,0.08399108
0.8625063,-0.367703,-0.1127846,-0.1328693,-0.1292066,0.02890593,-0.3188507,-0.00806324,0.1437331
0.9074655,-0.414297,-0.08062693,-0.0882047,-0.1755485,0.06110856,-0.1812917,0.06782707,0.166292
0.8354155,-0.357802,-0.07311561,-0.1605501,-0.1187842,0.06867006,-0.1169218,0.1706233,0.08260846
0.836481,-0.2813421,-0.04668161,-0.1597734,-0.04203292,0.09515563,-0.2434786,0.0532327,0.02436564
0.86413,-0.2350437,-0.01722396,-0.1323986,0.004580606,0.1246616,-0.2707989,-0.04366369,0.04726837
0.846569,-0.1844962,-0.01073717,-0.1502117,0.05546571,0.1311881,-0.1800501,-0.1177402,0.07973839
0.8818249,-0.1364963,0.009855853,-0.1151797,0.1038215,0.1518062,-0.1355746,-0.239329,0.09869265
0.8544396,-0.1406824,0.01232438,-0.1427551,0.1000035,0.1542788,-0.01205915,-0.2565051,0.1090017
0.8270645,-0.1059237,0.02191916,-0.1702814,0.1351354,0.1638503,0.01140281,-0.3463344,0.07454874
0.8490384,-0.05790987,0.03581004,-0.1484144,0.1835198,0.1776845,-0.0310107,-0.3854088,-0.01633616
0.8714198,-0.04499104,0.01334352,-0.1260907,0.1967977,0.1551217,-0.07316989,-0.2851026,-0.108844
0.9721665,-0.0307632,-0.004609049,-0.02534923,0.2113633,0.1370281,-0.2960388,-0.2485356,-0.1239067
1.074068,-0.09678377,-0.03308812,0.07659949,0.1456498,0.1083593,-0.4755617,-0.2219878,-0.01886494
1.141728,-0.1759817,-0.08038004,0.1443526,0.06672098,0.06082696,-0.4926405,-0.2278563,0.09106365
1.192915,-0.1868146,-0.09186664,0.1956712,0.05611543,0.04904907,-0.3826193,-0.2147986,0.07231536
1.21371,-0.1496409,-0.04426875,0.2166241,0.09347324,0.09630583,-0.2592808,-0.1245227,0.001191872
1.279517,-0.01850989,-0.02204175,0.2826022,0.224743,0.1181425,-0.3584299,-0.09570178,-0.005909136
1.423055,0.05693221,-0.177436,0.42631,0.3002729,-0.03769095,-0.5603847,-0.06675443,0.1286361
1.575869,-0.1706925,-0.4091968,0.5792721,0.07267727,-0.2699354,-0.6853246,0.05667349,0.4136445
1.50462,-0.6045222,-0.4421546,0.5081272,-0.3611841,-0.3034098,-0.4774348,0.2825592,0.6723179
1.187811,-0.788132,-0.2705801,0.1913563,-0.5448749,-0.1323686,0.135047,0.56337,0.7134708
0.8616869,-0.6199346,-0.09648555,-0.1348091,-0.3767844,0.04118846,0.4725057,0.8192757,0.4167141
0.6662323,-0.4371171,-0.03577621,-0.3303792,-0.194076,0.1013609,0.09322595,0.8432292,-0.09902749
0.7373645,-0.2664595,-0.06570899,-0.259422,-0.0235147,0.0708909,-0.4683259,0.3991182,-0.4089832
0.8830962,-0.1607391,-0.1276838,-0.113907,0.08212768,0.008376437,-0.5854446,-0.1697831,-0.360605
0.950481,-0.2769301,-0.2116312,-0.04676723,-0.03412375,-0.07611324,-0.4048536,-0.4554309,-0.1161845
1.053685,-0.4154426,-0.2690839,0.05617085,-0.1726798,-0.1341073,-0.1767826,-0.4615309,0.1463856
1.007038,-0.5055379,-0.239297,0.009238319,-0.262798,-0.1048547,0.2136725,-0.3139633,0.1412216
0.9373128,-0.5441363,-0.2081582,-0.06078832,-0.3013892,-0.07423664,0.5721148,-0.2270511,-0.1125372
0.9363915,-0.4160722,-0.211505,-0.06202514,-0.1732771,-0.07808546,0.6865582,-0.1965307,-0.2861061
0.7915596,-0.2675325,-0.1926221,-0.2071809,-0.02464042,-0.05968177,0.6467693,-0.2293191,-0.2966292
0.7596111,-0.1852215,-0.2042604,-0.2394531,0.05781801,-0.07177316,0.5456715,-0.3500126,-0.17657
0.8245491,-0.1555627,-0.2393754,-0.1748272,0.08767062,-0.107312,0.4573127,-0.4105375,-0.009032702
0.8728057,-0.1903655,-0.2712875,-0.1268613,0.05310097,-0.139615,0.3471225,-0.4355957,0.1245745
0.9867461,-0.1745076,-0.3072233,-0.01318329,0.06922432,-0.1759038,0.2676797,-0.3141937,0.20443
0.9490687,-0.1870642,-0.2747169,-0.05109192,0.05695921,-0.1437063,0.2601248,-0.1037636,0.147467
0.8822568,-0.2401992,-0.2258328,-0.1181028,0.004136299,-0.09508179,0.2720066,-0.04847171,0.09113795
0.8995565,-0.2090643,-0.1970424,-0.1009677,0.03559942,-0.06649833,0.3563472,-0.02846793,0.1170941
0.8872614,-0.1828914,-0.1556204,-0.1133895,0.06211324,-0.02522976,0.4252072,-0.02776478,0.101568
0.9365883,-0.1202983,-0.1566205,-0.06414861,0.1250554,-0.02633052,0.4266461,-0.01736279,0.1226554
0.9704882,-0.05654254,-0.1377283,-0.03029254,0.1891617,-0.007488498,0.3995483,0.06744756,0.1540819
0.9559397,-0.06947745,-0.08393777,-0.04484266,0.1765701,0.04629954,0.3545867,0.1191964,0.1341429
0.9519222,-0.04976686,-0.07244998,-0.04882052,0.1966072,0.05782798,0.3718517,0.1370951,0.1323854
0.9387937,-0.06988075,-0.07638216,-0.06186881,0.1767939,0.05397408,0.4292752,0.10047,0.1264951
0.9567718,-0.1066088,-0.1074259,-0.04377038,0.140332,0.02304064,0.5062803,0.07109044,0.1745981
0.9865534,-0.1139337,-0.1402443,-0.01382918,0.1332326,-0.00963974,0.5151331,0.08760278,0.2390108
1.05882,-0.1772443,-0.1293108,0.05863439,0.07010218,0.001456344,0.3567411,0.07915787,0.1945105
1.169568,-0.2218886,-0.1262645,0.1696119,0.02559059,0.004687627,0.153083,0.09666478,0.05282096
1.188624,-0.2147757,-0.1210285,0.18892,0.03278884,0.01012867,0.05553057,0.1083326,-0.2165352
1.191087,-0.2114685,-0.05408762,0.1916489,0.03613537,0.07729195,0.2461468,0.09498237,-0.4540387
1.339133,-0.2814543,0.04687587,0.3399609,-0.03385499,0.1784904,0.6385415,0.1058393,-0.4505879
1.477722,-0.3538102,0.0511661,0.4788009,-0.106256,0.1830204,0.7843399,0.1381779,-0.4331997
1.363597,-0.3144738,-0.1237272,0.3648934,-0.06699898,0.008363076,0.3662965,0.1253198,-0.4968973
1.07445,-0.2822729,-0.3732862,0.07591233,-0.03490536,-0.2409672,-0.3477113,-0.07856006,-0.4267238
0.8618062,-0.2796993,-0.4782896,-0.1366239,-0.03246176,-0.345744,-0.6565567,-0.3388448,-0.3720953
0.9398577,-0.279068,-0.3801186,-0.05852028,-0.03197926,-0.2473359,-0.568734,-0.3731744,-0.4406089
1.177621,-0.3367094,-0.2803572,0.1792454,-0.08978435,-0.1473143,-0.4143171,-0.08859549,-0.4334306
1.208203,-0.4148794,-0.212706,0.2097819,-0.1681278,-0.07937193,-0.129738,0.4525874,-0.3718692
1.052096,-0.4417943,-0.09849885,0.05357653,-0.1952182,0.03516012,-0.01397189,0.7683534,-0.2543575
0.8341147,-0.3115281,-0.08624838,-0.1645567,-0.06512105,0.04776742,-0.1351712,0.5654821,-0.07988637
0.6836402,-0.1127088,-0.1400999,-0.3152296,0.133541,-0.005699672,-0.3244536,0.3394906,0.02615666
0.746062,-0.07479552,-0.1274041,-0.2530382,0.1713073,0.007403889,-0.7228484,0.2550288,0.09933105
0.7951567,-0.1341749,-0.1282612,-0.2041895,0.1117847,0.006974814,-0.9099396,0.1153277,0.1284928
0.8072154,-0.1863295,-0.1136635,-0.1923784,0.05948378,0.02201762,-0.6454703,0.1372947,0.1441019
0.8405842,-0.3007856,-0.06538845,-0.1592479,-0.05512503,0.07075153,-0.3697763,0.2032709,0.2120164
0.795783,-0.4090612,-0.03992708,-0.2042684,-0.1635584,0.09668068,-0.1621999,0.1448453,0.2212186
0.8219919,-0.3886214,-0.0217504,-0.1782515,-0.1432762,0.115328,-0.04670408,0.1876948,0.153876
0.8437954,-0.3131136,-0.02515803,-0.1566043,-0.06791852,0.1123871,-0.1156242,0.1308361,0.07790285
0.8231415,-0.2266453,-0.002601444,-0.1773723,0.01841202,0.1353997,-0.11899,-0.07690469,0.06314413
0.8597143,-0.1327599,0.03915565,-0.1408657,0.1121727,0.1775948,-0.02621774,-0.2104906,0.1181182
0.8421242,-0.1246353,0.04107294,-0.1584689,0.1201821,0.1799243,0.02937859,-0.3152335,0.137752
0.849811,-0.1425138,0.05330619,-0.1507383,0.1021923,0.1925356,0.1433873,-0.3070533,0.100098
0.844666,-0.1119188,0.06105753,-0.1557788,0.1326741,0.2006228,0.2191318,-0.2906081,0.03410612
0.8076031,-0.0860607,0.04258853,-0.1926729,0.158411,0.1824396,0.1764304,-0.3035461,-0.03153338
0.9042728,-0.05739532,0.01700113,-0.09576715,0.1869408,0.157081,0.07876625,-0.1652472,-0.04272953
1.018245,-0.06887968,-0.02045511,0.01850991,0.1752991,0.1197916,-0.1610129,-0.1090317,0.01052372
1.077174,-0.1455237,-0.05043788,0.07780787,0.09846937,0.08991052,-0.2930613,-0.2141678,0.06022207
1.1024,-0.2094584,-0.05437447,0.1034599,0.03431654,0.08600936,-0.1134534,-0.317112,0.03273937
1.166594,-0.2029973,-0.005888717,0.1681268,0.04052584,0.1344639,0.007077259,-0.3116484,-0.02477387
1.333552,-0.06735904,0.01950346,0.3355927,0.1758787,0.1597573,-0.1334748,-0.1717219,-0.01848644
1.458043,0.07118862,-0.1129563,0.460609,0.3141041,0.02713003,-0.4342344,-0.04814726,0.1415908
1.513355,-0.02212084,-0.3157162,0.5164405,0.220428,-0.1758642,-0.7253389,0.01612042,0.4088747
1.472007,-0.3609816,-0.3709797,0.4755818,-0.1188504,-0.2314198,-0.6272353,0.05160376,0.5645216
1.271345,-0.7362221,-0.2560405,0.2753555,-0.4945554,-0.1168172,-0.06743377,0.3036026,0.5795698
0.9936819,-0.7865476,-0.1107585,-0.001940671,-0.5453736,0.02809567,0.3015263,0.6940929,0.3603274
0.773446,-0.5123486,-0.0247726,-0.2218815,-0.2716696,0.1136856,0.06157179,0.6062015,-0.09962775
0.782569,-0.3320927,-0.06437141,-0.2125267,-0.09188975,0.07366479,-0.3110334,0.2119431,-0.2361479
0.8665821,-0.2768241,-0.1590726,-0.1283319,-0.03706757,-0.02148526,-0.3572254,-0.1013762,-0.02415686
0.8775584,-0.2607826,-0.1889967,-0.1172122,-0.02143935,-0.05188318,-0.2126909,-0.315456,0.1137537
0.9964211,-0.3820307,-0.2411517,0.001764327,-0.1430663,-0.1045322,0.03633481,-0.2527188,0.2290712
1.051,-0.5057663,-0.2524081,0.05643135,-0.2671426,-0.1162964,0.4270937,-0.217006,0.08890045
0.9405808,-0.5308811,-0.1682894,-0.05392257,-0.2925518,-0.0326916,0.6679768,-0.3451963,-0.2758676
0.8750122,-0.4246261,-0.1622018,-0.1194476,-0.1865345,-0.02711875,0.6772495,-0.3259251,-0.3193154
0.790251,-0.229621,-0.1828458,-0.2041809,0.00829707,-0.04827458,0.5627231,-0.3367871,-0.1917048
0.7369397,-0.1412211,-0.2005335,-0.2574705,0.09658815,-0.06646786,0.3111834,-0.3494894,-0.06958604
0.7830794,-0.1257041,-0.2476158,-0.211304,0.112055,-0.1140454,0.1680944,-0.2744133,0.126203
0.8119451,-0.1499188,-0.2493492,-0.1823951,0.08784014,-0.1162587,0.1189238,-0.2703767,0.2330035
0.8826853,-0.1918308,-0.2599906,-0.1115869,0.04596959,-0.1273586,0.03619115,-0.1510675,0.2572838
0.94261,-0.1787892,-0.2432949,-0.05156365,0.05908726,-0.1110942,0.04682109,0.01357938,0.2349336
0.9186403,-0.1938219,-0.1898848,-0.07540213,0.04415975,-0.05808317,0.06339776,0.04587249,0.1901054
0.9100174,-0.1817536,-0.1679936,-0.08386009,0.05635731,-0.03655577,0.09840375,0.03481308,0.1852061
0.9125262,-0.1353069,-0.1383993,-0.08115169,0.1029522,-0.007288952,0.141623,0.008406731,0.1885014
0.92385,-0.1146069,-0.1349805,-0.06959241,0.1238134,-0.004161966,0.1106662,0.03003289,0.2291485
0.9572468,-0.07390664,-0.1159355,-0.03592383,0.1646807,0.01462571,0.1046128,0.04375477,0.2400816
0.9682098,-0.08292018,-0.07770338,-0.02465355,0.1558318,0.05263252,0.1081765,0.06111853,0.1805632
0.9609346,-0.1315405,-0.08512956,-0.03158741,0.1073658,0.04500985,0.2134036,0.09384474,0.1137981
0.968517,-0.1822494,-0.08169359,-0.0236316,0.05679484,0.04827428,0.4518892,0.0353317,0.046789
1.011235,-0.2267107,-0.1152522,0.01948946,0.01245141,0.01456553,0.5977156,0.02877239,0.03007705
1.088786,-0.1995418,-0.1789515,0.09747022,0.03971708,-0.04926494,0.5472893,0.09435809,0.02163119
1.165471,-0.1492608,-0.1858463,0.174604,0.09007309,-0.0562721,0.3285295,0.1640891,-0.04855094
1.21556,-0.1215265,-0.1329734,0.2251533,0.1178587,-0.003491999,0.1275333,0.1969621,-0.1983884
1.294106,-0.198709,-0.02951166,0.3041566,0.04070058,0.09989634,0.1727307,0.1201853,-0.3893165
1.400945,-0.4123114,0.01152928,0.4114359,-0.1729047,0.1408796,0.4008537,0.0847524,-0.462251
1.405625,-0.5438209,-0.08668113,0.4165213,-0.3044387,0.04262124,0.4252006,0.1010594,-0.4930614
1.24914,-0.4895199,-0.2610801,0.2603894,-0.2501716,-0.1318197,-0.09020781,0.03451934,-0.5664837
1.00968,-0.3707333,-0.3960639,0.02121464,-0.1314149,-0.2668375,-0.8069595,-0.1879071,-0.5090805
0.9066858,-0.2990789,-0.3975241,-0.08156313,-0.05977679,-0.2683148,-0.8941067,-0.3840094,-0.4290558
1.098537,-0.3162056,-0.3266796,0.1104379,-0.07690134,-0.1974594,-0.3875862,-0.07049483,-0.5023944
1.295041,-0.405687,-0.256167,0.3070266,-0.1663589,-0.1268983,-0.0853584,0.5664417,-0.5364369
1.200711,-0.4848704,-0.1626179,0.2127113,-0.2454917,-0.03325766,-0.02721984,0.917314,-0.4538025
0.9664762,-0.459101,-0.06248071,-0.02158294,-0.2196372,0.06701449,-0.0195458,0.8932163,-0.3582715
0.7254035,-0.318814,-0.02185239,-0.2627885,-0.07922272,0.1078173,-0.1618181,0.511531,-0.2029002
0.628171,-0.1372954,-0.04522529,-0.3602151,0.102469,0.08465119,-0.3461292,0.002348072,-0.05005069
0.7790906,-0.08871888,-0.07287998,-0.2095324,0.1512605,0.05722829,-0.5347854,-0.1201205,-0.011705
0.8578385,-0.2235871,-0.08659717,-0.1310466,0.01664102,0.04376167,-0.5481787,0.01724807,0.01581711
0.8340482,-0.3382904,-0.08623776,-0.1551119,-0.09778629,0.04438558,-0.3466889,0.05672441,0.0739654
0.8767385,-0.3519762,-0.07276864,-0.1127001,-0.1111701,0.05812897,-0.2139499,0.1281568,0.09930746
0.8719146,-0.3067228,-0.06507925,-0.1177984,-0.06558734,0.06609824,-0.1993151,0.2048092,0.07678294
0.891615,-0.2260063,-0.03890706,-0.09836143,0.01548717,0.09255144,-0.2869001,0.1483929,0.01901896
0.8884903,-0.1624264,0.005782276,-0.1017334,0.07945183,0.1375177,-0.3055118,0.05588902,-0.02432739
0.8206033,-0.1097168,0.01997823,-0.1698461,0.1325677,0.1519803,-0.256492,-0.1141403,0.001263639
0.8486905,-0.09761126,0.02333202,-0.1419572,0.145093,0.1555831,-0.232116,-0.2705868,0.05463345
0.8342771,-0.1189437,0.04789693,-0.1565353,0.1241852,0.1803721,-0.06826842,-0.2639393,0.03691352
0.8136745,-0.08606527,0.05611618,-0.1772629,0.1574844,0.188783,0.06653421,-0.2816893,-0.03040112
0.8872029,-0.03947607,0.03706182,-0.1038144,0.2044821,0.1698804,0.0571781,-0.2701779,-0.1212902
0.9518888,-0.02010209,0.01350291,-0.03915951,0.2242427,0.1464268,-0.1193553,-0.09990536,-0.2038818
1.037422,-0.04053472,-0.0120206,0.04639157,0.2041647,0.1209571,-0.4230258,-0.01035711,-0.1554878
1.077088,-0.100364,-0.03864585,0.086121,0.1446489,0.09433092,-0.4753955,-0.1392966,-0.01293485
1.106802,-0.1236534,-0.0647117,0.1159364,0.121625,0.06820778,-0.3126687,-0.3235541,0.1564611
1.206307,-0.1212024,-0.04912224,0.2155736,0.1242891,0.08368339,-0.1465993,-0.2912212,0.2318328
1.279336,-0.1126856,0.02699177,0.2887539,0.132963,0.1596268,-0.05489499,-0.08889076,0.0889171
1.353354,-0.09621794,0.041396,0.3629267,0.1495289,0.1738021,-0.2026544,0.09324663,0.04432331
1.472812,-0.12146,-0.1337228,0.4825259,0.1243231,-0.001606185,-0.4739262,0.3171825,0.2717218
1.577432,-0.2317087,-0.3668338,0.5872525,0.01404681,-0.2350649,-0.5800296,0.4965638,0.4474465
1.391947,-0.4890393,-0.3583338,0.4018145,-0.2433727,-0.2269607,-0.3627996,0.5273485,0.3953774
0.963536,-0.677462,-0.1494556,-0.02662514,-0.4319343,-0.01851263,0.07442673,0.5276398,0.2885192
0.8113677,-0.5133382,-0.05382241,-0.178903,-0.2679807,0.07666539,0.2932984,0.5754551,0.2177772
0.850715,-0.3114413,-0.1139754,-0.1397377,-0.06626722,0.01603557,-0.04184266,0.4979211,0.05017347
0.8595798,-0.3309799,-0.1941947,-0.1311143,-0.08599102,-0.06468064,-0.4584474,0.194445,0.02857156
0.9488124,-0.353784,-0.226302,-0.04217071,-0.1089761,-0.09730106,-0.3698537,-0.007832832,0.2945591
1.006267,-0.4176833,-0.2204606,0.01495573,-0.1730467,-0.09198266,-0.1442707,-0.04979313,0.3842365
1.018381,-0.5388978,-0.1664899,0.02670689,-0.2944151,-0.03853852,0.08668933,-0.07064128,0.1888986
0.9791681,-0.4814881,-0.06891097,-0.01290015,-0.2371314,0.05851487,0.5453618,-0.1632315,-0.1030083
0.8775197,-0.3591353,-0.07767389,-0.1149702,-0.1148663,0.04922865,0.7642565,-0.4469675,-0.2950837
0.8533309,-0.2844212,-0.1264649,-0.1396019,-0.04019531,-8.392195e-05,0.709794,-0.5602326,-0.2471281
0.8341273,-0.1702416,-0.1318882,-0.1592608,0.07398694,-0.00602722,0.6308396,-0.4906516,-0.1138972
0.8067384,-0.08944528,-0.2081754,-0.1871075,0.1548273,-0.0828309,0.3859691,-0.4853865,0.1075802
0.8233836,-0.0979689,-0.2163079,-0.1709125,0.1463809,-0.09147324,0.2418598,-0.3790423,0.2678375
0.8634848,-0.1489096,-0.1734587,-0.1312444,0.0955411,-0.04912234,0.244166,-0.3191643,0.2332577
0.9214209,-0.1470202,-0.207609,-0.07371701,0.09754667,-0.08375522,0.1845966,-0.3086667,0.2487995
0.9214276,-0.1262113,-0.1918091,-0.07408949,0.1184801,-0.06841824,0.1856802,-0.2098588,0.2664381
0.9156301,-0.1565399,-0.1782467,-0.0802335,0.08827834,-0.05529579,0.1844945,-0.1425329,0.2649554
0.9339306,-0.1462465,-0.1756121,-0.06224458,0.09869485,-0.05307538,0.1741612,-0.06937816,0.2891885
0.9263074,-0.1455522,-0.1288519,-0.0701424,0.09950352,-0.006701649,0.2087304,-0.02564747,0.2515844
0.9305057,-0.132969,-0.1231136,-0.06618014,0.1121876,-0.001321597,0.2164857,-0.01474294,0.2381248
0.9398846,-0.05709238,-0.1058485,-0.05699732,0.1881462,0.01561291,0.218639,-0.0005706824,0.2511909
0.9534767,-0.05870051,-0.08833644,-0.0435608,0.1865948,0.03282031,0.2124959,0.009701588,0.251516
0.9624292,-0.09939214,-0.1113872,-0.03472313,0.1459274,0.009488874,0.273679,0.06546945,0.2042485
0.9696409,-0.1588131,-0.1056791,-0.02758624,0.08649222,0.01493838,0.4046393,0.06603918,0.1239509
0.9913449,-0.2265829,-0.1070776,-0.005918165,0.01866671,0.01330152,0.5240607,0.06444284,0.1125783
1.025214,-0.2126676,-0.1187846,0.02795155,0.03248477,0.001375114,0.5735807,0.09276329,0.08183587
1.116089,-0.1672365,-0.1153079,0.1188615,0.07777842,0.004650126,0.3859615,0.01218297,-0.02917242
1.193678,-0.1205259,-0.1256622,0.1965107,0.1243117,-0.005889126,0.09578156,-0.02754621,-0.1546686
1.255072,-0.1417443,-0.09962542,0.257982,0.1028744,0.01997873,-0.0009899414,0.08047768,-0.2183877
1.423243,-0.2456785,-0.03071722,0.4262332,-0.001321247,0.08873242,-0.001202328,0.1757892,-0.2372285
1.531292,-0.3885918,-0.01668334,0.5343473,-0.1445367,0.1026229,-0.2047019,0.1351206,-0.3409828
1.399581,-0.5261692,-0.136644,0.4026629,-0.2824493,-0.01747435,-0.6086085,-0.01878767,-0.4577204
1.17707,-0.4967198,-0.3187929,0.1801228,-0.2533548,-0.1997538,-0.7736497,-0.2756431,-0.4648994
1.016676,-0.4402834,-0.3557458,0.0196312,-0.197278,-0.2368266,-0.4284512,-0.4706489,-0.4484077
1.000549,-0.470676,-0.2670738,0.003338652,-0.2280215,-0.1482544,0.08751381,-0.1675459,-0.4883526
1.072099,-0.4138831,-0.2083156,0.0746572,-0.1715597,-0.08956798,0.3198156,0.3468788,-0.4984075
1.016012,-0.3735153,-0.1395789,0.01827638,-0.1314937,-0.02087056,0.3033386,0.4539141,-0.3567537
0.9048054,-0.360691,-0.07927965,-0.09328087,-0.1189352,0.03942244,0.1931467,0.410735,-0.1436991
0.8265645,-0.2757622,-0.08630237,-0.1719233,-0.0342319,0.03242423,-0.108022,0.4131882,-0.07957423
0.7639276,-0.2341957,-0.08900218,-0.2350009,0.007150909,0.02977589,-0.4840726,0.336735,-0.1731021
0.8284265,-0.2015973,-0.07874467,-0.1709684,0.03960588,0.04010803,-0.6373519,0.2282295,-0.1952494
0.8455336,-0.1953271,-0.06034251,-0.1543401,0.04576949,0.05860413,-0.5079666,0.0456149,-0.09441355
0.8144698,-0.2668414,-0.03447658,-0.185884,-0.02581862,0.08457901,-0.3094636,-0.0585167,0.02156943
0.8970916,-0.3044354,-0.04390944,-0.1037338,-0.06345591,0.07526522,-0.1809933,-0.02079604,0.1141984
0.9133499,-0.3188949,-0.05066851,-0.08793075,-0.07792844,0.06863035,-0.1165956,-0.009112573,0.1132081
0.9182691,-0.2975313,-0.03426486,-0.08344487,-0.0565465,0.08515875,-0.207447,0.00349156,0.07310478
0.9132088,-0.2441717,-0.02773259,-0.08891251,-0.00313643,0.09181186,-0.2653196,-0.02086182,0.0923394
0.8429923,-0.2099285,-0.01802371,-0.1595061,0.03118826,0.1016331,-0.2093583,-0.07095848,0.1094036
0.8453939,-0.1535668,0.001325812,-0.1574464,0.08765931,0.1210818,-0.2532677,-0.08733391,0.1177342
0.8137531,-0.1383222,0.02513572,-0.1893873,0.1030359,0.1449725,-0.2238638,-0.1737733,0.08956489
0.7981437,-0.1404418,0.06665868,-0.2052483,0.1010644,0.1865519,-0.114454,-0.3471126,0.03476888
0.8445639,-0.09750334,0.1010058,-0.1590243,0.1441599,0.2209242,-0.04450785,-0.4607041,0.0519732
0.8580111,-0.07721138,0.06555889,-0.1457121,0.1646104,0.1854634,-0.01102448,-0.3653698,0.03868346
0.9300765,-0.07837657,-0.005024633,-0.07371707,0.163597,0.1148199,-0.1227091,-0.2449509,-0.02814407
1.004576,-0.1433262,-0.02479158,0.0007773971,0.09878447,0.09494265,-0.1902423,-0.2838439,-0.0004006467
1.040487,-0.2348934,-0.04803471,0.03674712,0.007334339,0.07153704,-0.1400473,-0.3308471,0.08178999
1.070724,-0.2385259,-0.08430752,0.06709935,0.003796866,0.03504965,-0.01753086,-0.3550893,0.1023571
1.128849,-0.2099039,-0.04192621,0.1253901,0.03249201,0.07716548,0.1289408,-0.3259569,0.04487561
1.2562,-0.1535869,-0.009592837,0.2529465,0.08886045,0.1091836,-0.005341385,-0.2495505,0.03321608
1.344045,-0.05153118,-0.09148734,0.3410253,0.1909436,0.02692442,-0.2597769,-0.2331041,0.2207941
1.482227,-0.06719843,-0.238036,0.4794491,0.1752748,-0.120036,-0.3227987,-0.01760215,0.4955042
1.609629,-0.3437486,-0.3480716,0.6070792,-0.1013107,-0.2305233,-0.1581974,0.42971,0.5443647
1.365501,-0.6337973,-0.2896113,0.3631406,-0.3914264,-0.1725429,0.2311179,0.7809795,0.2627599
0.9397194,-0.5722259,-0.1054879,-0.06250937,-0.3299404,0.01108439,0.3961908,0.9499716,-0.06032145
0.7230061,-0.3551833,0.008602157,-0.2791536,-0.1129848,0.1246684,-0.03599504,0.689652,-0.1820228
0.7219612,-0.2723338,-0.02545533,-0.280181,-0.03021227,0.09009499,-0.4549405,0.06384089,-0.1622933
0.8637151,-0.2573325,-0.1413381,-0.1384457,-0.01527324,-0.02631555,-0.2240828,-0.3136139,0.0201808
1.041215,-0.3719345,-0.2309129,0.03901209,-0.1299215,-0.1164289,0.09802219,-0.3608443,0.2482481
1.118624,-0.5739327,-0.2840675,0.11636,-0.3319457,-0.1701274,0.1744,-0.1143709,0.1454626
1.067957,-0.6196651,-0.2563889,0.06561258,-0.3776738,-0.1429894,0.4641835,0.2340263,-0.1924011
0.946225,-0.5106516,-0.1459256,-0.05622227,-0.2686116,-0.03305517,0.6739796,0.1132649,-0.4618813
0.8109276,-0.3264696,-0.1107509,-0.1916414,-0.08432472,0.001606987,0.6627229,-0.17641,-0.5616253
0.703981,-0.1841559,-0.1116183,-0.2987212,0.05815469,0.0002454469,0.6910277,-0.3739988,-0.3518415
0.7173599,-0.1584775,-0.1314677,-0.285474,0.08405631,-0.02007943,0.5629491,-0.6425311,-0.06786734
0.800789,-0.1768035,-0.2067261,-0.202161,0.06600381,-0.09579369,0.5011251,-0.6335632,0.09345552
0.8575984,-0.2234173,-0.2283692,-0.1454405,0.01970581,-0.1178702,0.53694,-0.4712951,0.2261637
0.9276133,-0.2362723,-0.2484823,-0.0754802,0.007202704,-0.1383896,0.4484811,-0.3127813,0.1499029
0.926945,-0.206042,-0.236573,-0.0761648,0.03781639,-0.1268539,0.3841996,-0.07754458,0.08655706
0.8889396,-0.1718027,-0.1699061,-0.1141466,0.07246567,-0.06052295,0.3261785,-0.04902692,0.1903316
0.9139458,-0.1285422,-0.1562661,-0.0890749,0.1161566,-0.04717837,0.3800539,-0.05792155,0.178861
0.9140856,-0.1120127,-0.1341972,-0.08882599,0.1331299,-0.0253632,0.4382305,-0.04807421,0.2359951
0.9409467,-0.07489684,-0.1357441,-0.06181114,0.1706941,-0.02712274,0.3720925,-0.1084308,0.3018192
0.9747074,-0.05495966,-0.1457492,-0.02785193,0.1910749,-0.03730003,0.3496515,-0.02754245,0.2513863
0.9655665,-0.05677825,-0.1161914,-0.03675091,0.1896851,-0.007875164,0.2486131,0.0590469,0.2695999
0.9828102,-0.03230387,-0.1180671,-0.01922389,0.2145635,-0.009845764,0.2166041,0.1336209,0.2350359
0.9634877,-0.08465557,-0.09560447,-0.03822383,0.1625817,0.01255796,0.3172656,0.171728,0.2023493
0.9534917,-0.1607084,-0.09125747,-0.04786027,0.08685705,0.01687946,0.3810098,0.0685565,0.2072977
1.000456,-0.2166102,-0.1306791,-0.0005007458,0.03123743,-0.02253694,0.4474293,0.02905166,0.1709155
1.079041,-0.2457229,-0.143086,0.07851098,0.002360092,-0.03490995,0.3247746,0.05534357,0.1363373
1.207344,-0.2026323,-0.1353686,0.207267,0.04564042,-0.027131,0.1115531,0.1037098,-0.06668518
1.280323,-0.206165,-0.06002318,0.2807147,0.04225329,0.04830265,0.1168297,0.1529654,-0.3583246
1.312088,-0.2695252,0.02702039,0.3129503,-0.02100421,0.1354578,0.3249885,0.1406929,-0.4864718
1.374926,-0.364054,0.01814614,0.3762434,-0.1154705,0.1267122,0.5128603,0.1178017,-0.4936807
1.375018,-0.4368469,-0.1061417,0.3767568,-0.1882345,0.002563121,0.3154047,0.0194165,-0.5246795
1.24005,-0.3898314,-0.3060892,0.2421606,-0.1412146,-0.1972387,-0.1654578,-0.1698387,-0.5525059
1.069228,-0.3636692,-0.421716,0.07164853,-0.115063,-0.3127088,-0.5619889,-0.363768,-0.4232791
1.073624,-0.3939065,-0.383958,0.07628628,-0.1453172,-0.2747727,-0.6455054,-0.4010365,-0.3418664
1.192222,-0.3805967,-0.2875537,0.1950579,-0.1320239,-0.1781572,-0.2549751,-0.04377456,-0.4921748
1.201485,-0.3812226,-0.1857037,0.2044224,-0.1326584,-0.07605458,0.1566201,0.5295074,-0.5837183
1.072504,-0.3837955,-0.08414221,0.07546816,-0.1352258,0.02580385,0.172344,0.8064559,-0.4146745
0.8581319,-0.3161666,-0.05263528,-0.1389535,-0.067572,0.05764966,0.04695706,0.770533,-0.1815139
0.7214157,-0.200668,-0.07922774,-0.2757872,0.04797405,0.03143274,-0.1891051,0.6802653,-0.1360743
0.7230084,-0.1145935,-0.06600846,-0.274366,0.1341171,0.04505838,-0.5964138,0.3942226,-0.1456177
0.7331854,-0.1300358,-0.05808221,-0.2643965,0.1187589,0.05341623,-0.8115778,0.02570753,-0.04546679
0.7907961,-0.2334825,-0.06704447,-0.2070126,0.01540515,0.04490542,-0.6725302,-0.09244728,0.1004461
0.8913128,-0.371417,-0.05735491,-0.1067285,-0.122431,0.05506105,-0.4431989,-0.03961528,0.2343656
0.9254413,-0.4611445,-0.05755527,-0.0728292,-0.2120529,0.05533639,-0.1801862,0.1039489,0.2159193
0.9071584,-0.4112596,-0.04085572,-0.09133194,-0.1620484,0.07251638,0.04338949,0.2366892,0.1077996
0.8508562,-0.2709537,-0.004946809,-0.14784,-0.02160223,0.1089053,-0.05554841,0.2102587,0.05031108
0.8002568,-0.1349181,0.03873168,-0.1986253,0.1145968,0.1530572,-0.1229667,0.01641497,0.003894089
0.8100916,-0.08625867,0.05616,-0.1889487,0.1634387,0.1709449,-0.005015084,-0.2231892,0.06674626
0.8520486,-0.1261027,0.03378054,-0.1471147,0.1237884,0.1490026,-0.03611858,-0.2841778,0.1667714
0.8693643,-0.09610661,0.05001708,-0.1298801,0.1539807,0.1656462,0.05643431,-0.2653279,0.1681186
0.8455722,-0.05131514,0.07629161,-0.1537068,0.1989626,0.1922904,0.1612229,-0.3326165,0.1599146
0.8384573,-0.04343427,0.0764057,-0.1608056,0.2070189,0.1927293,0.04834735,-0.3669262,0.1225768
0.8834379,0.0483987,0.05624281,-0.1157542,0.2990022,0.1728392,-0.04881461,-0.2885207,0.07040369
0.9896297,0.05973465,-0.01062012,-0.00943473,0.3104517,0.1061909,-0.375358,-0.1617819,0.07566992
1.117445,-0.05240162,-0.06674868,0.1185632,0.1983801,0.05021554,-0.7393984,-0.1187738,0.1428323
1.167345,-0.1633569,-0.08074214,0.1686945,0.08743169,0.03631355,-0.675598,-0.2077434,0.2337225
1.152021,-0.2708612,-0.06068715,0.1536391,-0.02012674,0.05639978,-0.4041545,-0.3048748,0.2339625
1.211335,-0.2512375,-0.04993612,0.2132474,-0.0006162432,0.06712353,-0.2355728,-0.2521049,0.2067265
1.414934,-0.1715195,-0.1703076,0.4171521,0.07893353,-0.05333166,-0.3854025,-0.123872,0.2668634
1.651655,-0.204434,-0.3825693,0.6541726,0.0457984,-0.2657282,-0.6115624,0.1002739,0.3986456
1.721771,-0.4223712,-0.4744294,0.7245543,-0.1724086,-0.357762,-0.5253569,0.5786994,0.5453059
1.415315,-0.7324292,-0.3336645,0.4182986,-0.4827763,-0.2171926,-0.268739,0.9178103,0.5002162
0.8922073,-0.7004519,-0.1163396,-0.1046937,-0.4511295,-7.003467e-05,-0.1069207,0.8753939,0.2172524
0.5958025,-0.401508,0.01890556,-0.4010717,-0.1525143,0.1349726,-0.34585,0.7122633,-0.1243612
0.5076867,-0.2302911,0.09783907,-0.4892324,0.01839106,0.2137014,-0.769598,0.2845194,-0.3094317
0.6159868,-0.1657652,0.02457014,-0.381023,0.08262727,0.1402187,-0.7169551,-0.3971025,-0.08734956
1.001802,-0.2432276,-0.1881557,0.004678426,0.004895161,-0.07273611,-0.3770365,-0.6329025,0.2651103
1.239189,-0.3496736,-0.3180306,0.2419393,-0.1018024,-0.2028547,-0.07007111,-0.3317506,0.3443799
1.161186,-0.4067675,-0.3242361,0.1637969,-0.159128,-0.2093111,0.1644743,-0.143146,0.2554089
0.9799889,-0.518743,-0.2390778,-0.01756089,-0.2713093,-0.1244005,0.1255981,-0.003728439,0.03315004
0.8267594,-0.4584191,-0.1757205,-0.1709729,-0.2111564,-0.06127912,0.2135889,0.12069,-0.1872435
0.7837377,-0.3129737,-0.1777126,-0.2141929,-0.0658383,-0.06349011,0.4298542,-0.1574404,-0.2056283
0.7629567,-0.2194032,-0.1616582,-0.2351773,0.02765257,-0.0476348,0.3041841,-0.3920486,-0.1091283
0.7896776,-0.07854209,-0.2165589,-0.2086529,0.1684795,-0.1027123,0.2070702,-0.3806156,0.07264172
0.8891527,-0.09870552,-0.2805632,-0.1093566,0.1483199,-0.1668681,0.1558488,-0.3385045,0.224973
0.9349034,-0.1601471,-0.2643085,-0.06375965,0.08691047,-0.1507344,0.03806347,-0.156415,0.2746271
0.9289481,-0.131011,-0.2399349,-0.06983996,0.1160985,-0.1264455,0.09535823,-0.0339551,0.2601756
0.8875708,-0.1443093,-0.1940128,-0.1113112,0.1028646,-0.08056725,0.08240766,0.01747683,0.2282173
0.873088,-0.1040841,-0.175491,-0.1258543,0.1431603,-0.06204594,0.05639112,0.008572511,0.2677473
0.923805,-0.1073336,-0.1529864,-0.07516067,0.1399799,-0.03949785,0.1154187,-0.05421826,0.2479062
0.9954748,-0.1376644,-0.08296186,-0.003475171,0.1097101,0.03061314,0.1185683,0.1228321,0.1786822
1.03675,-0.1089744,-0.06307672,0.03785356,0.1384468,0.05062466,0.2762707,0.2866171,0.05109026
0.9924913,-0.1729438,-0.08712094,-0.006315726,0.07450439,0.02674197,0.5522216,0.301667,-0.1624283
0.9544174,-0.2290269,-0.1252633,-0.04426852,0.01842503,-0.01120829,0.7710912,0.2946773,-0.1445931
0.9709946,-0.2316828,-0.1550363,-0.02753996,0.01574849,-0.04076184,0.7770375,0.2690149,-0.005945816
1.055081,-0.2211791,-0.157334,0.05672649,0.02620778,-0.04281404,0.4233185,0.3559243,-0.01225652
1.226724,-0.205002,-0.1377619,0.2285737,0.04231723,-0.02297132,0.1670696,0.4031296,-0.1976777
1.352926,-0.3072707,-0.0767747,0.354995,-0.06004152,0.0383105,0.4420224,0.413108,-0.5214473
1.429863,-0.473074,-0.02679849,0.4321494,-0.2259537,0.08860213,0.6644009,0.5248718,-0.6383058
1.471776,-0.5717247,-0.1058612,0.4742575,-0.3247231,0.009870915,0.1386652,0.5504943,-0.5684985
1.335095,-0.5182314,-0.2510655,0.3377294,-0.2713446,-0.1349893,-0.5789832,0.2443742,-0.4851764
1.041657,-0.3820331,-0.2537754,0.0443852,-0.1352431,-0.1373413,-0.7318878,-0.3224564,-0.2790296
0.8561122,-0.3271719,-0.2066441,-0.1411305,-0.08045139,-0.08983485,-0.4189076,-0.4833747,-0.171058
1.004915,-0.3412918,-0.2111274,0.00764157,-0.09460869,-0.0939221,0.04287384,-0.1212868,-0.1958185
1.24305,-0.4139278,-0.1601403,0.2456905,-0.167247,-0.04251569,0.2466015,0.3354462,-0.1377465
1.214567,-0.4589976,-0.1343396,0.217065,-0.2122793,-0.01627222,0.1466842,0.8116181,-0.1211366
1.026557,-0.4163772,-0.0951976,0.02885149,-0.1695759,0.02333486,0.05874607,0.8792427,-0.1532018
0.7990378,-0.3126593,0.0190692,-0.1989319,-0.06572391,0.1380854,-0.1040486,0.4523016,-0.2016918
0.6740998,-0.149609,0.04262686,-0.3241861,0.0975127,0.1621386,-0.3978257,0.07177212,-0.293567
0.7679015,-0.1329556,0.002041097,-0.2307364,0.1144001,0.1220513,-0.5807618,-0.1832348,-0.233389
0.7978292,-0.2109245,-0.01874781,-0.2011796,0.03670483,0.1017551,-0.5016705,-0.2469323,-0.07267329
0.8188767,-0.2383893,-0.03333475,-0.1805079,0.009546087,0.08764834,-0.3335438,-0.09136094,0.01379522
0.9350772,-0.3522747,-0.03943205,-0.0646775,-0.1040049,0.08201322,-0.250253,0.01045626,0.04323459
0.9045426,-0.3840385,-0.03736194,-0.09556911,-0.1354067,0.08452308,-0.2707379,0.02867854,-0.0009575242
0.8710361,-0.3100338,-0.01669022,-0.1294146,-0.06101008,0.1056081,-0.3843683,0.0003226893,-0.03025234
0.8697198,-0.3263356,0.01402971,-0.1310464,-0.07688861,0.1367105,-0.3565285,-0.07543177,-0.0270442
0.8246056,-0.3005749,0.05243691,-0.1764468,-0.05067276,0.1754643,-0.2451461,-0.1680477,-0.03757815
0.8691773,-0.2502277,0.07005504,-0.1321257,0.0001607483,0.1933867,-0.146254,-0.2609743,0.04426137
0.8848701,-0.2331259,0.06684881,-0.1166422,0.01777791,0.1904355,0.03848244,-0.2736186,0.128481
0.8694459,-0.1629236,0.07785001,-0.1322299,0.08852034,0.2016355,0.08152024,-0.2794647,0.1291733
0.8809363,-0.09630232,0.06870405,-0.1208539,0.1557003,0.1926255,0.0746694,-0.3375025,0.1102963
0.871347,-0.04349659,0.03985051,-0.130505,0.2090741,0.1638394,0.06030177,-0.3728602,0.07912055
0.9285911,-0.03330611,-0.01364724,-0.0732678,0.2198308,0.1103365,-0.133317,-0.3690906,0.07378583
1.024447,-0.127855,-0.07953505,0.02263722,0.1258347,0.04436926,-0.3163548,-0.2416249,0.0666302
1.081191,-0.2464709,-0.09073856,0.07948281,0.007749673,0.03301351,-0.387589,-0.1045651,0.04431418
1.081593,-0.2950271,-0.06782014,0.08003311,-0.04030133,0.05570998,-0.1777514,-0.1575282,0.009701229
1.098953,-0.209282,-0.003079179,0.09757978,0.04592327,0.1201622,0.131983,-0.2641188,-0.06742926
1.175645,-0.03884332,0.07041396,0.1744893,0.2168149,0.1933005,0.08914554,-0.3674735,-0.06188699
1.250077,0.05827797,0.002544049,0.2491601,0.3143563,0.1250083,-0.1901077,-0.4018475,0.1074869
1.480453,-0.02399421,-0.1805573,0.4797805,0.2324607,-0.05858342,-0.5414353,-0.07448105,0.3184264
1.709697,-0.2628264,-0.3276129,0.7092538,-0.006048465,-0.2061923,-0.6369202,0.3708167,0.4154468
1.478476,-0.5389626,-0.3430843,0.4782214,-0.2819166,-0.2222681,-0.2780482,0.4710293,0.4534079
1.034488,-0.7313185,-0.2173815,0.03435541,-0.4740491,-0.0972061,0.05986783,0.5402473,0.4211709
0.7895377,-0.6694003,-0.09017541,-0.2105471,-0.4119322,0.02933454,0.08958888,0.7017453,0.1026712
0.6761746,-0.4472928,-0.01979085,-0.3239291,-0.1896293,0.09903462,-0.1016086,0.5325616,-0.2494406
0.6676829,-0.3146261,0.04226007,-0.3324892,-0.05675552,0.1603825,-0.2463174,0.1048222,-0.2632149
0.7952746,-0.2356663,0.006440544,-0.2049963,0.02242867,0.1238385,-0.1674416,-0.4524771,-0.0824987
1.018731,-0.2971357,-0.1199855,0.01834599,-0.0387987,-0.003335949,-0.01721924,-0.7181181,0.00157829
1.194376,-0.4427686,-0.2111227,0.1938668,-0.184172,-0.09524444,0.1800275,-0.2241375,-0.1127048
1.129268,-0.4654582,-0.2303976,0.1286233,-0.2065808,-0.1153079,0.3988179,0.1508492,-0.2709815
0.9596382,-0.4400617,-0.1626629,-0.04115969,-0.1808758,-0.04837124,0.5218271,-0.002353952,-0.3521104
0.801342,-0.2896991,-0.1164818,-0.1996258,-0.03017086,-0.002990878,0.553248,-0.1494883,-0.3100945
0.6788999,-0.1497862,-0.1527948,-0.3222473,0.1101195,-0.04010314,0.3693214,-0.421555,-0.1672797
0.7391327,-0.1588897,-0.1739624,-0.26219,0.101424,-0.06206463,0.1059913,-0.6428099,-0.05662316
0.8393524,-0.1653381,-0.2028083,-0.1621281,0.09540623,-0.09169493,0.14675,-0.5454071,0.07161929
0.9363581,-0.2432937,-0.2313282,-0.06525269,0.01789637,-0.120984,0.2849036,-0.3870472,0.1273163
1.037671,-0.2623302,-0.214956,0.0359619,-0.0006842689,-0.1053598,0.3054087,-0.1782091,0.06254043
0.9596252,-0.2066536,-0.1911227,-0.04215093,0.05545492,-0.08224721,0.3640592,-0.04298772,0.08932725
0.9054948,-0.1950292,-0.1374158,-0.0963175,0.06754529,-0.02922918,0.3559893,-0.0782227,0.1191385
0.9251039,-0.1320779,-0.08840968,-0.07671308,0.1309612,0.01912235,0.3304055,-0.08810836,0.1243126
0.8969767,-0.1276613,-0.08180522,-0.1048115,0.1358347,0.02510622,0.3955111,-0.07388154,0.1663329
0.9448323,-0.1227341,-0.06159114,-0.05689159,0.1412041,0.04473202,0.4080638,-0.07130574,0.1580985
0.9637794,-0.1113176,-0.0390228,-0.03784364,0.1530406,0.06674175,0.4944779,-0.03485366,0.1395891
0.9488592,-0.1601718,-0.0412027,-0.05262642,0.1045774,0.06402956,0.6787531,-0.01496666,0.08981298
0.9758448,-0.1386781,-0.06348479,-0.02546754,0.1264275,0.04123795,0.8276096,-0.04147735,0.04653327
0.9888453,-0.1427153,-0.09956463,-0.01225934,0.1227075,0.004668612,0.9049002,-0.04544774,0.06484215
1.073936,-0.1443218,-0.115904,0.0730717,0.1213744,-0.01214154,0.7779759,-0.01931296,0.07129806
1.161093,-0.1231055,-0.09336729,0.1604947,0.1428165,0.009942734,0.529941,-0.0004504711,0.0573433
1.205722,-0.1633686,-0.03794079,0.2054094,0.1027278,0.06493477,0.327761,0.007714785,-0.1036078
1.29141,-0.2152296,0.03506631,0.2913897,0.05098719,0.137523,0.3326294,0.01147044,-0.3362465
1.357164,-0.3338061,0.05849978,0.3574291,-0.06752274,0.1605481,0.627586,0.02507705,-0.3760958
1.353972,-0.391608,-0.05748899,0.354499,-0.1253078,0.04415534,0.7622916,0.01201265,-0.4080245
1.217309,-0.3115859,-0.2698274,0.2180569,-0.04531129,-0.1685856,0.3668938,-0.0802786,-0.5227176
1.026021,-0.282564,-0.4147225,0.02693981,-0.01635035,-0.3138773,-0.2338791,-0.2834514,-0.4412995
0.9951093,-0.3283275,-0.412635,-0.003855766,-0.06220509,-0.3121689,-0.433005,-0.4007891,-0.3190114
1.095635,-0.3718283,-0.3487061,0.09673233,-0.1058225,-0.2485869,-0.2133272,-0.1129909,-0.3974716
1.151617,-0.37825,-0.2961932,0.1527235,-0.11238,-0.196376,0.02267864,0.3655642,-0.4367904
1.101929,-0.3955474,-0.1503748,0.1029903,-0.1298249,-0.05080614,0.3150425,0.6070626,-0.399853
1.030163,-0.4252519,0.03273313,0.03112353,-0.1596812,0.1321089,0.4615601,0.5984537,-0.3226153
0.9530024,-0.3656691,0.003439977,-0.04619365,-0.1002467,0.1026742,0.2425055,0.4583994,-0.1088941
0.8324273,-0.1667639,-0.08528035,-0.166975,0.09851907,0.01385599,-0.01157776,0.2239926,-0.01017855
0.7434569,0.02772727,-0.04640311,-0.2561921,0.2928786,0.05267261,-0.4009539,-0.03010471,-0.003655543
0.7740059,-0.0663699,-0.07391459,-0.2259163,0.1986491,0.02513313,-0.6708416,-0.1177549,0.08134804
0.8574447,-0.285235,-0.1128585,-0.1427634,-0.02035845,-0.01381,-0.3890438,-0.01369327,0.09319576
0.8354788,-0.3420989,-0.04481717,-0.1650162,-0.07737882,0.05425803,-0.1683032,0.06068917,0.1024138
0.8114491,-0.3852065,-0.01804161,-0.1893246,-0.120654,0.08108265,-0.1254985,0.08223864,0.09099394
0.8495868,-0.3585435,-0.01206914,-0.1514481,-0.09416384,0.08712175,-0.04278953,0.04985794,0.0209194
0.8144168,-0.2177723,0.007676043,-0.1868538,0.0464344,0.1069454,-0.1421561,-0.09850564,0.0449377
0.8232001,-0.1609495,0.009940699,-0.1782728,0.1030857,0.1092942,-0.1524496,-0.2155175,0.07472357
0.8617343,-0.1313066,0.02855895,-0.1399005,0.1325559,0.1279961,-0.0713007,-0.3041504,0.1106423
0.8517868,-0.127876,0.03616914,-0.1499637,0.1358071,0.1356832,-0.05722627,-0.353928,0.1626261
0.8846581,-0.1337798,0.05577465,-0.1171572,0.1297118,0.1553522,0.06545186,-0.3014205,0.1511679
0.873968,-0.08873289,0.06172205,-0.1278581,0.1745493,0.1613431,0.09065579,-0.3137462,0.1118379
0.8820244,-0.07957103,0.02660842,-0.1197558,0.1834776,0.1262463,0.002589482,-0.2977457,0.002132432
0.9600165,-0.04951817,0.01803778,-0.04165949,0.2132663,0.1176606,-0.1478755,-0.2071402,-0.05855174
1.029554,-0.0709501,0.005222899,0.02803956,0.1915322,0.1047946,-0.4094998,-0.2122541,0.008500263
1.143806,-0.1555658,-0.02174702,0.1425067,0.1065705,0.07773462,-0.451194,-0.214821,0.06335285
1.211368,-0.1872497,-0.04631224,0.2103271,0.07449298,0.05303885,-0.3212754,-0.1813423,0.08643617
1.233464,-0.2230507,-0.03433572,0.2327139,0.03825052,0.06484402,-0.3098161,-0.09305273,0.01787046
1.287259,-0.123902,-0.00730349,0.2868177,0.1369108,0.09166413,-0.3928754,0.05096401,-0.02325628
1.353447,-0.001193594,-0.109675,0.3533151,0.2590829,-0.01096004,-0.4602698,0.1595727,0.2218757
1.481558,-0.1391221,-0.2651405,0.4817191,0.1205666,-0.166716,-0.4075573,0.4400486,0.4689327
1.495612,-0.3856506,-0.3111573,0.4960284,-0.1266033,-0.2130532,-0.2340989,0.7582009,0.3761896
1.19397,-0.5590859,-0.216908,0.1945852,-0.3007276,-0.1191431,0.08898325,0.6572643,0.2203361
0.7933483,-0.5102318,-0.07421294,-0.2059077,-0.2525955,0.02320361,0.2963066,0.4111904,0.1236681
0.7110756,-0.3341666,-0.06041403,-0.2881171,-0.07726911,0.03664965,-0.0744845,0.319695,-0.03098949
0.928778,-0.2910261,-0.1435806,-0.07040374,-0.0348723,-0.04687306,-0.5034483,0.07509357,0.1049969
1.02641,-0.3155585,-0.2290438,0.027199,-0.06014669,-0.1326936,-0.3418008,-0.1928619,0.3887305
1.007436,-0.4363925,-0.2670033,0.008160788,-0.1817157,-0.1710064,-0.04305149,-0.1805703,0.3206314
1.021658,-0.6075453,-0.2143135,0.02228609,-0.3535876,-0.1186579,0.2458447,-0.1511075,0.1233281
0.9938366,-0.5720591,-0.1781423,-0.00566266,-0.3187912,-0.08280914,0.673911,-0.237576,-0.1458203
0.9605958,-0.4012216,-0.175384,-0.03905875,-0.1485991,-0.08034935,0.7630813,-0.3206006,-0.364127
0.8883793,-0.2190605,-0.1736098,-0.1114549,0.0329705,-0.07884621,0.6258598,-0.3369204,-0.2389429
0.7937996,-0.116221,-0.1923166,-0.2062317,0.1352736,-0.09779362,0.5331071,-0.3467932,-0.1098677
0.7678639,-0.1514765,-0.1883523,-0.2323726,0.09953133,-0.09403647,0.2778044,-0.4106704,0.03810799
0.7516485,-0.1540615,-0.198785,-0.2487893,0.09650161,-0.1046399,0.1361177,-0.4063623,0.2623316
0.7869067,-0.1470052,-0.2195945,-0.2137159,0.1031479,-0.1255805,0.1488016,-0.3783568,0.2973122
0.8783863,-0.1987585,-0.209156,-0.1223944,0.05101311,-0.1152304,0.07726074,-0.2800782,0.3227909
0.9300718,-0.2157263,-0.2078213,-0.07083303,0.03368766,-0.1139379,0.05579681,-0.03271483,0.3049841
0.9308516,-0.2320096,-0.1952455,-0.07014008,0.01706721,-0.1013556,0.07426106,0.09722478,0.2057555
0.8998673,-0.2315491,-0.1589515,-0.1011722,0.01720905,-0.06500464,0.1469429,0.08568874,0.198395
0.8928279,-0.1923478,-0.1139567,-0.1082185,0.05610858,-0.01990206,0.2945045,0.05228164,0.187693
0.9226297,-0.147371,-0.08250062,-0.07838082,0.100798,0.01171082,0.3566958,0.02308159,0.2066804
0.9581867,-0.08034109,-0.08991862,-0.04274371,0.1675501,0.004495166,0.3478953,0.04992362,0.2254478
0.9794449,-0.06900881,-0.08639442,-0.02136138,0.1786078,0.008263178,0.4089805,0.08543712,0.1966171
0.9828861,-0.122148,-0.07273183,-0.01775378,0.1251896,0.02220691,0.5481456,0.1219643,0.2021041
1.004848,-0.1728505,-0.08747994,0.004414613,0.07419717,0.007773115,0.6089482,0.1368768,0.1644657
1.033525,-0.2089822,-0.1058908,0.03333401,0.03776099,-0.01029413,0.5590567,0.1170894,0.1232085
1.057095,-0.1904289,-0.1165234,0.05717842,0.0559939,-0.02055675,0.3828583,0.1074663,0.07235137
1.106006,-0.1528404,-0.1115852,0.1063911,0.09324509,-0.01522457,0.03121804,0.06724809,-0.08503766
1.206875,-0.1551673,-0.07016493,0.207581,0.09056259,0.02661147,-0.1183189,0.03630643,-0.2946256
1.334182,-0.2272063,-0.01206237,0.3352168,0.01814771,0.08514823,0.185074,0.09883866,-0.4343762
1.374732,-0.3789426,-0.01761316,0.3760882,-0.1339838,0.08004496,0.413028,0.1852633,-0.4122821
1.294733,-0.4516468,-0.1578734,0.2963879,-0.2070973,-0.05975961,0.1566415,0.1420568,-0.3966149
1.137044,-0.3959316,-0.3428891,0.1389572,-0.1517957,-0.2443127,-0.2811916,-0.0931002,-0.3741608
1.003753,-0.3858977,-0.3878873,0.005876026,-0.1421697,-0.2888359,-0.601584,-0.4063418,-0.2520389
1.078197,-0.4254307,-0.3131208,0.08047975,-0.1820958,-0.2135721,-0.6087854,-0.5135006,-0.3386805
1.255496,-0.4399518,-0.2677945,0.2578873,-0.1969868,-0.1677168,-0.2072342,-0.1485206,-0.5224452
1.270092,-0.4530648,-0.2219874,0.2725355,-0.2104376,-0.1213427,0.1799586,0.4341436,-0.5312401
1.102809,-0.4125946,-0.1340202,0.1052413,-0.1702643,-0.03276774,0.2580305,0.6818226,-0.4586909
0.8615781,-0.3073385,-0.07823606,-0.1360691,-0.06525727,0.02366431,0.04730876,0.6161768,-0.2963977
0.7685871,-0.2369347,-0.08214001,-0.229201,0.004948368,0.02044454,-0.4070028,0.4941172,-0.1884039
0.8265419,-0.1774927,-0.1137886,-0.1714366,0.06424193,-0.01048867,-0.8175079,0.2402109,-0.1654223
0.7847528,-0.1059646,-0.1046401,-0.2134515,0.1356661,-0.0005982366,-0.9473649,-0.02587181,-0.06254383
0.7966272,-0.1643538,-0.08941506,-0.2018248,0.07721022,0.01539144,-0.7637064,-0.05531593,0.02683741
0.8891914,-0.3299693,-0.104249,-0.1095182,-0.08844114,0.001340783,-0.5177419,0.04913622,0.1121593
0.8345278,-0.4033384,-0.07374491,-0.1644394,-0.1618171,0.0326428,-0.3628498,0.1070795,0.1693249
0.8215358,-0.3859886,-0.06216735,-0.1776803,-0.1444419,0.04502863,-0.2357632,0.1075176,0.1573886
0.8680087,-0.3360206,-0.06599183,-0.1314397,-0.0944117,0.04201802,-0.3220335,0.1109882,0.1518066
0.8455899,-0.2402752,-0.02860427,-0.1540666,0.001435713,0.08022,-0.3768699,0.05230519,0.1059727
0.8578348,-0.1709057,-0.02065049,-0.1419992,0.07094606,0.08898325,-0.305789,-0.09761778,0.1140407
0.8585616,-0.1360877,0.002284732,-0.1414134,0.105939,0.1127169,-0.3550221,-0.1794857,0.1565488
0.8477578,-0.1081329,0.02602803,-0.1523168,0.1340956,0.1372408,-0.2385345,-0.21983,0.1521095
0.8493916,-0.09960302,0.02358826,-0.1507361,0.1428457,0.1355567,-0.1080625,-0.2985918,0.1885132
0.8310574,-0.07355795,0.04470662,-0.1690723,0.1691203,0.1573986,-0.09319028,-0.3112199,0.1691563
0.8836533,-0.05851069,0.02692967,-0.1164233,0.184397,0.1403059,-0.08652993,-0.2204912,0.1087329
0.9815363,-0.07911486,-0.01051518,-0.01842939,0.1640127,0.1034997,-0.3726141,-0.07131522,0.0754601
1.061942,-0.1338006,-0.03329462,0.0621435,0.1095288,0.08130852,-0.6361854,-0.01201258,0.0700394
1.115358,-0.2382513,-0.06137938,0.1157782,0.005256128,0.05375897,-0.5248344,-0.1559822,0.1669898
1.137084,-0.2978231,-0.07139021,0.1377655,-0.05416297,0.04422908,-0.2418196,-0.2532548,0.2052425
1.198027,-0.2538475,-0.06359864,0.1990015,-0.01005848,0.05244718,-0.03496753,-0.08508374,0.08977898
1.260093,-0.12721,-0.0272273,0.2613812,0.116686,0.08919063,-0.09395992,0.07627126,0.003737473
1.279377,0.02124279,-0.03825156,0.2809847,0.2652218,0.07848345,-0.3524201,0.03207117,0.1029194
1.367437,-0.02109737,-0.2288554,0.3693551,0.2229334,-0.1118581,-0.5665655,0.06092239,0.3110217
1.468948,-0.3246108,-0.4846311,0.4711493,-0.08056714,-0.3674205,-0.510867,0.2231848,0.4771852
1.356783,-0.5658056,-0.4765206,0.3592226,-0.3217874,-0.3591317,-0.3179194,0.3381956,0.5706674
1.012206,-0.5218543,-0.196437,0.01482119,-0.2778891,-0.07888749,-0.05931311,0.5345477,0.33903
0.724687,-0.4394263,-0.03219954,-0.2725891,-0.195526,0.08550415,0.2159335,0.6988729,-0.1056211
0.7989808,-0.4074833,-0.09730395,-0.198244,-0.1636464,0.02054947,-0.02258845,0.4776608,-0.2318144
1.000554,-0.2676347,-0.1755756,0.00333608,-0.02385085,-0.0575781,-0.3680589,0.0685815,-0.1623067
1.005836,-0.2833475,-0.2025674,0.008587622,-0.0396017,-0.0844308,-0.1765719,-0.1605164,-0.03709402
1.061909,-0.4584738,-0.2470176,0.06459866,-0.2147485,-0.1287433,0.0313578,-0.1691422,0.1245595
1.051013,-0.4360677,-0.2196265,0.05360756,-0.1923401,-0.1012112,0.2444569,-0.1235477,-0.007255514
0.8559235,-0.4098953,-0.1224098,-0.1416072,-0.1661352,-0.003845765,0.5845596,-0.2187937,-0.2447015
0.8796583,-0.3902794,-0.1478688,-0.1180241,-0.1464494,-0.02914618,0.5736326,-0.3438106,-0.2774382
0.8489242,-0.2249977,-0.1723786,-0.1489282,0.01894357,-0.05348702,0.4254587,-0.3717001,-0.175523
0.7137751,-0.1407451,-0.1449261,-0.2842559,0.1033485,-0.02585466,0.315616,-0.4341524,0.01771424
0.8010648,-0.1475989,-0.1944771,-0.1971419,0.09668278,-0.075214,0.1722561,-0.4675047,0.1578232
0.8372983,-0.1954639,-0.1979504,-0.1610694,0.04903403,-0.07848233,0.196637,-0.4050334,0.2039876
0.8992296,-0.1900391,-0.2254225,-0.09927594,0.05469687,-0.1057339,0.1713361,-0.2929786,0.2670965
0.9897719,-0.1541656,-0.2728214,-0.008842938,0.09082464,-0.1528935,0.08781636,-0.07782447,0.2842211
0.9122075,-0.1994562,-0.2017545,-0.08648647,0.04579926,-0.08156432,0.09759866,0.03629763,0.2606857
0.8862631,-0.1365043,-0.1590407,-0.1124784,0.1090222,-0.03856231,0.06041918,-0.05324498,0.2774845
0.8870465,-0.1031513,-0.1465187,-0.1117085,0.1426463,-0.0257254,0.08488821,-0.06888355,0.3206585
0.8903423,-0.1193355,-0.1302643,-0.1083891,0.1267266,-0.009130214,0.09037681,-0.01217727,0.3725044
0.9328583,-0.04886228,-0.1190647,-0.06580963,0.1974502,0.002434005,0.02242348,-0.006483986,0.3802357
0.9442767,-0.06804044,-0.0890358,-0.05428655,0.1785004,0.03284882,0.02094018,0.02871322,0.3016492
0.9646018,-0.09837464,-0.1094411,-0.03381572,0.1483644,0.0128474,0.05692691,0.05117199,0.1681577
0.9671258,-0.164614,-0.1183529,-0.03110576,0.08228651,0.004354015,0.2388415,0.03982218,0.0748279
0.9971662,-0.2696678,-0.1212442,-0.0008411947,-0.02264563,0.001892947,0.4842009,0.1088891,0.1268743
1.069141,-0.2779012,-0.1514928,0.07139345,-0.03079657,-0.02791565,0.5570264,0.1676357,0.1583646
1.122258,-0.2514557,-0.1354074,0.1247999,-0.004304759,-0.0113818,0.3896785,0.107978,-0.05141712
1.199267,-0.1555479,-0.1110557,0.2021201,0.09161602,0.01342561,0.1251958,0.0546388,-0.3064593
1.311032,-0.1141459,-0.07160012,0.3142073,0.1329977,0.05334216,0.06919218,0.08117462,-0.3701788
1.405643,-0.225174,-0.03312727,0.4091361,0.02191385,0.09227776,0.147728,0.1165396,-0.3317277
1.394347,-0.3955292,-0.07223899,0.398135,-0.1485322,0.05362593,0.1216322,0.1064927,-0.3627446
1.28467,-0.5041764,-0.185776,0.2887115,-0.2572995,-0.05945783,-0.1607272,0.02657815,-0.4286502
1.153316,-0.4379879,-0.3307807,0.1575549,-0.1912488,-0.2040159,-0.6206161,-0.1170834,-0.4017303
1.065779,-0.4042802,-0.3611111,0.07015122,-0.1576844,-0.2339009,-0.7509956,-0.1846454,-0.4099033
1.080643,-0.4431661,-0.292589,0.08508138,-0.1967085,-0.1649255,-0.4874279,0.02510933,-0.496526
1.134264,-0.4253054,-0.2686919,0.1387015,-0.1789717,-0.1405594,-0.1845055,0.4506942,-0.4923186
1.153958,-0.4504688,-0.1812316,0.1583266,-0.2042358,-0.05260885,0.06281639,0.6939682,-0.4145834
1.058708,-0.4609599,-0.05410792,0.06293826,-0.2147958,0.0750276,0.1359506,0.5995387,-0.2946544
0.8446289,-0.3677618,-0.05011442,-0.1513471,-0.1216268,0.07955344,-0.02184548,0.4186382,-0.1870903
0.7258807,-0.2328558,-0.06864834,-0.2703621,0.01329478,0.06156545,-0.2471603,0.190165,-0.1206634
0.7537447,-0.1677324,-0.07055901,-0.2428108,0.07847822,0.06020821,-0.5018387,-0.03414358,-0.02715406
0.811292,-0.2243217,-0.09712456,-0.1856058,0.02198888,0.03419846,-0.6346194,-0.06152845,0.001162713
0.8630076,-0.2993625,-0.09105178,-0.1342482,-0.05291693,0.04082521,-0.4095466,-0.04589773,0.01939121
0.8746728,-0.3684729,-0.07752279,-0.1229459,-0.1218594,0.05490277,-0.1300028,-0.03742992,0.0896086
0.8548534,-0.4095341,-0.06984808,-0.1431248,-0.1627182,0.06311705,-0.05283362,0.03017878,0.09487903
0.8414557,-0.3512738,-0.05353291,-0.1568706,-0.1042177,0.07995891,-0.04451066,0.03253127,0.08073863
0.8303523,-0.2812555,-0.0428246,-0.1683031,-0.03391849,0.09117681,-0.09659709,0.002348009,0.05726966
0.8254275,-0.2193208,-0.02547344,-0.1735302,0.02833762,0.1090159,-0.1061333,-0.07794504,0.04150432
0.8411402,-0.131134,0.001510586,-0.1580851,0.1168824,0.1364611,-0.06337545,-0.2424212,0.09004596
0.8566332,-0.09857982,0.04655264,-0.1428188,0.1498242,0.1819318,-0.03917191,-0.3266417,0.1374571
0.8437668,-0.09123162,0.0657527,-0.1558651,0.1575799,0.201521,0.05151655,-0.3465712,0.1593917
0.844148,-0.064729,0.04984411,-0.1556122,0.1844994,0.1859544,0.07157177,-0.355433,0.1194691
0.8912479,-0.04426502,0.04500661,-0.1085848,0.205379,0.1814042,-0.01819389,-0.2745683,0.04530647
0.977375,-0.02779187,0.005922818,-0.02247194,0.2222555,0.142547,-0.2033277,-0.1745649,0.01013427
1.081766,-0.09062386,-0.04126471,0.08196168,0.1598038,0.09552112,-0.5048449,-0.171786,0.01980487
1.149035,-0.2016318,-0.05822429,0.1493249,0.04914469,0.07865611,-0.6031104,-0.26252,0.1069448
1.191473,-0.2670202,-0.08246959,0.1918989,-0.01593025,0.05443832,-0.3886538,-0.328776,0.1604317
1.258324,-0.2882851,-0.07699833,0.2589164,-0.03691702,0.05987124,-0.1477956,-0.2456682,0.06554091
1.349936,-0.2118874,-0.08394603,0.3507088,0.03972586,0.05282118,-0.0837963,-0.1599952,0.02034445
1.519592,-0.1415047,-0.1874062,0.520543,0.1103219,-0.05080262,-0.09092995,-0.1789502,0.2642766
1.701046,-0.2690414,-0.3229694,0.7021487,-0.0170342,-0.1865851,0.1073352,0.01201448,0.5632193
1.591545,-0.5268857,-0.3669608,0.5927447,-0.2747291,-0.230841,0.4584786,0.5395399,0.5312858
1.199571,-0.68127,-0.2740342,0.2007869,-0.4289855,-0.1382109,0.5769233,0.9478643,0.3462346
0.8183062,-0.5599626,-0.12576,-0.1805545,-0.3075548,0.009746386,0.3530695,0.875077,0.1229351
0.5907226,-0.3232002,0.00390708,-0.4083031,-0.07065742,0.1390814,-0.03003044,0.5733917,-0.2722375
0.6723197,-0.2067209,0.0313407,-0.3269398,0.04597736,0.1661669,-0.4590125,0.2063966,-0.4421502
0.8671709,-0.1737379,-0.0720734,-0.1323697,0.07913638,0.06238424,-0.5694919,-0.3329459,-0.2342457
0.9549009,-0.2563874,-0.1684083,-0.04495174,-0.00332075,-0.03434217,-0.2636533,-0.5516719,-0.07135019
1.112602,-0.4241405,-0.2462911,0.1124141,-0.1708672,-0.1126377,0.02127113,-0.281784,-0.0194465
1.087822,-0.4747671,-0.2762001,0.08727705,-0.2212704,-0.1429745,0.3696917,-0.1281306,-0.03238533
0.9289788,-0.4335081,-0.1972104,-0.07194487,-0.1797641,-0.06441981,0.6261686,-0.07866161,-0.1511911
0.9071037,-0.3363265,-0.1639893,-0.09421885,-0.08230452,-0.03163433,0.4884523,-0.06869633,-0.2216919
0.7618779,-0.2014814,-0.1647828,-0.2398567,0.05285247,-0.03285983,0.370975,-0.2443919,-0.203261
0.7333787,-0.1481598,-0.1609683,-0.2687704,0.1065177,-0.02947098,0.1808068,-0.356227,-0.1233701
0.842435,-0.1627381,-0.2096572,-0.1601181,0.09230827,-0.07857648,-0.01670545,-0.4069439,0.02927936
0.8505342,-0.1956623,-0.2286117,-0.1524015,0.05977081,-0.09793507,0.07461983,-0.3560577,0.1745369
0.9515969,-0.2071922,-0.2353985,-0.05169212,0.0486391,-0.105109,0.0506689,-0.1557791,0.2574659
0.937245,-0.1958273,-0.228415,-0.06636396,0.06040885,-0.09849089,0.03501734,-0.02697279,0.2485953
0.8686964,-0.1799926,-0.1887153,-0.1351965,0.07665029,-0.05913036,0.09693915,0.04908674,0.2218449
0.9022056,-0.1424111,-0.1667087,-0.1019322,0.1146356,-0.03743368,0.03774355,0.0146027,0.2465429
0.8731369,-0.1197528,-0.1319358,-0.1312031,0.1376888,-0.002940256,0.07935485,-0.0348397,0.2500947
0.9252871,-0.09757473,-0.1185359,-0.0792088,0.160246,0.01021016,0.08844831,-0.000497225,0.2682391
0.9693003,-0.09252585,-0.1063647,-0.03530352,0.1656508,0.02216061,0.1034594,-0.04549552,0.2983284
0.9683398,-0.1312124,-0.0813805,-0.03632359,0.1272898,0.04695013,0.2517704,0.02670693,0.2746463
1.007007,-0.1870889,-0.0889802,0.002331063,0.07170241,0.03917894,0.4252889,0.1390656,0.2233384
0.9937498,-0.2584121,-0.08590884,-0.01089488,0.000628932,0.04209865,0.7088882,0.1049273,0.1307547
1.03953,-0.2611033,-0.1224426,0.03495785,-0.001851955,0.005430219,0.8174119,0.1185347,0.07509615
1.108051,-0.1942285,-0.1657559,0.1035884,0.06519508,-0.03800268,0.5437678,0.1196354,0.04631857
1.155125,-0.1371726,-0.1319041,0.1508029,0.1223855,-0.004255705,0.1514216,0.0963888,-0.1754418
1.229842,-0.1411024,-0.066288,0.2256809,0.1185505,0.0612699,-0.007503189,0.1221497,-0.4927712
1.299662,-0.2663184,0.03590051,0.2956712,-0.00661293,0.1633796,0.28187,0.2046353,-0.6032011
1.376733,-0.4460184,0.06992276,0.3729079,-0.1863013,0.1973284,0.5419155,0.3323344,-0.5748506
1.327609,-0.5238829,-0.09633259,0.3239269,-0.2641877,0.03099732,0.3158992,0.2422783,-0.5931873
1.145182,-0.4035561,-0.3307463,0.141606,-0.1439039,-0.2034982,-0.1480851,-0.1465942,-0.5599713
1.015866,-0.2922782,-0.4258451,0.01235023,-0.03267929,-0.2986804,-0.576732,-0.6311271,-0.4473541
1.084103,-0.3826437,-0.3853702,0.08059919,-0.1231015,-0.2582788,-0.6075761,-0.7472315,-0.3950258
1.275828,-0.4691645,-0.3165361,0.2722861,-0.2096768,-0.1894952,-0.05647109,-0.1074048,-0.4680084
1.270278,-0.4975003,-0.1991633,0.2666442,-0.2380566,-0.07214051,0.3908387,0.6615259,-0.5952817
1.055824,-0.4840377,-0.07465627,0.05203711,-0.2246173,0.05238495,0.3604568,0.8310945,-0.5419876
0.7830596,-0.3316766,-0.03965255,-0.2209444,-0.07224944,0.08744187,0.2055826,0.6765528,-0.3175583
0.6469643,-0.1674201,-0.04958023,-0.3573105,0.09204835,0.07759679,-0.04104337,0.461002,-0.1188509
0.7677818,-0.08836743,-0.08090098,-0.2368008,0.1711741,0.04638184,-0.3884808,0.09195836,-0.02495835
0.8326009,-0.1462628,-0.1175646,-0.1723089,0.1133759,0.009842215,-0.5852362,-0.0830742,-0.05428414
0.871542,-0.2981661,-0.1096413,-0.1337011,-0.03841417,0.01790435,-0.4894914,0.05833418,0.0053486
0.9465346,-0.3659044,-0.09144407,-0.0590387,-0.1060264,0.03625274,-0.2906373,0.1163893,0.0815012
0.8651769,-0.372978,-0.08552067,-0.140717,-0.1129596,0.0423369,-0.1607851,0.1779504,0.02251168
0.8525291,-0.3044628,-0.06070811,-0.15367,-0.04428649,0.06731664,-0.08384594,0.2348627,0.0485799
0.8548139,-0.199554,-0.02170742,-0.1516681,0.06079966,0.1064869,-0.1982546,0.06571803,0.03065435
0.8016206,-0.1652969,0.005529882,-0.2051148,0.09525119,0.1338911,-0.2611285,-0.06846068,-0.01130817
0.8737067,-0.1141804,0.01835747,-0.1332453,0.1465739,0.1468766,-0.1451996,-0.1905056,0.07924531
0.8887735,-0.1034412,0.03086892,-0.118352,0.1575234,0.1595301,-0.1153647,-0.313201,0.1383895
0.8742229,-0.1192567,0.04652495,-0.1330287,0.1419143,0.175305,-0.002172182,-0.297706,0.2335136
0.8885834,-0.0729979,0.05570964,-0.1187434,0.1883671,0.1845782,0.1045084,-0.3378774,0.2529701
0.8601998,-0.04764811,0.05990787,-0.1471482,0.2138901,0.1888274,0.09092529,-0.3090482,0.1204703
0.9043115,-0.03279024,0.0507702,-0.1030011,0.2288914,0.1796961,0.003378598,-0.215903,0.02249127
1.006695,-0.05449807,-0.004507001,-0.0005242747,0.2072877,0.1243749,-0.3378335,-0.2291053,-0.02571257
1.145055,-0.1260008,-0.0760837,0.1379856,0.1358418,0.05270007,-0.6120304,-0.2380735,0.07623122
1.220697,-0.2157627,-0.0793558,0.2138246,0.04608419,0.04927502,-0.552061,-0.267398,0.1953236
1.235573,-0.2697243,-0.02589018,0.2289331,-0.007926552,0.1025338,-0.3191393,-0.1739846,0.1646775
1.318359,-0.1728682,-0.009195298,0.3119729,0.08882866,0.1189685,-0.1659947,0.04340727,0.0878173
1.329395,-0.04611454,-0.07957465,0.3232678,0.2154305,0.0482752,-0.276175,0.1193003,0.004851119
1.396143,-0.04216307,-0.2348721,0.3902613,0.2191762,-0.1073884,-0.4071071,0.06637581,0.08176836
1.531425,-0.3027072,-0.4073664,0.5257574,-0.04163202,-0.2802941,-0.3871776,0.06610683,0.3052179
1.40845,-0.7370941,-0.4723868,0.4029449,-0.476338,-0.3457571,-0.1934216,0.3711916,0.4453716
1.232948,-0.8241791,-0.3994509,0.2275338,-0.56378,-0.2732773,0.2022927,0.7587408,0.3964565
1.052435,-0.5985283,-0.2433,0.04702997,-0.338498,-0.1175791,0.3910352,0.8745878,0.1315811
0.6802774,-0.3741189,-0.04048176,-0.3251998,-0.1144457,0.08480032,-0.03802537,0.833251,-0.1716606
0.5744352,-0.1576236,0.04275037,-0.4311835,0.1017157,0.1676088,-0.6114195,0.4103667,-0.2950317
0.8371183,-0.2079252,-0.1018216,-0.16869,0.05110509,0.02262407,-0.6490045,-0.3228134,-0.1271422
1.043783,-0.4140031,-0.2586629,0.03775465,-0.1552593,-0.1346219,-0.4032874,-0.4831851,0.1372156
1.193444,-0.4193257,-0.3098357,0.1871718,-0.1608444,-0.1861887,-0.1151185,-0.1695957,0.1639361
1.142384,-0.4562181,-0.2723627,0.1358422,-0.1979691,-0.1490915,0.3426763,-0.1427485,-0.02409892
0.8973779,-0.4991942,-0.156988,-0.1094621,-0.2411395,-0.03406729,0.6314093,-0.1671324,-0.2733871
0.861872,-0.3737682,-0.1342668,-0.1452925,-0.1158616,-0.01166714,0.6032649,-0.1581265,-0.2953485
0.8088642,-0.245398,-0.1679996,-0.1986433,0.01241176,-0.04569084,0.4839523,-0.3377844,-0.09721693
0.7407428,-0.1390742,-0.1683582,-0.2671148,0.1186894,-0.04630989,0.3542099,-0.3439998,-0.00795714
0.8631732,-0.1292155,-0.2133835,-0.1450291,0.1285463,-0.09156421,0.3035905,-0.309188,0.1067077
0.875587,-0.166256,-0.2119681,-0.132944,0.09153986,-0.09034455,0.333145,-0.3586963,0.2102795
0.9301499,-0.1355714,-0.2005213,-0.07868653,0.1222858,-0.07905772,0.320149,-0.194023,0.209854
0.9880843,-0.1489693,-0.2231779,-0.02102983,0.1089686,-0.1018362,0.2710578,-0.04245202,0.2487921
0.8902277,-0.1265047,-0.1885162,-0.1191342,0.1315258,-0.06725621,0.238243,-0.03671397,0.2343789
0.915067,-0.09289369,-0.1717658,-0.09451032,0.1652338,-0.05054584,0.1977058,-0.07002793,0.2742923
0.9204573,-0.1095612,-0.1585194,-0.08930008,0.1486595,-0.03729758,0.1781565,-0.0680114,0.3176451
0.9246875,-0.08572274,-0.1231421,-0.08521175,0.1725794,-0.001877571,0.1761037,-0.02052905,0.2618965
0.9969549,-0.08936346,-0.1064231,-0.01304637,0.1690007,0.01492312,0.1667504,-0.01980501,0.2753538
0.983281,-0.111324,-0.1013928,-0.02678242,0.1470754,0.02007075,0.2508817,0.04867153,0.2239786
1.000629,-0.1525978,-0.1235246,-0.009458057,0.1058041,-0.001911517,0.4101005,0.1202579,0.1472571
1.006664,-0.2060227,-0.1320927,-0.00340954,0.05234474,-0.0103012,0.536824,0.121697,0.1507893
1.028487,-0.1932121,-0.1550142,0.01846097,0.06508262,-0.03301749,0.551139,0.141941,0.1341671
1.078808,-0.1578834,-0.1843435,0.06886004,0.1002995,-0.06211615,0.3484977,0.1054624,0.09253441
1.100675,-0.1226677,-0.1536326,0.09083138,0.1353631,-0.03114952,0.02745989,0.06581832,-0.05643437
1.23519,-0.1593082,-0.09935642,0.2254708,0.09852784,0.02340687,-0.05466839,0.08544632,-0.233379
1.348512,-0.2916259,-0.0172693,0.3389248,-0.03402852,0.105796,0.3134086,0.1716701,-0.312634
1.365829,-0.4229851,0.00855398,0.3563685,-0.1656675,0.1319374,0.6587867,0.273251,-0.3790125
1.327944,-0.4440945,-0.08990973,0.3185883,-0.1870896,0.03380107,0.4252141,0.2299847,-0.458433
1.151321,-0.2984556,-0.2365449,0.1420318,-0.04178572,-0.1125023,-0.1845372,0.02545914,-0.4528897
0.9526269,-0.2064,-0.3670514,-0.05664226,0.04992018,-0.2426715,-0.8220283,-0.2672413,-0.3950931
0.934553,-0.3013417,-0.3523761,-0.0747415,-0.04538259,-0.2276466,-1.044423,-0.3744522,-0.4423297
1.116529,-0.4439054,-0.2561943,0.1071674,-0.1883154,-0.1310942,-0.5700861,-0.1026218,-0.4529977
1.215743,-0.5446031,-0.2209388,0.2062746,-0.2893826,-0.09544024,-0.02341482,0.3157754,-0.3873897
1.111557,-0.5354469,-0.1395167,0.1019392,-0.2805839,-0.01358933,0.2940772,0.6154057,-0.3755636
0.9504388,-0.430859,-0.06663765,-0.05937474,-0.1763282,0.0597483,0.3664477,0.6157241,-0.2985027
0.7646665,-0.2842556,-0.0709404,-0.245385,-0.03002136,0.05592976,0.008137414,0.3334847,-0.206404
0.7091323,-0.1270474,-0.05388027,-0.3011887,0.1269288,0.07349394,-0.2787775,0.01526648,-0.1349098
0.8174553,-0.1086324,-0.07427958,-0.1931514,0.1451207,0.05361246,-0.4250424,-0.1811309,-0.0516116
0.9076347,-0.2303392,-0.1100705,-0.1032603,0.02321855,0.01834773,-0.4992301,-0.157957,-0.01030509
0.9732291,-0.320755,-0.1014009,-0.03794778,-0.0673701,0.02754794,-0.2435398,0.04111395,0.05882562
0.9903176,-0.3436393,-0.09892616,-0.02113033,-0.09040513,0.03055437,-0.125532,0.2042387,0.06877033
0.9450195,-0.2933724,-0.07673219,-0.06668636,-0.04026515,0.05327803,-0.1561957,0.2536586,0.0453462
0.9188412,-0.2077342,-0.05322484,-0.09310745,0.04527134,0.07730947,-0.2305734,0.206607,0.07477628
0.8961334,-0.1800626,-0.02451512,-0.116039,0.07286495,0.1065332,-0.3984906,0.1244365,0.06977629
0.8742607,-0.1649541,0.01748436,-0.1381121,0.08791502,0.1490312,-0.2716639,0.007129415,0.1085525
0.8859436,-0.1496494,0.02116968,-0.1266009,0.1031756,0.1531927,-0.1476149,-0.1419892,0.1392482
0.8717658,-0.1387656,0.03218818,-0.1409166,0.1140237,0.1646579,-0.08969772,-0.1738458,0.1232087
0.8334173,-0.08361187,0.04730747,-0.1793642,0.1691436,0.1801869,0.04079257,-0.2083107,0.1229442
0.8375325,-0.03529998,0.04181019,-0.1753033,0.2174163,0.1750553,-0.02511897,-0.2836818,0.07234063
0.8764593,-0.01077273,0.01976076,-0.1363808,0.2418894,0.1533207,-0.1137088,-0.2303106,0.04102854
0.9680305,-0.03208577,-0.02987983,-0.04475987,0.2204973,0.1039386,-0.2903116,-0.1508029,0.03262226
1.083934,-0.1186197,-0.05001327,0.07124738,0.1338501,0.08400429,-0.5279316,-0.04745251,0.02858939
1.129525,-0.1959931,-0.0570169,0.1169913,0.05632327,0.07713892,-0.5363134,-0.02193137,0.04978927
1.120362,-0.2269761,-0.06361812,0.108023,0.02514475,0.0706149,-0.3779942,-0.1555848,0.02671168
1.135387,-0.155556,-0.01296351,0.1232753,0.09632772,0.1212857,-0.1414328,-0.1730079,0.00591581
1.175767,-0.009637373,0.03013796,0.1639058,0.241967,0.1643415,-0.120525,-0.08819449,-0.03277732
1.188529,0.08163951,-0.005270726,0.1769311,0.3329174,0.128823,-0.3828521,-0.0128578,-0.04540922
1.276073,-0.007446386,-0.1321143,0.2647403,0.2434487,0.001804108,-0.6265996,0.02493075,0.1086484
1.454555,-0.3442182,-0.3474104,0.4434777,-0.09376902,-0.21373,-0.6551644,0.08582801,0.291536
1.46855,-0.6381395,-0.4657669,0.4576986,-0.3881962,-0.3323764,-0.3609856,0.371294,0.3536794
1.300575,-0.6370622,-0.3080959,0.2899017,-0.3876687,-0.175031,0.1043386,0.7244553,0.3036925
1.08546,-0.582346,-0.1177277,0.07490239,-0.3335237,0.01499048,0.3738894,0.9157793,0.09652303
0.8603732,-0.5132626,-0.1176049,-0.1501375,-0.2650116,0.01475304,0.06232523,0.8395253,-0.2408136
0.7773603,-0.2378037,-0.1372771,-0.2331648,0.009891353,-0.00529034,-0.4643064,0.4249482,-0.3185859
0.8338196,-0.1135057,-0.1700545,-0.1767693,0.1336554,-0.03844802,-0.517194,-0.05132919,-0.008814684
0.8857678,-0.2738705,-0.2559216,-0.1249206,-0.0272222,-0.1247013,-0.3807707,-0.1452483,0.1743192
0.9645786,-0.3642385,-0.2328114,-0.04623464,-0.1180835,-0.1019778,-0.1098961,0.02314946,0.06232404
1.010388,-0.5427996,-0.1385165,-0.0005689261,-0.2971146,-0.008064519,0.5246662,-0.08916825,-0.175832
0.9428383,-0.652776,-0.07018346,-0.06827674,-0.4075272,0.05989548,0.9572428,-0.2650987,-0.4586171
0.87728,-0.4128381,-0.07028283,-0.134004,-0.1679775,0.05943114,0.9498533,-0.2869743,-0.503311
0.8443049,-0.2463899,-0.1330434,-0.1671527,-0.001858785,-0.00368805,0.8006781,-0.401344,-0.2742257
0.830156,-0.1281796,-0.1562843,-0.1814714,0.1160825,-0.02728216,0.6681693,-0.3426653,-0.05558212
0.8590709,-0.03798728,-0.1749505,-0.1527138,0.2060601,-0.04629481,0.5535109,-0.2659847,0.09213128
0.8857528,-0.1103466,-0.1841358,-0.1261687,0.1335299,-0.0558178,0.4343538,-0.3335805,0.212501
0.9317648,-0.08891545,-0.1613808,-0.08026731,0.1548231,-0.03338881,0.357674,-0.2448038,0.2462899
0.9755971,-0.1040765,-0.1744902,-0.03651551,0.1395472,-0.04681045,0.2712907,-0.218418,0.1927393
0.9511993,-0.1511143,-0.1573297,-0.06096226,0.09240896,-0.02994621,0.233272,-0.1939344,0.1618862
0.9506848,-0.1186037,-0.1346356,-0.06149364,0.1248267,-0.007531194,0.2279704,-0.103473,0.1763894
0.9828739,-0.131702,-0.147944,-0.02928876,0.1116368,-0.02110061,0.1475395,-0.08644215,0.1838939
0.9827021,-0.0831516,-0.1183642,-0.02941224,0.1600909,0.008236186,0.1303901,-0.02075547,0.1969406
0.9758911,-0.04709221,-0.08414738,-0.03614301,0.1960426,0.04222739,0.1348905,-0.04820548,0.2509128
0.9556805,-0.05780938,-0.06498394,-0.05624226,0.1851986,0.0611808,0.1353437,-0.06949239,0.3075847
0.9441109,-0.04954385,-0.05469705,-0.06766955,0.1933103,0.07127013,0.2002362,-0.02137435,0.3117959
0.9618986,-0.0978075,-0.07170136,-0.04970826,0.1448586,0.0540772,0.2616861,-0.05923156,0.2740538
0.9768961,-0.1302565,-0.09716608,-0.03450567,0.1121818,0.02842966,0.3536078,-0.03863523,0.1901327
0.9988925,-0.1486633,-0.1421022,-0.01227355,0.09350438,-0.01668533,0.3894151,-0.02737096,0.1083755
1.029058,-0.1532585,-0.1749652,0.01815662,0.08859392,-0.04972339,0.3024448,-0.02844315,0.09440278
1.073174,-0.1367564,-0.1671009,0.06256284,0.1047353,-0.04202862,0.1960094,0.002636832,0.04643692
1.134438,-0.1476445,-0.131659,0.1241386,0.09344041,-0.006748888,0.1417589,-0.04655183,-0.09375504
1.185151,-0.139176,-0.07257461,0.175177,0.1014554,0.05218162,0.2399387,-0.04215301,-0.1810927
1.226318,-0.1805775,-0.03115654,0.2166723,0.05955362,0.09345272,0.4666384,0.06366865,-0.1858856
1.263434,-0.2758512,-0.02886118,0.2541111,-0.03626602,0.09560449,0.6212913,0.1450999,-0.3071414
1.286332,-0.3235826,-0.05338268,0.2773113,-0.08458472,0.07093849,0.446456,0.03851513,-0.5042139
1.229753,-0.3124329,-0.1248093,0.2210035,-0.07405655,-0.0006369506,-0.03682452,-0.2125986,-0.5186537
1.05885,-0.2953623,-0.2801661,0.05032913,-0.05763401,-0.156147,-0.4759962,-0.3329665,-0.4569666
0.9451351,-0.3579713,-0.4251525,-0.06320386,-0.1209099,-0.3012859,-0.5835978,-0.2762131,-0.5136483
1.036014,-0.4353495,-0.3922758,0.02781291,-0.1989654,-0.2685501,-0.2301488,0.0220334,-0.5560144
1.148965,-0.4897663,-0.2505792,0.1408585,-0.2540593,-0.1269703,0.2303126,0.4912103,-0.5426934
1.102484,-0.5132371,-0.1460063,0.0944307,-0.2781935,-0.02248177,0.4064224,0.7154989,-0.5059884
1.026711,-0.3966969,-0.07741093,0.01866491,-0.1622898,0.04606386,0.433946,0.6297156,-0.3462233
0.9619215,-0.1985801,-0.04904841,-0.04616221,0.03522734,0.07440874,0.2183227,0.4228408,-0.1597446
0.8734301,-0.02085565,-0.05868939,-0.1347311,0.2123906,0.06477735,-0.2823976,0.1272169,-0.06221875
0.8824313,0.02355928,-0.0911747,-0.1258404,0.2562763,0.03232365,-0.715944,-0.06661603,0.001861579
0.9301988,-0.1070045,-0.1282647,-0.07820803,0.1252042,-0.004716692,-0.8504213,0.01727816,0.05712456
0.9473369,-0.2066515,-0.1148751,-0.06122208,0.02506075,0.008738081,-0.5619969,0.1269006,0.116129
0.9538318,-0.2542036,-0.07316983,-0.05489087,-0.02297969,0.05052214,-0.2100004,0.1671086,0.1333689
0.9140221,-0.3232535,-0.043989,-0.09487127,-0.09250963,0.07979259,-0.159789,0.2357641,0.1119894
0.9064896,-0.2693767,-0.03831183,-0.1025764,-0.03910126,0.08556601,-0.1701078,0.1874874,0.1199288
0.8974488,-0.1437227,-0.03341582,-0.1117864,0.08609838,0.09056006,-0.1619339,0.08855645,0.1462965
0.8771201,-0.1585474,0.009349092,-0.1322749,0.07083297,0.1334196,-0.1490433,-0.02260463,0.2144073
0.9219616,-0.1905345,0.01943507,-0.08757819,0.03841577,0.143591,-0.05431863,-0.1521959,0.2840448
0.9257148,-0.1323276,0.0105395,-0.08394995,0.09620038,0.1347652,0.03627778,-0.1267134,0.2751934
0.9005053,-0.1223687,0.03658525,-0.1092607,0.1057418,0.1608588,0.07147646,-0.155718,0.2205328
0.8867137,-0.09478577,0.03272542,-0.1231263,0.1329077,0.1570187,0.03858801,-0.2589147,0.1598159
0.8821729,-0.01614885,0.02867123,-0.1277097,0.2111225,0.1529501,-0.005490873,-0.2544902,0.1089715
0.9033732,0.03629682,0.03640002,-0.1065165,0.2631335,0.1606247,-0.05956128,-0.2534039,0.07310776
0.8850683,-0.07008021,-0.0891083,-0.1263078,0.1401814,0.005454689,-0.5026907,0.09795342,-0.1509378
0.9585166,-0.1562038,-0.1143786,-0.05286408,0.05494257,-0.01875843,-0.9512744,0.09157741,-0.02453096
1.04642,-0.1891496,-0.1150993,0.0350398,0.02290845,-0.01840164,-0.9430333,0.1849915,0.04904384
1.050271,-0.2821032,-0.1203728,0.03889627,-0.06911308,-0.022581,-0.756871,0.3410863,0.07275176
0.976767,-0.3551358,-0.08719269,-0.03459702,-0.1411957,0.01170649,-0.7276994,0.3798403,0.09366672
0.9654187,-0.3496023,-0.06223123,-0.04593114,-0.1346933,0.03778475,-0.692979,0.3745878,0.09282234
0.9395978,-0.348762,-0.06313679,-0.07173252,-0.1328628,0.03800059,-0.736291,0.2840599,0.07443375
0.8839437,-0.2782152,-0.03920335,-0.1273588,-0.06130219,0.06305466,-0.7642417,0.194622,0.1146409
0.9020649,-0.2616629,-0.03733029,-0.1091974,-0.04371196,0.06604195,-0.7001344,0.2021092,0.1567409
0.9259726,-0.3046664,-0.03684168,-0.0852324,-0.08565458,0.06763262,-0.651774,0.1984582,0.1603903
0.9374381,-0.2498778,-0.01558742,-0.07368899,-0.02978374,0.08997107,-0.574526,0.1631142,0.1533327
0.9379592,-0.246593,0.003654572,-0.07306681,-0.02539713,0.1102735,-0.5157046,0.06746079,0.1235676
0.9190854,-0.2238225,0.01696303,-0.09181417,-0.001507935,0.1246124,-0.488666,-0.03178001,0.1122751
0.9229473,-0.1512038,0.01182054,-0.0877986,0.07224207,0.1204637,-0.4647338,-0.08065161,0.1053569
0.9242086,-0.1542594,0.01117355,-0.08635429,0.07032492,0.1207677,-0.4669157,-0.09352095,0.08998475
0.925897,-0.09951027,0.01097034,-0.08445157,0.1262124,0.1214669,-0.4754314,-0.1034991,0.09878254
0.918562,-0.06265686,5.224184e-05,-0.09153933,0.1641956,0.1113974,-0.5221609,-0.1726092,0.1080795
0.9074875,-0.07373589,-0.01488018,-0.1023323,0.1542282,0.09725546,-0.5950717,-0.1929687,0.129539
0.9572634,-0.08144403,-0.03814409,-0.05223888,0.1476039,0.07472073,-0.6659295,-0.1421843,0.1469008
1.031658,-0.1776129,-0.04510906,0.02250862,0.05248294,0.06842159,-0.7080642,-0.07375389,0.13674
1.069112,-0.2480792,-0.03481389,0.06034876,-0.0169764,0.07931808,-0.6437101,-0.0106628,0.1046136
1.05831,-0.2545942,-0.02335192,0.0499612,-0.02252667,0.091316,-0.5018074,-0.04661455,0.0426644
1.03547,-0.1972205,-0.005164797,0.02755809,0.03577011,0.1099725,-0.3827481,-0.1195733,0.009733016
1.023148,-0.069089,0.01298484,0.01569004,0.1647823,0.1285233,-0.4114716,-0.2040899,0.02850775
1.024188,0.005685752,-0.0124246,0.01719841,0.2403909,0.1034447,-0.6060499,-0.3159167,0.1224086
1.138492,0.0006276647,-0.09782047,0.1319793,0.2361111,0.0183083,-0.7702179,-0.3227888,0.3189872
1.353524,-0.1212272,-0.1845961,0.3474921,0.11497,-0.06827755,-0.7672149,-0.09309976,0.442212
1.447271,-0.3153712,-0.2467653,0.4417083,-0.07852989,-0.1303208,-0.6247287,0.3930214,0.3960213
1.321518,-0.4679045,-0.2632747,0.3163945,-0.2304862,-0.1467594,-0.4059603,0.748634,0.3315408
1.121275,-0.5215048,-0.1735966,0.1165442,-0.2835663,-0.05705549,-0.1425503,0.6680756,0.2528873
0.9654148,-0.4442367,-0.03261465,-0.03897812,-0.2058203,0.08391464,-0.009340599,0.5144168,0.07871526
0.8738821,-0.3431343,0.01270355,-0.130228,-0.1042688,0.1291858,-0.1736413,0.4166258,-0.09065745
0.8676336,-0.250337,-0.04449749,-0.1362419,-0.01104252,0.071901,-0.3573655,0.1107121,-0.1554792
0.8587623,-0.2076449,-0.123451,-0.1449175,0.03206202,-0.007174526,-0.4079959,-0.1917145,-0.02386445
0.8602569,-0.3043965,-0.2483649,-0.1432567,-0.06429278,-0.1322469,-0.4840732,-0.2264251,0.2277658
0.9661266,-0.4329599,-0.3358845,-0.03724208,-0.1924732,-0.2199545,-0.4731212,-0.03910843,0.2695401
1.014013,-0.5374913,-0.2759209,0.01077331,-0.2966287,-0.1601981,-0.3221277,0.261722,0.1188938
0.9699687,-0.5635471,-0.1980174,-0.03315439,-0.3223042,-0.08251012,-0.08497285,0.3389295,-0.05508381
0.932364,-0.442441,-0.1287421,-0.07065427,-0.2008003,-0.01345129,0.1933492,0.1253752,-0.246734
0.8854165,-0.2936046,-0.07860395,-0.1175052,-0.0515386,0.03647269,0.2700566,-0.09420429,-0.2922912
0.8931128,-0.2006929,-0.1472874,-0.1097155,0.04182941,-0.03242191,0.1605755,-0.2646736,-0.2205633
0.9222819,-0.1750599,-0.1937042,-0.08045102,0.06794727,-0.07904588,0.07647368,-0.3303758,-0.1538351
0.9271626,-0.1930407,-0.19296,-0.07546834,0.05047452,-0.07850223,0.009911836,-0.2948424,0.01663919
0.9494867,-0.2031776,-0.222142,-0.05303234,0.0408627,-0.1078742,-0.06768133,-0.2425797,0.1744621
0.9446884,-0.2330445,-0.1873609,-0.05770653,0.01153322,-0.07326796,-0.1118859,-0.1567974,0.1543514
0.9324069,-0.2625796,-0.1522595,-0.06984982,-0.01745595,-0.03832281,-0.09585198,-0.1294774,0.08221802
0.9368052,-0.2468353,-0.1598888,-0.06529737,-0.001159305,-0.04608751,-0.04412982,-0.1739208,0.06942993
0.9510747,-0.2181983,-0.1492856,-0.050856,0.02803456,-0.03559759,0.02621568,-0.2142087,0.09646507
0.9828936,-0.19271,-0.1569414,-0.01884659,0.05408155,-0.04334391,0.0788492,-0.2304774,0.1477282
0.9875741,-0.1830124,-0.1609691,-0.01395678,0.06433609,-0.0474384,0.08053959,-0.191096,0.1820805
0.9786296,-0.1865156,-0.1526167,-0.02267414,0.06138384,-0.03912863,0.07990547,-0.1343015,0.1652248
0.9784444,-0.1758156,-0.1448866,-0.02261521,0.07262437,-0.03141623,0.06703773,-0.1192145,0.1437279
0.9681828,-0.1704962,-0.1252683,-0.03261653,0.0784697,-0.01179091,0.05872095,-0.1163714,0.1257736
0.9653039,-0.1720512,-0.1238796,-0.03521932,0.07742178,-0.01037093,0.1118715,-0.05464444,0.1240653
0.9768994,-0.1697661,-0.1264419,-0.02333221,0.08019112,-0.01287898,0.1964697,0.03681836,0.1317635
0.9810886,-0.1762852,-0.1242883,-0.01883637,0.07412978,-0.01064937,0.2867262,0.09134723,0.08181095
0.9667151,-0.1683532,-0.1293592,-0.0328889,0.08248969,-0.01562361,0.3195254,0.09487163,0.009011418
0.9526203,-0.1538523,-0.1340603,-0.04664888,0.09738544,-0.02020849,0.2811664,0.0554528,-0.04450794
0.960676,-0.1606221,-0.1441451,-0.03824447,0.09097411,-0.03015823,0.2615697,0.01297117,-0.0578107
0.9965537,-0.1723323,-0.1522506,-0.002004285,0.07958308,-0.03811031,0.2735975,-0.04029459,-0.04808958
1.068237,-0.1847291,-0.1528163,0.07005407,0.06746385,-0.03850427,0.2899387,-0.04875984,-0.08713915
1.152152,-0.1854302,-0.1319647,0.1543526,0.06699689,-0.01746251,0.364634,0.03451715,-0.1460359
1.208647,-0.1795711,-0.08142544,0.2112316,0.07304585,0.03328437,0.5522724,0.1021825,-0.1943223
1.269657,-0.188821,-0.02712275,0.2726164,0.06394043,0.08780985,0.6722498,0.1302321,-0.208526
1.320604,-0.1815513,-0.01291682,0.3239164,0.07130882,0.1022491,0.5354088,0.1037258,-0.2172608
1.271167,-0.1505734,-0.09035044,0.2747961,0.1023388,0.02505383,0.2305468,-0.03130732,-0.2726605
1.193399,-0.1249405,-0.2253738,0.1972958,0.1279759,-0.1097294,-0.1613377,-0.1592259,-0.25691
1.180706,-0.1707789,-0.2942873,0.1848116,0.0820916,-0.1783998,-0.4191987,-0.08621068,-0.2205995
1.165483,-0.3773029,-0.2558843,0.1697323,-0.1245282,-0.1397452,-0.2804613,0.1609005,-0.2706553
1.092546,-0.628618,-0.2117121,0.09686958,-0.375983,-0.0953067,-0.02244188,0.3792576,-0.3228047
0.981407,-0.6683434,-0.1965692,-0.0142664,-0.4158764,-0.07987837,0.2091916,0.470892,-0.4115844
0.895664,-0.5157076,-0.132404,-0.1000742,-0.2634166,-0.01540644,0.500405,0.3508417,-0.4449759
0.8384692,-0.3104558,-0.075668,-0.1573941,-0.05833187,0.04165739,0.5000725,0.1039494,-0.3050617
0.8332432,-0.07559087,-0.1036729,-0.1627946,0.1763826,0.01399895,0.2182769,-0.02208711,-0.113739
0.9129646,-0.06298415,-0.1305737,-0.08328564,0.1888528,-0.01254006,-0.07280757,0.005995517,0.06516662
0.9479455,-0.2637799,-0.1207514,-0.04854573,-0.0120727,-0.002342887,-0.3250855,0.08803741,0.08633783
0.9802992,-0.30904,-0.1289958,-0.01645506,-0.05746015,-0.01020113,-0.2985784,0.08582703,-0.01406846
1.008645,-0.3437984,-0.1336107,0.01160984,-0.09234263,-0.01442,-0.1643358,0.1297326,-0.0003116696
0.9146196,-0.375926,-0.09861084,-0.0827118,-0.1245871,0.02098427,-0.1289614,0.2486395,0.02094022
0.8872316,-0.2904468,-0.0642787,-0.1104067,-0.03921299,0.05572708,-0.0371638,0.1798982,0.04673549
0.8786722,-0.3118501,-0.03550602,-0.1192779,-0.06070605,0.08491319,0.003010055,0.1156666,0.1224366
0.8339653,-0.251183,-0.005581576,-0.1642943,-0.0001114263,0.1152489,0.03758887,0.04866805,0.104271
0.9044098,-0.1544954,-0.0101864,-0.09414935,0.09652079,0.1110472,0.030448,-0.09700936,0.1000037
0.9339737,-0.1821242,-0.01979364,-0.06486884,0.06885053,0.1018289,-0.06126098,-0.0552934,0.1539214
0.9429566,-0.1301425,-0.0153401,-0.05614901,0.1207999,0.1066515,-0.04542859,-0.01773814,0.1794339
0.9613662,-0.1483785,-0.003032671,-0.0379798,0.1025352,0.1193032,-0.06147584,-0.03083324,0.1949405
0.9139087,-0.1625907,0.02869515,-0.08565325,0.08829233,0.1513453,-0.06534259,-0.04190698,0.1791454
0.903138,-0.1063931,0.04957765,-0.09661309,0.1444522,0.1725062,-0.02112637,-0.1652945,0.1723035
0.8770015,-0.139227,0.06102578,-0.1229089,0.1115682,0.1841907,-0.04265336,-0.2221647,0.174866
0.8704895,-0.1171669,0.0674564,-0.1295464,0.1335604,0.1908088,-0.005297262,-0.2425966,0.1359529
0.8877202,-0.113809,0.05833076,-0.1124035,0.1368277,0.1818153,-0.007390115,-0.2630008,0.07135581
0.8744521,-0.1226943,0.04252646,-0.1257176,0.127824,0.166082,-0.05959615,-0.2445024,-0.02248166
0.935544,-0.09364584,0.01045618,-0.0646271,0.1567218,0.134017,-0.112163,-0.252703,-0.0671623
1.007483,-0.1297908,-0.007251246,0.007356239,0.1203894,0.1162461,-0.2078971,-0.1870999,-0.03574176
1.07898,-0.1262716,-0.009203264,0.07894109,0.1236806,0.1141604,-0.2269664,-0.1204408,-0.01983689
1.156386,-0.1386948,-0.02037836,0.1564738,0.1109859,0.1027809,-0.2346391,-0.1223079,0.007833171
1.20245,-0.1680973,0.005714993,0.2026929,0.08126668,0.128599,-0.2382182,-0.07236159,0.09507387
1.288551,-0.1662586,0.02124209,0.2889656,0.08274225,0.1437798,-0.1956765,-0.004901651,0.256993
1.399172,-0.2375616,-0.07641203,0.399761,0.01103033,0.04570821,-0.1499711,0.03540263,0.540146
1.521006,-0.340334,-0.1992256,0.5217533,-0.09219425,-0.07759167,0.03573846,0.2389143,0.6988086
1.504064,-0.4214248,-0.1979821,0.5049319,-0.1737739,-0.07689684,0.2711022,0.60293,0.3642206
1.240708,-0.3843491,-0.1008861,0.2416357,-0.1372136,0.01959673,0.2424795,0.6647364,-0.1281209
0.9311489,-0.2644213,-0.00576019,-0.06793732,-0.01781785,0.1140728,-0.1210409,0.4165534,-0.2931903
0.7680892,-0.1979064,0.03652205,-0.2310836,0.04815485,0.1556601,-0.4606597,0.08610681,-0.2916795
0.8361452,-0.1759508,-0.04266925,-0.1631763,0.06956014,0.07572801,-0.3986868,-0.4371714,-0.04593603
0.9055529,-0.287089,-0.2242607,-0.09396594,-0.04213611,-0.1066493,-0.177677,-0.6389819,0.4740807
0.8905686,-0.4453856,-0.3626966,-0.1091849,-0.2009962,-0.2459094,-0.1138862,-0.2217002,0.6204896
1.01301,-0.5202978,-0.3583058,0.01299303,-0.2764691,-0.2423684,-0.0836084,0.1593835,0.338894
1.058757,-0.5817565,-0.2604371,0.0584521,-0.3384729,-0.1453596,0.001627269,0.3161555,-0.01533956
0.9810921,-0.5402021,-0.1935004,-0.01952334,-0.2974324,-0.07928034,0.06179642,0.3160037,-0.4099691
0.9541282,-0.39132,-0.138273,-0.04681762,-0.1490188,-0.02489977,0.03553988,0.05675146,-0.5116142
0.8527392,-0.2304709,-0.08918821,-0.1485531,0.01141589,0.02335337,-0.01495297,-0.2608782,-0.28983
0.7882361,-0.1270911,-0.1350835,-0.2134112,0.1144364,-0.02335672,0.004591837,-0.4936967,-0.129097
0.8018404,-0.1688836,-0.1990878,-0.2001603,0.07233491,-0.08815702,-0.01466118,-0.5484988,0.07326563
0.8159813,-0.2201462,-0.251049,-0.1863604,0.0208068,-0.1408919,-0.1173638,-0.3757925,0.2377686
0.90086,-0.245289,-0.2915069,-0.1018004,-0.004562827,-0.1820949,-0.2157163,-0.1359028,0.1603747
0.923399,-0.2872622,-0.2508887,-0.07955134,-0.04672693,-0.1421853,-0.2842784,0.05265595,0.1234785
0.8785554,-0.247369,-0.2031161,-0.1246519,-0.006989866,-0.0950779,-0.2206485,0.09093804,0.1263305
0.8660085,-0.2260465,-0.1565746,-0.1374189,0.01421019,-0.04915339,-0.06827219,0.02859474,0.1142696
0.8620732,-0.2285009,-0.1160387,-0.1415331,0.01166503,-0.009184347,0.07774115,-0.01438775,0.2166021
0.877959,-0.1586422,-0.1311696,-0.1257805,0.08146143,-0.02483215,0.1996196,-0.06189497,0.252703
0.8802682,-0.1251071,-0.1227248,-0.1235549,0.1149584,-0.01685533,0.1828047,-0.0795249,0.2504241
0.9006032,-0.1290258,-0.1105576,-0.1032507,0.1110194,-0.005108703,0.162746,-0.05172953,0.2703159
0.9533814,-0.1361886,-0.1043826,-0.05044892,0.1038473,0.0006915005,0.2175125,0.002102364,0.2034646
0.9784002,-0.1697776,-0.07317338,-0.02535216,0.07025385,0.03156941,0.3191282,0.06820887,0.1331865
0.9842876,-0.2109917,-0.0821679,-0.01933425,0.02903553,0.02228403,0.5714152,0.08014317,0.06025754
0.9976884,-0.23381,-0.1120993,-0.005753539,0.00621075,-0.007900882,0.6962072,0.07493861,0.06858512
1.060919,-0.1834696,-0.1443654,0.05770244,0.05654093,-0.0403854,0.5609981,0.09093305,0.100875
1.127241,-0.1168471,-0.1617063,0.1242909,0.1231476,-0.0579104,0.3304143,0.068582,-0.0667646
1.181827,-0.09948647,-0.1277942,0.1791741,0.1404829,-0.02414804,0.03271133,0.04389416,-0.2608984
1.303859,-0.1369982,-0.08451853,0.3015243,0.102931,0.01901203,0.003039999,0.06696202,-0.3512555
1.415966,-0.2572479,-0.04876109,0.413955,-0.01737816,0.05468588,0.3219283,0.07231702,-0.3454885
1.405139,-0.3466985,-0.09800816,0.4034373,-0.1069076,0.005383853,0.4490201,0.06109164,-0.3519842
1.249842,-0.3238557,-0.2610054,0.2484175,-0.08415914,-0.157642,0.1375632,0.04884984,-0.4296466
1.028056,-0.299572,-0.3926816,0.02686261,-0.05997983,-0.2893176,-0.3914283,-0.001670238,-0.3504588
0.9375605,-0.3415588,-0.4107164,-0.06345375,-0.1020757,-0.3073143,-0.7825573,-0.01272032,-0.3133815
1.061286,-0.3985548,-0.3110091,0.06040172,-0.1591803,-0.2075203,-0.795038,0.09209499,-0.4976257
1.207317,-0.4656124,-0.1781733,0.2065143,-0.2263388,-0.07454077,-0.4821657,0.2867137,-0.5941445
1.193516,-0.5220632,-0.09646868,0.192746,-0.282873,0.007367728,-0.06814769,0.4664014,-0.5008869
1.04245,-0.4533291,-0.05544294,0.04165636,-0.2141938,0.04865472,0.2181449,0.507828,-0.3131152
0.8364235,-0.3042503,-0.08255767,-0.1644497,-0.06513173,0.02185303,0.3023051,0.3895684,-0.1527863
0.7752186,-0.1690309,-0.1225033,-0.225783,0.07011321,-0.01773366,0.1365499,0.1558609,-0.01334432
0.87598,-0.1264346,-0.1309785,-0.1251871,0.1127747,-0.02580862,-0.2756627,-0.05018737,0.06530644
0.8901238,-0.2134314,-0.1442796,-0.1112341,0.02587648,-0.03867126,-0.6180075,-0.06135657,0.01490305
0.8874316,-0.2261373,-0.1304026,-0.1141333,0.01329641,-0.02432016,-0.6984148,0.07333992,0.06096403
0.9050734,-0.2050163,-0.1194206,-0.09670723,0.03456673,-0.01283062,-0.6026845,0.1622562,0.1209927
0.8340807,-0.2885679,-0.08232517,-0.1679173,-0.04881515,0.02480255,-0.4388709,0.189073,0.08938967
0.7904086,-0.3195392,-0.003321885,-0.2118003,-0.07959755,0.1043695,-0.3374717,0.2316231,0.1177904
0.7732568,-0.2669927,0.001462313,-0.2291471,-0.02684237,0.1097367,-0.3333022,0.1388665,0.09874704
0.7774742,-0.1820416,-0.002353612,-0.2250983,0.05833719,0.1065151,-0.3759809,-0.09791043,0.06772127
0.823285,-0.1399596,0.0205899,-0.1794199,0.1006646,0.1300562,-0.3371137,-0.2117054,0.09647611
0.8377256,-0.1483641,0.003153286,-0.1650674,0.09251705,0.1132124,-0.2706571,-0.2104169,0.09085938
0.8476038,-0.1104369,0.005313645,-0.1552267,0.1307062,0.1159535,-0.2647331,-0.2282286,0.05839169
0.8275983,-0.08459517,0.008741782,-0.1752144,0.1568078,0.1199435,-0.1814224,-0.2362422,-0.02079619
0.8222473,-0.06234513,-0.013527,-0.1804877,0.1793078,0.09821164,-0.1868414,-0.2061116,-0.104707
0.9029802,-0.0766639,-0.01723696,-0.09961296,0.1652208,0.09500835,-0.3007016,-0.1447562,-0.1190397
1.017191,-0.1483177,-0.03177526,0.01480476,0.09377278,0.0809423,-0.3631744,-0.1242787,-0.03736959
1.128829,-0.1534137,-0.05259363,0.1267121,0.08885128,0.0605585,-0.4226988,-0.1787306,0.08720662
1.185232,-0.1610879,-0.04357269,0.1834378,0.08131694,0.06997409,-0.3255539,-0.1787369,0.112185
1.260434,-0.175588,-0.0107447,0.2590027,0.06691985,0.1031549,-0.2292234,-0.0156784,0.05919122
1.346146,-0.15223,0.0056425,0.3451039,0.09034241,0.1198507,-0.3313111,0.1871828,0.07498447
1.386201,-0.1236874,-0.07416242,0.3855549,0.1189094,0.04030742,-0.5274721,0.2189412,0.2708328
1.477594,-0.1286002,-0.2302717,0.4773312,0.1139784,-0.1155875,-0.6774469,0.2544979,0.4917384
1.404906,-0.3688311,-0.2964582,0.404991,-0.1263143,-0.1816021,-0.2626812,0.5298652,0.4964508
1.115518,-0.6660115,-0.2005787,0.115897,-0.4235948,-0.08558459,0.440699,0.692283,0.4417939
0.8796335,-0.6157589,-0.09997754,-0.119757,-0.373465,0.01512851,0.4944267,0.5282696,0.3142895
0.7574139,-0.4433912,-0.1061582,-0.2418056,-0.2012234,0.009037895,0.1089217,0.3762948,-0.04034609
0.8792815,-0.41226,-0.1330419,-0.1198162,-0.1702059,-0.01777616,-0.1048212,0.2161376,-0.153751
1.058008,-0.3930569,-0.1717765,0.05899337,-0.1510943,-0.0564597,-0.06222328,-0.1306059,0.09521893
1.032057,-0.4476523,-0.2394496,0.0330927,-0.2057514,-0.124097,0.110462,-0.2498601,0.2037488
1.048185,-0.5534349,-0.2268522,0.04923808,-0.311558,-0.1114738,0.2719332,-0.01521231,0.155923
1.016464,-0.5014021,-0.1531428,0.0175022,-0.2595014,-0.03774267,0.4461827,0.06502356,-0.004365654
0.8728065,-0.3960352,-0.1128229,-0.1262008,-0.1540531,0.002598729,0.5970803,-0.1156118,-0.272634
0.8348935,-0.2578276,-0.1082735,-0.1641846,-0.01570076,0.007170786,0.639089,-0.3277454,-0.3147323
0.7738109,-0.1153793,-0.1420516,-0.2253542,0.1269547,-0.02658344,0.5777054,-0.4820924,-0.1810983
0.7368886,-0.1400695,-0.1777258,-0.2623685,0.1025272,-0.06223204,0.3959369,-0.5852061,-0.05042891
0.7813752,-0.1690914,-0.1989489,-0.2179662,0.073814,-0.08342564,0.2594713,-0.6374301,0.1270232
0.7888978,-0.1736658,-0.2296932,-0.2105085,0.06958534,-0.1141333,0.2369069,-0.5444256,0.2504054
0.8380362,-0.2188784,-0.2335477,-0.1614058,0.0247484,-0.1179395,0.2025974,-0.3730376,0.292184
0.8730194,-0.2156656,-0.2105461,-0.1264216,0.02836103,-0.09487357,0.1902725,-0.1697825,0.314405
0.873493,-0.2269489,-0.176224,-0.1259054,0.01749737,-0.06046694,0.2015921,0.029182,0.2763521
0.8972352,-0.2115524,-0.137375,-0.1020755,0.03332936,-0.02151105,0.2527113,0.06278146,0.2197223
0.8887976,-0.1463834,-0.107703,-0.1103778,0.09894559,0.008290358,0.3323201,0.07634367,0.2080414
0.9098927,-0.0896247,-0.06205708,-0.08909812,0.1561575,0.05408652,0.3454171,0.1041848,0.1790823
0.9584159,-0.0442908,-0.04235431,-0.04034054,0.2019424,0.07395695,0.3182983,0.07761903,0.1350797
0.9745552,-0.06935365,-0.06195048,-0.02391777,0.1773187,0.05454123,0.3105685,0.1217679,0.07759728
0.9818087,-0.09104575,-0.05629479,-0.01633417,0.1560441,0.06038551,0.4327171,0.1284878,-0.02977339
0.9874107,-0.1234436,-0.06065192,-0.0103586,0.1240341,0.05622093,0.5726986,0.06830851,-0.04817177
1.027041,-0.2259925,-0.1048395,0.02968481,0.02183751,0.01222633,0.4831258,0.01384052,-0.02794805
1.088516,-0.2451487,-0.1385506,0.09160805,0.002996118,-0.02129341,0.200235,-0.02091481,-0.1851177
1.181656,-0.213274,-0.1082541,0.185224,0.03514834,0.009192151,-0.09339049,0.05956158,-0.4279327
1.423261,-0.2345125,-1.723926e-05,0.4273209,0.01415103,0.1176147,-0.1165399,0.1727063,-0.5427726
1.639722,-0.2790644,0.07362703,0.6442699,-0.0301947,0.1914376,0.04012978,0.2265571,-0.486095
1.532371,-0.4184066,-0.03216586,0.5373787,-0.1693626,0.08580967,-0.05921924,0.1493201,-0.462294
1.299915,-0.5692063,-0.2581567,0.3053253,-0.3200123,-0.1400346,-0.4433581,-0.1094745,-0.5346018
1.132574,-0.4775693,-0.3986303,0.1383124,-0.228237,-0.2803773,-0.7851786,-0.2826708,-0.5389681
1.030893,-0.3302711,-0.3963236,0.0368767,-0.0807996,-0.2779455,-0.6504113,-0.1087229,-0.5610977
1.224842,-0.3996661,-0.3192613,0.2309876,-0.1500459,-0.2007505,-0.2367075,0.3185503,-0.6087132
1.395839,-0.4737355,-0.2065516,0.4020587,-0.2239507,-0.08789003,-0.105434,0.6440023,-0.5738101
1.135582,-0.4882187,-0.104785,0.1417823,-0.2382459,0.01405111,0.01874391,0.6666429,-0.4762361
0.8349547,-0.4763623,-0.03912698,-0.1589634,-0.2261688,0.07990745,0.166562,0.4805915,-0.2365135
0.6666644,-0.2995685,-0.02904122,-0.3274628,-0.04911391,0.09021114,0.01742692,0.195566,-0.03580509
0.631239,-0.1617812,-0.0670162,-0.3631705,0.08897758,0.05246799,-0.1715857,-0.09583299,-0.03818122
0.7641982,-0.1874021,-0.09111201,-0.2305446,0.06370024,0.02861281,-0.3216423,-0.2291582,-0.01836266
0.7950531,-0.2561035,-0.090692,-0.2000546,-0.004624699,0.02927859,-0.325754,-0.1358054,0.04078834
0.7644287,-0.3331827,-0.06723294,-0.2310599,-0.08129903,0.05298574,-0.2136599,-0.03847596,0.08255804
0.7735752,-0.324178,-0.03360583,-0.2222971,-0.07186254,0.08686006,-0.253208,0.03978472,0.09066341
0.7690092,-0.2695516,-0.007408466,-0.2272366,-0.01677747,0.1132995,-0.2437181,0.131839,0.004070616
0.7970393,-0.1844556,0.02553439,-0.1995581,0.06880266,0.1464739,-0.2641198,-0.04127474,-0.06371536
0.8129258,-0.05435647,0.04790292,-0.1839909,0.1994064,0.1690568,-0.3567788,-0.2668884,-0.0590454
0.8343546,-0.0306663,0.05883379,-0.1628409,0.2236122,0.1801776,-0.3202599,-0.3259995,-0.005074259
0.8457686,-0.06126478,0.06309026,-0.1516582,0.1935283,0.184592,-0.2628911,-0.3647773,0.04755149
0.8362748,-0.05973634,0.05813774,-0.1613304,0.1955584,0.1797578,-0.1784399,-0.2972042,0.04079256
0.8801196,-0.07268976,0.05098912,-0.1176066,0.183083,0.1726812,-0.2251656,-0.2238331,0.02736423
0.941461,-0.1306894,0.02107276,-0.05632573,0.1255289,0.1427848,-0.436559,-0.2137227,0.02608671
1.040675,-0.2181644,-0.02549969,0.04288833,0.03846045,0.09617609,-0.5067759,-0.245771,0.07334025
