accx,accy,accz,body_accx,body_accy,body_accz,body_gyrox,body_gyroy,body_gyroz
0.5695015,-0.2031718,-0.152077,-0.4391435,-0.06058221,-0.01036516,-0.8995486,1.207298,0.4389304
0.584063,-0.2086695,-0.05906331,-0.4245656,-0.06632114,0.08384537,-0.8864121,0.8421987,0.331772
0.643652,-0.2276151,0.02983962,-0.3649348,-0.0855043,0.1739779,-0.9145749,0.2072345,0.2262411
0.7360437,-0.2728579,0.03874963,-0.2724579,-0.1309764,0.1841384,-0.7767501,-0.1407727,0.08179854
0.8625033,-0.2883778,0.02111395,-0.1458572,-0.1467119,0.1677606,-0.6069974,-0.20875,-0.08711019
0.8981519,-0.2511744,0.009576124,-0.1100048,-0.109704,0.1574752,-0.369157,0.1140897,-0.06341092
0.8639772,-0.1814542,0.03586007,-0.1439105,-0.04015433,0.1849943,-0.3309595,0.3131949,-0.01450828
0.8551912,-0.1060188,0.06602169,-0.1523608,0.03513815,0.2163625,-0.370936,0.1673619,0.01064977
0.8561135,-0.08046754,0.08664295,-0.1510347,0.06057269,0.2381504,-0.3258038,-0.1545765,0.06794487
0.8884663,-0.1264336,0.05444994,-0.1182082,0.0145129,0.2070724,-0.460568,-0.6064556,0.03989196
1.037297,-0.1554709,-0.03191554,0.03116589,-0.01459823,0.1217602,-0.5679632,-0.7574754,-0.06340428
1.298616,-0.1136479,-0.09730721,0.2930909,0.02716919,0.05735338,-0.4443211,-0.7699258,-0.1152674
1.527823,-0.07218005,-0.2228922,0.5229536,0.06859757,-0.06731731,-0.4379325,-0.4780535,0.03097369
1.608532,-0.05603224,-0.3066593,0.6043407,0.0847188,-0.1502375,-0.8745193,0.7010649,0.2170548
1.58127,-0.03470918,-0.2413882,0.5777497,0.1060234,-0.08418021,-1.285267,1.700858,0.2301958
1.402678,-0.07131314,-0.1737539,0.3997907,0.06940405,-0.01581284,-1.051112,1.125664,0.4186818
1.121538,-0.2186639,-0.1020108,0.1192221,-0.07796276,0.05661447,-0.6925273,-0.4037339,0.8934655
1.10422,-0.3941166,-0.1367932,0.1024052,-0.2534308,0.02246862,-0.6843206,-1.175748,1.063456
1.197038,-0.5300721,-0.3545729,0.1956469,-0.3893926,-0.1947204,-0.6003905,-0.1640401,0.730774
1.067736,-0.6495543,-0.4857255,0.06668994,-0.5088565,-0.3253216,-0.4693126,1.991028,0.1477689
1.019033,-0.6270425,-0.4239629,0.01825215,-0.4862813,-0.2630339,-0.4744333,2.801469,-0.3880319
0.9426018,-0.3688673,-0.2530166,-0.05799093,-0.2279779,-0.09157495,-0.3496462,1.458404,-0.3845709
0.6588574,-0.1328061,-0.07068321,-0.3416172,0.008288239,0.0912663,-0.06792916,-0.2774522,-0.1024026
0.6038183,-0.08542915,0.07155029,-0.3965931,0.05594783,0.2340022,0.3059449,-1.592626,-0.1402208
0.7501715,-0.1866489,0.1239225,-0.2502115,-0.04491744,0.2868627,0.5419332,-2.155511,-0.1925985
0.8746268,-0.2929627,-0.04199726,-0.1257445,-0.1508105,0.1214054,0.4572315,-1.923369,-0.2556498
0.9844179,-0.2124691,-0.3115108,-0.01594739,-0.06983201,-0.1476794,0.2378013,-1.184455,-0.5405699
0.9815844,-0.08817265,-0.455779,-0.0187757,0.05501185,-0.2915507,-0.02047858,0.157862,-0.5660431
0.8860356,0.03230386,-0.4017207,-0.1143177,0.1760923,-0.2371169,-0.02068885,0.7820356,-0.2362007
0.7839993,0.1263342,-0.2336575,-0.2163418,0.2707716,-0.06868746,0.1062222,0.1811208,0.1137932
0.7628719,0.006398776,-0.1001555,-0.2374441,0.151515,0.06517868,0.003011101,-0.2613925,0.1862009
0.8085625,-0.06833383,-0.03851336,-0.1917054,0.07747739,0.1271826,0.07739168,-0.5143757,0.03974507
0.8459797,-0.0499802,-0.09391608,-0.1542085,0.09653229,0.07213486,0.1698057,-0.7243535,0.08505238
0.9296947,-0.06278316,-0.1597314,-0.07037596,0.08442958,0.006662921,0.03334652,-0.3338732,0.1513652
0.9758803,0.0210882,-0.1499719,-0.02403215,0.1689932,0.01675158,-0.006784565,0.1405999,0.2058995
0.9354151,0.03324155,-0.1433751,-0.06429889,0.1818229,0.02366245,-0.03319112,0.2347941,0.4255419
0.940779,-0.02117867,-0.03006563,-0.05869694,0.1280542,0.1372694,0.1435515,0.1864014,0.4664054
1.015269,-0.0488223,0.06552709,0.01606956,0.1010295,0.2331387,0.5197038,0.0175311,0.3613094
1.12711,-0.09382168,0.005766671,0.1282218,0.05661128,0.1736262,0.5679481,-0.01419663,0.2169713
1.227785,-0.05896269,-0.06724821,0.2292364,0.09201023,0.1008226,0.2839534,0.08129243,0.03024648
1.234768,-0.04692689,-0.1328926,0.2365751,0.1045421,0.03534799,-0.07284131,0.0811689,-0.01280995
1.182213,-0.06184065,-0.0642463,0.18438,0.09007769,0.1041206,-0.134309,0.1952052,-0.1211942
1.14816,-0.03898537,0.06912516,0.1506778,0.1133326,0.2375728,0.1253755,0.1330853,-0.2797735
1.140528,-0.07382964,0.037717,0.1433785,0.07883564,0.2061948,0.2381024,-0.402209,-0.3050609
1.196813,-0.1613724,-0.1416652,0.1999699,-0.008413491,0.02678628,-0.02358793,-1.089969,-0.5233527
1.265102,-0.2922207,-0.5089369,0.2685327,-0.13902,-0.3405679,-0.6719324,-1.175328,-0.8336384
1.233829,-0.3193111,-0.7660278,0.2374891,-0.1659139,-0.5977845,-1.160858,-0.5252719,-0.788345
1.190741,-0.2239579,-0.5851039,0.1945766,-0.07040034,-0.4170053,-0.915789,0.00485164,-0.5739582
1.18539,-0.1878375,-0.418072,0.18934,-0.03414785,-0.250112,-0.6005124,0.2817307,-0.2932249
1.170606,-0.1553752,-0.484484,0.1746029,-0.001576899,-0.3166376,-0.6603209,0.1632589,0.160097
1.176686,-0.1365654,-0.4009812,0.1806578,0.01732055,-0.2332099,-0.4897718,-0.1472866,0.4158269
1.160397,-0.156116,-0.2744103,0.1642677,-0.002162212,-0.1066651,-0.3909769,0.05312544,0.5144959
1.086506,-0.1623062,-0.3098065,0.09019654,-0.00830333,-0.1420326,-0.6847218,0.2446806,0.6818488
0.9629737,-0.1992397,-0.2914817,-0.03359351,-0.04520502,-0.1236209,-0.6322383,0.5692546,0.6402794
0.7725066,-0.1748646,-0.2394799,-0.2243911,-0.02081278,-0.07147234,-0.4054726,0.9842782,0.553454
0.6281448,-0.1244484,-0.1947326,-0.369143,0.02960778,-0.02651829,-0.3335812,0.8591799,0.5488168
0.5987751,-0.1598016,-0.1161317,-0.3989428,-0.005752623,0.05234677,-0.3859692,0.8467145,0.3924598
0.5944751,-0.1610128,-0.06351235,-0.4036897,-0.006982068,0.105282,-0.6020013,0.6791689,0.2963037
0.603374,-0.1593946,0.02070216,-0.3952317,-0.005392052,0.1898555,-0.38645,0.1042236,0.29796
0.6773643,-0.2129193,0.03672229,-0.3216555,-0.05895366,0.2062663,-0.1496121,-0.2641523,0.1662728
0.7966785,-0.2345522,-0.01987844,-0.2027115,-0.08062956,0.150075,-0.2493912,-0.4227193,-0.02577786
0.8681074,-0.229464,-0.02932968,-0.1315975,-0.07558654,0.1410407,-0.05814572,-0.08570191,-0.1434509
0.8604561,-0.1945363,-0.06106206,-0.1395023,-0.04070243,0.1097232,0.0607192,0.4333628,-0.1449946
0.849846,-0.1316527,-0.02997556,-0.1503005,0.02214193,0.1412149,0.01849567,0.5764084,-0.1378622
0.8526681,-0.0657379,0.04292497,-0.1475981,0.08802179,0.2145034,-0.05487424,0.4813048,-0.1615206
0.8668634,-0.0153753,0.04808945,-0.1334511,0.1383509,0.2200298,-0.3537847,0.01001761,-0.1318375
0.9748454,-0.02475459,0.03859482,-0.02544455,0.1289341,0.2108612,-0.5779249,-0.7024951,-0.1072588
1.236331,-0.0569855,-0.03184235,0.2361355,0.09665574,0.1407053,-0.6585231,-1.048414,-0.06196634
1.556567,-0.07940207,-0.1530452,0.5565235,0.07417688,0.019733,-0.6617236,-0.4838207,0.04550031
1.66502,-0.08327758,-0.216611,0.6651627,0.0702209,-0.04365392,-0.8365209,0.6968541,0.1315581
1.434604,-0.06827055,-0.1131794,0.4349359,0.08512687,0.05990712,-1.096088,1.556056,0.1709718
1.131636,-0.1115265,0.04470001,0.1321334,0.04174728,0.217868,-0.9777349,1.309261,0.2864132
1.030033,-0.2912089,-0.02525672,0.03065802,-0.1380815,0.1479421,-0.6795473,-0.3279791,0.6274642
1.090368,-0.5934119,-0.2969762,0.09107908,-0.4404472,-0.1238005,-0.2814185,-1.598267,0.8550721
1.198585,-0.7153352,-0.6309959,0.1993381,-0.5625334,-0.457892,0.05193,-0.7034477,0.6447514
1.265543,-0.4630581,-0.758544,0.26629,-0.3103967,-0.5855429,0.05260598,1.229866,0.2137665
1.138708,-0.1903916,-0.5432688,0.1393935,-0.03782931,-0.3703755,-0.08303805,2.326212,-0.2940702
0.84438,-0.126382,-0.2866396,-0.1550549,0.02612985,-0.1138362,-0.3463115,1.94465,-0.4982635
0.644024,-0.1737027,0.03526204,-0.3555849,-0.02119357,0.208004,-0.4665504,0.6636818,-0.2049024
0.6598029,-0.2481768,0.2879423,-0.3400181,-0.09562528,0.4606471,-0.06140952,-0.7365259,-0.1227092
0.771825,-0.2461064,0.11955,-0.2282267,-0.09346824,0.2922261,0.4202427,-1.956082,-0.370137
0.8245,-0.1681158,-0.1654021,-0.1757848,-0.01534626,0.007237394,0.4069087,-2.154761,-0.4767743
0.7897029,-0.06663862,-0.3838737,-0.2108052,0.08630567,-0.2112855,0.2032358,-1.235941,-0.4517558
0.7701252,-0.0265195,-0.4069936,-0.230586,0.1266376,-0.2344667,0.2743958,-0.4211038,-0.2111221
0.81006,-0.07468304,-0.2113491,-0.1908241,0.07871719,-0.0388836,0.481619,-0.03845145,0.1467353
0.8699549,-0.06911193,-0.2170362,-0.1310633,0.08455367,-0.04462524,0.6595371,-0.09745323,0.1991585
0.96094,-0.06732954,-0.2064363,-0.04016792,0.08661684,-0.03406999,0.5577157,-0.4352034,0.02809811
1.038775,-0.0730049,-0.1535579,0.03762346,0.08123145,0.01877475,0.2765413,-0.3957543,-0.05318881
1.025503,0.001189955,-0.279793,0.02435061,0.1557192,-0.1074825,0.2610448,-0.1479077,0.005493079
0.9909348,0.01662898,-0.2244864,-0.01017965,0.1714467,-0.05218498,0.1490015,0.2192886,0.05075977
0.9389409,0.01119398,-0.1448199,-0.06209904,0.1662875,0.02748742,-0.05988884,0.3457923,0.1253054
0.836754,0.03192018,-0.0931306,-0.1641759,0.1872682,0.07919697,0.01367121,-0.03621799,0.3435622
0.8490672,0.004584053,0.01208535,-0.1517144,0.160157,0.1844437,0.150372,-0.1593612,0.4564224
0.9742322,-0.04934326,-0.07213118,-0.02635951,0.1064183,0.1002616,0.4014879,-0.2607071,0.3861976
1.091389,-0.1163507,-0.06711098,0.09102918,0.03955852,0.1053128,0.6359135,-0.3580584,0.2478003
1.203593,-0.1034702,-0.05644009,0.203502,0.05254415,0.1160056,0.6070459,-0.09314931,0.08922972
1.223627,-0.06870132,-0.1952907,0.2238315,0.08737532,-0.02283648,0.3888959,0.1963678,0.08210313
1.221834,-0.1017183,-0.2183567,0.2223462,0.05437752,-0.04590849,0.0858746,0.589048,0.08349973
1.236826,-0.08580897,-0.1652856,0.2376472,0.07026241,0.007143702,0.1543811,0.6342015,-0.1016812
1.120207,-0.06939078,-0.01294969,0.1213242,0.08661225,0.1594486,0.4403762,0.2385097,-0.2011327
1.051161,-0.08888491,0.07260042,0.05255474,0.06700541,0.244952,0.6159804,-0.247739,-0.188305
1.088563,-0.1206975,-0.007456366,0.09020761,0.03503562,0.1648252,0.7492685,-0.8840581,-0.3633367
1.157917,-0.1796353,-0.1644393,0.1597837,-0.02410258,0.007741877,0.2071687,-0.9932494,-0.6199556
1.271609,-0.1527798,-0.4935153,0.2736628,0.002512429,-0.3214654,-0.7088335,-0.6100786,-0.6422117
1.172652,-0.1150595,-0.6360025,0.174851,0.03995549,-0.464104,-0.893281,-0.348164,-0.4779816
1.025557,-0.1801543,-0.523227,0.02785158,-0.02545031,-0.3514808,-0.6756544,-0.155032,-0.3543811
1.099787,-0.2392893,-0.4971969,0.1021257,-0.08492642,-0.3255835,-0.6203317,0.006776208,-0.2795835
1.149883,-0.2730147,-0.4270384,0.1522109,-0.1190174,-0.2555215,-0.5222386,0.1814309,-0.1468259
1.176342,-0.2631483,-0.2879814,0.1786041,-0.1095333,-0.1165129,-0.2465109,0.2970348,0.1018656
1.160994,-0.1894414,-0.2399362,0.1631297,-0.03621827,-0.06846157,-0.1220028,0.4774025,0.3707813
1.000528,-0.1294017,-0.2505322,0.002475726,0.02342553,-0.07899521,-0.2390506,0.7053448,0.4841241
0.8535413,-0.08978492,-0.2396701,-0.1447604,0.06264422,-0.06801461,-0.2557614,0.6310885,0.499686
0.7482492,-0.09748507,-0.2075183,-0.2503546,0.05454318,-0.03568921,-0.344807,0.5645519,0.4537556
0.7201282,-0.1265001,-0.1737629,-0.2788161,0.02512324,-0.001706838,-0.5136806,0.6195436,0.3709047
0.7306053,-0.1206518,-0.1116685,-0.2687014,0.03056186,0.06066395,-0.4254186,0.5674741,0.3957642
0.6969472,-0.1463604,-0.06575621,-0.302727,0.00443868,0.1068962,-0.3403973,0.5108504,0.3877451
0.7469131,-0.1849492,-0.05906974,-0.2531179,-0.03456842,0.1139382,-0.3551368,0.3006146,0.2840155
0.814385,-0.2229698,-0.06019813,-0.1859781,-0.07300903,0.113192,-0.3253578,0.01269605,0.1726959
0.8295571,-0.2491734,-0.05637883,-0.1711029,-0.09963034,0.1174112,-0.3053385,0.03360314,0.07476665
0.8557157,-0.2178198,-0.04019209,-0.145198,-0.06868706,0.1340072,-0.2299327,0.2159972,0.09534644
0.8491377,-0.2116657,-0.02281229,-0.1519809,-0.06293131,0.1517972,-0.1676596,0.285444,0.105298
0.8386899,-0.1892733,0.01818345,-0.1625797,-0.04092146,0.1931955,-0.1911736,0.1779141,0.06072694
0.83414,-0.1216809,0.06853404,-0.1672221,0.02630632,0.2439311,-0.1467836,-0.1182929,0.06109664
0.8365709,-0.1081593,0.08446566,-0.1648209,0.0394813,0.2602194,-0.1422599,-0.4198546,-0.01178306
0.885931,-0.1154098,0.04430564,-0.1154239,0.03190068,0.2203764,-0.4347195,-0.542303,-0.1422146
0.945995,-0.1238333,-0.02270189,-0.05525442,0.02316144,0.1536364,-0.7103857,-0.5738267,-0.2308161
1.079447,-0.1153298,-0.04635053,0.0783704,0.03136203,0.1301988,-0.5169812,-0.6112765,-0.1546653
1.319938,-0.09682436,-0.1026719,0.3190937,0.04957565,0.07402828,-0.3548888,-0.3705561,0.0125833
1.512565,-0.09554625,-0.1633626,0.5119982,0.05057097,0.01342699,-0.7232516,0.4867595,0.02919646
1.524042,-0.02777248,-0.07635447,0.5237719,0.1180682,0.1004642,-0.985543,1.306079,0.06695554
1.356581,0.0238477,0.05600273,0.3566022,0.1694137,0.2327903,-0.8095899,0.8214987,0.2961135
1.149966,-0.1007066,0.08347478,0.1502503,0.04458104,0.2601672,-0.5958109,-0.6985243,0.664854
1.107169,-0.4085659,-0.1680023,0.1076766,-0.2635625,0.008525763,-0.3910433,-1.565989,0.9225322
1.193311,-0.7556665,-0.6233259,0.1939947,-0.6109448,-0.4470299,-0.2511866,-0.675003,0.7201875
1.176858,-0.8247887,-0.7258346,0.1776652,-0.6803247,-0.5498225,-0.1980484,1.600137,0.1596439
1.080181,-0.5230375,-0.4775117,0.08105626,-0.3787791,-0.3018094,-0.09965839,3.009742,-0.4807967
0.9326308,-0.1978054,-0.3172087,-0.06648536,-0.05367885,-0.1418192,-0.1925028,2.001986,-0.6533016
0.6865086,-0.09463773,-0.1481393,-0.3126525,0.04943817,0.02694744,-0.2771112,-0.005957434,-0.2345743
0.5741948,-0.09811854,0.08391934,-0.4250516,0.04598433,0.2587159,0.07917914,-1.54704,-0.1007248
0.6909213,-0.200149,0.08445805,-0.3084307,-0.05594842,0.2589707,0.5385417,-2.208851,-0.2519878
0.8845696,-0.35329,-0.1524965,-0.1148896,-0.208925,0.02172846,0.667943,-1.938323,-0.4052022
0.9923464,-0.2621605,-0.3330491,-0.007210338,-0.1175643,-0.1591207,0.4684206,-1.205897,-0.6919714
0.9019046,-0.06582029,-0.3518455,-0.09773532,0.07907475,-0.1782188,0.3305782,-0.112561,-0.5367717
0.7838139,0.01124525,-0.2936557,-0.2158916,0.1565021,-0.1203275,0.4595737,0.4185266,-0.1617121
0.8011511,0.06244864,-0.2139104,-0.1985961,0.2081195,-0.04086991,0.4824672,-0.149682,-0.08350539
0.8619547,-0.005839249,-0.1511771,-0.1378023,0.1402844,0.02159062,0.3967145,-0.351209,-0.008762643
0.9232149,-0.09000661,-0.1076748,-0.07651399,0.05659655,0.06483554,0.3916837,-0.306419,-0.0670423
1.003155,-0.04257165,-0.1375711,0.003494701,0.1045286,0.03469511,0.3371381,-0.2952883,-0.1087301
1.017978,-0.007926331,-0.1822311,0.01842564,0.139681,-0.010198,0.2791253,0.3592955,8.476687e-06
0.952792,0.069133,-0.1281401,-0.04661485,0.2172488,0.04366949,0.1760174,0.4972685,0.03641453
0.8714907,0.1088567,-0.07994537,-0.127736,0.2574717,0.09164892,0.04147848,0.207278,0.2431687
0.781163,0.02325873,-0.005509053,-0.2178468,0.1723517,0.1658744,0.08694081,0.08392976,0.4451336
0.773242,-0.04352934,0.06515539,-0.2255092,0.1060102,0.236326,0.2656472,-0.5924281,0.4709961
0.8877467,-0.1524487,0.009646032,-0.1106975,-0.002500041,0.1805929,0.5679991,-1.061812,0.4314801
1.054657,-0.2356351,-0.05315814,0.05657105,-0.08531559,0.1175456,0.8633565,-0.9859638,0.209997
1.203971,-0.2032965,-0.1411848,0.2062916,-0.05264129,0.02925108,0.864354,-0.3413738,0.02704272
1.2943,-0.1499223,-0.2652669,0.2970639,0.001037603,-0.09512451,0.6283277,0.9053182,-0.0432064
1.390828,-0.07982798,-0.3173768,0.3940559,0.07140826,-0.1475494,0.3609389,1.268431,-0.1566353
1.326184,-0.0541334,-0.1809944,0.3298765,0.09735038,-0.01149642,0.3401949,0.8283373,-0.2577314
1.096222,-0.04706346,0.1133475,0.1003616,0.1046365,0.2825053,0.6177599,0.3746708,-0.2944185
1.096533,-0.04425703,0.1616564,0.1010926,0.1076245,0.3304587,0.7695002,-0.5465753,-0.3476571
1.187244,-0.1220659,-0.02741085,0.1921874,0.02995955,0.1410099,0.5071067,-1.393337,-0.5560359
1.171558,-0.1510175,-0.2698237,0.176845,0.001113204,-0.1018178,-0.1291404,-1.281335,-0.6567006
1.181089,-0.1224643,-0.6415304,0.1866712,0.02973406,-0.473969,-0.7810149,-0.6862927,-0.4907932
1.103404,-0.1455151,-0.7373615,0.1092271,0.006715086,-0.570257,-0.9471493,-0.2286243,-0.3486319
1.037643,-0.2152478,-0.5289332,0.04364972,-0.06301945,-0.3622725,-0.7722349,0.118534,-0.3037693
1.110273,-0.3144274,-0.4665598,0.1164041,-0.1622302,-0.3003066,-0.700179,0.2328813,-0.2193828
1.162625,-0.3325631,-0.3917505,0.1688193,-0.1804185,-0.225852,-0.5412728,0.1701383,-0.03118796
1.165551,-0.2632073,-0.2612135,0.1717472,-0.1111276,-0.09560678,-0.2319758,0.1196741,0.1768384
1.084642,-0.201219,-0.2563532,0.09077284,-0.04920816,-0.09097018,-0.171552,0.1321469,0.4347291
0.931699,-0.1196418,-0.2878314,-0.06230277,0.0323007,-0.1226025,-0.2300673,0.3416544,0.6247704
0.7867504,-0.08808709,-0.3059795,-0.2074457,0.06378829,-0.1408342,-0.2013194,0.5309786,0.5755569
0.6948288,-0.1278815,-0.2551274,-0.2996122,0.02392647,-0.08999381,-0.2134934,0.6791313,0.5229727
0.6791543,-0.122438,-0.1608914,-0.3155655,0.0293003,0.004302599,-0.2569597,0.7591524,0.4198819
0.6646098,-0.1210647,-0.1028509,-0.3304042,0.03060046,0.0624722,-0.3286409,0.650376,0.3098642
0.6803106,-0.1607666,-0.04612572,-0.3149944,-0.009178857,0.1193884,-0.3277625,0.3780625,0.2968912
0.7464216,-0.1953799,-0.02004766,-0.2491547,-0.0438737,0.1457099,-0.2741974,-0.1699209,0.1347738
0.8264545,-0.2348384,-0.02441971,-0.1693598,-0.08341605,0.1416227,-0.2453727,-0.2901393,-0.0009607369
0.9009053,-0.2423699,-0.03774824,-0.09510477,-0.09102996,0.1286097,-0.06931203,0.1399839,-0.06604867
0.8798267,-0.2159908,-0.05001803,-0.1163321,-0.06472782,0.1166759,0.118048,0.4088062,-0.09886287
0.8274928,-0.1910965,-0.004868053,-0.1687642,-0.03990146,0.1621733,0.2124354,0.5490225,-0.01682535
0.8100003,-0.1612594,0.0530795,-0.1863005,-0.01012081,0.2204703,0.2424061,0.3532163,-0.0467335
0.8390946,-0.1395078,0.06030454,-0.1571909,0.01158617,0.228036,0.04758502,0.06449872,-0.1314832
0.9394725,-0.08074595,0.02505925,-0.05673477,0.07031446,0.1931114,-0.3084821,-0.02306277,-0.1885655
1.020354,-0.008665221,-0.01868084,0.02428806,0.1423695,0.149662,-0.5573864,-0.4616502,-0.1306239
1.172379,-0.06544037,-0.07113363,0.1765137,0.0855712,0.09746251,-0.4674615,-0.7577572,0.09887438
1.417905,-0.1668859,-0.1579952,0.4222879,-0.01589976,0.01081283,-0.3960122,-0.2241065,0.1572791
1.49492,-0.1449263,-0.1768431,0.4995796,0.006030088,-0.007865042,-0.7143696,0.9522746,0.02416766
1.386681,-0.04378469,-0.06772948,0.3916217,0.107137,0.1013777,-0.8928606,1.835948,-0.03087848
1.252704,0.001334328,0.02863672,0.2579076,0.1522136,0.1978318,-0.7499841,0.7584211,0.2904365
1.122596,-0.2300144,-0.03418196,0.1280279,-0.07918905,0.1350558,-0.5604214,-1.530882,0.837589
1.066463,-0.6926375,-0.3020014,0.0720803,-0.5418751,-0.1327691,-0.2681279,-2.14343,0.9485582
1.15983,-0.8592921,-0.5780338,0.1655858,-0.7085854,-0.4088504,0.003232043,-0.6062223,0.6069901
1.195883,-0.5766627,-0.5683357,0.201727,-0.4259773,-0.3992292,0.05358514,1.590067,0.06418219
1.011446,-0.2510043,-0.4310882,0.01732226,-0.1002821,-0.262066,-0.08893489,2.515488,-0.3850644
0.7828971,-0.1175096,-0.3290535,-0.2112485,0.0333177,-0.1601059,-0.1969246,1.124384,-0.2981833
0.6874438,-0.1587265,-0.0225971,-0.3067705,-0.007727018,0.1462949,-0.06753983,-0.6155432,-0.1317385
0.7612398,-0.2898364,0.1677317,-0.2330747,-0.1386018,0.3365858,0.2461671,-1.377021,-0.2890727
0.8481895,-0.36135,-0.09344501,-0.1462413,-0.2098187,0.07537877,0.5295067,-1.747953,-0.3826258
0.8465079,-0.2467472,-0.3137388,-0.1480438,-0.09485558,-0.1449461,0.456299,-1.383781,-0.5219665
0.8318035,-0.04870496,-0.3707024,-0.1628645,0.1036113,-0.2019411,0.3020157,-0.5041001,-0.6676341
0.7865733,0.02718581,-0.3654215,-0.2081982,0.1799851,-0.1966842,0.4681045,0.1620336,-0.3868747
0.8195162,0.02058185,-0.2332515,-0.1753374,0.1739111,-0.0645221,0.5028916,0.3273341,-0.09773651
0.9088747,-0.002470319,-0.1999829,-0.08603197,0.1514224,-0.03124011,0.4046344,-0.1002344,-0.0261857
0.9079188,-0.05661431,-0.1987657,-0.08700672,0.09786327,-0.02998629,0.4414983,-0.2370831,0.03868731
0.9536597,-0.06267804,-0.1783299,-0.0412483,0.09239617,-0.009490918,0.3400222,0.005127235,-0.01218515
0.9698977,-0.02114588,-0.2017726,-0.02495589,0.1345287,-0.0328516,0.2623761,0.1014945,0.01138308
0.8918906,0.02026909,-0.1298794,-0.102872,0.1765397,0.0391448,0.2518087,0.3028996,0.1310015
0.8504338,0.04237966,-0.08738732,-0.1442004,0.1992327,0.08175897,0.1608103,0.1891694,0.2581379
0.8223656,-0.006134211,-0.04434555,-0.1720998,0.151278,0.124937,0.237891,-0.2368363,0.4613407
0.8886175,-0.08996131,0.01440157,-0.1056347,0.06797855,0.1838278,0.4000933,-0.4687026,0.5047388
1.045445,-0.1341314,-0.05408877,0.0514529,0.02429982,0.1154804,0.5829884,-0.7351084,0.4476778
1.207539,-0.1105157,-0.1161969,0.2138499,0.04836874,0.05350709,0.7462192,-0.6864724,0.3418729
1.311688,-0.07579194,-0.192998,0.3183346,0.08350672,-0.02317139,0.675282,-0.1543396,0.1800206
1.254134,-0.0939743,-0.2657044,0.2611339,0.06569819,-0.09576754,0.4581834,0.4614714,0.1636182
1.214867,-0.09476999,-0.2658889,0.2222209,0.0652342,-0.09585084,0.1095031,0.7450195,0.0466786
1.222761,-0.1041313,-0.1705641,0.2304558,0.05616118,-0.0004298576,-0.03639345,0.2702373,-0.2517174
1.163047,-0.1614234,0.09620945,0.1710579,-0.0008863825,0.2664358,0.4279351,-0.2057942,-0.4398278
1.191012,-0.1548914,0.1907153,0.1993054,0.005847212,0.3610229,1.011506,-0.317144,-0.4974243
1.244354,-0.1169813,0.002076938,0.2528866,0.043918,0.1724423,1.078256,-0.5855187,-0.5123598
1.217257,-0.08999481,-0.2691331,0.2259778,0.07102525,-0.09874345,0.3133081,-0.7754719,-0.4985685
1.157946,-0.07602811,-0.6192524,0.1667948,0.08507258,-0.4488704,-0.8972501,-0.9410427,-0.4566865
1.046745,-0.1701443,-0.7259234,0.0556568,-0.00900366,-0.5555655,-1.400161,-1.045219,-0.4485905
1.03469,-0.2721365,-0.5699491,0.04359746,-0.110995,-0.399608,-1.068753,-0.6443768,-0.4791685
1.146905,-0.2546848,-0.5415768,0.1557411,-0.0935762,-0.3712217,-0.7811891,-0.0160799,-0.431414
1.187708,-0.2278465,-0.5207109,0.1964077,-0.06679774,-0.3502926,-0.5139946,0.45284,-0.1485309
1.159147,-0.2411432,-0.4121386,0.1676396,-0.08017464,-0.2415937,-0.1666883,0.7011626,0.2460301
1.08479,-0.2143744,-0.3221209,0.09300279,-0.05350094,-0.1513758,-0.2729055,0.7934296,0.3706511
0.9379949,-0.1626305,-0.2232783,-0.05414402,-0.001862679,-0.05225536,-0.345754,0.6667123,0.417997
0.7634512,-0.1429389,-0.2214029,-0.2291064,0.01771529,-0.05002487,-0.1184997,0.490783,0.5824945
0.663373,-0.1511768,-0.2580916,-0.3296569,0.00935654,-0.0862844,-0.29413,0.5820351,0.4829032
0.678119,-0.1653326,-0.1841416,-0.3154185,-0.004926802,-0.01183471,-0.397704,0.625515,0.3227859
0.6898189,-0.1252921,-0.1231738,-0.3042416,0.03497988,0.04969885,-0.1805982,0.568302,0.3676964
0.691489,-0.0833583,-0.09343392,-0.3030913,0.07677312,0.0800634,-0.2037711,0.501224,0.3383394
0.7144106,-0.1399546,-0.09687514,-0.2806695,0.02002821,0.07729692,-0.2896704,0.1783832,0.3053753
0.7475762,-0.2057242,-0.1331599,-0.2479689,-0.04589887,0.04172785,-0.346954,-0.05933275,0.2337842
0.8383134,-0.241403,-0.08796212,-0.1576499,-0.08174238,0.08767385,-0.1722917,0.05532939,0.06232495
0.8874157,-0.2662633,-0.06370297,-0.108911,-0.1067706,0.1127057,0.2014599,0.2953499,0.02834743
0.8767212,-0.2501546,-0.0664335,-0.1199094,-0.09082783,0.1107636,0.2482505,0.4652145,-0.01138958
0.8621398,-0.1968586,-0.004773236,-0.1347326,-0.03769097,0.1732187,0.2341053,0.3438142,-0.05826798
0.8220283,-0.09178821,0.04928807,-0.1750207,0.06722989,0.2280709,0.2478282,0.05094651,-0.02063379
0.8672729,-0.02593295,0.07297607,-0.1298842,0.1329441,0.2525339,0.03998015,-0.1616257,-0.06255751
0.9618324,-0.05836329,0.01437784,-0.03536196,0.1003766,0.194682,-0.2585897,-0.4482348,-0.1075293
1.050395,-0.09749279,-0.06429882,0.05323362,0.06110858,0.1167123,-0.4144179,-0.8132612,-0.09724156
1.279922,-0.1500184,-0.0869258,0.2828558,0.008439625,0.09474554,-0.3074035,-0.8050231,0.000847826
1.587237,-0.1885995,-0.1525925,0.5903149,-0.0302908,0.02968837,-0.3126051,0.06804661,0.1388216
1.698253,-0.1309501,-0.1677412,0.7014975,0.02720402,0.0150972,-0.4646389,1.783027,0.1526964
1.462913,-0.0226428,-0.02257719,0.4663156,0.1353515,0.1607665,-0.5086598,2.714318,0.2326073
1.121808,0.01092514,0.1164495,0.1253312,0.168751,0.3002431,-0.5168175,0.8875067,0.5247072
0.9837192,-0.2216571,0.00569744,-0.01268604,-0.06401272,0.1898782,-0.3030985,-2.196388,0.903799
1.014384,-0.6248698,-0.3443221,0.0179986,-0.4674184,-0.159823,-0.05378689,-3.074373,1.062096
1.114835,-0.7328349,-0.7093391,0.1184198,-0.5755737,-0.5245855,-0.1012974,-1.097463,0.6629733
1.166996,-0.5116436,-0.8452637,0.1705006,-0.3545468,-0.6602992,-0.1517961,1.736342,0.01216191
1.053633,-0.2872532,-0.6024481,0.05700617,-0.1302743,-0.4172869,-0.1886975,3.085256,-0.3559274
0.8025757,-0.08894818,-0.2899625,-0.1942348,0.06796878,-0.1045936,-0.4304678,2.437981,-0.4108384
0.592048,-0.01749253,-0.07302209,-0.4049891,0.1394172,0.1125777,-0.6086402,0.9242852,-0.3504847
0.6546333,-0.1902333,0.1415761,-0.3426566,-0.03328306,0.3274284,-0.4082342,-1.021564,-0.3302185
0.8038301,-0.3366168,0.05042248,-0.1937191,-0.1795832,0.236537,-0.003909005,-2.348414,-0.3435597
0.8181981,-0.3127362,-0.2381612,-0.1796015,-0.1555754,-0.05178736,0.2599671,-2.099851,-0.3807472
0.846397,-0.2138887,-0.4581569,-0.1516337,-0.05655342,-0.2715311,0.2041766,-1.315696,-0.4374151
0.8381909,-0.0956578,-0.5816991,-0.1600438,0.06190016,-0.3948215,0.1283871,-0.2686737,-0.3509736
0.8109869,-0.06127794,-0.4062964,-0.1874175,0.09654713,-0.2191533,0.4549096,0.5974809,-0.1452571
0.8733898,-0.1130525,-0.2380364,-0.1251437,0.04507708,-0.05060184,0.685788,0.2027622,0.0478128
0.8928779,-0.1234343,-0.2058377,-0.1057389,0.03503038,-0.01808046,0.5121002,-0.2371625,0.09021348
0.9264469,-0.08697239,-0.1361524,-0.07220415,0.07185219,0.05195793,0.4403919,-0.2211889,0.002386569
1.001658,-0.03539092,-0.2094354,0.003022636,0.1238124,-0.02094489,0.4225795,-0.4005128,0.06145628
1.030019,0.0353175,-0.2114297,0.03144681,0.1949106,-0.02253533,0.2504323,-0.06997914,0.1585376
1.006296,0.05140867,-0.140475,0.007830279,0.2113929,0.04884435,0.06805133,0.2988544,0.2670975
0.9019106,0.007949043,-0.1215311,-0.0964075,0.1683148,0.06823089,0.01912184,0.128134,0.4794529
0.861675,-0.04578029,0.02250764,-0.1364564,0.1149476,0.2127237,0.1774382,-0.0840094,0.4884455
0.9175849,-0.1497941,0.05288889,-0.08031877,0.01127005,0.2435613,0.4197444,-0.6036957,0.3631332
1.002359,-0.199365,-0.01075297,0.004725326,-0.03799269,0.1803662,0.6632718,-0.8401465,0.230774
1.134979,-0.1103617,-0.0873185,0.1376544,0.0512913,0.1042269,0.7104024,-0.2604139,0.08219397
1.142582,-0.07213125,-0.2567068,0.1456007,0.08977515,-0.06476194,0.3762836,0.3498682,0.08187407
1.063003,-0.1445718,-0.2201222,0.06638743,0.01755949,-0.02780558,0.03995647,0.5276398,-0.0102048
1.066813,-0.2293726,-0.04135302,0.07057902,-0.06704543,0.1513089,0.1511295,0.1647692,-0.3217388
1.128932,-0.3120955,0.01913474,0.1330887,-0.1495985,0.212113,0.6012677,-0.2292901,-0.636368
1.264198,-0.3472911,-0.1416614,0.268746,-0.1846438,0.05159841,0.8710609,-0.3143688,-0.8996805
1.367881,-0.303675,-0.5081827,0.3728097,-0.140888,-0.3146785,0.5595874,-0.3715961,-1.019115
1.308445,-0.2449072,-0.6817461,0.3137284,-0.08198284,-0.4880257,-0.211321,-0.3557149,-0.9374103
1.118211,-0.1760633,-0.5681387,0.1238073,-0.01299865,-0.3742114,-0.6634274,-0.4294781,-0.7107755
0.9565503,-0.09408135,-0.4623978,-0.03758942,0.0691282,-0.2682522,-0.3670551,-0.6208233,-0.4575174
1.053019,-0.1350455,-0.435171,0.05909187,0.02831214,-0.2407799,-0.08958474,-0.5716218,-0.3450493
1.289256,-0.2278939,-0.4665568,0.2954903,-0.06438689,-0.2718818,-0.1956808,-0.076167,-0.2043452
1.356698,-0.1683804,-0.4993842,0.3630375,-0.00472321,-0.3043767,-0.1120127,0.6327275,0.2392492
1.222422,-0.1119332,-0.3845034,0.2287995,0.0518756,-0.1891055,-0.02012618,0.8933697,0.6428341
0.9618125,-0.1020886,-0.2274295,-0.0318478,0.06187164,-0.03157683,-0.2404462,0.8768954,0.6955605
0.7420001,-0.04972048,-0.236923,-0.2517729,0.1143877,-0.04055078,-0.2968083,0.9912725,0.6972001
0.6707311,-0.08700628,-0.2307208,-0.3232174,0.07724212,-0.03376753,-0.2854583,0.7824793,0.631674
0.6036755,-0.1480145,-0.1383736,-0.3904924,0.01636228,0.05921751,-0.4454116,0.3636893,0.4136482
0.5881781,-0.2060332,-0.131137,-0.4062314,-0.04154175,0.06714215,-0.4621703,0.1959855,0.2904983
0.6834261,-0.27635,-0.1088927,-0.3112252,-0.1117561,0.09011629,-0.3343893,0.05837018,0.1574306
0.7542853,-0.2510853,-0.07408952,-0.2405895,-0.0863972,0.125682,-0.1400283,-0.05091267,-0.007743081
0.846586,-0.2675773,-0.09660978,-0.1484805,-0.102798,0.103947,-0.08510774,0.06167865,-0.05217473
0.906165,-0.2890853,-0.0808744,-0.08905294,-0.1242129,0.120481,-0.06714326,0.2559732,-0.05418038
0.85885,-0.2449144,-0.05580901,-0.1364746,-0.07994165,0.1463489,0.1900723,0.3484937,-0.05674078
0.839709,-0.2440283,-0.008651914,-0.1556744,-0.07894384,0.194303,0.235999,0.2110962,-0.08505579
0.8297133,-0.1849484,0.07109093,-0.1656766,-0.01973784,0.2748264,0.2385297,-0.1209033,-0.1084581
0.8320735,-0.1218876,0.07603434,-0.1632666,0.04346406,0.280521,0.342823,-0.4922818,-0.1142819
0.8979691,-0.1178278,-0.0006076277,-0.09726084,0.04767827,0.2045877,0.09128965,-0.702309,-0.1330296
0.9846891,-0.09991503,-0.09376043,-0.01036913,0.06575544,0.1120903,-0.1421863,-0.7614458,-0.1315351
1.160252,-0.1102787,-0.1507973,0.1654246,0.05556204,0.05564943,-0.157132,-0.7561166,-0.1261418
1.389045,-0.0942385,-0.2130004,0.3944972,0.07177429,-0.006019133,-0.2634771,-0.1430036,-0.07008199
1.477646,-0.05521654,-0.2709815,0.4834084,0.110966,-0.06352522,-0.5718559,1.078093,-0.005627071
1.385058,-0.00521291,-0.1566469,0.3911382,0.1611318,0.05122847,-0.9670957,1.761197,0.01235269
1.22547,0.04772901,0.07586581,0.2318523,0.2142213,0.2841056,-1.049114,1.33683,0.1699755
1.085946,-0.06427896,0.1366987,0.09259998,0.1023384,0.345243,-0.7423285,-0.2225617,0.5391658
1.030279,-0.3507512,-0.1306795,0.03716632,-0.184036,0.07809999,-0.3701327,-2.481453,0.9161858
1.125369,-0.6913445,-0.5884106,0.1324483,-0.5245535,-0.3794685,-0.0983104,-3.030372,1.000841
1.21617,-0.8357766,-0.8250624,0.2233976,-0.668913,-0.616018,0.1360017,-0.2589962,0.6440871
1.153544,-0.6235716,-0.6808814,0.1608713,-0.4566112,-0.4717689,0.2235211,3.016715,-0.02246013
1.000094,-0.3495597,-0.4690816,0.007466044,-0.1824542,-0.2599078,0.1318164,3.523024,-0.6087282
0.772688,-0.1912083,-0.2834876,-0.2199487,-0.02389634,-0.07424037,0.08861434,1.709203,-0.7211971
0.6216702,-0.1414588,-0.02189643,-0.3710196,0.02612263,0.1874436,0.08878638,-0.2638346,-0.4990019
0.6247464,-0.2171057,0.1559471,-0.3680239,-0.04919547,0.3653947,0.310161,-1.339914,-0.3918234
0.7124274,-0.2207386,0.09459008,-0.2804308,-0.05244469,0.3041465,0.7390614,-1.88757,-0.4725445
0.9693949,-0.1636338,-0.2335812,-0.02354292,0.005095449,-0.02392906,0.7709319,-1.758048,-0.6304193
1.113495,-0.1348659,-0.5830868,0.1204932,0.03434651,-0.3733567,0.3605749,-0.4623212,-0.7733532
0.9511055,-0.01600984,-0.5601183,-0.04194573,0.1537273,-0.3503191,0.06810002,0.9948304,-0.5821652
0.8302863,0.03372063,-0.3066713,-0.1628008,0.2040145,-0.09679648,0.1696952,1.201137,-0.171964
0.8095579,-0.04120376,-0.1578154,-0.183548,0.1296671,0.05215163,0.3046784,0.2430118,-0.03271099
0.8093079,-0.0782756,-0.1050926,-0.183793,0.09318148,0.1049842,0.2670172,-0.4254718,-0.01742289
0.8654615,-0.1122932,-0.09565151,-0.1276031,0.05975092,0.1145477,0.3447259,-0.5444493,0.00275783
0.9356804,-0.1095045,-0.1394079,-0.05731161,0.06312166,0.0709203,0.3682884,-0.6274247,-0.02963707
0.9975063,-0.05908347,-0.2211575,0.004625152,0.1141148,-0.01069885,0.2339252,-0.2546751,0.04317068
0.9954097,-0.01203317,-0.2475695,0.002676478,0.1617216,-0.03698104,0.1774723,0.1942281,0.09929322
0.9494972,0.02911607,-0.1764775,-0.04305357,0.2034042,0.03424002,0.1186291,0.3270121,0.2057901
0.9042945,0.003153035,-0.1019261,-0.08804114,0.1779427,0.1089189,0.1554338,0.2239638,0.4267541
0.876961,-0.06291485,-0.03366617,-0.1151264,0.1123363,0.1773008,0.3516489,-0.1558786,0.5079979
0.9401184,-0.1518992,-0.00287021,-0.05168629,0.0237679,0.2082061,0.5810961,-0.4222619,0.4884825
1.073572,-0.2057602,-0.08037299,0.08208442,-0.02972395,0.1307918,0.7641245,-0.5682973,0.3093551
1.222245,-0.1269077,-0.1848922,0.2311043,0.04945218,0.02633346,0.6820961,-0.1834876,0.05640179
1.28534,-0.0711602,-0.2308792,0.2945653,0.1054791,-0.01962261,0.4514096,0.5348206,0.0267678
1.213042,-0.1074911,-0.1850064,0.2226385,0.06938251,0.02625211,0.1574308,0.6318852,0.001145585
1.150218,-0.1169986,-0.05530824,0.160176,0.06006292,0.1559239,-0.04688806,0.5545994,-0.1581929
1.125045,-0.1335562,0.09423633,0.135344,0.04364605,0.3054107,0.301559,0.3250185,-0.2601011
1.115177,-0.1955201,0.1310729,0.1257903,-0.01822357,0.3421492,0.8040451,-0.288492,-0.3241399
1.18874,-0.2187558,-0.1095086,0.1996335,-0.0414089,0.1014182,0.8865423,-0.9393769,-0.515601
1.239038,-0.1630692,-0.4783544,0.2501715,0.01428796,-0.2676331,0.39731,-1.311771,-0.709362
1.15027,-0.1177377,-0.6391704,0.161594,0.05959287,-0.4287021,-0.4290897,-0.8859726,-0.6416701
1.026259,-0.1772392,-0.5727654,0.03771868,2.931339e-05,-0.3625786,-0.6913874,-0.2952443,-0.4837288
0.9908297,-0.2646671,-0.4905869,0.00236787,-0.0874938,-0.2806881,-0.5087486,-0.08013428,-0.4405005
1.045994,-0.2798864,-0.4464602,0.05755446,-0.102837,-0.236838,-0.5536177,0.1126378,-0.3973224
1.109367,-0.2574695,-0.3555228,0.1208973,-0.08056612,-0.1461526,-0.5072379,0.0427564,-0.2437296
1.141727,-0.2104903,-0.3033968,0.1531719,-0.03374857,-0.09424533,-0.289343,-0.04642717,0.07578929
1.138819,-0.1499898,-0.3135685,0.1501225,0.02657883,-0.1045973,-0.17926,0.1878143,0.371799
1.037493,-0.1323951,-0.2896709,0.04859529,0.04399079,-0.0808385,-0.2135267,0.4239317,0.4560244
0.8565147,-0.1347802,-0.2871147,-0.1326422,0.04141292,-0.0783777,-0.3073248,0.6777922,0.4978226
0.7326141,-0.1422819,-0.2562442,-0.2568529,0.03370777,-0.04755791,-0.3612295,0.8605714,0.4922592
0.6970401,-0.1734503,-0.1941836,-0.2927744,0.002324816,0.01449636,-0.4462947,0.8002223,0.4067248
0.6701238,-0.1877102,-0.1440784,-0.3200583,-0.01216035,0.06463711,-0.4181443,0.6591488,0.3782828
0.6879656,-0.1794284,-0.03705099,-0.3025863,-0.004113076,0.1717366,-0.2610942,0.3654698,0.2927574
0.7829086,-0.1949136,-0.01732462,-0.2079987,-0.01984019,0.1915628,-0.2339874,0.009196109,0.1649374
0.8413706,-0.2246395,-0.07364173,-0.1498651,-0.04981352,0.1353625,-0.2360543,-0.131942,0.08956275
0.8743697,-0.2303832,-0.07771725,-0.1171587,-0.05580735,0.1314111,-0.1919264,-0.1187402,0.02647078
0.9169658,-0.2206059,-0.09201688,-0.07481427,-0.04627935,0.1172349,-0.06317114,0.1106867,0.03128303
0.8915079,-0.21083,-0.07306737,-0.10048,-0.0367489,0.1363001,0.1262039,0.4223836,0.01270009
0.8260567,-0.184773,-0.01910192,-0.1660925,-0.01093107,0.190367,0.1582718,0.4078274,-0.038785
0.7801229,-0.1426341,0.03437103,-0.2121369,0.03097628,0.243919,0.152517,0.1153797,-0.08497546
0.8263406,-0.1283361,0.04636723,-0.1659736,0.04504978,0.2559626,0.1231334,-0.2777217,-0.1964214
0.9593427,-0.1389401,-0.01892693,-0.03296497,0.03422699,0.190674,-0.02184935,-0.6086031,-0.227973
1.048758,-0.1206483,-0.06894717,0.05651806,0.05230382,0.1406095,-0.1163482,-0.7042393,-0.189333
1.147564,-0.1055401,-0.1262442,0.1554483,0.06719863,0.08321355,-0.1653474,-0.6367971,-0.1690396
1.353386,-0.1202435,-0.1769795,0.361441,0.05228117,0.03232301,-0.2339097,-0.2451212,-0.1079304
1.543471,-0.1023079,-0.1604263,0.5517236,0.06999955,0.04866588,-0.4654121,0.7772076,-0.06607887
1.447693,-0.02911736,-0.03163563,0.4561474,0.1429667,0.1771923,-0.8088739,1.90698,-0.03879474
1.164909,0.02217065,0.1947191,0.1735444,0.1940206,0.4032263,-0.8261537,2.049781,0.09907122
1.108104,-0.1120032,0.1618407,0.1168862,0.05959595,0.369962,-0.5353623,0.6669206,0.4117359
1.139119,-0.4050975,-0.1166956,0.1480039,-0.2337682,0.09096338,-0.1809322,-1.457306,0.7024761
1.118112,-0.5912277,-0.3044206,0.1270536,-0.4201804,-0.09730418,0.1544914,-2.264004,0.7440685
1.189992,-0.6909461,-0.5210183,0.1989385,-0.5201758,-0.3145178,0.2455384,-0.8151165,0.6004542
1.197973,-0.8247266,-0.7501487,0.2068682,-0.6542036,-0.5443194,0.1431035,1.44679,0.1980934
1.11294,-0.6951854,-0.7033302,0.1217224,-0.5248532,-0.4982011,0.04560427,2.881066,-0.431585
0.8909454,-0.2472564,-0.395829,-0.1004485,-0.07703486,-0.1914017,-0.1285941,2.563239,-0.6380188
0.6149031,0.02270271,-0.1495864,-0.3767249,0.1929025,0.05415598,-0.2208305,0.7121215,-0.2158975
0.6217597,-0.02773856,-0.06082751,-0.3701444,0.1425223,0.1422526,0.07120444,-1.287398,0.02895534
0.7224209,-0.1755072,0.04130004,-0.2697808,-0.005114572,0.2437365,0.5660243,-2.479644,-0.1914861
0.8225443,-0.3433219,0.003075461,-0.1699582,-0.1727351,0.2048781,0.7595771,-2.239841,-0.4230715
1.028144,-0.3941593,-0.2271675,0.03534881,-0.223317,-0.02599712,0.4701867,-0.8908456,-0.6439946
1.06469,-0.2263223,-0.4103294,0.07161533,-0.05516028,-0.209792,0.2613679,0.4761835,-0.6972684
0.8993396,-0.00963453,-0.4256798,-0.09400234,0.1619113,-0.2257695,0.5249375,1.12216,-0.3691396
0.7885977,0.03141892,-0.237549,-0.2049984,0.2034051,-0.03824964,0.700601,0.3143856,-0.1132795
0.7885383,-0.05687614,-0.08703537,-0.205292,0.1155941,0.1116752,0.5854459,-0.5564676,-0.09746087
0.8276923,-0.09144364,-0.1131273,-0.1663435,0.08154211,0.08501627,0.5936412,-0.4819676,-0.1420961
0.9158238,-0.09995052,-0.1785165,-0.07838144,0.07357291,0.01907814,0.6001374,-0.610576,-0.1779537
1.035637,-0.07383692,-0.2413789,0.04130169,0.1002389,-0.04431745,0.4684991,-0.1893241,-0.1317559
1.065022,0.01212553,-0.2239072,0.0705957,0.1867607,-0.02736268,0.347013,0.5563812,-0.04338418
0.9611767,0.06688563,-0.1250276,-0.03330562,0.2420776,0.07101723,0.1524924,0.5580175,0.1770467
0.8638203,0.08844114,-0.03698693,-0.1306863,0.2641753,0.1585739,0.03860083,0.3608604,0.4136861
0.8761384,0.02396193,-0.008829104,-0.1183593,0.200211,0.1862583,0.1973703,-0.24482,0.4224276
0.8784181,-0.09810122,-0.005727899,-0.116034,0.0786249,0.1888888,0.4103546,-0.7214149,0.40093
0.9399712,-0.1492315,-0.001376837,-0.05439557,0.02792803,0.1927634,0.5404057,-0.6827331,0.3240054
1.148388,-0.1447446,-0.1100737,0.1541463,0.03280316,0.08357683,0.5646844,-0.3055538,0.1341557
1.235757,-0.1021124,-0.2198472,0.2416733,0.07577836,-0.0267035,0.4568588,0.5354691,0.08903102
1.17947,-0.07847669,-0.1971621,0.1855673,0.09971131,-0.004542213,0.2761806,0.7797984,0.09950949
1.127644,-0.1307215,-0.1065946,0.1339319,0.04771654,0.0854867,0.1455229,0.4267377,0.00450809
1.05636,-0.1764665,0.03570541,0.06283882,0.002173863,0.227233,0.274522,0.1170083,-0.1151912
1.04347,-0.1713583,0.08391052,0.05013507,0.007437883,0.2748642,0.6420535,-0.120082,-0.2095748
1.11731,-0.2030999,0.02463178,0.1241517,-0.0241919,0.2149827,0.8850801,-0.3520137,-0.3639698
1.180058,-0.2654509,-0.05870754,0.1870623,-0.08647121,0.1310037,0.6971224,-0.764476,-0.6573291
1.19245,-0.2060929,-0.2883075,0.199595,-0.02707662,-0.09927627,0.1025633,-0.7873126,-0.8042829
1.122785,-0.1019399,-0.5257092,0.1300421,0.07708203,-0.3373933,-0.443926,-0.6621768,-0.5915076
1.01323,-0.1135889,-0.5536752,0.02056467,0.06540925,-0.3660956,-0.5038555,-0.6733011,-0.4407946
0.987909,-0.1935016,-0.499139,-0.004715897,-0.01455704,-0.3122966,-0.3573924,-0.2692899,-0.5243671
1.044742,-0.2706634,-0.4558327,0.05212144,-0.09180072,-0.2697095,-0.3823783,0.09454518,-0.4355345
1.108116,-0.2436812,-0.3383614,0.1154649,-0.06492441,-0.152924,-0.2677144,0.09297411,-0.1762485
1.145562,-0.154107,-0.2224927,0.1528448,0.0245249,-0.03769785,-0.04773945,0.04060551,0.07885665
1.116015,-0.1225359,-0.2332378,0.1231899,0.05595493,-0.04903783,-0.09932076,0.2531809,0.3887829
1.030021,-0.08233843,-0.2743701,0.03704584,0.09599475,-0.09071602,-0.1572097,0.5257328,0.526034
0.9422688,-0.08457076,-0.2901844,-0.05089954,0.09358631,-0.1070256,-0.2586334,0.5626633,0.4282614
0.8781902,-0.1338691,-0.2694252,-0.1152112,0.04409086,-0.08670871,-0.5123888,0.7692174,0.3972316
0.8234099,-0.1305861,-0.1896,-0.1702565,0.04715416,-0.007271114,-0.5156158,0.9489085,0.4089183
0.7451118,-0.1305883,-0.1128886,-0.248841,0.04690933,0.06910662,-0.4224977,0.83605,0.3759498
0.7151964,-0.1194217,-0.02744178,-0.2790512,0.05781015,0.1542691,-0.4319886,0.5358992,0.3669158
0.7631561,-0.1360837,0.01351809,-0.2313805,0.04085904,0.1949855,-0.4615713,-0.01226313,0.2939952
0.7952675,-0.2013171,-0.0195682,-0.1995391,-0.02468627,0.1616861,-0.4992343,-0.3408675,0.2020277
0.8397484,-0.2260475,-0.0225724,-0.1552988,-0.04974932,0.1584886,-0.3594619,-0.2589272,0.2075286
0.8953937,-0.2563584,-0.03427852,-0.09985705,-0.08040954,0.1465997,-0.1588921,-0.08044879,0.1603959
0.8770189,-0.2530941,-0.05318827,-0.1183936,-0.07750583,0.1275097,-0.07909329,0.1252529,0.04282418
0.825496,-0.2051414,-0.02902719,-0.1700327,-0.02991959,0.151486,-0.02306781,0.240049,-0.02475972
0.7801238,-0.1680526,0.0009027865,-0.2154709,0.006800854,0.18122,0.0258807,0.07795304,-0.07490772
0.7740788,-0.1216573,0.04146342,-0.2215254,0.05282765,0.2215661,0.02000665,-0.2984905,-0.1014906
0.849766,-0.1315165,0.04464302,-0.145785,0.04259954,0.2245043,-0.04012555,-0.7312814,-0.102174
0.993826,-0.1434038,-0.01856176,-0.001605149,0.03034196,0.1610232,-0.05380184,-1.082745,-0.1448252
1.203769,-0.1170056,-0.1137265,0.2085218,0.05636741,0.06554093,-0.06130657,-0.9932888,-0.1965872
1.378424,-0.1235357,-0.2217985,0.3834146,0.04946108,-0.0428913,-0.180548,-0.232841,-0.1768595
1.44817,-0.1147286,-0.242448,0.4534342,0.05788715,-0.06394076,-0.415446,1.025156,-0.1346534
1.468286,-0.08982337,-0.1353345,0.4738336,0.08240486,0.04273833,-0.6469102,1.954032,-0.1159024
1.341465,-0.02035628,0.0579107,0.347282,0.1514756,0.2355176,-0.6959908,1.749511,0.02488352
1.082091,0.09544178,0.2752592,0.08814621,0.2668635,0.4523643,-0.6771392,0.7782199,0.2993398
0.9754154,0.06920296,0.2902529,-0.01833393,0.2401927,0.4668077,-0.5464025,-0.8592093,0.5184466
1.067948,-0.203885,0.01399716,0.07435095,-0.03335697,0.1899377,-0.2002422,-2.662203,0.656814
1.177692,-0.5748471,-0.3761904,0.1842027,-0.40481,-0.2009362,0.001330761,-2.73147,0.7165526
1.237889,-0.706162,-0.7209904,0.2444598,-0.5366313,-0.5464866,0.07252036,-0.6562457,0.5404246
1.194615,-0.5593123,-0.8022196,0.2011931,-0.3902801,-0.6285065,0.1414655,2.076055,0.1180425
0.9923141,-0.3868779,-0.5893615,-0.00116177,-0.2183135,-0.4164473,-0.02250734,3.130476,-0.2563173
0.7456307,-0.1535083,-0.3365846,-0.2479581,0.01463328,-0.1644501,-0.2314468,1.80118,-0.3252828
0.6201453,-0.003765193,-0.09579175,-0.3736054,0.1640018,0.07559781,-0.2117544,0.2510753,-0.1596593
0.6508061,-0.1785449,0.09020683,-0.343137,-0.01110866,0.2608885,0.03318745,-1.162483,-0.06792026
0.7695893,-0.3448302,0.07250319,-0.2245572,-0.1776852,0.2425063,0.4876031,-2.522243,-0.1870858
0.939686,-0.3694159,-0.1262177,-0.05465962,-0.2025207,0.04312529,0.7611165,-2.289481,-0.4225193
1.061876,-0.3067151,-0.4062088,0.06734264,-0.1400223,-0.2375126,0.5114137,-1.299903,-0.7333858
0.9581163,-0.07548054,-0.5321433,-0.03659189,0.09106168,-0.3640753,0.3077407,-0.251707,-0.8113448
0.8177979,0.01473848,-0.3785231,-0.177072,0.1811795,-0.2110516,0.5482005,0.6255227,-0.4757788
0.849598,-0.03663323,-0.217384,-0.1454163,0.1297476,-0.05046492,0.6469336,0.1490413,-0.1916391
0.8649615,-0.02762472,-0.1710203,-0.1301735,0.1387266,-0.004603866,0.5093188,-0.1758851,-0.1463871
0.8823629,-0.07745601,-0.1469842,-0.1128633,0.08888727,0.01897946,0.5172076,0.02157465,-0.2056991
0.9655702,-0.05989942,-0.2023433,-0.02971353,0.1064499,-0.03678465,0.482999,-0.3209025,-0.2615298
1.018678,-0.003280563,-0.2558598,0.02337106,0.1630822,-0.09065978,0.3743413,0.1163962,-0.1854152
1.048602,0.01888138,-0.2000116,0.05330545,0.1852573,-0.03512358,0.3063674,0.8386295,-0.1064928
0.9949265,0.08243045,-0.1560021,-0.0003317182,0.2488102,0.008620492,0.1912217,0.9054274,0.02239309
0.8894627,0.04759718,-0.08089922,-0.1057304,0.2139614,0.08350245,0.06292257,0.8833544,0.2477174
0.7769377,0.01597714,0.05412473,-0.2181629,0.1822964,0.2183445,-0.03271666,0.4488086,0.3945499
0.7251112,0.01153017,0.06624858,-0.2698639,0.177767,0.2303156,0.05971913,-0.198575,0.4820341
0.8247197,-0.09893438,0.01344793,-0.1700882,0.06717671,0.1773794,0.3378766,-0.828563,0.4264379
0.9221217,-0.2095365,0.00220355,-0.07247062,-0.04359669,0.1660054,0.6105733,-1.025912,0.3163974
1.104126,-0.2603426,-0.09519368,0.1097997,-0.09461666,0.06847582,0.7514108,-0.326113,0.2686698
1.313744,-0.2121355,-0.2268432,0.3197272,-0.04666001,-0.06331354,0.6096357,0.4091157,0.1149493
1.282729,-0.1683005,-0.2109114,0.2890523,-0.003105522,-0.04752888,0.4606933,0.8570948,-0.0243408
1.226056,-0.1725199,-0.1124837,0.2327334,-0.00763096,0.05074656,0.474073,0.7899509,-0.1047328
1.169997,-0.1129015,0.006187478,0.1770252,0.05165878,0.1692604,0.5251761,0.3511206,-0.1502529
1.079294,-0.1218533,0.1404517,0.08666036,0.04235703,0.3033571,0.8339217,0.009168848,-0.1456978
1.115159,-0.1989653,0.142583,0.1228425,-0.03512511,0.3053007,1.154082,-0.7749726,-0.3304508
1.182125,-0.2158816,-0.08057191,0.1900997,-0.05242953,0.08192607,0.9700239,-1.269444,-0.5657902
1.239831,-0.1344557,-0.434274,0.2480641,0.02859395,-0.2720323,0.2401015,-0.9561603,-0.5586455
1.200032,-0.02405404,-0.6131797,0.2084795,0.1385808,-0.4512228,-0.5785983,-0.677239,-0.4329394
1.055498,-0.1088333,-0.5214538,0.06411051,0.05337316,-0.3597917,-0.6545339,-0.3469096,-0.3908419
0.9614977,-0.2395944,-0.4489243,-0.02977835,-0.07783115,-0.2875461,-0.3158525,-0.001650985,-0.3994166
0.9057147,-0.2314966,-0.38073,-0.08550193,-0.07018905,-0.219608,-0.3486719,0.08969569,-0.2730913
0.9949536,-0.2218548,-0.2387779,0.003750147,-0.06101036,-0.07787311,-0.2588173,0.06702922,-0.03837885
1.122866,-0.1763362,-0.2140957,0.131634,-0.01595737,-0.0533632,-0.07297922,0.050872,0.16086
1.076744,-0.1388629,-0.2457392,0.08544154,0.02105115,-0.08513266,-0.2040438,0.1633287,0.2868747
1.025719,-0.1731432,-0.2480997,0.03430254,-0.01369157,-0.08757182,-0.2274489,0.312469,0.3271277
0.975313,-0.1766016,-0.2780601,-0.01625892,-0.01760892,-0.1175624,-0.3287298,0.5489025,0.2333758
0.8944255,-0.1812296,-0.2781962,-0.09734125,-0.02269064,-0.1176785,-0.5637196,0.8301732,0.1134408
0.853316,-0.1673785,-0.2254484,-0.1386786,-0.009286272,-0.06485852,-0.4885394,0.8798772,0.1796338
0.7640718,-0.1327417,-0.1466273,-0.2281745,0.02491193,0.01408718,-0.390213,0.7568495,0.2553873
0.7315276,-0.1434774,-0.06946262,-0.2609821,0.01374639,0.0914257,-0.3065769,0.4616434,0.2347687
0.7921764,-0.1636032,-0.01305508,-0.2005956,-0.006800858,0.1480498,-0.2069746,-0.06358572,0.231807
0.7987586,-0.2103535,-0.0009889124,-0.1942621,-0.05396343,0.1603658,-0.2573385,-0.3090708,0.1580106
0.847009,-0.2654313,-0.0625234,-0.1462368,-0.1094422,0.09910411,-0.1605921,-0.05278358,0.1136737
0.9181277,-0.2700899,-0.09772422,-0.07531235,-0.1144862,0.06419023,0.02273877,0.140141,0.08478042
0.9025287,-0.2428642,-0.07023921,-0.09107043,-0.08762507,0.09196972,0.111791,0.2644531,-0.03332673
0.8814208,-0.2076702,-0.03775232,-0.1122994,-0.05277048,0.1247528,0.1695992,0.3273652,-0.07963205
0.8399355,-0.1849493,0.01257403,-0.1538648,-0.03036098,0.1753704,0.165253,-0.002456128,-0.1227453
0.8193815,-0.1727867,0.03250223,-0.1744537,-0.0184808,0.1955769,0.1434144,-0.3046744,-0.1533672
0.8799528,-0.1510475,0.01377556,-0.1138675,0.003005063,0.1771064,0.07553591,-0.4849068,-0.09499321
0.9583842,-0.09659176,-0.009799308,-0.03536847,0.05723513,0.1537573,-0.0212392,-0.62431,-0.07505127
1.104313,-0.05194193,-0.08933006,0.1106805,0.1016839,0.07441536,-0.1287103,-0.5096218,-0.03121191
1.243216,-0.07246089,-0.1986981,0.2497483,0.08098366,-0.03480404,-0.3484174,-0.1533881,0.01006795
1.274693,-0.1013344,-0.2284129,0.2814247,0.05194339,-0.06440918,-0.6342945,0.6146816,-0.04030157
1.265566,-0.1079927,-0.1030402,0.2725145,0.04512887,0.06103774,-0.8386612,1.139777,-0.05834823
1.19459,-0.08034222,0.09791071,0.2017572,0.07263038,0.2620285,-0.8777166,0.9490057,0.02244428
1.088102,-0.01999421,0.1971763,0.09547758,0.1328331,0.3612936,-0.8812399,0.6652917,0.1559981
1.033859,-0.03075896,0.1743309,0.04142535,0.1219217,0.3383959,-0.8367478,-0.06750113,0.2738393
1.075785,-0.1603298,0.05509658,0.08351995,-0.007801823,0.2190445,-0.5395464,-1.33039,0.4060577
1.203906,-0.3830314,-0.2319031,0.2117852,-0.2306629,-0.06814451,-0.187465,-1.894743,0.5224626
1.327176,-0.595444,-0.5918127,0.3351678,-0.4432342,-0.4283124,-0.09475724,-1.094339,0.4810728
1.361555,-0.6371405,-0.7221382,0.3696163,-0.485072,-0.5589476,-0.1340501,0.7294837,0.2962437
1.204936,-0.5093111,-0.55804,0.213011,-0.3573457,-0.3951837,-0.08158302,2.671347,-0.005899178
0.8850065,-0.2753898,-0.3149459,-0.106971,-0.1234718,-0.1524238,-0.1343682,3.215368,-0.2238446
0.5990566,-0.04517402,-0.1015027,-0.3930353,0.1067603,0.06070017,-0.2930125,1.450693,-0.08136409
0.531619,-0.001999494,0.006185627,-0.4606335,0.1500117,0.1680872,-0.1746301,-0.95474,0.07823611
0.6688038,-0.06685895,-0.02019633,-0.3236323,0.08528028,0.141417,0.1090496,-2.171931,0.002514847
0.9219427,-0.1558222,-0.1186308,-0.07067977,-0.003512975,0.04270064,0.2977225,-2.091185,-0.06207791
1.240008,-0.2864385,-0.3306538,0.2472065,-0.1339224,-0.1696011,0.2392763,-0.7884594,-0.2573247
1.18205,-0.1847812,-0.4202063,0.189073,-0.03202253,-0.2594256,-0.01342302,0.6258912,-0.4816918
0.8504133,0.02951629,-0.2372922,-0.1427407,0.1825521,-0.07676794,-0.04107946,1.005695,-0.3016598
0.8067142,-0.02750504,-0.1073522,-0.1866202,0.1258365,0.05293811,0.001512569,0.5517205,-0.08479754
0.7301693,-0.0883887,-0.03105709,-0.263341,0.06527798,0.1290219,0.02185796,-0.1688808,-0.06301292
0.7175803,-0.08028477,0.01330757,-0.27609,0.07371877,0.1731929,0.2287077,-0.7400893,0.003414966
0.8951137,-0.1428891,-0.06573959,-0.09868888,0.01145771,0.09396195,0.2965723,-1.140642,-0.04247384
0.9082153,-0.08888933,-0.1210259,-0.08568405,0.06580321,0.03849538,0.2627913,-0.7902782,-0.1401274
1.085988,-0.04586135,-0.2037871,0.09202957,0.1091756,-0.04444566,0.29352,-0.09526798,-0.09992031
1.112383,-0.04113056,-0.2052319,0.118401,0.1142445,-0.0460698,0.2838793,0.1452496,-0.083012
0.9017644,0.03015095,-0.09659538,-0.09221193,0.1858514,0.06238964,0.2401608,0.4668735,-0.05927563
0.9499365,0.028448,-0.09748821,-0.04400727,0.1844533,0.06132179,0.1146781,0.3255347,0.04656682
0.8471282,0.03162084,-0.05597671,-0.1467556,0.1879021,0.1026579,0.08249437,-0.03378966,0.1657351
0.7939863,0.02791921,-0.02519258,-0.1998066,0.1844393,0.1332624,0.1154364,-0.1111356,0.2694639
0.9304702,-0.03934356,-0.06778208,-0.06319605,0.1173712,0.09048415,0.1063323,-0.4011163,0.2799414
0.9322768,-0.08145523,-0.04043597,-0.06122349,0.07540494,0.1176279,0.1991502,-0.2433956,0.2598342
1.023349,-0.1073376,-0.06860969,0.03005401,0.04961682,0.08923438,0.2970815,-0.1558831,0.2790162
1.079621,-0.1073528,-0.121834,0.08656779,0.04964464,0.03576978,0.4123692,-0.2758366,0.2246809
1.173177,-0.150077,-0.1529975,0.1803964,0.006913369,0.004344364,0.4757539,-0.04766243,0.1037983
1.27983,-0.1792346,-0.1591296,0.2873413,-0.02229896,-0.002070187,0.4361573,-0.04329032,-0.03498314
1.180251,-0.1330105,-0.08426469,0.1880618,0.02382618,0.07249323,0.5561816,0.2756324,-0.09228956
1.205414,-0.1281212,-0.03816881,0.2135169,0.02857544,0.1182686,0.7660874,0.5148334,-0.03267716
1.222192,-0.09875909,0.001151305,0.2305707,0.05775854,0.1572467,0.9127638,0.1445746,-0.0743769
1.171595,-0.08536657,-0.01215233,0.1802207,0.07093423,0.1435754,0.9688689,-0.2679765,-0.2112054
1.217063,-0.1112106,-0.112348,0.2258983,0.0448359,0.04298243,0.8550754,-1.001653,-0.3664199
1.189165,-0.07819985,-0.1985052,0.1981645,0.07755507,-0.04360288,0.4087445,-1.372917,-0.4837094
1.177071,-0.09914277,-0.4195362,0.1861803,0.05628374,-0.2650885,-0.306613,-1.052948,-0.393046
1.128672,-0.1520754,-0.6595993,0.1378325,0.002986443,-0.5056208,-0.5687944,-0.6767052,-0.3200214
1.014871,-0.1931031,-0.6274084,0.0240186,-0.03843986,-0.4738929,-0.2951873,0.007247864,-0.3557408
0.9747951,-0.2726414,-0.5145935,-0.01613364,-0.1184061,-0.3615109,-0.2731517,0.5984993,-0.2924845
0.9092236,-0.3162997,-0.4588843,-0.0818397,-0.1625142,-0.3061843,-0.3772068,0.4053148,-0.2499043
0.9186316,-0.2802204,-0.2569792,-0.07261811,-0.1268974,-0.1045974,-0.2112844,-0.07581586,-0.1782088
1.019284,-0.1792647,-0.09159791,0.02780285,-0.02640821,0.06053628,-0.05642126,-0.2934036,0.05265469
1.036435,-0.1370509,-0.2291341,0.04468327,0.01534069,-0.07717816,0.005272916,-0.3253896,0.2348817
1.044022,-0.1658065,-0.3330595,0.05196248,-0.01387594,-0.1812148,-0.125022,-0.007328878,0.227653
1.052393,-0.1474146,-0.3292691,0.05998927,0.004059808,-0.1774674,-0.4301332,0.5373585,0.1531951
0.9882025,-0.1401948,-0.3467177,-0.004580159,0.01082937,-0.1948869,-0.5025639,0.9230271,0.1688692
0.891001,-0.1238129,-0.2247859,-0.1021931,0.02676733,-0.07285036,-0.4840416,1.202031,0.1899329
0.7930611,-0.07531234,-0.1165961,-0.2005702,0.07482976,0.03551997,-0.5095173,1.08031,0.2078144
0.7502453,-0.06386778,-0.07137658,-0.2438384,0.08584018,0.0809915,-0.4803204,0.7172772,0.2674887
0.7708919,-0.07313443,-0.02116902,-0.2236464,0.07614052,0.1315139,-0.5842797,0.3028068,0.2238755
0.7957121,-0.1273028,-0.02622459,-0.1992699,0.02153761,0.1268255,-0.6505858,-0.1578805,0.1602339
0.842584,-0.1834566,-0.007567672,-0.1528198,-0.03505314,0.1458905,-0.5133707,0.03514246,0.1341624
0.8921174,-0.18592,-0.03947172,-0.1036776,-0.03795463,0.1144247,-0.3427623,0.4314951,0.08631979
0.9011237,-0.1800938,-0.03598413,-0.09502639,-0.03256475,0.1183706,-0.2512768,0.5719894,0.07438024
0.8755258,-0.1750004,0.03299387,-0.1209391,-0.02790311,0.1878175,-0.2554613,0.6617788,0.02074058
0.8178648,-0.1523948,0.03003226,-0.1788709,-0.005722525,0.1853256,-0.1919339,0.3332845,-0.05243
0.7895314,-0.0989276,0.08662899,-0.2074257,0.04732782,0.2423819,-0.1077459,-0.07663454,-0.06556952
0.8107458,-0.07251096,0.08536766,-0.1863767,0.07333513,0.2415584,-0.1381999,-0.3747033,-0.06721457
0.8837096,-0.08956985,0.01909982,-0.1135166,0.05587234,0.1756954,-0.2372513,-0.4843869,-0.0568063
1.038965,-0.09026241,0.01857958,0.04169947,0.05477887,0.1755375,-0.3930547,-0.2395665,-0.04037435
1.181036,-0.08873476,-0.05236367,0.1837933,0.05590651,0.1049072,-0.4956944,-0.1784752,0.02930545
1.264027,-0.1052523,-0.1102765,0.2668569,0.03898809,0.0472537,-0.6271422,0.1553465,0.107911
1.333391,-0.1359157,-0.1100239,0.3363317,0.007921988,0.04771087,-0.8799876,0.8792469,0.08402762
1.332724,-0.1439761,0.003092093,0.3357921,-0.0005430829,0.1609765,-0.9514842,1.088249,0.07536592
1.239066,-0.1115728,0.2343892,0.2422628,0.03145425,0.392365,-0.7535455,0.6051599,0.1735612
1.182368,-0.1147772,0.2403087,0.1856788,0.02784299,0.3983081,-0.3895235,-0.5758502,0.3655602
1.272288,-0.2589958,-0.05038937,0.2756875,-0.1167825,0.1075536,0.0237882,-1.498168,0.6249441
1.417359,-0.520281,-0.4774714,0.4208083,-0.3784698,-0.3196691,0.06173026,-0.8096978,0.6988082
1.431322,-0.6229199,-0.7082286,0.4347698,-0.4814925,-0.5506397,-0.2094015,1.166333,0.3440991
1.224471,-0.4376322,-0.5040283,0.2278478,-0.2965513,-0.3467012,-0.2706402,2.93377,-0.1406993
0.8339355,-0.2014809,-0.2578003,-0.1628357,-0.06069312,-0.1007593,-0.3018986,2.798679,-0.2436107
0.4853902,-0.08488602,-0.1073161,-0.5116019,0.05566855,0.04942926,-0.3396787,0.7683222,-0.002369738
0.4439566,-0.1044581,0.07609874,-0.5533077,0.03592137,0.232542,0.01126775,-1.376599,0.1726732
0.6750282,-0.2422333,0.05930111,-0.3225317,-0.1019753,0.2154308,0.4737101,-2.566117,0.1037474
0.9750505,-0.3629389,-0.09277828,-0.02280533,-0.2227501,0.06301884,0.5938473,-2.470465,-0.2006196
1.148585,-0.3301458,-0.2148544,0.1504433,-0.1899701,-0.05941317,0.3793307,-1.327134,-0.6058587
1.07167,-0.1566844,-0.3824901,0.07325122,-0.01646108,-0.2274254,0.2574647,0.08369476,-0.6869464
0.9435648,-0.002579945,-0.4199872,-0.05512632,0.1377518,-0.2653102,0.3700727,1.032719,-0.3690144
0.8652793,-0.01601978,-0.2541585,-0.1336786,0.1244745,-0.09986793,0.3807966,0.6002928,-0.1294457
0.7078984,-0.07147986,-0.07274233,-0.2913157,0.06922136,0.08117197,0.4171318,-0.3943395,-0.06426048
0.6922809,-0.04236649,-0.03028616,-0.3071682,0.09857691,0.1232636,0.4802675,-0.9026154,-0.04733359
0.867236,-0.05922594,-0.1482497,-0.1324148,0.08198711,0.004944109,0.3739609,-1.37986,-0.1004209
1.000453,-0.08877683,-0.2224127,0.000642223,0.05272633,-0.0695685,0.3207902,-0.7642119,-0.1096765
1.109104,-0.04012035,-0.2326462,0.1091772,0.1016872,-0.08014379,0.3055407,0.3499637,-0.07842849
1.09028,-0.006307749,-0.2283133,0.09027511,0.1358122,-0.07614105,0.2476212,0.4978504,0.0002204689
0.9655505,0.03418039,-0.1362756,-0.0344999,0.1766133,0.01558135,0.1694018,0.6787435,0.1767474
0.8905237,0.05675564,-0.03827395,-0.1095433,0.199493,0.1132835,0.09875637,0.3185148,0.3172173
0.830042,-0.002723746,0.0386365,-0.1700113,0.1403005,0.1899066,0.1239365,-0.3455738,0.3956682
0.909744,-0.056418,0.0393087,-0.09026144,0.08686768,0.1902964,0.157487,-0.4249183,0.4129679
1.040394,-0.09862795,-0.03080603,0.04047341,0.04488886,0.1198956,0.2464567,-0.5624337,0.3566503
1.102424,-0.1155355,-0.07481714,0.1026241,0.02818005,0.07558827,0.3656528,-0.1567145,0.2596359
1.176298,-0.1024697,-0.1577237,0.1766479,0.04141183,-0.007628179,0.3378799,0.2939503,0.1450818
1.123367,-0.1210432,-0.180996,0.1238869,0.02297168,-0.03122406,0.24014,0.3524391,0.1133022
1.072802,-0.1212124,-0.1151495,0.07350374,0.02290358,0.03428709,0.1382146,0.4115695,0.1064082
1.117499,-0.1211638,-0.04036609,0.1183865,0.0230218,0.1087244,0.1282866,0.09714442,-0.03028569
1.103921,-0.1634675,0.08501285,0.1049938,-0.01924253,0.2337442,0.338189,-0.0164921,-0.2086559
1.129952,-0.2098824,0.1208716,0.1312009,-0.06564614,0.2692241,0.7043666,-0.2226591,-0.2866717
1.166558,-0.237331,-0.02677413,0.1679699,-0.09310725,0.121171,0.8717101,-0.9142639,-0.4285005
1.185222,-0.1963918,-0.2865134,0.1867751,-0.05219917,-0.139009,0.384835,-1.355129,-0.7132331
1.205609,-0.1308623,-0.5013853,0.207275,0.01328522,-0.3543507,-0.2824568,-1.113088,-0.7506075
1.115376,-0.1264631,-0.5300122,0.1171173,0.01762763,-0.3834615,-0.3254332,-0.4604924,-0.51172
1.030554,-0.1880551,-0.5082838,0.03232954,-0.04403169,-0.3622115,-0.1917939,-0.1819463,-0.4046846
1.053175,-0.2553373,-0.5057784,0.05494128,-0.1113897,-0.3601589,-0.3843773,0.1349513,-0.4317943
1.120565,-0.2129377,-0.386514,0.1222776,-0.06907033,-0.2413044,-0.4660084,0.2268834,-0.350755
1.163086,-0.1292066,-0.2264673,0.164701,0.01458046,-0.08161225,-0.2755041,-0.100862,-0.0519237
1.11532,-0.1228337,-0.2499803,0.1167883,0.02087483,-0.1054181,-0.09821738,0.1808137,0.3071647
1.024975,-0.1497867,-0.3383098,0.02624626,-0.006155166,-0.193976,-0.09353461,0.2665167,0.4745973
0.9395394,-0.19655,-0.3062266,-0.05943617,-0.05299364,-0.1620536,-0.1848309,0.3148527,0.430231
0.8486145,-0.2153479,-0.2729455,-0.1506526,-0.07186353,-0.1288616,-0.2056857,0.7474573,0.3125127
0.7643466,-0.1982381,-0.202414,-0.2352473,-0.05481977,-0.05834526,-0.1972183,0.7745886,0.2806488
0.7201409,-0.2005951,-0.095075,-0.2798018,-0.05723378,0.04905151,-0.1294897,0.9038371,0.2930801
0.7305719,-0.1697252,-0.06365711,-0.2697267,-0.02640976,0.0805952,0.02403166,0.6823072,0.278757
0.7560814,-0.1598402,-0.012137,-0.2445646,-0.01655795,0.1323008,0.07158328,0.08383689,0.2433015
0.7934921,-0.2079748,-0.01944364,-0.2074796,-0.06471232,0.1252293,0.02523695,-0.16822,0.1136898
0.8686932,-0.2481825,-0.07166667,-0.1325718,-0.1049248,0.07328088,0.02674787,-0.3629963,0.005608057
0.9345404,-0.281038,-0.03884531,-0.06697839,-0.137767,0.1064072,0.1430732,-0.05501269,-0.03157132
0.910034,-0.2451134,-0.03100687,-0.09169556,-0.1018067,0.114573,0.2924427,0.2960354,-0.06179126
0.8168684,-0.1753994,0.02080316,-0.1850262,-0.03203047,0.1667244,0.3607047,0.2445457,-0.03475872
0.7593268,-0.1460297,0.1104095,-0.2426828,-0.002570878,0.2566763,0.4514689,0.144636,-0.03048589
0.7648895,-0.1107144,0.1009289,-0.2371778,0.03286088,0.2475338,0.4935177,-0.3289034,-0.06606223
0.802338,-0.09642743,0.08373061,-0.1997221,0.04728803,0.2306533,0.2839463,-0.7072011,-0.1004652
0.8945924,-0.0853153,0.03225766,-0.1073895,0.05855997,0.1794665,-0.01131083,-0.8777129,-0.1215386
1.111987,-0.06595365,-0.08883191,0.1101561,0.07809646,0.05862301,-0.1065595,-1.025992,-0.09668425
1.36732,-0.09808641,-0.180567,0.3657047,0.04614872,-0.03290974,-0.09465153,-0.7816378,-0.08062601
1.469149,-0.1287898,-0.2276599,0.4677983,0.0156364,-0.0798426,-0.2684661,-0.0425023,-0.05910352
1.449911,-0.1200573,-0.2148532,0.4488504,0.02456324,-0.06691325,-0.5690351,1.298356,-0.03862122
1.387882,-0.1005406,-0.1227322,0.3871101,0.04427542,0.02529834,-0.7461978,2.000271,0.006233943
1.220434,-0.06286176,0.09885085,0.2199288,0.0821483,0.2469416,-0.688715,1.143769,0.1650986
1.035325,-0.03418473,0.3387554,0.03505109,0.1110141,0.4868702,-0.3468206,-0.3348979,0.3745742
1.066832,-0.1621312,0.1939376,0.06674828,-0.01675275,0.3420261,0.06269407,-1.988689,0.5780305
1.192025,-0.4456518,-0.2421512,0.1920868,-0.3001033,-0.09415256,0.1448022,-2.497414,0.6449684
1.18003,-0.6350111,-0.5346518,0.1801897,-0.4892933,-0.3868072,0.01483648,-0.5200273,0.4130569
1.19444,-0.6291853,-0.678095,0.1946442,-0.4832808,-0.5304529,0.02053212,1.870118,-0.0329809
1.096867,-0.4357824,-0.5676217,0.09705751,-0.2896529,-0.4202055,-0.04710173,2.443941,-0.4006399
0.7812266,-0.1514213,-0.3132352,-0.2186561,-0.005013832,-0.1660441,-0.2191803,1.515219,-0.3987826
0.6587912,-0.05824973,-0.2078704,-0.3412167,0.08849236,-0.06088761,-0.09220789,0.1426273,-0.2035496
0.669362,-0.1537271,-0.005586289,-0.3308066,-0.006598455,0.1412102,0.2143009,-0.9811644,-0.1978173
0.7645688,-0.2463225,0.06293515,-0.2357771,-0.09876121,0.2095646,0.4912699,-1.66424,-0.376079
1.030281,-0.3045061,-0.1702179,0.02975617,-0.1564679,-0.02374343,0.6101391,-1.411867,-0.6387114
1.124994,-0.2356953,-0.337057,0.1242943,-0.08713518,-0.1907292,0.3918929,-0.2230322,-0.7523252
1.071168,-0.09147285,-0.4638892,0.07029612,0.0576546,-0.317695,0.2695635,0.9855247,-0.4722651
1.006836,-0.05181224,-0.3516756,0.005790497,0.09792409,-0.2055914,0.3776206,1.446783,-0.1212857
0.858269,-0.002879286,-0.1269546,-0.1429526,0.1474994,0.01905312,0.3660434,0.6065926,0.01733287
0.6958167,0.004235954,-0.1301928,-0.305578,0.15528,0.01577526,0.3844072,-0.3112676,0.04056001
0.6655252,-0.1223613,-0.09083685,-0.3360287,0.02936112,0.05512624,0.489753,-0.5973895,0.02101657
0.789089,-0.122134,-0.1162579,-0.2125962,0.03027225,0.02973053,0.5680101,-1.058364,0.02641699
0.8723976,-0.1107117,-0.1851081,-0.1293793,0.04237906,-0.0390676,0.6203526,-0.8582124,0.008691049
0.9807704,-0.1529469,-0.154452,-0.02105203,0.0008255208,-0.00833508,0.5924267,-0.1679298,-0.03050239
1.096287,-0.02569897,-0.2245027,0.09446588,0.1287489,-0.07828561,0.514932,0.4510866,0.03718601
1.011917,0.04549459,-0.2295633,0.01013851,0.200606,-0.08322192,0.3521164,0.9236649,0.1726335
0.9179207,0.02152977,-0.1423561,-0.08377635,0.1772845,0.004134806,0.218073,0.3429418,0.3450623
0.8534396,0.003692372,-0.04202296,-0.1481395,0.1600607,0.1046418,0.2930368,-0.2436994,0.4972241
0.8167882,-0.07880358,0.08215303,-0.1846337,0.07814072,0.2290107,0.4801822,-0.5460521,0.5195512
0.9186474,-0.1016898,0.06302911,-0.0825738,0.05578794,0.2100889,0.6346661,-0.8383591,0.4549697
1.099265,-0.09115465,-0.08983629,0.09828997,0.06681152,0.05742424,0.5083693,-0.1902893,0.3414666
1.295298,-0.09494915,-0.2262692,0.2946096,0.06345912,-0.07881606,0.2451856,0.285134,0.2152937
1.226146,-0.1332438,-0.1398085,0.2257716,0.0255593,0.007828335,0.2493443,0.1566019,0.1474401
1.060613,-0.2051478,0.03656752,0.06056764,-0.04599656,0.1843789,0.3150002,0.006724863,0.06165509
1.18127,-0.185097,0.04460329,0.1815562,-0.02564177,0.192576,0.3851401,-0.2337721,-0.08035784
1.215016,-0.1805853,0.07568666,0.2156297,-0.02086647,0.223799,0.6297735,-0.181649,-0.1650001
1.192102,-0.1945019,0.04804017,0.1930277,-0.03455624,0.1962613,0.7974011,-0.3188047,-0.3110777
1.316022,-0.1450362,-0.1679339,0.3172343,0.01510262,-0.01964215,0.6955462,-0.7119677,-0.61136
1.250479,-0.06539422,-0.3686366,0.2519394,0.09490603,-0.2203133,0.2247096,-0.803555,-0.7301819
1.106069,0.01966424,-0.4937499,0.1077296,0.1800929,-0.3454259,-0.4105788,-0.7558061,-0.5453269
0.9824132,-0.04604313,-0.4977442,-0.01578107,0.1144769,-0.3494345,-0.6297543,-0.5963016,-0.3419972
0.89583,-0.1587499,-0.5007826,-0.1022726,0.001820456,-0.3524841,-0.5771019,-0.3907281,-0.2825843
1.047024,-0.1635178,-0.5111251,0.04896427,-0.00293863,-0.3628167,-0.7410618,-0.1215679,-0.2637675
1.168825,-0.1885275,-0.3528503,0.1707628,-0.02797855,-0.2044951,-0.7689698,0.08752888,-0.07120181
1.188113,-0.2034945,-0.256012,0.1900022,-0.04301118,-0.1075618,-0.4513536,0.2286022,0.2337683
1.149736,-0.1858338,-0.2841342,0.1515238,-0.025447,-0.1355356,-0.2973302,0.5410198,0.3463613
0.9537836,-0.1967271,-0.2771816,-0.04458402,-0.03646365,-0.1283783,-0.3315342,0.6413933,0.3239714
0.8554557,-0.1915696,-0.2578283,-0.1431206,-0.03145217,-0.1087623,-0.3312452,0.628984,0.3819273
0.8356215,-0.1723763,-0.2389821,-0.1632083,-0.01242413,-0.08959429,-0.397561,0.7590725,0.3692867
0.7799542,-0.1565342,-0.2309291,-0.2191623,0.003236449,-0.08116034,-0.4951798,0.7996303,0.3048249
0.745597,-0.141272,-0.1643207,-0.2538263,0.0183028,-0.01411318,-0.4904118,0.7728092,0.3588009
0.686899,-0.1338895,-0.07562561,-0.3128366,0.02547617,0.07507522,-0.3419521,0.5730488,0.3403638
0.7159671,-0.1438999,-0.06050883,-0.2840709,0.01524402,0.09073316,-0.2542774,0.2480519,0.2416185
0.8064898,-0.2035518,-0.0711365,-0.1938261,-0.04464135,0.08068594,-0.2904884,-0.007599175,0.1422345
0.8644456,-0.2636372,-0.08533479,-0.1361126,-0.1049695,0.06709871,-0.2314209,-0.05181852,0.01363778
0.8843923,-0.2505865,-0.06979596,-0.1163656,-0.09216598,0.08327133,-0.1013477,0.2032534,-0.02091749
0.8477324,-0.222948,-0.05883581,-0.1531779,-0.06477357,0.09488058,0.03788509,0.4064333,-0.05159343
0.8582879,-0.2164427,-0.03763759,-0.1427236,-0.05850876,0.1167357,0.1375482,0.453539,-0.08980927
0.8621384,-0.1819494,0.01142183,-0.1389192,-0.02424669,0.1664517,0.1519462,0.3794821,-0.06642257
0.8440356,-0.119007,0.03065396,-0.1570092,0.03847535,0.186331,0.03890397,0.1270274,-0.1006558
0.9075803,-0.05083358,0.07977779,-0.09339012,0.1064384,0.2360825,-0.2076822,-0.1939971,-0.1045933
1.032912,-0.02803519,0.05771107,0.0320789,0.129033,0.214613,-0.3539906,-0.5237287,-0.05558604
1.223211,-0.06383382,-0.04828004,0.2225727,0.09303162,0.1091785,-0.4330393,-0.5986865,-0.009582979
1.367556,-0.08082231,-0.1100379,0.3671605,0.07583655,0.04793005,-0.5875585,-0.2530226,0.03726088
1.419743,-0.1130612,-0.1598407,0.4196175,0.0433837,-0.001412966,-0.75427,0.5304033,0.04248509
1.391904,-0.1606714,-0.08117122,0.392056,-0.004449669,0.077667,-0.921385,1.419744,0.08918842
1.212163,-0.1379043,0.08459249,0.2125778,0.01808512,0.2437909,-0.9784595,1.470805,0.1591903
1.062302,-0.1669827,0.1093528,0.06295186,-0.01123403,0.2688558,-0.7177325,0.2950478,0.2666637
1.041323,-0.3222662,-0.05224492,0.04217148,-0.1667645,0.1074993,-0.2774347,-1.431028,0.492001
1.095006,-0.5394083,-0.3733151,0.09601647,-0.3841528,-0.2133968,-0.1458361,-2.077583,0.6211951
1.171027,-0.6816892,-0.5731512,0.1721601,-0.5266643,-0.4131183,-0.1650279,-0.7487546,0.4978646
1.123351,-0.5214818,-0.5079621,0.1245627,-0.3666514,-0.3478566,-0.01500206,1.298031,0.2014861
1.076827,-0.240559,-0.4951319,0.0780714,-0.08586879,-0.3349746,-0.01408072,2.403797,-0.1098462
1.036234,-0.1487425,-0.4855288,0.03746189,0.005870392,-0.3253212,-0.1032298,1.761661,-0.2123477
0.815827,-0.1936399,-0.14578,-0.1830092,-0.03904161,0.01449128,-0.105319,0.2271978,-0.1187473
0.6384192,-0.2846362,0.2083677,-0.3605198,-0.1299923,0.3687208,0.06041223,-0.9519356,-0.1636493
0.6943345,-0.3176512,0.1349265,-0.3047309,-0.1629017,0.2953708,0.3779938,-1.83518,-0.3890948
0.8295624,-0.2591504,-0.09274676,-0.1696357,-0.1042333,0.06778366,0.3604683,-1.787676,-0.556855
0.8503404,-0.1184695,-0.2796468,-0.1489836,0.03667792,-0.1190437,0.1946486,-0.7711398,-0.5663201
0.8266473,0.04774804,-0.4811857,-0.1727867,0.2031844,-0.3205216,0.2336692,0.01697626,-0.3016456
0.8524405,-0.004030468,-0.3456343,-0.14708,0.1517435,-0.1849108,0.350278,0.3084944,-0.03362033
0.8561277,-0.1205708,-0.04895066,-0.1434493,0.03557758,0.1118405,0.5478221,-0.1451764,-0.09219157
0.9010611,-0.09800883,-0.08194384,-0.09853702,0.05854184,0.07892525,0.5628379,-0.4368061,-0.1679516
0.9399154,-0.1041587,-0.1341867,-0.05966502,0.05281585,0.02676701,0.4919964,-0.03035658,-0.1433431
0.9764705,-0.06346279,-0.1298497,-0.02305203,0.09395138,0.03119172,0.5553083,0.08301598,-0.1236532
1.037844,0.02608704,-0.1852146,0.03841883,0.18395,-0.02408439,0.4254531,0.4454284,-0.05411597
0.9498871,0.05819647,-0.1093631,-0.04940527,0.2165082,0.05185599,0.211766,0.6846519,0.04218722
0.8481385,0.1042027,-0.04644998,-0.1509858,0.2629521,0.1148563,0.07067374,0.387634,0.2126744
0.8014178,0.08511167,0.01661332,-0.197502,0.244275,0.1780009,0.01134995,0.3692253,0.4042789
0.7867467,0.02222968,0.07075458,-0.2119266,0.1817716,0.2322103,0.1564367,-0.006298139,0.4607763
0.8772598,-0.03556233,0.008716982,-0.1211193,0.1243135,0.1702185,0.2656281,-0.4114787,0.4152588
0.9631098,-0.1186814,0.007141956,-0.03492366,0.04147817,0.1686585,0.2921503,-0.3497941,0.3243214
1.151036,-0.1298958,-0.09144409,0.1533982,0.03049585,0.07005043,0.354923,-0.1869445,0.1514377
1.376228,-0.1322675,-0.223043,0.3790275,0.02830503,-0.06161016,0.351617,0.2921572,2.130131e-05
1.369334,-0.1449637,-0.1649556,0.3725956,0.01574043,-0.003622348,0.2930618,0.623086,-0.01368058
1.279565,-0.1027789,-0.06557117,0.2832933,0.05800929,0.09562788,0.2666056,0.6380502,-0.06931057
1.238076,-0.09089236,0.08075279,0.2422566,0.06993348,0.2417829,0.4403887,0.398021,-0.1656952
1.193512,-0.09179914,0.1619566,0.1981179,0.06901819,0.3227776,0.7707737,-0.3365292,-0.1863514
1.156809,-0.1044401,0.1235916,0.1618005,0.05632248,0.2841532,0.8505038,-1.249685,-0.3905535
1.204759,-0.1447468,-0.03096583,0.2100899,0.0159154,0.1292765,0.4431633,-1.694219,-0.7689383
1.282698,-0.1478525,-0.4010418,0.2883136,0.01266536,-0.2411821,-0.1848933,-1.105249,-0.8724004
1.250489,-0.1399832,-0.6078427,0.2563259,0.0203488,-0.44842,-0.4434037,-0.174663,-0.6407543
1.156966,-0.1236941,-0.5357089,0.1629518,0.03641308,-0.3767575,-0.3299039,0.5426064,-0.4544967
1.046567,-0.1022094,-0.4774274,0.05262257,0.05763598,-0.3189582,-0.4021576,1.01642,-0.3519277
0.9971809,-0.118734,-0.3677021,0.003228488,0.0408137,-0.2097063,-0.5440142,0.4803534,-0.09330029
1.05806,-0.1725854,-0.2107079,0.06402443,-0.01336979,-0.05316287,-0.3732208,-0.1776037,0.1281042
1.075191,-0.2240263,-0.1624639,0.08099963,-0.06517434,-0.005340329,-0.2129167,-7.041951e-06,0.1734395
1.056051,-0.1990549,-0.200389,0.06163565,-0.04059343,-0.04365586,-0.2723408,0.0840273,0.3195425
1.019278,-0.1576992,-0.2444373,0.02457142,0.0003502629,-0.08806276,-0.2864949,0.2744468,0.4636852
0.8960453,-0.1642565,-0.2538157,-0.09901608,-0.006636712,-0.09776604,-0.2835256,0.8249638,0.4019781
0.7885838,-0.1342069,-0.2115103,-0.206887,0.02296826,-0.0557492,-0.3179233,1.000142,0.3792224
0.7102834,-0.09432547,-0.1106002,-0.2856392,0.06239162,0.04491013,-0.3138179,0.9365562,0.404803
0.6276237,-0.1032292,-0.02375195,-0.368776,0.05301678,0.1315432,-0.3419065,0.7475433,0.3361652
0.6179271,-0.1384069,0.01118493,-0.3789555,0.01735454,0.1662946,-0.3365361,0.2318827,0.2605725
0.6687317,-0.21444,0.03077102,-0.3286195,-0.05917552,0.1857158,-0.2772094,-0.3437141,0.1212742
0.7522327,-0.2751074,0.004319145,-0.2455549,-0.1203488,0.1591099,-0.1619721,-0.5242748,-0.01040652
0.8313306,-0.2650741,-0.02789438,-0.1668475,-0.1108242,0.1267444,0.053293,-0.1955008,0.00147481
0.8285888,-0.2307226,-0.01565432,-0.1699252,-0.07697739,0.1388272,0.1290285,0.1680227,0.002524874
0.8012643,-0.166059,-0.006090563,-0.1975246,-0.01280866,0.1482219,0.03922042,0.2878398,-0.01481315
0.8139781,-0.09691309,0.02283633,-0.1850189,0.0558548,0.176962,0.005942391,0.119957,-0.03662107
0.8545194,-0.09210856,0.07641901,-0.1446139,0.06018902,0.230333,-0.04185614,-0.2823718,-0.1194836
0.9695122,-0.08429034,0.101909,-0.02968246,0.06754687,0.2555786,-0.201362,-0.5466991,-0.1460598
1.126289,-0.05192684,0.075445,0.1271061,0.099457,0.2288283,-0.3230825,-0.6514848,-0.1051678
1.234206,-0.09555128,-0.006546966,0.2351012,0.05538295,0.1465003,-0.3475431,-0.5794059,-0.05524571
1.37632,-0.1655653,-0.1001727,0.3773433,-0.01507934,0.05248393,-0.502728,-0.03252268,-0.001359209
1.505388,-0.1529309,-0.1175248,0.506572,-0.002891972,0.03468623,-0.7977278,1.006386,0.05237434
1.426951,-0.08293605,0.02557426,0.4283025,0.06665754,0.177286,-0.9154073,1.742207,0.1458793
1.262614,-0.0242751,0.2204502,0.2641166,0.1248741,0.3716076,-0.8199147,0.9698451,0.2900737
1.127852,-0.09391009,0.2199759,0.1294728,0.05479287,0.3705159,-0.6250468,-0.7373158,0.4795065
1.046286,-0.3466638,-0.04464655,0.04798363,-0.1984104,0.1052033,-0.3342582,-1.88952,0.6405863
1.134532,-0.6381295,-0.4395599,0.1362625,-0.4903221,-0.2904756,-0.1816136,-1.755931,0.6248185
1.202707,-0.7195047,-0.679441,0.2044219,-0.5721223,-0.5311854,-0.2191999,0.107656,0.3576353
1.160974,-0.468644,-0.6340103,0.1626231,-0.3216421,-0.4866213,-0.1786887,2.229799,-0.05896766
1.084915,-0.1676816,-0.4836898,0.08644144,-0.02099714,-0.3371767,-0.2734483,2.510816,-0.2865172
0.837195,-0.09841457,-0.2408441,-0.1614587,0.0480217,-0.09519278,-0.4371938,1.096241,-0.2525107
0.6618963,-0.1926059,0.07229005,-0.336987,-0.04635102,0.217105,-0.02484613,-0.7206185,-0.3087157
0.7395115,-0.3385232,0.1446393,-0.259636,-0.1923858,0.2886417,0.5886091,-1.693325,-0.3975953
0.8148677,-0.3804521,-0.02738211,-0.1845619,-0.2343669,0.1158221,0.6847284,-1.666689,-0.3959876
0.8671378,-0.2405898,-0.2216865,-0.1325778,-0.09448707,-0.07927369,0.49519,-1.32683,-0.5513777
0.8742948,-0.03544508,-0.397899,-0.1257012,0.1107469,-0.2562701,0.325403,-0.7191734,-0.5711128
0.8121717,0.08143749,-0.4211822,-0.1880913,0.2277847,-0.2803204,0.2508501,0.267383,-0.2464704
0.8020595,0.05263734,-0.2573692,-0.1984491,0.1991933,-0.1172452,0.3567589,0.6558386,0.008804258
0.8230469,0.01717625,-0.1252266,-0.1776774,0.1639798,0.01419799,0.4816038,0.08814194,0.07816135
0.8589662,-0.02731267,-0.07019193,-0.141936,0.1197648,0.06857409,0.435745,-0.0557888,0.006871202
0.9138889,-0.09285014,-0.05918916,-0.0871476,0.05451766,0.07895669,0.3957745,-0.1007138,-0.0171127
0.9725071,-0.05589167,-0.08379185,-0.02861722,0.09177586,0.05376782,0.4343211,-0.3572763,0.07384412
1.003892,-0.0008610398,-0.08913066,0.00272682,0.1471096,0.04787264,0.2737002,0.1194192,0.07358403
0.9541673,0.03602309,-0.1013182,-0.04699506,0.1842929,0.03515516,0.04530295,0.2641427,0.1956743
0.8869741,0.02921453,-0.08431306,-0.1141419,0.177771,0.05165412,0.03134879,-0.006536842,0.3788259
0.8723145,-0.07841202,0.009296238,-0.1287112,0.07041027,0.1447777,0.2059344,-0.2668966,0.412743
0.953187,-0.1723691,0.07157414,-0.04770268,-0.02330691,0.2065847,0.5062991,-0.944288,0.3931195
1.158799,-0.1956314,0.002776453,0.1580907,-0.04635579,0.1373233,0.7099415,-1.030858,0.2101757
1.342685,-0.1273928,-0.1203758,0.3421955,0.02207191,0.01370754,0.7136932,-0.3740912,0.05110781
1.336541,-0.04996968,-0.1291666,0.3362937,0.09966097,0.004450416,0.5071118,0.5744952,0.07837882
1.213766,-0.05910316,-0.09291839,0.2137656,0.09066891,0.04022937,0.1288947,1.115801,0.0542977
1.145276,-0.09033059,-0.07699983,0.1455121,0.05955553,0.05567604,-0.003950731,0.4717875,-0.1147698
1.15564,-0.1619773,0.06533747,0.1560944,-0.01200634,0.1975371,0.2883456,-0.2592332,-0.3529376
1.209989,-0.2389009,0.1714322,0.2106331,-0.08887317,0.3031457,0.8208178,-0.6440027,-0.5615205
1.27732,-0.2292156,-0.05836986,0.2781183,-0.07915543,0.07283926,1.130491,-0.9368843,-0.7629707
1.295634,-0.1449701,-0.4397653,0.2965399,0.005103186,-0.3090827,0.6404865,-0.7388968,-0.7887805
1.244966,-0.07583355,-0.5537569,0.2459228,0.07423659,-0.4236147,-0.1851607,-0.4635963,-0.5490396
1.101644,-0.1645439,-0.4811361,0.102585,-0.01449309,-0.3515295,-0.4542793,-0.4010414,-0.4062117
0.9702824,-0.2873504,-0.5091932,-0.02886125,-0.1373341,-0.380097,-0.3964776,-0.05403488,-0.4732485
1.067561,-0.2594584,-0.4456178,0.06826488,-0.1094874,-0.3169883,-0.4490651,0.3391776,-0.4846817
1.200501,-0.1806782,-0.2590884,0.2009863,-0.03075731,-0.1308669,-0.3968283,0.3048666,-0.2263861
1.112164,-0.1122404,-0.2269248,0.1123662,0.03762928,-0.0990444,-0.2565497,0.3213906,0.1408287
1.014499,-0.08454775,-0.2655705,0.01435026,0.06527017,-0.1379605,-0.2568541,0.4694746,0.3643186
0.9385391,-0.1228282,-0.2450412,-0.062024,0.02693549,-0.1176294,-0.3834032,0.5414001,0.4538156
0.8015939,-0.1348165,-0.2223877,-0.1994408,0.01488879,-0.09510018,-0.5577442,0.7089098,0.4325652
0.7668386,-0.1488176,-0.1972803,-0.2347128,0.0008242839,-0.07004274,-0.6540444,0.762659,0.3839233
0.7096784,-0.1824572,-0.1500549,-0.2924193,-0.03288344,-0.02279417,-0.6312788,0.7761846,0.3569797
0.6272209,-0.1699182,-0.09126977,-0.3754352,-0.02041602,0.03608405,-0.5046641,0.7370096,0.340429
0.687334,-0.1746093,-0.03139576,-0.3158738,-0.02518074,0.09611532,-0.3481652,0.4259088,0.3250984
0.7187028,-0.2018749,0.004958315,-0.2850317,-0.05251997,0.1326825,-0.332074,0.08057985,0.2118213
0.7686462,-0.2148386,0.01653548,-0.235575,-0.06555514,0.1445183,-0.3391296,-0.1430281,0.09456371
0.8518775,-0.2269184,0.001563584,-0.1527786,-0.07770134,0.1298398,-0.2080966,-0.03710773,0.08005681
0.8402689,-0.1997295,-0.04559365,-0.1647628,-0.0505704,0.08300069,-0.09521631,0.2509673,0.100256
0.8512914,-0.1590993,-0.0238579,-0.1540509,-0.009987205,0.1050709,-0.05797065,0.3780697,0.1085229
0.8066821,-0.1253468,0.03958658,-0.1989015,0.02372998,0.1688585,0.00740098,0.2610414,0.08076684
0.7456214,-0.09698409,0.05922736,-0.2601287,0.05206811,0.1888424,0.03475414,-0.2375384,-0.005638647
0.822986,-0.1064737,0.1070718,-0.1828501,0.04256231,0.2370199,-0.04582919,-0.7433387,-0.1715949
0.9213155,-0.1084062,0.08629974,-0.08452095,0.04061907,0.2165599,-0.1930117,-0.9630793,-0.2732482
1.060873,-0.106002,-0.004620726,0.0551218,0.04301554,0.1259205,-0.3078489,-0.9788261,-0.2386287
1.287246,-0.1154848,-0.05637907,0.2816596,0.03352564,0.07440492,-0.3052553,-0.7775245,-0.1837503
1.519648,-0.1097567,-0.1594793,0.5142903,0.03924522,-0.02849371,-0.4446256,-0.1107228,-0.1019371
1.614028,-0.09371999,-0.173094,0.608937,0.05527014,-0.04194716,-0.8346787,1.423126,-0.05945204
1.472856,-0.01243172,0.0445499,0.4680413,0.1365406,0.1758201,-1.035507,2.4513,-0.02091932
1.223043,0.07738046,0.3250959,0.2184863,0.2263242,0.4564486,-0.9008706,1.459598,0.1866189
0.9705425,0.01694202,0.4091853,-0.03379157,0.1658386,0.5405667,-0.5720247,-0.5514046,0.4778522
0.8610581,-0.1944558,0.1533181,-0.1430914,-0.04563157,0.2846563,-0.1841984,-2.452008,0.7047332
0.9448269,-0.4857617,-0.2004105,-0.0591717,-0.3370346,-0.06920079,-0.07577264,-3.122424,0.7220908
1.01626,-0.6764173,-0.4813333,0.01238419,-0.5278004,-0.3503362,-0.05788175,-1.955357,0.5506849
1.159933,-0.5844728,-0.7483165,0.1561554,-0.4359578,-0.617599,0.1489253,-0.0545485,0.2844006
1.344099,-0.3598046,-0.8904552,0.3403912,-0.2113615,-0.7600548,0.106693,2.242417,-0.06376622
1.179867,-0.1875144,-0.7435441,0.1761911,-0.03909917,-0.6134615,-0.0619806,3.068969,-0.1855188
0.8252544,-0.1389235,-0.2973824,-0.1784349,0.009512702,-0.1675862,-0.0006467039,1.224593,-0.1501419
0.6289124,-0.2255736,0.07697456,-0.3748312,-0.07706893,0.2065334,0.1539975,-0.07424336,-0.2850683
0.6244941,-0.2453974,0.05938934,-0.37933,-0.09677832,0.1887587,0.4551538,-0.9525946,-0.4491187
0.7639679,-0.2174172,-0.1075931,-0.2399433,-0.06863744,0.02162508,0.5216499,-1.981176,-0.6531237
0.797462,-0.1734009,-0.2004475,-0.2065265,-0.02441425,-0.07134967,0.2738381,-1.142658,-0.6847479
0.7563063,0.005806403,-0.3073996,-0.2477375,0.1550436,-0.178392,0.3009653,-0.4943051,-0.3661438
0.8246906,0.02306113,-0.3677026,-0.1793766,0.1725856,-0.2387512,0.4858386,-0.2520702,-0.1338202
0.8621915,-0.07287348,-0.2620152,-0.1418588,0.07696472,-0.1330785,0.6354877,0.323151,-0.01509911
0.8978108,-0.0451476,-0.1964743,-0.1061767,0.1050216,-0.06750533,0.5845815,-0.2252245,0.002589444
0.9354098,-0.08225959,-0.2037537,-0.06846635,0.0682506,-0.07470288,0.3981724,-0.2439461,-0.04922607
0.9628312,-0.05857269,-0.1544024,-0.04088406,0.0922824,-0.0252202,0.4470599,0.09351472,0.07621401
1.025725,0.02305227,-0.1570676,0.02221815,0.17425,-0.02770604,0.330665,0.02235046,0.1369002
0.9688833,0.02840609,-0.1410258,-0.03436909,0.1799367,-0.01143918,0.103139,0.4519815,0.214206
0.8778212,0.05889063,-0.08129434,-0.125135,0.2107353,0.04855973,0.09956019,0.2594929,0.4121338
0.8333086,-0.01659804,-0.02535404,-0.1693088,0.1355329,0.1048048,0.1612734,-0.2898277,0.4683092
0.8517476,-0.1388696,0.04872644,-0.1504856,0.01351302,0.1792197,0.4268524,-0.8198578,0.4558329
1.038394,-0.1593453,-0.01429591,0.03659314,-0.00674794,0.1165519,0.6440582,-1.191806,0.3601644
1.240466,-0.1207131,-0.1466894,0.2391417,0.03206295,-0.01547569,0.6397803,-0.4589181,0.248615
1.324795,-0.07234842,-0.2546278,0.3239809,0.08057134,-0.123041,0.5412752,0.3914895,0.1865398
1.241343,-0.1179743,-0.275249,0.2410571,0.03505394,-0.1432805,0.2437429,0.7895931,0.05671208
1.132707,-0.1613542,-0.08249333,0.1329511,-0.008252953,0.04986853,0.1103063,0.6062965,-0.117982
1.151519,-0.1614943,0.1184205,0.1522815,-0.008353968,0.2511866,0.4083869,-0.02669206,-0.3621941
1.159284,-0.1833221,0.174237,0.1605463,-0.03017398,0.3074095,0.9369909,-0.2625511,-0.4922008
1.220298,-0.1502895,-0.01456838,0.2220318,0.002838055,0.1189993,1.172545,-0.6258179,-0.5322764
1.270956,-0.09638496,-0.4061416,0.2731247,0.05669611,-0.2721982,0.6568032,-0.9522476,-0.6715122
1.174274,-0.06521242,-0.6328089,0.1768302,0.08779666,-0.4985047,-0.2563882,-0.8281588,-0.6782114
1.098532,-0.1275193,-0.63383,0.1014193,0.02539143,-0.4991625,-0.8762688,-0.7360026,-0.5528881
1.069408,-0.2663665,-0.5515535,0.0725664,-0.1135803,-0.4164976,-0.8050168,-0.3478665,-0.4826461
1.116781,-0.2826817,-0.4996551,0.1201495,-0.1300417,-0.3641651,-0.588562,0.2540316,-0.4539858
1.172261,-0.2435236,-0.4513072,0.175775,-0.09104469,-0.3153218,-0.6056948,0.5874207,-0.2708283
1.120317,-0.2311382,-0.2756738,0.1239111,-0.0788279,-0.1391207,-0.2947604,0.4981341,0.09266551
1.08258,-0.1750374,-0.1723991,0.0861851,-0.02289817,-0.03520143,-0.07907905,0.2004892,0.30237
1.009805,-0.1291827,-0.2253455,0.01335236,0.02278614,-0.0874277,-0.2567181,0.1215463,0.4343997
0.9042486,-0.1177546,-0.2632881,-0.09232872,0.0340452,-0.1245781,-0.2345278,0.1391145,0.6018538
0.8639969,-0.1365611,-0.2647204,-0.1327637,0.01507035,-0.1251483,-0.2398824,0.5913911,0.54229
0.7940525,-0.1632829,-0.2534096,-0.2029402,-0.01181969,-0.1129068,-0.3453844,1.342986,0.376383
0.6747713,-0.1437354,-0.1929322,-0.3224889,0.007559759,-0.05143206,-0.3496404,1.443954,0.2802548
0.5961699,-0.1165288,-0.04932842,-0.4013763,0.03459869,0.09323177,-0.377752,0.9985404,0.2330372
0.6136122,-0.1064382,0.05283001,-0.3842184,0.04452142,0.196504,-0.3447284,0.3259091,0.2612993
0.6888541,-0.1393843,0.05770007,-0.3092397,0.01140615,0.2025281,-0.3370879,-0.3493941,0.1847977
0.7908753,-0.2184273,0.04306874,-0.2074435,-0.06780777,0.1890754,-0.3174692,-0.6039865,0.0292268
0.8868561,-0.2420779,0.001408694,-0.1116389,-0.09162887,0.1486038,-0.130808,-0.2697191,-0.01729138
0.8943146,-0.2062627,-0.01986208,-0.1043018,-0.05598011,0.1285186,0.1170238,0.284676,-0.06862761
0.8599517,-0.1711172,0.007966671,-0.1387286,-0.02099334,0.1575195,0.3009893,0.4242331,-0.09442936
0.8454563,-0.1249466,0.06062883,-0.153228,0.02502801,0.2113302,0.2601806,0.2782317,-0.08514097
0.8784592,-0.07484327,0.08494401,-0.1201664,0.07499112,0.2367595,0.09049839,0.04863299,-0.1209128
0.953471,-0.03596063,0.055707,-0.04503132,0.1137398,0.2085904,-0.1661878,-0.3013112,-0.09975121
1.044054,-0.02482716,0.03232321,0.0457386,0.1247408,0.1862178,-0.4155292,-0.6907512,-0.06112458
1.310766,-0.08115493,-0.06933075,0.3126941,0.06827677,0.08550974,-0.3791434,-0.7624532,0.0002871025
1.652254,-0.1512577,-0.2253948,0.654467,-0.001969802,-0.06967759,-0.4914475,0.2482302,0.09884378
1.614345,-0.121962,-0.2049597,0.6168565,0.02717321,-0.04843359,-0.8565124,1.666247,0.1331681
1.300021,0.0009538755,0.02387126,0.302816,0.1499266,0.1811418,-0.8860419,1.872455,0.1741876
1.167704,0.01825753,0.1559452,0.1707443,0.1670547,0.3138942,-0.6376343,0.3254308,0.3627531
1.164261,-0.3350154,-0.1300218,0.1674949,-0.1864105,0.0285331,-0.3090414,-2.115822,0.7457488
1.139311,-0.8012237,-0.5601015,0.1426814,-0.6528225,-0.4010149,-0.03076063,-3.075282,0.9364419
1.199903,-0.7672289,-0.7267569,0.2033494,-0.6190221,-0.5671999,-0.08567127,-1.060796,0.5473469
1.259079,-0.4469089,-0.7718367,0.2625336,-0.2988599,-0.6118449,-0.2247543,2.126025,-0.01577646
1.080859,-0.2627663,-0.6744147,0.08424966,-0.1148179,-0.5139938,-0.3264771,3.353037,-0.2224082
0.7213037,-0.07867822,-0.2997185,-0.2754437,0.06923468,-0.1388484,-0.5011857,2.077685,-0.11162
0.5278142,-0.09281074,0.02056015,-0.4691333,0.05512935,0.1819122,-0.1968975,0.2775822,-0.07295582
0.5820207,-0.2529183,0.1236089,-0.4151678,-0.1048939,0.2854726,0.4075291,-1.170753,-0.2364159
0.7163189,-0.2508672,0.03565519,-0.2811273,-0.1027045,0.1980471,0.4928791,-2.259859,-0.3772572
0.8822458,-0.2919354,-0.197331,-0.1154555,-0.1435802,-0.03440699,0.4085268,-2.073954,-0.5420678
0.952822,-0.170847,-0.3976141,-0.04512076,-0.02224393,-0.2341595,0.3862624,-0.5562542,-0.6681927
0.9244967,0.05230398,-0.5537505,-0.07366868,0.2012081,-0.3897618,0.26216,0.9000608,-0.4412707
0.8942184,-0.01889126,-0.4236654,-0.1041479,0.1303591,-0.2591267,0.3313713,1.181598,-0.1233127
0.812683,-0.033739,-0.1295031,-0.1858587,0.1158915,0.03561255,0.3897628,0.2963019,-0.03051578
0.7868085,-0.004933052,-0.1592178,-0.2118767,0.145101,0.006505179,0.302928,-0.435438,-0.04224406
0.8707846,-0.07691954,-0.1629242,-0.1280053,0.07353235,0.003433331,0.2999536,-0.4386809,-0.0595702
0.9616929,-0.03516022,-0.110056,-0.03715704,0.1157158,0.05695886,0.2606785,-0.2594544,-0.03053795
1.016583,0.004452087,-0.1876816,0.01771914,0.1557513,-0.01999126,0.1532822,0.272576,0.02557999
1.001239,0.04050092,-0.1170102,0.002404664,0.1922145,0.05136964,0.02808351,0.538692,0.1325384
0.9519653,0.07239904,-0.07538467,-0.0467994,0.2245085,0.0936942,-0.02950146,0.3326834,0.3377396
0.9096221,-0.002822992,-0.02749205,-0.08903359,0.1496542,0.1422891,0.07343798,0.1791928,0.4946915
0.9039792,-0.09984996,0.0694285,-0.09452867,0.05295906,0.2399066,0.280198,-0.3970098,0.5088302
1.007371,-0.1752484,0.01397951,0.009050116,-0.02214709,0.1851386,0.5311299,-0.6588257,0.3450036
1.179306,-0.1671903,-0.02757518,0.1812099,-0.01383549,0.144238,0.6274351,-0.3315412,0.1084027
1.270368,-0.1019594,-0.1240872,0.2725257,0.05161218,0.04834519,0.5462774,0.07014441,0.03405499
1.220355,-0.07673096,-0.1843017,0.2227823,0.07702162,-0.01128892,0.4150433,0.7723077,0.02588612
1.13213,-0.08363089,-0.03683086,0.1348294,0.07026621,0.136722,0.2494415,0.9314475,-0.09048378
1.084196,-0.1226861,0.09170542,0.08715944,0.03131789,0.2657552,0.3457774,0.3554844,-0.2442697
1.090427,-0.1777122,0.1103208,0.09363969,-0.02363881,0.2848166,0.7318116,-0.4132774,-0.4698191
1.180454,-0.2167904,-0.1144298,0.1838978,-0.06268276,0.06045151,0.8532518,-1.2427,-0.8282562
1.232985,-0.1834648,-0.4899893,0.2366332,-0.02935396,-0.314786,0.3329481,-1.441444,-1.038832
1.136985,-0.09160948,-0.6269092,0.1408032,0.06247729,-0.4514376,-0.5320808,-0.9473613,-0.9482695
1.06308,-0.06776757,-0.5420445,0.06702647,0.08626912,-0.3663383,-0.8290727,-0.4012492,-0.7561292
1.140547,-0.1188667,-0.5055809,0.1445766,0.03509302,-0.3296522,-0.5649937,-0.01107826,-0.4692027
1.23909,-0.201492,-0.4970699,0.2431542,-0.04763645,-0.3209119,-0.5676432,0.1695234,-0.1652605
1.244274,-0.258138,-0.3153209,0.2483183,-0.1044111,-0.1389121,-0.5263875,0.1367227,-0.01842903
1.198027,-0.1981484,-0.1705614,0.2019895,-0.04456972,0.00612837,-0.2462877,0.221581,0.1882786
1.099081,-0.1257444,-0.2188809,0.1028914,0.02767153,-0.04187797,-0.2143012,0.3144495,0.4895206
0.917058,-0.1251421,-0.238361,-0.0793526,0.02809879,-0.06101395,-0.2471082,0.3372409,0.6661172
0.7604714,-0.1187598,-0.2385087,-0.2362255,0.03429422,-0.06078749,-0.264732,0.719914,0.6946185
0.7030116,-0.1409935,-0.2184341,-0.2940235,0.01186153,-0.0403088,-0.370745,0.9795931,0.5638217
0.6768907,-0.1872732,-0.1402438,-0.3205171,-0.03462847,0.03831404,-0.4212621,0.9186532,0.3897573
0.6398725,-0.1663173,-0.07757822,-0.3579231,-0.01389272,0.1014374,-0.3322279,0.768164,0.2835092
0.6507887,-0.1499206,0.006699968,-0.3473906,0.002276326,0.1861917,-0.1592376,0.2547271,0.1703228
0.7183139,-0.1800458,0.04917108,-0.2802264,-0.02808221,0.2291475,-0.1669617,-0.1403825,0.06485395
0.795341,-0.1824398,0.03293708,-0.2035227,-0.03071359,0.2133946,-0.1747525,-0.170426,-0.029874
0.8641157,-0.179401,0.03480851,-0.1350232,-0.02791379,0.2157314,0.0389814,-0.01277687,-0.07090545
0.860447,-0.1809929,0.02832124,-0.1389122,-0.02974399,0.2096824,0.1912277,0.3133069,-0.04321452
0.8382468,-0.1463729,0.03830692,-0.1612737,0.004640041,0.2200691,0.2196154,0.3959938,-0.07383373
0.8658541,-0.09549607,0.0737723,-0.133765,0.05528427,0.2558884,0.1391302,0.2056739,-0.08809726
0.9111955,-0.04814409,0.09570794,-0.08845643,0.1024057,0.2781211,-0.0125605,-0.1319221,-0.06171278
1.04556,-0.04434719,0.07703248,0.0459412,0.1059708,0.2596756,-0.1916859,-0.476763,-0.0716725
1.233697,-0.09868988,-0.01794707,0.234173,0.05139101,0.1648501,-0.3364938,-0.5743975,-0.01972396
1.437937,-0.1574138,-0.1465522,0.4385556,-0.007577848,0.03631784,-0.3127578,-0.3681636,0.07091861
1.576948,-0.1709061,-0.1807174,0.5777382,-0.02132307,0.00214452,-0.4653565,0.3813666,0.120727
1.420632,-0.1111148,-0.06207446,0.4215954,0.03820851,0.1207017,-0.7418257,1.197393,0.157741
1.208572,-0.06276141,0.08074419,0.209685,0.08629583,0.2633585,-0.6869872,0.9241585,0.2608676
1.213813,-0.1524035,0.05372753,0.2150378,-0.003619834,0.2361008,-0.4116525,-0.4331698,0.498637
1.234434,-0.4272935,-0.2816899,0.235722,-0.2787895,-0.09964007,-0.07197435,-1.300571,0.6796638
1.215085,-0.6993509,-0.7124301,0.2163787,-0.5511232,-0.5307804,0.009324081,-0.2334788,0.5518638
1.187755,-0.6201178,-0.7299373,0.1889913,-0.4721433,-0.5487433,-0.2291352,2.053246,0.09281185
1.006098,-0.3501903,-0.4304237,0.00720787,-0.2024239,-0.2497127,-0.3370533,3.140142,-0.3779814
0.6649101,-0.1483107,-0.1492986,-0.3341732,-0.000693524,0.03092424,-0.3298612,1.751517,-0.3444387
0.4702397,0.05504397,0.1134584,-0.5290888,0.2025727,0.2931954,-0.1612476,-0.5911962,-0.04250048
0.6478627,-0.04415245,0.05961678,-0.3517401,0.1033412,0.2388651,0.2449869,-1.94184,-0.0595839
0.9341866,-0.3212416,-0.1824343,-0.06569708,-0.1737384,-0.003686202,0.5148585,-2.182814,-0.2286194
1.109489,-0.3026236,-0.2499457,0.1093298,-0.1550682,-0.0717132,0.5069678,-1.61761,-0.4715224
1.148288,-0.2633167,-0.4231979,0.1478602,-0.1156634,-0.2454924,0.3889527,-0.3736737,-0.6769673
0.9402506,-0.1499681,-0.4544095,-0.06044432,-0.00216841,-0.2772321,0.363379,0.7390897,-0.4050605
0.7803921,0.0437138,-0.3059663,-0.2205674,0.1917066,-0.1293052,0.4176551,0.591292,-0.07215489
0.8287315,-0.061557,-0.2992554,-0.1724845,0.08666808,-0.1230881,0.4453691,-0.5424257,-0.009934589
0.8089807,-0.1137346,-0.1041316,-0.1924743,0.03475294,0.07157048,0.4794592,-1.051089,0.01726567
0.8941931,-0.051839,-0.09352768,-0.1074748,0.09693403,0.08173815,0.4735545,-0.8972623,-0.02906344
1.122503,-0.05365566,-0.280085,0.1206534,0.09541972,-0.1052288,0.4359069,-0.6701515,-0.01135332
1.162426,0.03746153,-0.1658793,0.1604232,0.1868489,0.008593112,0.3818136,-0.05151728,0.0805741
1.069708,0.05725729,-0.1917722,0.06757469,0.2069574,-0.01765724,0.2788273,0.5121555,0.1701069
0.9822404,0.009556377,-0.1636765,-0.0200076,0.1595597,0.01010718,0.162662,0.6654279,0.3399731
0.9069975,-8.143338e-05,-0.01058348,-0.09535148,0.1502061,0.1628933,0.08838589,0.4080108,0.4458622
0.882764,-0.04736046,-0.06724623,-0.1196703,0.1031851,0.105943,0.1936682,-0.1178714,0.5173637
0.9066337,-0.1395208,0.001733958,-0.09586633,0.01125164,0.1746481,0.4272264,-0.562579,0.5014642
0.9911964,-0.2211397,-0.03155975,-0.01134625,-0.07017264,0.1410842,0.6297762,-0.8492131,0.3161131
1.133045,-0.176326,-0.1644768,0.1304836,-0.02519399,0.007895315,0.6857887,-0.2719358,0.1291952
1.19746,-0.1074496,-0.1412476,0.1948985,0.04382069,0.03084775,0.5054481,0.6331835,-0.01649891
1.207013,-0.07736543,-0.2125898,0.2044623,0.07401783,-0.04077639,0.3048629,0.844678,-0.05057342
1.205741,-0.03685573,-0.1550667,0.2031997,0.1146138,0.01646076,0.192723,0.7689574,-0.09038684
1.053588,-0.07075596,0.04995295,0.051046,0.08077028,0.2211903,0.2216065,0.3058134,-0.2020112
0.9794123,-0.1129867,0.1667186,-0.02314499,0.03856434,0.3376563,0.5702736,-0.222046,-0.2457625
1.072577,-0.1496491,0.2120201,0.06998743,0.00189385,0.3826367,1.028112,-0.512495,-0.3609767
1.114759,-0.2244507,0.06088178,0.1121203,-0.072947,0.2311416,1.166233,-0.9096407,-0.6241529
1.217792,-0.2438776,-0.1957025,0.2150836,-0.09244032,-0.02584574,0.6314968,-1.12302,-0.9957357
1.256289,-0.2147912,-0.4281754,0.2534836,-0.06344171,-0.2587681,-0.1665959,-0.950408,-1.121855
1.164094,-0.1962072,-0.6197183,0.1611548,-0.04496126,-0.4507955,-0.3938832,-0.58713,-0.7720014
0.8809091,-0.3537122,-0.2220072,-0.1309663,-0.2044719,-0.112815,-0.1516067,-0.9602535,-0.1525837
0.9528357,-0.3056772,-0.2503311,-0.05899555,-0.1564821,-0.1402342,-0.08564175,-0.604098,-0.4957841
0.9189173,-0.1628702,-0.3084797,-0.09287427,-0.01365986,-0.19746,-0.1460572,-0.2493678,-0.7005869
0.8509178,-0.008320925,-0.3530096,-0.1608336,0.1409643,-0.2410443,-0.2179172,0.5954923,-0.4984072
0.7243936,0.02978854,-0.2398089,-0.28731,0.1792013,-0.1268691,-0.1147794,0.791177,-0.142166
0.624028,0.01620019,-0.1585781,-0.3876093,0.1657817,-0.04463078,-0.0113086,0.1422467,0.02743317
0.6821317,0.003208988,-0.1311866,-0.3294059,0.1529885,-0.01619918,-0.01088629,-0.2894628,0.06608577
0.7379982,-0.03013913,-0.07011016,-0.2733917,0.1198568,0.04594652,-0.01121357,-0.5882782,0.03876808
0.8206767,-0.02472329,-0.09319126,-0.1905057,0.1254983,0.02395836,-0.0287166,-0.5328859,0.03720189
1.055897,-0.007111809,-0.1753232,0.0449871,0.143337,-0.0570626,-0.03212664,-0.06100613,0.1075141
1.146763,-0.01229126,-0.2077382,0.1361905,0.1383784,-0.0883519,-0.09574815,0.3820289,0.119399
1.009517,0.01610898,-0.175362,-0.0006639101,0.1669859,-0.05483653,-0.30026,0.9022441,0.1803252
0.9101484,0.05668134,-0.1144152,-0.09959107,0.2077441,0.007261938,-0.4240667,0.8815508,0.3348688
0.8412086,0.03688647,-0.02049227,-0.1680439,0.1881052,0.1023458,-0.3575643,0.2910371,0.481909
0.8233979,-0.0290648,0.08719079,-0.18532,0.1222724,0.2111921,-0.1680893,-0.371356,0.5438361
0.9577337,-0.1193443,0.1282661,-0.0503992,0.03206866,0.2534219,0.09664781,-0.9540015,0.3325761
1.132401,-0.1681454,0.08342289,0.124903,-0.01670057,0.2097107,0.244479,-0.7605684,0.05406546
1.313106,-0.1132026,-0.03581234,0.3062855,0.03823199,0.09157286,0.1019551,0.04127758,-0.03533466
1.420116,-0.06951097,-0.1172383,0.4140002,0.08187318,0.0112015,-0.0940208,0.8832312,-0.03777123
1.312695,-0.04125668,-0.05107231,0.30729,0.1100369,0.07837568,-0.1047941,1.045118,-0.0209728
1.154196,0.01850937,0.09363488,0.1494893,0.1696705,0.2240415,-0.1130389,-0.1347196,-0.08995965
1.117569,-0.04125183,0.1368067,0.1135333,0.1097316,0.2681158,-0.2487241,-1.575338,-0.2720579
1.185424,-0.1991514,-0.1129868,0.1820249,-0.04839294,0.01915991,-0.5320566,-2.178679,-0.5700341
1.302199,-0.3303518,-0.5304739,0.2993948,-0.1798626,-0.3975564,-0.7193154,-1.475211,-0.8239356
1.341724,-0.4192166,-0.7217239,0.3394611,-0.2690316,-0.5880902,-0.4863308,0.03733686,-0.7496348
1.243112,-0.3479147,-0.6466522,0.2413252,-0.1980551,-0.5123328,-0.32302,0.9793363,-0.5510685
1.106273,-0.1690776,-0.5429591,0.1048858,-0.01955198,-0.4079574,-0.5008295,1.056433,-0.2420122
1.021861,-0.09333915,-0.3804188,0.02079213,0.0558511,-0.2447169,-0.5681497,0.2641324,0.2691062
1.006454,-0.08696404,-0.2103892,0.005624845,0.06189068,-0.07395596,-0.5388286,-0.3805853,0.5001831
1.035169,-0.1185257,-0.2524583,0.0345021,0.02999189,-0.1152572,-0.6011239,-0.05974443,0.4820412
1.049112,-0.1642731,-0.3302949,0.04853553,-0.01609529,-0.1922877,-0.6790649,0.2056111,0.5728476
0.9981283,-0.17236,-0.3226368,-0.002425969,-0.02452391,-0.1837828,-0.6980922,0.7547483,0.5606933
0.8801428,-0.212885,-0.3207452,-0.1204539,-0.06539059,-0.1809996,-0.6613096,1.602883,0.4644511
0.7123702,-0.2092294,-0.2333462,-0.2883246,-0.06207335,-0.09266107,-0.6380762,1.685231,0.4447139
0.560602,-0.1604245,-0.1003061,-0.4402312,-0.01360011,0.04136677,-0.5933452,1.307794,0.3992609
0.5398857,-0.1695773,-0.003092555,-0.4611053,-0.02307542,0.1396111,-0.5339923,0.7172677,0.3851603
0.6371876,-0.1888896,0.05766858,-0.3639571,-0.04269955,0.2014361,-0.5463935,-0.03444927,0.3003379
0.7404693,-0.2358245,0.0411151,-0.2608043,-0.08993355,0.1859661,-0.5301422,-0.5988144,0.1068097
0.8302516,-0.2467829,0.007175,-0.1711112,-0.101175,0.1531154,-0.366048,-0.5384107,0.03643858
0.9082969,-0.1954633,-0.02861661,-0.09310707,-0.05011846,0.1184069,-0.1787326,0.07642678,0.04161681
0.9111971,-0.1657835,-0.03701396,-0.09019583,-0.02067891,0.1110769,-0.09353226,0.5775018,0.06366887
0.841798,-0.106067,0.03650653,-0.1595298,0.03882087,0.1856404,0.01672081,0.7234416,0.07925167
0.8022452,-0.06999031,0.1013142,-0.1989608,0.07470293,0.2514576,0.09455424,0.2631558,0.0485207
0.8189157,-0.0801165,0.1123999,-0.1821076,0.06440052,0.2635081,-0.1674381,-0.4702042,0.03556507
0.8976478,-0.08469572,0.06715276,-0.1031278,0.05965932,0.2191691,-0.5483244,-0.9518952,-0.01386755
1.117861,-0.1176508,-0.01273981,0.1173993,0.02655293,0.1401178,-0.6009916,-1.12841,-0.06456793
1.41592,-0.126831,-0.08781244,0.4158298,0.01722932,0.06581298,-0.5212658,-0.6893001,-0.03091907
1.571581,-0.1020012,-0.141149,0.5719022,0.04192218,0.01316857,-0.612887,0.353988,0.07377983
1.492693,-0.04944958,-0.08155935,0.4934383,0.09434125,0.07337531,-0.7953301,1.773008,0.2050449
1.335577,0.002593481,0.07151791,0.3367313,0.1462524,0.2269949,-0.8650657,1.94539,0.3392293
1.203902,-0.1020246,0.1393093,0.2054297,0.0414983,0.2952499,-0.5970045,-0.1429881,0.6500259
1.105825,-0.3713474,-0.08769541,0.1076766,-0.2279669,0.06862363,-0.2096658,-1.958195,1.02743
1.135326,-0.6238929,-0.5025122,0.1374472,-0.4806543,-0.3459011,-0.184712,-1.765,1.001476
1.160512,-0.6602462,-0.619401,0.1628426,-0.5171322,-0.4625723,-0.3619595,0.1855366,0.5271557
1.070092,-0.4693087,-0.4769969,0.07257052,-0.3262798,-0.3200029,-0.511016,2.575293,-0.08176404
0.9198741,-0.211442,-0.3773305,-0.07756356,-0.06844152,-0.2202015,-0.8223742,2.956908,-0.3797845
0.6789503,-0.03933379,-0.1627349,-0.3184607,0.1037013,-0.005485896,-0.9482425,1.175883,-0.06581413
0.6386006,-0.1598793,0.05225195,-0.3588281,-0.01674986,0.209612,-0.3384034,-0.9286897,0.1852053
0.8293527,-0.4614145,0.0239097,-0.1681197,-0.3181347,0.1813684,0.4415763,-1.850472,-0.1228016
0.8951999,-0.5461363,-0.06802471,-0.1023275,-0.4026461,0.08951266,0.5175033,-1.497339,-0.3824372
0.9311031,-0.3621106,-0.1780476,-0.06648149,-0.2183396,-0.02045665,0.2623216,-1.006315,-0.5750626
0.9061743,-0.04834241,-0.3046279,-0.09146459,0.09578753,-0.1470084,0.2702115,-0.327515,-0.7331874
0.7930479,0.1280115,-0.2594655,-0.2046373,0.2725749,-0.1018374,0.242641,0.5410543,-0.370169
0.7756575,0.04336605,-0.1356554,-0.2220588,0.1884241,0.02196752,0.2105229,0.4100221,0.01568867
0.7473927,0.0001290418,-0.08337843,-0.2503304,0.1457265,0.07422868,0.3214587,-0.3360195,0.02723969
0.8211869,-0.01457881,-0.04884995,-0.1765084,0.1315891,0.1087295,0.2426242,-0.6209294,-0.02821258
0.9739931,-0.07642057,-0.07666528,-0.02363284,0.07033786,0.08087153,0.1589223,-0.7372089,-0.06303762
0.9556238,-0.03634582,-0.1052683,-0.04188856,0.1110147,0.05220752,0.11288,-0.401777,-0.04204459
0.9355981,0.002002481,-0.06892979,-0.06175724,0.1499687,0.08846432,-0.08940675,0.4177393,-0.02336589
0.9372023,0.03181807,-0.07378757,-0.05995356,0.1803852,0.08350212,-0.1993083,0.6592566,0.07952941
0.8655835,0.06551638,-0.0164908,-0.1313306,0.2146697,0.1406691,-0.2324239,0.4871646,0.2851287
0.8240769,0.02199472,0.07911622,-0.1725516,0.1717092,0.2361167,-0.1438441,0.002225068,0.3427895
0.8589399,-0.03975841,0.09075798,-0.1373561,0.1104833,0.2475626,0.09331843,-0.6533353,0.2937461
0.9724147,-0.1192338,0.1222368,-0.02349907,0.03149506,0.2788002,0.2300174,-0.7309733,0.1815491
1.153272,-0.1450276,0.07519369,0.1577888,0.006145999,0.2314613,0.3165319,-0.3814321,0.0128062
1.373506,-0.09326712,-0.07338065,0.3784925,0.05830895,0.08252931,0.3186669,0.3621775,-0.07820982
1.418405,-0.05639697,-0.1042729,0.4238836,0.09553912,0.05121486,0.2511694,0.926574,-0.03427231
1.23692,0.003800889,-0.02561743,0.2428917,0.1560526,0.1293845,0.2220447,0.4491179,-0.01650816
1.149603,-0.001959199,0.03593081,0.1560506,0.15056,0.190384,0.1257803,-0.689143,-0.2172806
1.184691,-0.1187693,-0.01042468,0.1915869,0.03396513,0.1434155,-0.1441067,-1.609906,-0.4776829
1.219299,-0.1933751,-0.2410116,0.226606,-0.04047873,-0.0878492,-0.6179114,-1.597426,-0.7118445
1.235935,-0.2515671,-0.5437646,0.2436066,-0.09855891,-0.3913379,-0.8076651,-0.890319,-0.8242582
1.178913,-0.295476,-0.6154618,0.1868937,-0.1423995,-0.4638111,-0.5601701,-0.1204079,-0.6049688
1.106954,-0.2397715,-0.4947088,0.1151805,-0.08666148,-0.3438501,-0.5023559,0.2885019,-0.3073539
1.076657,-0.1846051,-0.4764285,0.08506223,-0.03148885,-0.3263541,-0.5407682,0.1298963,-0.1035452
1.086432,-0.205284,-0.4073268,0.09494822,-0.05218313,-0.25801,-0.4117176,-0.2086281,0.1374995
1.109841,-0.2222678,-0.2417843,0.1183989,-0.06919993,-0.09318383,-0.3913407,-0.3427029,0.3471488
1.108697,-0.1962544,-0.2597683,0.1172277,-0.04323279,-0.1118346,-0.4024701,-0.1495427,0.4633795
1.067596,-0.1855467,-0.3116761,0.07602897,-0.03258071,-0.1643545,-0.2850412,0.2384443,0.5860995
0.9595142,-0.1645714,-0.2843636,-0.03221832,-0.01166781,-0.1375949,-0.2038677,0.7304423,0.6375362
0.8548428,-0.1186156,-0.2899498,-0.1371195,0.03422061,-0.1436701,-0.3188368,1.293085,0.5221202
0.7471381,-0.1159095,-0.2190514,-0.2451084,0.03685429,-0.07319316,-0.4905443,1.45909,0.4494409
0.6071237,-0.1068448,-0.08070633,-0.3854466,0.0458406,0.06479884,-0.4760142,0.9983833,0.4051026
0.5678995,-0.1262116,0.02979922,-0.4250144,0.02638803,0.1750158,-0.3958329,0.3078037,0.2977144
0.6172023,-0.1989902,0.1068907,-0.3760532,-0.0464843,0.2518734,-0.3280261,-0.2640841,0.2386214
0.6755173,-0.2192458,0.1179733,-0.3180568,-0.06684009,0.2627632,-0.1280925,-0.4497498,0.1139725
0.7617814,-0.220577,0.06999013,-0.2320716,-0.068275,0.2146132,0.07016468,-0.2805858,-0.041323
0.8385952,-0.1969455,-0.01079745,-0.1554848,-0.04474672,0.1336718,0.09179466,-0.1226334,-0.06898166
0.8388956,-0.1569455,-0.03705126,-0.1553522,-0.004846627,0.1072675,0.09699395,0.2635508,-0.06148131
0.8133132,-0.1575285,0.01676729,-0.1810384,-0.005524896,0.1609319,0.2124382,0.4914586,-0.1234561
0.8310688,-0.1198357,0.05651133,-0.1633183,0.03207767,0.2005115,0.1985904,0.09263379,-0.1923606
0.8226344,-0.05290954,0.06480162,-0.1717161,0.09891728,0.2086192,0.001257849,-0.2537816,-0.1381506
0.8438552,-0.02955763,0.04802389,-0.1503833,0.122183,0.1916324,-0.1049858,-0.8472363,-0.0657826
1.052177,-0.06052076,-0.006911512,0.05812675,0.0911293,0.136454,-0.1883823,-1.227958,0.01421383
1.418408,-0.09592772,-0.1397023,0.4246174,0.0556227,0.003381778,-0.4818009,-0.2230759,0.1695933
1.689258,-0.07369895,-0.250544,0.6957783,0.07773961,-0.1077796,-0.8968557,1.590113,0.2532196
1.595293,0.007543435,-0.1096051,0.6021464,0.1588549,0.03280593,-1.182052,2.976463,0.3564564
1.306057,0.0856862,0.1596422,0.3132318,0.2368503,0.3016692,-1.293619,1.963839,0.6155568
1.065934,-0.03959674,0.2662843,0.07339619,0.1113928,0.4078914,-0.9974162,-0.9552861,0.9764083
0.9629582,-0.4171072,0.1431369,-0.02933456,-0.2663231,0.2842762,-0.1506787,-2.965149,1.181429
1.114237,-0.8102436,-0.216274,0.1221443,-0.6596872,-0.07566042,0.3185526,-3.08081,0.9636901
1.233868,-0.9279469,-0.6450734,0.2419299,-0.777616,-0.5050414,0.2205992,-0.7585363,0.4746777
1.178747,-0.6355528,-0.7601105,0.1869126,-0.4854122,-0.6206967,0.2011162,2.049355,-0.1265599
1.035311,-0.2885738,-0.5547642,0.04352389,-0.1385606,-0.4159759,-0.08461242,2.449957,-0.4050701
0.7367051,-0.1663754,-0.3754426,-0.255092,-0.01641379,-0.2372601,-0.3870129,1.154304,-0.1361968
0.6462964,-0.1255454,-0.1727925,-0.3455587,0.02444101,-0.03517902,-0.1005379,-0.422601,-0.02525247
0.7438516,-0.2122014,0.06186795,-0.2480926,-0.06211813,0.1989549,0.3844428,-1.249213,-0.06426126
0.7496703,-0.3540212,0.003727645,-0.242377,-0.2037725,0.1403262,0.6750197,-1.653716,-0.1004162
0.9085089,-0.3396697,-0.1680882,-0.08364207,-0.1891862,-0.03194741,0.6333935,-1.949967,-0.4420215
0.9867906,-0.2145078,-0.2921569,-0.005456208,-0.0637174,-0.1564466,0.3668451,-1.087791,-0.5626503
0.8662055,-0.03015523,-0.4172356,-0.1261256,0.1210136,-0.2819248,0.09136754,0.008829383,-0.4781476
0.836641,0.04296887,-0.306387,-0.1557593,0.1945802,-0.1714359,0.02810045,0.5241293,-0.4016959
0.7929754,-0.03071624,-0.1526643,-0.1994731,0.1213894,-0.0180252,0.1732688,0.3518849,-0.06010377
0.7820087,-0.06319993,-0.1083651,-0.2104595,0.08943918,0.02601241,0.2112306,-0.1870138,-0.001463189
0.8314559,-0.104692,-0.03222147,-0.1609954,0.0485098,0.1019421,0.2119955,-0.2505505,-0.1217092
0.8620294,-0.1253783,-0.0770324,-0.1303618,0.02840812,0.05695945,0.2360367,-0.5691194,-0.01598844
0.9408392,-0.07712087,-0.1218638,-0.05144468,0.0772663,0.01199252,0.2002897,-0.600705,-0.03461493
0.9688619,-0.0720196,-0.1397662,-0.02326647,0.08297879,-0.006013408,0.120391,-0.07476201,0.008451576
0.9659525,-0.05088478,-0.2163177,-0.02597373,0.1047289,-0.08263839,0.0338722,0.1201138,0.1447754
0.9720213,-0.02226969,-0.124915,-0.01965848,0.1339563,0.008720477,0.1683048,0.3204663,0.2256171
0.9543903,-0.05189655,-0.009531967,-0.0370016,0.1049316,0.124088,0.3852638,0.0392536,0.285279
1.047346,-0.0610478,0.02471827,0.05628096,0.09636549,0.1583458,0.4383078,-0.2286645,0.1243071
1.217563,-0.04808271,0.0464212,0.226858,0.1098928,0.1800712,0.4865646,0.04019041,-0.04195065
1.29157,-0.01457072,-0.05278525,0.3012477,0.1439387,0.08089292,0.4824272,0.200095,-0.03913434
1.236414,0.01577925,-0.1230764,0.2464812,0.1747881,0.01062913,0.3284106,0.4974399,-0.03442904
1.17648,-0.07731132,-0.06756986,0.1869311,0.08215632,0.06615883,0.2525374,0.1697733,-0.1207732
1.216813,-0.2360056,-0.05378649,0.2276275,-0.07612364,0.07995886,0.3748211,-0.492563,-0.3676711
1.316685,-0.3344505,-0.2155301,0.3278327,-0.1741966,-0.0817765,0.4187518,-0.4179711,-0.6674291
1.394373,-0.3867986,-0.5095565,0.4058099,-0.2262074,-0.3758005,0.03819573,-0.3214643,-0.8836765
1.261772,-0.3699348,-0.6415998,0.2734392,-0.2090296,-0.5078352,-0.4820339,-0.1483365,-0.925234
0.9936496,-0.283713,-0.4744927,0.005475644,-0.1225061,-0.3406939,-0.5289529,0.08442846,-0.8335585
0.9669685,-0.2240671,-0.3232993,-0.02111994,-0.06256248,-0.1894226,-0.3144384,-0.114451,-0.6675906
1.095948,-0.1972194,-0.4001657,0.1078739,-0.0354163,-0.2661556,-0.2854135,-0.3303302,-0.2949245
1.17489,-0.1810616,-0.4160491,0.186762,-0.01895734,-0.2818416,-0.2470897,-0.2943338,0.08896838
1.199977,-0.1627296,-0.3387859,0.2117246,-0.0003210293,-0.2043091,-0.170872,0.01524462,0.2753275
1.067842,-0.141624,-0.364785,0.07939061,0.02109134,-0.2299601,-0.210438,0.552575,0.4400479
0.8812484,-0.1738597,-0.2946609,-0.1074755,-0.01083629,-0.1594048,-0.2340414,1.061558,0.5373562
0.7556475,-0.2089075,-0.1919017,-0.2334166,-0.04557553,-0.05612928,-0.2082172,1.214367,0.4507517
0.6297636,-0.2164916,-0.1774714,-0.3596938,-0.05285028,-0.04109908,-0.197436,1.144386,0.3647747
0.5369051,-0.2079589,-0.09484293,-0.4529787,-0.04400591,0.04220765,-0.1691909,1.028241,0.3491851
0.5184525,-0.1538812,-0.041641,-0.4718669,0.01038667,0.09615849,-0.08807521,0.5978048,0.3124833
0.5792886,-0.1457117,-0.006882024,-0.411451,0.01887412,0.1317266,-0.02641001,0.05626706,0.27056
0.6441623,-0.1695685,0.02758681,-0.3469597,-0.004663011,0.1670523,-0.06637906,-0.4037874,0.1894223
0.7318331,-0.1861061,-0.0216728,-0.2596158,-0.02088035,0.1186844,-0.08511313,-0.6362061,0.07014969
0.8950906,-0.2338477,-0.03817067,-0.09661785,-0.06830137,0.1031011,0.04713496,-0.3569157,0.00363218
0.9362017,-0.2180724,-0.03883111,-0.05569363,-0.05220383,0.1033678,0.1788145,0.04773005,-0.05651599
0.8628375,-0.1789974,-0.03482783,-0.1291713,-0.01280343,0.108302,0.1578669,0.3301688,-0.09826016
0.8447797,-0.1601601,0.01067263,-0.1472692,0.006362882,0.1547284,0.1259758,0.37796,-0.09848792
0.826015,-0.1172483,0.04016018,-0.1659989,0.04960642,0.185128,0.1111267,0.05813657,-0.1646937
0.8613558,-0.1219548,0.05925271,-0.1305458,0.04523192,0.2051084,-0.06765332,-0.2807667,-0.2876226
1.029294,-0.1040678,0.05675692,0.03758223,0.06344802,0.2034659,-0.2635449,-0.5322583,-0.3364728
1.232654,-0.03472392,0.01935261,0.2412058,0.133114,0.1668702,-0.2809859,-0.5207404,-0.1950771
1.467977,-0.02757449,-0.06807168,0.4768509,0.1405733,0.08020192,-0.4018896,0.04758105,0.05234684
1.596426,-0.03484696,-0.1086387,0.6056582,0.1335918,0.04033364,-0.7640099,1.085651,0.1987723
1.449028,-0.005633674,0.02168569,0.4586256,0.1630706,0.1712974,-0.9552048,1.869432,0.2620223
1.261254,-0.002238872,0.1934401,0.2711968,0.1666989,0.3436273,-0.8076599,0.9234998,0.4012041
1.1498,-0.1159289,0.2469447,0.1600488,0.05320437,0.397634,-0.4982327,-1.188264,0.6479186
1.090957,-0.3523703,0.04700728,0.1014648,-0.1830814,0.1981123,-0.1277341,-2.085281,0.8033855
1.186187,-0.5815686,-0.4205323,0.1968985,-0.4121574,-0.2691046,0.009546359,-1.160859,0.6488451
1.260603,-0.6782735,-0.8247783,0.2714599,-0.5087567,-0.6731121,-0.1113824,0.8827625,0.2729857
1.179374,-0.542293,-0.8113208,0.1903103,-0.3726652,-0.6594736,-0.2102758,2.476387,-0.02166019
0.9670646,-0.259311,-0.4737514,-0.02199099,-0.08954684,-0.3217472,-0.295786,2.205888,-0.0757913
0.6880446,-0.1305375,-0.1852572,-0.3010726,0.03939787,-0.03309545,-0.04169598,0.7372906,-0.07072484
0.655562,-0.2203461,0.0167122,-0.3336739,-0.05020391,0.1690419,0.5119266,-0.8885181,-0.1818392
0.7612648,-0.3392366,0.1360436,-0.2281284,-0.1688533,0.2885478,0.666032,-1.994905,-0.3194416
0.751918,-0.361928,0.03256698,-0.2376537,-0.191267,0.1852415,0.6421423,-2.106586,-0.4880856
0.8733282,-0.2621317,-0.1712921,-0.116429,-0.09115222,-0.01846173,0.5719908,-1.55666,-0.6264168
0.9569404,-0.07521252,-0.4163948,-0.03300007,0.09612852,-0.2634258,0.1499862,-0.5800613,-0.5255623
0.8068766,0.07885415,-0.5466567,-0.1832387,0.2505951,-0.3935586,-0.05324484,0.5621649,-0.2723166
0.7557229,0.0858888,-0.3245917,-0.2345526,0.2580564,-0.1713598,0.1945848,0.6726252,0.0006865468
0.7792997,0.03317397,-0.0776585,-0.2111123,0.20578,0.07572337,0.3705812,-0.1400173,0.1005477
0.8027792,-0.02189375,-0.05818399,-0.1877359,0.1511489,0.09536618,0.284435,-0.4082306,-0.02261743
0.888995,-0.1135726,-0.06800151,-0.1015821,0.05989494,0.08573075,0.2184685,-0.4949076,0.01428971
0.91064,-0.09517666,-0.06113927,-0.07995326,0.07869761,0.09278279,0.2494875,-0.3761793,0.1081686
0.9059471,0.0204186,-0.09394307,-0.0846146,0.1946769,0.06017095,0.07464863,0.3754201,0.1523429
0.9114527,0.05434912,-0.0966236,-0.07902885,0.2289621,0.05767999,-0.06173168,0.5303982,0.3867057
0.9128736,-0.01429835,-0.02199581,-0.07747882,0.1606314,0.1324909,0.03398523,0.2115449,0.5313852
0.9552858,-0.1415109,0.07107782,-0.03488862,0.03369056,0.2257355,0.2397284,-0.2640983,0.5054513
1.064103,-0.1904493,0.06773108,0.07415412,-0.01502374,0.2225394,0.626635,-0.8126009,0.3884573
1.224741,-0.1457578,-0.04313421,0.2350581,0.0298454,0.1117952,0.7411849,-0.6118428,0.1412144
1.258712,-0.1465835,-0.1474864,0.2693256,0.02915321,0.007528426,0.5227865,0.02785151,0.03379918
1.212763,-0.1556535,-0.176271,0.2236882,0.02017419,-0.0212078,0.351472,0.8022542,-0.07570286
1.211381,-0.1425913,-0.07670558,0.2226186,0.03328627,0.07837069,0.1699676,0.9616505,-0.3644984
1.152665,-0.153998,0.08253872,0.1642042,0.0218898,0.2375925,0.331859,0.2419733,-0.5156844
1.137905,-0.1795354,0.1062475,0.1497235,-0.003675194,0.2612382,0.8246229,-0.4365594,-0.5028841
1.203301,-0.1988186,-0.07517802,0.2153698,-0.02302146,0.07970151,0.9423394,-1.196677,-0.6050614
1.208168,-0.171258,-0.4318257,0.2204499,0.004443617,-0.277108,0.3955268,-1.384763,-0.7973692
1.151478,-0.143501,-0.6846506,0.1639267,0.03207551,-0.5301358,-0.533815,-0.8699893,-0.8232324
1.101796,-0.1944055,-0.6135237,0.114359,-0.01898154,-0.459231,-0.9913793,-0.7239663,-0.7539329
1.176426,-0.2425937,-0.5365937,0.1890462,-0.0673474,-0.3825172,-0.7741286,-0.4382791,-0.605839
1.297008,-0.227769,-0.5713315,0.3096231,-0.05272124,-0.4174425,-0.5700113,0.1859898,-0.2584265
1.286643,-0.2086593,-0.468955,0.2991841,-0.03382623,-0.315206,-0.4492353,0.6496631,0.02990092
1.186155,-0.1684952,-0.3107895,0.198542,0.006110945,-0.1571185,-0.370667,0.7711277,0.2341093
1.016099,-0.09844567,-0.2317617,0.02824788,0.07592306,-0.07809845,-0.3781875,0.519009,0.5259875
0.8316126,-0.1034633,-0.1936148,-0.1565592,0.07065715,-0.03988731,-0.2506389,0.4123445,0.7188035
0.7520717,-0.1495865,-0.2130491,-0.2364946,0.02427332,-0.05918727,-0.2750604,0.5693614,0.6689343
0.7217639,-0.1437184,-0.211688,-0.2672547,0.02986755,-0.05762427,-0.4443985,0.7407522,0.5402526
0.6679687,-0.1433636,-0.1568137,-0.3215417,0.02993507,-0.002483422,-0.3957688,0.8383982,0.437206
0.6064359,-0.1482933,-0.1065476,-0.3835863,0.02470514,0.04810963,-0.3434792,0.7922956,0.2862154
0.6196708,-0.1453296,-0.04309889,-0.3708625,0.02735592,0.1119392,-0.3199986,0.6330842,0.2105661
0.7349393,-0.1836079,-0.02332165,-0.2560848,-0.01124733,0.1321423,-0.3547815,0.3551122,0.166932
0.8306187,-0.2253672,-0.007243037,-0.1608604,-0.05334194,0.1486814,-0.4494534,0.2153157,0.004831369
0.8469247,-0.2355331,0.01854454,-0.1449634,-0.06385046,0.1749529,-0.2273064,0.3468534,-0.07814615
0.7795442,-0.2021654,-0.007862973,-0.2127003,-0.03082849,0.1490418,0.02659632,0.498819,-0.1276728
0.724053,-0.1407967,0.06010365,-0.2684883,0.03019432,0.2175064,0.04602408,0.5532904,-0.1790292
0.808577,-0.1083009,0.1559676,-0.1841939,0.06234516,0.313858,0.1206234,0.3409576,-0.1563518
0.9063702,-0.09524856,0.1522787,-0.08655638,0.0750523,0.3106328,0.1652901,-0.08881756,-0.223751
0.9465312,-0.07121135,0.1185296,-0.0464748,0.09874147,0.2773086,0.02567819,-0.3959288,-0.2618871
0.9942322,-0.03353355,0.04256434,0.001221299,0.1360649,0.2017163,-0.1235563,-0.6452456,-0.1484475
1.078135,-0.03150704,-0.01174433,0.08518937,0.1377263,0.1477192,-0.14439,-0.7972236,-0.005488423
1.312899,-0.08142539,-0.06603536,0.3200802,0.08742732,0.09367276,-0.3260929,-0.2416329,0.05573148
1.60195,-0.1024134,-0.1420019,0.6093021,0.06603963,0.01788203,-0.6744846,0.9823717,0.03998471
1.596371,-0.05774978,-0.04868411,0.6039134,0.1102826,0.1113075,-0.6990465,1.661142,0.1129018
1.307521,0.02176638,0.1561677,0.3152429,0.1893544,0.3161983,-0.5921814,0.7384689,0.2925776
1.110969,-0.001512707,0.2141854,0.1188373,0.165603,0.3741804,-0.4348044,-1.249352,0.5981991
1.119079,-0.2865622,-0.01567162,0.1270486,-0.1199504,0.1442038,0.01040988,-2.239454,0.8244036
1.210377,-0.7126067,-0.4328936,0.2184001,-0.5465249,-0.2732257,0.178624,-0.6252537,0.5493261
1.315008,-0.852056,-0.6652399,0.3230279,-0.6865111,-0.5058572,-0.002652322,2.536123,0.01479924
1.292898,-0.5428762,-0.545229,0.3008502,-0.377846,-0.386186,-0.06927209,3.967029,-0.3560435
1.028588,-0.2107561,-0.3245529,0.0363992,-0.04619399,-0.1658793,-0.1122571,2.25191,-0.4277406
0.6360574,-0.09324035,-0.1043727,-0.3563465,0.07091023,0.05391876,0.002789101,-0.5030966,-0.2493138
0.5345251,-0.1014855,0.1030268,-0.4581549,0.06230872,0.2609282,0.3385447,-2.18661,-0.2065105
0.832095,-0.2277775,0.04890553,-0.1609003,-0.06428933,0.2064043,0.5578271,-2.228355,-0.3164583
1.061152,-0.3034762,-0.1275677,0.06782011,-0.1402462,0.02950828,0.5770122,-1.230431,-0.3906636
1.116726,-0.2589041,-0.2355498,0.1230418,-0.09588287,-0.07891989,0.4189748,-0.451522,-0.5811621
1.087548,-0.1442201,-0.3937194,0.09349559,0.01864352,-0.2375548,0.234423,0.1295943,-0.668294
0.8921199,0.03668392,-0.3727764,-0.1023196,0.199439,-0.2170863,0.147659,0.6729752,-0.3966026
0.6670215,0.08524526,-0.2037619,-0.327819,0.2479323,-0.04854391,0.1668044,0.4724857,-0.04498389
0.5770573,0.0001143412,-0.09645188,-0.4181858,0.1627614,0.05830387,0.2526064,-0.1038151,0.1033063
0.6494856,-0.05173636,0.03035158,-0.3461433,0.1108867,0.1846554,0.2420079,-0.661696,0.06051876
0.7355497,-0.07861864,0.003615086,-0.2604298,0.08398804,0.1574725,0.3518552,-1.135062,0.0574509
0.8497261,-0.08667591,-0.1024682,-0.1465549,0.07591612,0.05094167,0.5482853,-0.9042993,0.1063504
1.043067,-0.05633019,-0.1674027,0.04654086,0.1062444,-0.01444514,0.4734581,-0.2888979,0.100948
1.063024,0.004578432,-0.2500184,0.06630803,0.1671277,-0.09751765,0.3501777,0.4994911,0.1383959
1.013456,0.02515843,-0.1660593,0.01660187,0.1876684,-0.01401612,0.2830609,1.241338,0.2035404
0.9907268,-0.02841173,-0.03312768,-0.006220259,0.1340376,0.1184598,0.2894962,0.9893454,0.2722411
0.9157666,-0.08748954,0.07426302,-0.08123049,0.07487161,0.225395,0.4726013,0.4436723,0.3028371
0.995977,-0.09202553,0.1242322,-0.001028758,0.07021654,0.2749018,0.6228315,0.04677157,0.222493
1.156605,-0.05624023,0.01695659,0.1596292,0.1058501,0.167147,0.6400966,-0.4002346,0.155192
1.234424,-0.05245243,0.01475122,0.2375104,0.1094516,0.1644373,0.4802671,-0.228125,0.1101073
1.234812,-0.06815688,0.03808268,0.2379804,0.09352409,0.1872331,0.3354135,-0.127658,-0.01082097
1.191492,-0.07972024,0.06837733,0.1947505,0.08169913,0.216955,0.4712907,-0.360134,-0.1903345
1.224589,-0.09571409,0.1903163,0.2279317,0.0654041,0.3382775,0.6977552,-0.5543672,-0.3409893
1.264929,-0.136739,0.04935794,0.2683389,0.02403848,0.1966506,0.746771,-1.278698,-0.5080159
1.331113,-0.243736,-0.2711407,0.3345626,-0.08333656,-0.1245741,0.2581345,-1.62132,-0.8627131
1.399724,-0.2899921,-0.5718769,0.4031704,-0.1300029,-0.4260884,-0.5567086,-1.07027,-1.10317
1.245561,-0.1925677,-0.7175309,0.2489486,-0.03301311,-0.5725537,-0.8455211,-0.4312258,-0.853111
1.063375,-0.06494873,-0.5532435,0.06663505,0.09415283,-0.4090833,-0.7604276,0.3438052,-0.4411872
1.046653,-0.01131416,-0.4094596,0.04971412,0.1473172,-0.266096,-0.7113675,0.6885248,-0.03804849
1.047571,-0.08687681,-0.283169,0.05036378,0.07126491,-0.1405633,-0.471958,0.02102864,0.4270846
1.040163,-0.192306,-0.1237959,0.04262048,-0.0346753,0.01810039,-0.3584441,-0.6984292,0.4796142
1.076026,-0.2223807,-0.2005987,0.0780848,-0.06528067,-0.05936055,-0.5210275,-0.7144599,0.2458608
1.104873,-0.233968,-0.3089984,0.1064713,-0.07741354,-0.1683662,-0.4839539,-0.2923337,0.2993574
1.04311,-0.2198649,-0.3569389,0.04418884,-0.06386476,-0.2168569,-0.2247032,0.5295841,0.3021397
0.9048709,-0.1732766,-0.3505926,-0.09462663,-0.01783418,-0.2109984,0.03344428,1.665279,0.2133392
0.732166,-0.160385,-0.184489,-0.267957,-0.005499816,-0.04531369,0.009104261,2.023964,0.2569069
0.5746362,-0.1406164,-0.05062773,-0.4261465,0.01371428,0.08819942,-0.2227633,1.416436,0.1812733
0.550344,-0.09565673,0.06891557,-0.4511113,0.05812311,0.2074604,-0.2386367,0.6716501,0.1642538
0.6254101,-0.08814632,0.1357249,-0.376707,0.06508579,0.274042,-0.1732747,-0.24493,0.1977591
0.7168779,-0.1113026,0.05628645,-0.2858684,0.04138347,0.1944159,-0.1023721,-0.8060136,0.09930295
0.8369431,-0.1330016,0.04077035,-0.1663837,0.01913881,0.1787384,0.02000815,-0.3578384,0.06503167
0.8888507,-0.1300417,0.0189872,-0.1149978,0.02155328,0.1568085,0.1288095,0.2486516,0.04778217
0.8472506,-0.1272861,0.01526887,-0.1570555,0.02376397,0.1529487,0.2786007,0.7058235,0.0154913
0.826357,-0.1439962,0.1222732,-0.1783384,0.006509804,0.259808,0.2441782,0.916261,-0.06061023
0.8119033,-0.127392,0.1634131,-0.1931085,0.02257143,0.3007892,0.129095,0.3583118,-0.158123
0.8226696,-0.1080018,0.1672494,-0.1825809,0.04142083,0.3044404,0.07013928,-0.3252089,-0.1100267
0.9644559,-0.1097706,0.08211518,-0.04095176,0.03911294,0.2190827,-0.05757632,-1.023255,-0.04902672
1.264508,-0.1032477,-0.09091106,0.2590235,0.04509772,0.04578536,-0.06693839,-1.499998,-0.02784511
1.627233,-0.09221997,-0.175377,0.6217384,0.05558748,-0.0390018,-0.2219354,-0.5048475,-0.01587295
1.702352,-0.03730762,-0.1831107,0.6968879,0.1099606,-0.04710367,-0.5483858,1.25963,0.004973251
1.398666,0.002407014,-0.06116188,0.3932417,0.1491318,0.0744354,-0.6510528,2.218579,0.1314815
1.137578,-0.1174374,0.03678932,0.1321745,0.02873596,0.171938,-0.6701924,1.062797,0.3325938
1.1114,-0.4173468,-0.1871045,0.1059855,-0.271733,-0.05244332,-0.4090729,-1.809881,0.6415889
1.252187,-0.7307579,-0.5660812,0.2467223,-0.5857024,-0.4319422,0.01319548,-2.892243,0.8407723
1.357597,-0.7413202,-0.7117267,0.3520363,-0.5967999,-0.5781287,0.006050075,-0.447882,0.4978601
1.167137,-0.4250753,-0.5089854,0.1614248,-0.2810409,-0.3759222,-0.05568821,3.074639,-0.1494115
0.8292663,-0.1931357,-0.2334261,-0.1766583,-0.04951894,-0.1008684,-0.1335683,3.694498,-0.4404476
0.6058907,-0.2061406,-0.05921539,-0.4003025,-0.06286646,0.07287795,-0.4776644,1.136078,-0.2431597
0.6099644,-0.2067053,0.120833,-0.3965357,-0.06369894,0.2525026,-0.3114543,-1.221381,-0.04423377
0.7325339,-0.2034688,0.1962041,-0.2742895,-0.0606569,0.327481,0.2842062,-2.314213,-0.1036289
0.7905566,-0.3052719,-0.02267247,-0.2165875,-0.1625819,0.1082292,0.5641317,-2.218408,-0.188047
0.9319379,-0.2375314,-0.3609534,-0.07551095,-0.09489064,-0.2304182,0.5396932,-1.522659,-0.3539596
1.019281,-0.06269133,-0.4763045,0.01155051,0.07997285,-0.3461243,0.170624,-0.6712871,-0.5799432
